timestamp,rel_time,acc_x,acc_y,acc_z,gyro_x,gyro_y,gyro_z,azimuth,pitch,roll,label
5140179880000,0,-7.4510179453509,-1.49371945190969,5.90902117130574,-0.006414085,-0.005497787,0.0067195175,100.127867874674,22.6710165369191,-31.1624682653786,SIT
5140184844000,0.004964,-7.45149047159251,-1.49324692073396,5.90925743195949,-0.007941248,-0.0036651916,0.0015271631,100.06528,22.551767,-31.270811,SIT
5140189801000,0.009921,-7.45196233149977,-1.49277505589953,5.90949335944953,0.0009162979,0.0021380284,0.007330383,99.94112,22.320845,-31.473337,SIT
5140194793000,0.014913,-7.45243752307876,-1.49229985935858,5.90973095275805,0.003970624,-0.0030543262,0.011301007,99.82919,22.105299,-31.676136,SIT
5140200488000,0.020608,-7.45297963366416,-1.49175774311245,5.91000200522039,0.011911872,-0.004886922,0.009162978,99.72043,21.890326,-31.877502,SIT
5140204842000,0.024962,-7.45339409362709,-1.49134327882173,5.91020923303796,0.00580322,0.0027488936,0.007941248,99.61248,21.680876,-32.07693,SIT
5140209845000,0.029965,-7.45387033230291,-1.49086703517303,5.91044734988942,0.011911872,0.0030543262,0.0106901415,99.50427,21.470098,-32.27059,SIT
5140214795000,0.034915,-7.45434152587582,-1.4903958366799,5.91068294421577,0.0106901415,-0.0076358155,0.01282817,99.39768,21.266397,-32.459557,SIT
5140219810000,0.03993,-7.45481890683909,-1.48991845073182,5.910921632205,0.006414085,-0.004276057,0.009773844,99.29551,21.06599,-32.64836,SIT
5140224833000,0.044953,-7.45529704932732,-1.48944030325082,5.91116070095273,0.0067195175,-0.008552114,-0.0036651916,99.19475,20.869724,-32.827965,SIT
5140229838000,0.049958,-7.45577347838438,-1.48896386921888,5.91139891299382,-0.0027488936,-0.00061086525,0.01282817,99.08942,20.675734,-33.011436,SIT
5140234886000,0.055006,-7.45625400063814,-1.48848334194751,5.91163917161189,0.005497787,-0.0009162979,0.009468411,98.99403,20.486479,-33.1843,SIT
5140239793000,0.059913,-7.45672110101436,-1.48801623669382,5.91187271936127,0.013133603,-0.004276057,0.010995574,98.89411,20.29934,-33.357666,SIT
5140244802000,0.064922,-7.4571979108339,-1.48753942189542,5.91211112178161,0.0009162979,-0.0076358155,0.008857546,98.79773,20.119375,-33.52681,SIT
5140250420000,0.07054,-7.45773269174151,-1.48700463540363,5.91237850944332,0.0018325958,-0.00580322,0.0018325958,98.704025,19.938457,-33.692802,SIT
5140254880000,0.075,-7.45815724191023,-1.48658008080175,5.91259078231111,-0.0027488936,0.0015271631,0.007330383,98.60868,19.763071,-33.85742,SIT
5140259841000,0.079961,-7.45862948257998,-1.48610783520086,5.91282690018041,0.009162978,-0.004276057,0.0036651916,98.51814,19.589529,-34.014084,SIT
5140265669000,0.085789,-7.45918425351795,-1.48555305846996,5.91310428275293,0.0018325958,-0.0012217305,0.0036651916,98.428246,19.422993,-34.17295,SIT
5140269805000,0.089925,-7.45957796192554,-1.48515934595127,5.91330113490117,0.0070249503,-0.012217305,0.008246681,98.33652,19.253735,-34.323692,SIT
5140274791000,0.094911,-7.46005258236081,-1.48468472056001,5.91353844264081,0.0076358155,-0.008246681,0.008246681,98.24997,19.09098,-34.47566,SIT
5140279876000,0.099996,-7.46053662666753,-1.48420067119889,5.91378046226697,0.008246681,-0.0061086523,0.00580322,98.162186,18.929632,-34.621605,SIT
5140284816000,0.104936,-7.46100686833424,-1.48373042462191,5.91401558064519,0.015577064,-0.007330383,0.011301007,98.073135,18.76817,-34.765743,SIT
5140289800000,0.10992,-7.46148129838826,-1.48325598961389,5.9142527931952,0.009773844,-0.00580322,0.009773844,97.988976,18.61407,-34.907272,SIT
5140294787000,0.114907,-7.46195601401414,-1.48278126903102,5.91449014852965,0.01038471,-0.0106901415,0.004886922,97.90425,18.459333,-35.044243,SIT
5140299781000,0.119901,-7.46243139597438,-1.48230588210684,5.9147278370278,0.005192355,-0.0036651916,0.005192355,97.82129,18.309406,-35.182438,SIT
5140304858000,0.124978,-7.46291467875613,-1.48182259427864,5.91496947589545,0.0015271631,-0.0027488936,0.008857546,97.73847,18.161993,-35.314903,SIT
5140309823000,0.129943,-7.46338730018836,-1.4813499679113,5.91520578414401,-0.00030543262,-0.007941248,0.0067195175,97.65863,18.01897,-35.444355,SIT
5140314801000,0.134921,-7.46386115909866,-1.48087610405296,5.91544271112514,0.0015271631,-0.005497787,0.008552114,97.5785,17.877226,-35.5743,SIT
5140319789000,0.139909,-7.46433596991516,-1.48040128827847,5.9156801140544,0.008552114,0.005497787,0.012217305,97.499954,17.737326,-35.702568,SIT
5140324786000,0.144906,-7.46481163744726,-1.47992561577946,5.91591794533699,0.0125227375,0.0009162979,0.0067195175,97.42309,17.601524,-35.82405,SIT
5140329838000,0.149958,-7.46529254046349,-1.47944470774162,5.91615839433431,0.006414085,-0.0021380284,0.012217305,97.344086,17.466358,-35.947903,SIT
5140334827000,0.154947,-7.46576744647062,-1.47896979677552,5.91639584485838,0.009162978,-0.0061086523,0.007941248,97.27037,17.333471,-36.066216,SIT
5140339865000,0.159985,-7.46624701681817,-1.4784902214203,5.91663562752832,0.0067195175,0.004581489,0.009468411,97.19541,17.203568,-36.186428,SIT
5140344851000,0.164971,-7.46672163725343,-1.47801559602904,5.91687293526795,0.0030543262,0.0067195175,0.0036651916,97.12364,17.077766,-36.29976,SIT
5140349793000,0.169913,-7.46719206930138,-1.47754515906884,5.9171081488358,0.007330383,0.004276057,0.010995574,97.04875,16.950472,-36.41391,SIT
5140354832000,0.174952,-7.46767173483955,-1.477065488522,5.91734797910055,0.0009162979,0.0076358155,0.012217305,96.97974,16.830784,-36.52664,SIT
5140359831000,0.179951,-7.46814759275288,-1.47658962563975,5.91758590557276,0.006414085,0.011301007,0.020158553,96.906654,16.707226,-36.638,SIT
5140364816000,0.184936,-7.46862211799753,-1.47611509544011,5.91782316571758,0.0018325958,0.011301007,0.008552114,96.8726239748819,16.6496563370843,-36.6914401215714,SIT
5140369784000,0.189904,-7.46909502500162,-1.47564218349792,5.91805961675058,0.0009162979,0.007941248,0.01282817,96.83871,16.592283,-36.744698,SIT
5140374790000,0.19491,-7.4695715492493,-1.47516565427437,5.91829787638648,0.0076358155,0.004886922,0.0106901415,96.767784,16.473242,-36.85157,SIT
5140379844000,0.199964,-7.46969208464756,-1.47461128238252,5.91984041560411,0.005497787,0.006414085,0.0061086523,96.701126,16.36128,-36.955627,SIT
5140384852000,0.204972,-7.46897219592323,-1.47389138614108,5.92439977183034,0.004276057,0.014049901,0.010995574,96.63325,16.248417,-37.05915,SIT
5140389817000,0.209937,-7.46825848835208,-1.47317767111736,5.92891998022956,0.00580322,0.008552114,0.010995574,96.56879,16.134287,-37.162346,SIT
5140394800000,0.21492,-7.46754219332146,-1.47246136860715,5.93345657609124,0.004886922,0.016798794,0.015882496,96.50447,16.021399,-37.269985,SIT
5140399789000,0.219909,-7.46682503580435,-1.47174420360145,5.93799863444042,-0.004581489,0.005497787,0.008857546,96.44177,15.914369,-37.367527,SIT
5140405848000,0.225968,-7.46595406819637,-1.47087322689879,5.94351483639225,0.004886922,0.007330383,0.009773844,96.37816,15.803137,-37.469875,SIT
5140409971000,0.230091,-7.46536139622944,-1.47028054874315,5.94726847571348,-0.0027488936,0.006414085,0.0067195175,96.31723,15.701806,-37.565296,SIT
5140414795000,0.234915,-7.46466795709082,-1.46958710236361,5.95166031565665,0.004886922,0.013439035,0.0143553335,96.25429,15.594901,-37.662437,SIT
5140419792000,0.239912,-7.46394964959172,-1.46886878736391,5.95620965732248,0.010079277,0.0061086523,0.008857546,96.19569,15.495112,-37.751907,SIT
5140424790000,0.24491,-7.46323119834488,-1.46815032861496,5.96075990940289,0.0106901415,0.010995574,0.019547688,96.13203,15.39227,-37.846867,SIT
5140429885000,0.250005,-7.46249880356643,-1.46741792618881,5.96539847169776,0.008857546,0.009773844,0.0125227375,96.07536,15.29498,-37.93406,SIT
5140434881000,0.255001,-7.46178063981507,-1.46669975493836,5.96994690294901,0.0015271631,0.009468411,0.016493361,96.01271,15.196739,-38.02298,SIT
5140439880000,0.26,-7.46106204482048,-1.46598115244016,5.974498065444,-0.00061086525,0.006414085,0.019547688,95.95299,15.101059,-38.10821,SIT
5140444857000,0.264977,-7.46034661227635,-1.46526571242545,5.9790291988182,0.007330383,0.010995574,0.014049901,95.896416,15.007417,-38.193176,SIT
5140449875000,0.269995,-7.45962528607453,-1.46454437869151,5.98359765919025,-0.004581489,0.005497787,0.009773844,95.83752,14.9196005,-38.27322,SIT
5140454930000,0.27505,-7.45889864120602,-1.46381772623534,5.98819980490183,-0.003970624,0.010079277,0.008552114,95.781876,14.829479,-38.35526,SIT
5140459906000,0.280026,-7.45818335240964,-1.46310242996988,5.99273002786145,-0.002443461,0.0015271631,0.0067195175,95.72636,14.744321,-38.430138,SIT
5140464875000,0.284995,-7.4574690698475,-1.46238813994917,5.99725387791898,-0.0015271631,0.005192355,0.0076358155,95.672935,14.660497,-38.508053,SIT
5140469854000,0.289974,-7.45675334980787,-1.46167241243596,6.00178683212234,0.0076358155,0.005192355,0.015271631,95.61702,14.57522,-38.58154,SIT
5140475280000,0.2954,-7.45597337452468,-1.46089242900823,6.00672674164382,0.0036651916,-0.00061086525,0.018020526,95.56285,14.494913,-38.652523,SIT
5140479921000,0.300041,-7.45530624122403,-1.46022528874134,6.01095197571849,0.004886922,0.0030543262,0.01740966,95.50898,14.412268,-38.724926,SIT
5140484940000,0.30506,-7.45458477127447,-1.45950381125816,6.01552134650512,0.005192355,0.0018325958,0.010079277,95.4559,14.332984,-38.79259,SIT
5140489852000,0.309972,-7.45387868233399,-1.45879771494466,6.01999330293149,-0.0030543262,0.0030543262,0.01160644,95.40134,14.255311,-38.861202,SIT
5140494850000,0.31497,-7.45316023108714,-1.45807925619571,6.02454355501191,0.0030543262,0.004886922,0.013744468,95.34965,14.177161,-38.927628,SIT
5140499800000,0.31992,-7.45244867973222,-1.45736769741074,6.02905010719239,-0.0067195175,-0.002443461,0.010995574,95.29884,14.106315,-38.990196,SIT
5140504834000,0.324954,-7.45172505356643,-1.45664406368881,6.03363313419775,0.005497787,0.007941248,0.011911872,95.24887,14.029691,-39.05723,SIT
5140509835000,0.329955,-7.45100617107633,-1.45592517369211,6.03818611752192,0.005192355,0.007941248,0.0009162979,95.20261,13.961996,-39.11684,SIT
5140514799000,0.334919,-7.45029260725293,-1.45521160241764,6.04270541550654,0.004886922,0.008246681,0.006414085,95.152054,13.88978,-39.17958,SIT
5140519794000,0.339914,-7.44957458724933,-1.45449357491644,6.04725293634321,0.0018325958,-0.0021380284,0.005192355,95.10706,13.822844,-39.236557,SIT
5140524807000,0.344927,-7.44885397978625,-1.45377295992875,6.05181684464236,-0.0015271631,0.008552114,0.008552114,95.06151,13.755466,-39.298985,SIT
5140529843000,0.349963,-7.44813006612497,-1.45304903870832,6.05640169247688,0.005192355,0.0061086523,0.0012217305,95.01806,13.69006,-39.352783,SIT
5140534838000,0.354958,-7.44741204612136,-1.45233101120712,6.06094921331355,0.004886922,0.00061086525,0.011911872,94.968475,13.624138,-39.40932,SIT
5140539803000,0.359923,-7.44669833855021,-1.4516172961834,6.06546942171276,0.0076358155,-0.014660766,0.0076358155,94.92591,13.56149,-39.459408,SIT
5140544843000,0.364963,-7.44597384989793,-1.45089279996598,6.07005791120562,0.004276057,-0.014660766,0.004276057,94.88095,13.4992895,-39.51205,SIT
5140549798000,0.369918,-7.44526157980427,-1.45018052243476,6.07456901545901,0.0033597588,-0.009468411,0.009468411,94.83391,13.436358,-39.561306,SIT
5140554870000,0.37499,-7.44453249122403,-1.44945142624134,6.07918663821849,0.0106901415,-0.003970624,0.0061086523,94.79168,13.375756,-39.608643,SIT
5140559816000,0.379936,-7.44382151486011,-1.44874044245337,6.08368954874064,0.0018325958,-0.013439035,0.006414085,94.74577,13.318326,-39.65307,SIT
5140564796000,0.384916,-7.44310565107273,-1.44802457119091,6.08822341335858,0.0067195175,-0.004581489,0.003970624,94.70524,13.258632,-39.702488,SIT
5140569798000,0.389918,-7.44238662483489,-1.44730553744496,6.09277730709733,-0.0021380284,-0.007330383,0.0033597588,94.66214,13.204502,-39.745415,SIT
5140574795000,0.394915,-7.44166831733579,-1.44658722244526,6.09732664876316,-0.0061086523,-0.010995574,0.0036651916,94.62099,13.149618,-39.78943,SIT
5140579858000,0.399978,-7.44133895152751,-1.44569801533548,6.10010579360455,0.0021380284,-0.007941248,0.0076358155,94.57968,13.094447,-39.833874,SIT
5140584850000,0.40497,-7.44182025232637,-1.4444947457482,6.09914318195533,0.005497787,-0.008552114,0.005192355,94.54026,13.043314,-39.87493,SIT
5140590763000,0.410883,-7.44239035080868,-1.44306947870702,6.09800297308476,0.0061086523,-0.0033597588,0.0061086523,94.4943,12.983775,-39.907154,SIT
5140594800000,0.41492,-7.44277957583372,-1.44209640191939,6.09722451490609,0.014049901,-0.008857546,0.00030543262,94.45093,12.92487,-39.934784,SIT
5140599792000,0.419912,-7.44326087663259,-1.44089313233211,6.09626190325687,0.0106901415,-0.010079277,-0.0021380284,94.40759,12.868657,-39.964607,SIT
5140604832000,0.424952,-7.44374680532375,-1.43967829284495,6.0952900357264,0.0018325958,-0.005497787,0.00580322,94.3632,12.812231,-39.994198,SIT
5140609880000,0.43,-7.44423350533029,-1.43846152504115,6.09431662554906,0.00580322,-0.013744468,0.0012217305,94.323135,12.75772,-40.018055,SIT
5140614835000,0.434955,-7.44471123879551,-1.43726717391836,6.09336114864163,0.011911872,-0.0061086523,0.01038471,94.27804,12.701639,-40.04871,SIT
5140619801000,0.439921,-7.44519003281938,-1.43607017136018,6.09240355059474,0.014660766,-0.007330383,0.005192355,94.238396,12.650063,-40.072563,SIT
5140624791000,0.444911,-7.4456711407894,-1.43486738385207,6.09144132460724,0.005497787,-0.0076358155,0.0009162979,94.19661,12.598922,-40.09902,SIT
5140629849000,0.449969,-7.44615880494017,-1.43364820565246,6.0904659861213,-0.00061086525,-0.005497787,0.004886922,94.15437,12.547017,-40.125504,SIT
5140634852000,0.454972,-7.44664116629769,-1.43244228462979,6.08950125333263,0.0061086523,-0.010079277,0.0021380284,94.11584,12.497388,-40.148632,SIT
5140639832000,0.459952,-7.44712131012348,-1.43124190751748,6.08854095565371,0.020158553,-0.0030543262,0.010079277,94.07398,12.445673,-40.17619,SIT
5140644793000,0.464913,-7.44759962207524,-1.43004611015721,6.08758432176113,0.0106901415,0.0036651916,0.01038471,94.03581,12.400478,-40.20108,SIT
5140649838000,0.469958,-7.44808603283851,-1.42883006547215,6.08661149007636,0.0033597588,-0.0033597588,0.0061086523,93.99625,12.352187,-40.22386,SIT
5140654812000,0.474932,-7.44856559817776,-1.42763113459732,6.0856523493826,0.007330383,-0.004276057,0.009468411,93.95566,12.302951,-40.250244,SIT
5140659923000,0.480043,-7.44905837229295,-1.42639918129993,6.08466679086113,0.014049901,0.0027488936,0.010079277,93.91817,12.256912,-40.275818,SIT
5140664852000,0.484972,-7.44953359898317,-1.42521109720624,6.08371632755604,0.009162978,0.0027488936,0.008246681,93.8987378405316,12.235259731199,-40.2868763675627,SIT
5140669856000,0.489976,-7.45001605675511,-1.42400493514399,6.0827514019365,0.007330383,-0.00030543262,0.010079277,93.87901,12.213278,-40.298103,SIT
5140674966000,0.495086,-7.45050873445587,-1.42277322288618,6.08176603624589,0.00580322,-0.0061086523,0.011301007,93.840126,12.167646,-40.32119,SIT
5140679917000,0.500037,-7.4509860822634,-1.42157983592171,6.08081133066189,0.010079277,-0.0027488936,0.01160644,93.80269,12.123243,-40.3454,SIT
5140684887000,0.505007,-7.45146526194496,-1.42038186920521,6.07985296129157,0.006414085,0.0027488936,0.0067195175,93.76676,12.082455,-40.36786,SIT
5140689841000,0.509961,-7.45194289899576,-1.419187759122,6.078897677215,0.005192355,0.0021380284,0.019547688,93.72452,12.037643,-40.39052,SIT
5140694818000,0.514938,-7.45242275357828,-1.41798810512844,6.07793795802866,0.00061086525,-0.0030543262,0.009162978,93.69296,12.000459,-40.41076,SIT
5140699818000,0.519938,-7.45290482569253,-1.41678290722451,6.07697380373256,0.008246681,0.00030543262,0.007330383,93.654976,11.957663,-40.4344,SIT
5140704813000,0.524933,-7.45338641573466,-1.41557891451849,6.07601061359076,-0.0070249503,0.004581489,0.006414085,93.62041,11.923294,-40.455715,SIT
5140709784000,0.529904,-7.45386569183064,-1.41438070676241,6.07505205138958,0.0015271631,0.0009162979,0.0076358155,93.58566,11.882839,-40.475353,SIT
5140714711000,0.534831,-7.45434072569202,-1.41319310474788,6.07410197374621,0.0018325958,-0.0012217305,0.010995574,93.5515,11.847883,-40.49628,SIT
5140719703000,0.539823,-7.45482202649089,-1.4119898351606,6.07313936209698,0.004886922,-0.0021380284,0.013439035,93.51737,11.811104,-40.516136,SIT
5140724690000,0.54481,-7.45530284521764,-1.41078777077123,6.07217771460205,0.0021380284,0.00061086525,0.004276057,93.48681,11.777758,-40.535397,SIT
5140729757000,0.549877,-7.45579137709822,-1.40956642321539,6.07120064063839,-0.0009162979,0.0027488936,0.0061086523,93.451645,11.741961,-40.554905,SIT
5140734713000,0.554833,-7.45626920697786,-1.40837183105302,6.07024497090009,0.00030543262,0.009162978,0.009162978,93.42049,11.707989,-40.575375,SIT
5140739689000,0.559809,-7.45674896514596,-1.40717241809904,6.06928544454462,0.0030543262,0.002443461,0.012217305,93.38791,11.674608,-40.59258,SIT
5140744681000,0.564801,-7.45723026594482,-1.40596914851176,6.06832283289539,0.00030543262,0.004276057,0.0067195175,93.35923,11.643806,-40.61309,SIT
5140749683000,0.569803,-7.45771253088791,-1.40476346852867,6.06735829293758,-0.008246681,0.007330383,0.0076358155,93.326965,11.612492,-40.632446,SIT
5140754782000,0.574902,-7.45820414803002,-1.40353440770625,6.06637504838642,0.004276057,0.004581489,0.005497787,93.29776,11.579466,-40.649704,SIT
5140759784000,0.579904,-7.45868641297311,-1.40232872772316,6.0654105084286,0.0070249503,0.018020526,0.008552114,93.26862,11.549736,-40.672363,SIT
5140764767000,0.584887,-7.45916684604217,-1.40112762749211,6.06444963225711,0.0018325958,0.010079277,0.004276057,93.24089,11.521412,-40.68732,SIT
5140769764000,0.589884,-7.45964862891315,-1.39992315270693,6.06348605645359,0.0009162979,0.009162978,0.005497787,93.21243,11.490545,-40.70816,SIT
5140774730000,0.59485,-7.46012742293702,-1.39872615014875,6.0625284584067,0.0061086523,0.014660766,0.00030543262,93.18803,11.462056,-40.727417,SIT
5140779783000,0.599903,-7.45935252269885,-1.40073339492929,6.05875891212047,0.00061086525,0.017104227,0.0036651916,93.16003,11.434719,-40.74597,SIT
5140784772000,0.604892,-7.45768234577524,-1.4050281533858,6.05303257664696,-0.005192355,0.015577064,0.0021380284,93.13615,11.408787,-40.763844,SIT
5140789734000,0.609854,-7.45602120769246,-1.40929966901242,6.04733723156386,0.0030543262,0.005192355,0.0076358155,93.10713,11.372712,-40.793507,SIT
5140794730000,0.61485,-7.45434868736567,-1.4136004533878,6.04160286154469,0.004886922,0.018020526,0.013133603,93.08111,11.340151,-40.828384,SIT
5140799822000,0.619942,-7.45264402893812,-1.41798387893612,6.0357583034707,0.0021380284,0.016798794,0.0143553335,93.05254,11.307224,-40.856003,SIT
5140804836000,0.624956,-7.45096548271743,-1.42230015853142,6.03000327319124,0.011301007,0.014660766,0.0061086523,93.02693,11.272794,-40.88595,SIT
5140809831000,0.629951,-7.44929329716252,-1.42660008206124,6.0242700509643,0.008246681,0.012217305,0.0076358155,92.997475,11.240094,-40.915646,SIT
5140814807000,0.634927,-7.44762747227338,-1.43088364952559,6.01855863678988,0.009468411,0.021685716,0.008246681,92.972595,11.206928,-40.94677,SIT
5140819798000,0.639918,-7.445956625806,-1.43518012967321,6.01283000573189,0.009468411,0.029932396,0.008552114,92.9606682534281,11.1909554012611,-40.9622780176159,SIT
5140824798000,0.644918,-7.44428276639167,-1.43948435743079,6.00709104454377,0.012217305,0.03573562,0.0061086523,92.94872,11.174954,-40.977814,SIT
5140829844000,0.649964,-7.44259350747074,-1.44382818408374,6.00129928491271,0.016798794,0.03726278,0.003970624,92.92461,11.142831,-41.007435,SIT
5140834871000,0.654991,-7.44091060921557,-1.44815565467121,5.99552933333417,0.014049901,0.044593163,-0.0030543262,92.90526,11.11365,-41.041344,SIT
5140839793000,0.659913,-7.43926286200811,-1.45239273647577,5.98987989994057,0.020463986,0.054367006,-0.0021380284,92.88441,11.081047,-41.076103,SIT
5140844795000,0.664915,-7.43758833305002,-1.45669868592445,5.98413864316797,0.020463986,0.06780604,-0.007330383,92.86967,11.0534935,-41.112244,SIT
5140849813000,0.669933,-7.4359084477418,-1.46101840890196,5.97837902171957,0.023823744,0.07238753,-0.009162978,92.853645,11.023638,-41.1482,SIT
5140854844000,0.674964,-7.43422421039911,-1.46534932287164,5.97260447897207,0.030848695,0.076052725,-0.009468411,92.84032,10.994289,-41.18656,SIT
5140859925000,0.680045,-7.43252323446227,-1.46972327911889,5.9667725466127,0.030543262,0.071776666,-0.014966198,92.829414,10.967707,-41.222656,CSO
5140864795000,0.684915,-7.43089289539271,-1.47391559695478,5.96118279841546,0.027183503,0.07727446,-0.01985312,92.81984,10.940824,-41.261684,CSO
5140869820000,0.68994,-7.42921066668132,-1.47824134585114,5.9554151424214,0.031154128,0.07880162,-0.027794369,92.81275,10.914661,-41.29705,CSO
5140874808000,0.694928,-7.42754082452958,-1.48253524346211,5.94968995474012,0.03634648,0.08032878,-0.03176499,92.80661,10.88965,-41.333107,CSO
5140879850000,0.69997,-7.42585290469618,-1.48687562673285,5.94390278627802,0.030848695,0.08032878,-0.03023783,92.801445,10.867046,-41.36824,CSO
5140884867000,0.704987,-7.42417335415984,-1.49119448886481,5.93814431262185,0.020158553,0.08582657,-0.031154128,92.79937,10.846185,-41.404118,CSO
5140889797000,0.709917,-7.42252292877732,-1.49543845743378,5.93248569689036,0.032070424,0.076358154,-0.04062254,92.798485,10.823535,-41.43463,CSO
5140894805000,0.714925,-7.42084639118793,-1.49974957195577,5.92673755336433,0.02687807,0.081855945,-0.03756821,92.79531,10.804947,-41.470917,CSO
5140899795000,0.719915,-7.41917587949243,-1.50404519125784,5.92101007009858,0.01740966,0.07880162,-0.043982297,92.79745,10.788833,-41.500206,CSO
5140904893000,0.725013,-7.41746921243358,-1.50843378187947,5.91515862527116,0.026267206,0.074830994,-0.058948494,92.802055,10.77141,-41.52971,CSO
5140909851000,0.729971,-7.41580941343834,-1.51270185412389,5.90946787135702,0.030543262,0.07147124,-0.06780604,92.80655,10.757355,-41.557888,CSO
5140915230000,0.73535,-7.4140086754804,-1.51733234234549,5.90329389691083,0.022907447,0.0693332,-0.074830994,92.81556,10.746804,-41.583817,CSO
5140919799000,0.739919,-7.41247910274759,-1.52126554567037,5.89804963417712,0.027183503,0.09162979,-0.08002335,92.829094,10.734504,-41.614586,CSO
5140924791000,0.744911,-7.41080792150833,-1.52556288666354,5.89231985532689,0.024129177,0.099265605,-0.08552113,92.843636,10.727024,-41.63969,CSO
5140929847000,0.749967,-7.40911531486856,-1.529915321772,5.88651661777346,0.043676864,0.11209377,-0.08827003,92.86151,10.714596,-41.671665,CSO
5140934822000,0.754942,-7.40744982475131,-1.5341980283908,5.88080635139127,0.04917465,0.12858713,-0.084910266,92.88003,10.705875,-41.706192,CSO
5140939814000,0.759934,-7.40577864351205,-1.53849536938396,5.87507657254105,0.054061573,0.14446963,-0.093767814,92.90507,10.696362,-41.74236,CSO
5140944796000,0.764916,-7.40411080999161,-1.54278410192162,5.8693582716132,0.051618114,0.14202617,-0.09315695,92.924934,10.68508,-41.77815,CSO
5140949787000,0.769907,-7.40243996352423,-1.54708058206923,5.86362964055521,0.0571159,0.15149458,-0.08979719,92.94944,10.6726055,-41.820374,CSO
5140954886000,0.775006,-7.4007329616935,-1.55147003353641,5.85777704793556,0.053450707,0.15363261,-0.08735373,92.97286,10.66294,-41.859028,CSO
5140959810000,0.77993,-7.39908454494227,-1.55570883703208,5.85212531895749,0.054061573,0.15088372,-0.089186326,92.9968,10.65174,-41.89803,CSO
5140964809000,0.784929,-7.39741102029983,-1.56001220394411,5.8463875055616,0.055588737,0.14905111,-0.089491755,93.0193,10.640664,-41.9373,CSO
5140969793000,0.789913,-7.39574251723563,-1.56430265817287,5.84066690904928,0.057726767,0.14355333,-0.094989546,93.043564,10.631012,-41.973465,CSO
5140974788000,0.794908,-7.39407033168072,-1.56860258170269,5.83493368682234,0.064751714,0.14721853,-0.09987647,93.06817,10.620262,-42.0109,CSO
5140979833000,0.799953,-7.39979697713183,-1.57254689449741,5.8270738128631,0.07788532,0.15790866,-0.09773844,93.09207,10.607774,-42.048134,CSO
5140985867000,0.805987,-7.41417327981172,-1.57685978830369,5.81557275870991,0.06352998,0.16462818,-0.1001819,93.11919,10.601726,-42.08389,CSO
5140989829000,0.809949,-7.42361294027207,-1.57969168841316,5.80802102245619,0.07391469,0.16340645,-0.11148291,93.17249,10.608668,-42.13538,CSO
5140994796000,0.814916,-7.43544706281285,-1.58324192764681,5.79855371453791,0.06352998,0.17501289,-0.12095132,93.227394,10.623058,-42.19092,CSO
5140999792000,0.819912,-7.4473502792843,-1.58681289507409,5.78903113141737,0.063224554,0.17623462,-0.13561209,93.286804,10.636377,-42.240807,CSO
5141004852000,0.824972,-7.45940597891311,-1.59042960748042,5.77938656164356,0.064751714,0.16920967,-0.12889257,93.3414,10.649053,-42.291172,CSO
5141009862000,0.829982,-7.47134255107524,-1.59401058162187,5.76983729394262,0.054367006,0.1572978,-0.13408493,93.404945,10.669353,-42.337357,CSO
5141015144000,0.835264,-7.48392717665615,-1.59778597192429,5.7597695829653,0.043676864,0.15210545,-0.118507855,93.45748,10.683883,-42.38426,CSO
5141019795000,0.839915,-7.49500841360746,-1.60111034532387,5.75090458414752,0.042455133,0.14538592,-0.10140363,93.50941,10.6991205,-42.42611,CSO
5141024788000,0.844908,-7.50690448243091,-1.60467916845525,5.74138771915135,0.03970624,0.13652839,-0.092240654,93.557144,10.71521,-42.46545,CSO
5141029850000,0.84997,-7.5189649471584,-1.60829731039218,5.73173933729463,0.04795292,0.1432479,-0.09865474,93.604675,10.728814,-42.50638,CSO
5141034822000,0.854942,-7.53081098244584,-1.61185112345232,5.72226249916906,0.035124753,0.14080444,-0.11026118,93.6485,10.746457,-42.541676,CSO
5141039821000,0.859941,-7.5427213465653,-1.61542423517549,5.71273419792415,0.01740966,0.15149458,-0.1282817,93.698616,10.76581,-42.58063,CSO
5141044804000,0.864924,-7.55459358989541,-1.6189859106539,5.70323639334256,-0.004581489,0.16371189,-0.13958271,93.749954,10.789469,-42.6181,CSO
5141049797000,0.869917,-7.56648965871886,-1.62255473378529,5.69371952834639,-0.016798794,0.1695151,-0.1432479,93.80498,10.816479,-42.65509,CSO
5141055761000,0.875881,-7.5806991829454,-1.62681759402074,5.6823518970952,-0.025350908,0.17867808,-0.14019357,93.86259,10.847723,-42.695114,CSO
5141059837000,0.879957,-7.5904104540298,-1.62973097737414,5.67458287211536,-0.01160644,0.17531833,-0.15454891,93.92675,10.880524,-42.730785,CSO
5141064835000,0.884955,-7.60231843559992,-1.63330337433202,5.6650564769119,-0.008857546,0.1572978,-0.1572978,93.98412,10.913927,-42.76499,CSO
5141069797000,0.889917,-7.61414064539402,-1.63685003973918,5.65559869920091,0.024740042,0.16676621,-0.16890424,94.051895,10.9421835,-42.803238,CSO
5141074787000,0.894907,-7.62602956656947,-1.64041671857467,5.64608755232911,0.014966198,0.16584991,-0.1826487,94.1179,10.9793005,-42.83247,CSO
5141079901000,0.900021,-7.63821392386231,-1.64407202830708,5.63634005631661,0.028710667,0.18173242,-0.20830505,94.194664,11.008895,-42.866417,CSO
5141084818000,0.904938,-7.6499289189364,-1.64758652927584,5.6269680504712,0.052534413,0.17928895,-0.23090707,94.27265,11.040099,-42.89348,CSO
5141089814000,0.909934,-7.66183213540786,-1.65115749670312,5.61744546735066,0.058337633,0.17104226,-0.2443461,94.35692,11.074995,-42.921276,CSO
5141094799000,0.914919,-7.67370914383664,-1.65472060171213,5.60794385068614,0.065973446,0.1591304,-0.26083946,94.449196,11.1092825,-42.944733,CSO
5141099787000,0.919907,-7.68559329991342,-1.65828585101703,5.59843651589726,0.06994407,0.15485434,-0.2648101,94.54064,11.142876,-42.967308,CSO
5141104851000,0.924971,-7.69765852973957,-1.66190542248455,5.58878432195763,0.082161374,0.12461651,-0.30879238,94.64836,11.183987,-42.974617,CSO
5141109860000,0.92998,-7.70959271935237,-1.6654856818607,5.57923696029814,0.095294975,0.12522738,-0.3210097,94.747185,11.218129,-42.990902,CSO
5141114800000,0.93492,-7.72136251306113,-1.66901662243131,5.56982111549921,0.111177474,0.11484267,-0.32467487,94.853775,11.255696,-42.99292,CSO
5141119793000,0.939913,-7.73325858188458,-1.6725854455627,5.56030425050304,0.11728613,0.12614368,-0.3387248,94.96985,11.296567,-42.999184,CSO
5141125398000,0.945518,-7.7466127709003,-1.67659170505627,5.54962088813502,0.13072516,0.14355333,-0.35155296,95.08507,11.332692,-43.004013,CSO
5141129838000,0.949958,-7.75719128994218,-1.67976526297804,5.54115806406472,0.13164146,0.17837265,-0.36560285,95.2077,11.372742,-43.01545,CSO
5141134839000,0.954959,-7.76910641916031,-1.68333980423181,5.5316259507369,0.12767084,0.22693644,-0.3915646,95.3415,11.4155445,-43.03334,CSO
5141139792000,0.959912,-7.78090718601041,-1.68688003675129,5.52218532739902,0.12492194,0.29993483,-0.40866885,95.48208,11.458537,-43.066727,CSO
5141144797000,0.964917,-7.79283184542587,-1.69045743706625,5.51264558990536,0.12461651,0.3707952,-0.42638394,95.63601,11.506667,-43.110107,CSO
5141149802000,0.969922,-7.80475650484133,-1.69403483738121,5.50310585241171,0.122478485,0.3924809,-0.46211955,95.80403,11.56227,-43.156113,CSO
5141154920000,0.97504,-7.8169503923315,-1.69769300617481,5.49335073223338,0.113926366,0.39492437,-0.5045747,95.984985,11.623664,-43.21277,CSO
5141159868000,0.979988,-7.82873924643493,-1.7012296648678,5.48391963910279,0.116675265,0.3915646,-0.5195409,96.16877,11.684242,-43.27146,CSO
5141164797000,0.984917,-7.84048283210103,-1.70475274302013,5.47452476075988,0.119729586,0.3662137,-0.54428095,96.367935,11.756207,-43.31896,CSO
5141169788000,0.989908,-7.85237413582581,-1.70832013662092,5.46501170784663,0.124005646,0.33658674,-0.5656612,96.56839,11.828901,-43.361847,CSO
5141174807000,0.994927,-7.86433215093194,-1.71190754365005,5.45544528577257,0.12583824,0.30451632,-0.5714644,96.76683,11.902429,-43.395023,CSO
5141179801000,0.999921,-7.90864351612078,-1.77603205168884,5.43516127430911,0.15057829,0.2855795,-0.57635134,96.96872,11.973579,-43.420948,CSO
5141184836000,1.004956,-8.01557800051177,-1.95699812862504,5.39403265950188,0.17501289,0.2489276,-0.57787853,97.16345,12.043934,-43.432198,CSO
5141190139000,1.010259,-8.12683045979532,-2.13899528128655,5.35576618932749,0.19517145,0.2098322,-0.56382865,97.38237,12.116555,-43.512,CSO
5141194928000,1.015048,-8.20878218339831,-2.18742143768681,5.38929191211826,0.21502456,0.17379116,-0.5656612,97.60162,12.1870165,-43.57888,CSO
5141199768000,1.019888,-8.29160664408707,-2.23636330383366,5.42317466390513,0.24190263,0.13500121,-0.56138515,97.85651,12.284602,-43.661198,CSO
5141204822000,1.024942,-8.38256723241231,-2.29057403347051,5.467536335097,0.25809056,0.11301007,-0.54611355,98.10288,12.377233,-43.73624,CSO
5141209832000,1.029952,-8.47659039231824,-2.34698773305899,5.51924890123457,0.26450464,0.089491755,-0.5439755,98.345146,12.467055,-43.797096,CSO
5141214839000,1.034959,-8.53762680084913,-2.37980445039494,5.544971,0.26297748,0.07941248,-0.5369505,98.58951,12.556327,-43.876404,CSO
5141219826000,1.039946,-8.56592044293049,-2.38923563159558,5.544971,0.26633725,0.08032878,-0.52839845,98.82826,12.641503,-43.9498,CSO
5141224786000,1.044906,-8.57650402876448,-2.40714709669884,5.5061350423166,0.24831672,0.101098195,-0.52595496,99.08112,12.732753,-44.045753,CSO
5141229921000,1.050041,-8.5670107222973,-2.43562785871622,5.42069260756757,0.25259277,0.12186762,-0.5149594,99.32487,12.814367,-44.139877,CSO
5141234835000,1.054955,-8.5334242122449,-2.45542807170068,5.3462296177551,0.24678956,0.160963,-0.50885075,99.58045,12.898865,-44.264095,CSO
5141240892000,1.061012,-8.44886637317784,-2.46670245024295,5.26730902682216,0.23273966,0.16523905,-0.5186246,99.83345,12.984344,-44.379406,CSO
5141244766000,1.064886,-8.38953152795154,-2.4708161,5.22901943077152,0.24190263,0.16737708,-0.5045747,100.09595,13.0649805,-44.532055,CSO
5141249805000,1.069925,-8.30327961890577,-2.4708161,5.20026906127495,0.24862215,0.16187929,-0.4914411,100.359344,13.150209,-44.677063,CSO
5141254704000,1.074824,-8.22399770734535,-2.46618060180209,5.16096549273896,0.258396,0.14996742,-0.49021935,100.63585,13.233336,-44.838547,CSO
5141259800000,1.07992,-8.15199368163136,-2.45075114470439,5.09410435086943,0.26450464,0.116980694,-0.48166725,100.89847,13.311061,-44.9885,CSO
5141264677000,1.084797,-8.12108638990418,-2.48593013336955,5.0260535124963,0.26542094,0.0888809,-0.45112398,101.16248,13.381353,-45.154213,CSO
5141269687000,1.089807,-8.14478478366097,-2.59494284363331,4.95021855349205,0.27397305,0.06658431,-0.41996986,101.4167,13.446776,-45.307045,CSO
5141274666000,1.094786,-8.1736385205439,-2.68187672415016,4.89267532252439,0.2773328,0.03634648,-0.39584067,101.667076,13.505755,-45.47911,CSO
5141279761000,1.099881,-8.21210027342595,-2.73476186027195,4.86382890745886,0.2770274,-0.0012217305,-0.37568212,101.90042,13.558218,-45.638805,CSO
5141284683000,1.104803,-8.236053,-2.77603107463429,4.86253244926858,0.28619036,-0.04642576,-0.364992,102.16449,13.622007,-45.82248,CSO
5141289697000,1.109817,-8.236053,-2.79992304159618,4.91031638319236,0.30940324,-0.083383106,-0.33200526,102.40552,13.674123,-45.994705,CSO
5141294677000,1.114797,-8.24384881893321,-2.81090352492071,4.95410561029313,0.3173445,-0.13775012,-0.3210097,102.66503,13.735034,-46.17319,CSO
5141299683000,1.119803,-8.26688652234503,-2.7970809509851,4.99096593575204,0.33933565,-0.18784106,-0.321926,102.90914,13.7845,-46.337208,CSO
5141304778000,1.124898,-8.28528124214884,-2.76399906069878,5.02900039857619,0.3484986,-0.23945917,-0.31306845,103.14298,13.830377,-46.481495,CSO
5141310570000,1.13069,-8.29088257346259,-2.66877841693426,5.07381005480157,0.3399465,-0.27672195,-0.3051272,103.36967,13.876175,-46.60965,CSO
5141314750000,1.13487,-8.26835183324329,-2.59636670343058,5.11499079909058,0.34147367,-0.30207285,-0.31031954,103.58857,13.913291,-46.730656,CSO
5141319730000,1.13985,-8.18246589050963,-2.50189212158293,5.18369977748064,0.34880406,-0.301462,-0.32253686,103.80277,13.951221,-46.843075,CSO
5141324773000,1.144893,-8.09785486938931,-2.40132955664122,5.2559929840458,0.344528,-0.29718593,-0.33292156,103.99175,13.975751,-46.945038,CSO
5141329787000,1.149907,-8.04287248406489,-2.24096365610687,5.36137611650763,0.33841935,-0.28527406,-0.34605515,104.18522,14.003247,-47.042873,CSO
5141335127000,1.155247,-7.98416515642884,-2.07483060089186,5.46679961374954,0.3295618,-0.2837469,-0.37720928,104.37306,14.0144415,-47.135246,CSO
5141339746000,1.159866,-7.93074099740803,-2.0131872909699,5.43803273578595,0.32162055,-0.2782491,-0.40378192,104.563675,14.029932,-47.22607,CSO
5141344730000,1.16485,-7.87309518477332,-1.94667283835006,5.40699265789669,0.33505958,-0.25900686,-0.44684792,104.73658,14.019852,-47.318348,CSO
5141349727000,1.169847,-7.75808872140251,-2.01112606370028,5.35953122310225,0.3555236,-0.25289822,-0.4538729,104.90121,14.009988,-47.404533,CSO
5141354747000,1.174867,-7.62973879811338,-2.10524929908339,5.3081913699386,0.35613444,-0.23365596,-0.4550946,105.081985,14.011345,-47.490753,CSO
5141359819000,1.179939,-7.56911374083279,-2.21274771495531,5.3416598645629,0.38087448,-0.226631,-0.46517387,105.25358,13.998199,-47.566746,CSO
5141364739000,1.184859,-7.55884169897537,-2.32574028264661,5.43410829490953,0.40103304,-0.21563543,-0.4560109,105.41832,13.983884,-47.646736,CSO
5141369727000,1.189847,-7.69643298087902,-2.41649266909832,5.5193781690077,0.41538838,-0.21471913,-0.43554693,105.60636,13.994425,-47.7056,CSO
5141374747000,1.194867,-7.88812537707295,-2.49926880702311,5.60215444340734,0.43371433,-0.2321288,-0.4071417,105.78335,13.998193,-47.761,CSO
5141380565000,1.200685,-8.08451349414326,-2.49642140759822,5.64419201892816,0.45081854,-0.267559,-0.39736784,105.97295,14.01689,-47.792755,CSO
5141384753000,1.204873,-8.21339683901731,-2.44653111415984,5.64834945655644,0.46395215,-0.2910773,-0.3857614,106.14693,14.027545,-47.823772,CSO
5141389730000,1.20985,-8.31735214853661,-2.40573579022076,5.63885171367496,0.4728097,-0.31642818,-0.37598756,106.32585,14.0401,-47.853195,CSO
5141394733000,1.214853,-8.38914277474778,-2.37701978961143,5.619707580002,0.45570546,-0.3491095,-0.376293,106.496544,14.055914,-47.872177,CSO
5141399725000,1.219845,-8.36053632473386,-2.34631220349094,5.6120086,0.47128254,-0.37690386,-0.40225476,106.64958,14.051533,-47.884678,CSO
5141404899000,1.225019,-8.2607411932483,-2.31304720928359,5.6120086,0.5021312,-0.33200526,-0.43890667,106.81109,14.051178,-47.905403,CSO
5141409851000,1.229971,-8.11535480538662,-2.28109655024616,5.60953194092094,0.5635232,-0.32467487,-0.47036624,106.963524,14.038609,-47.90679,CSO
5141414804000,1.234924,-7.92761559339705,-2.24904357819288,5.60495303370982,0.58246,-0.3036,-0.5216789,107.14536,14.041974,-47.916924,CSO
5141419781000,1.239901,-7.74412171544058,-2.24533150323363,5.60417390379952,0.6072,-0.2947425,-0.5589417,107.32386,14.036127,-47.915306,CSO
5141424794000,1.244914,-7.5655936694422,-2.27637980443816,5.60805486546484,0.6059783,-0.26389378,-0.6035349,107.52981,14.045953,-47.918312,CSO
5141430372000,1.250492,-7.36102102849661,-2.30198866318546,5.62266229303758,0.6267477,-0.21838433,-0.6291912,107.74366,14.053055,-47.916058,CSO
5141434815000,1.254935,-7.14691774953789,-2.24518583438078,5.72315986876155,0.6575964,-0.17623462,-0.65484756,107.97634,14.069677,-47.91575,CSO
5141439965000,1.260085,-6.91141454206426,-2.18177488117958,5.83987530844345,0.6731735,-0.1423316,-0.67073005,108.23177,14.10158,-47.891953,CSO
5141444795000,1.264915,-6.8663746744888,-2.1560378139936,5.95247517894005,0.7104363,-0.10293079,-0.689056,108.50218,14.131168,-47.877655,CSO
5141450534000,1.270654,-6.81285835978578,-2.12545706273473,6.08626620518848,0.7305948,-0.05100725,-0.70463306,108.762276,14.154822,-47.830193,CSO
5141454842000,1.274962,-6.79368158245459,-2.12440062747009,6.16396334625609,0.75777835,-0.018936822,-0.70921457,109.02523,14.173034,-47.788074,CSO
5141459854000,1.279974,-6.87449496386354,-2.23073417132477,6.14269634435977,0.75747293,0.028405234,-0.72204274,109.30485,14.199042,-47.76183,CSO
5141464786000,1.284906,-6.95401842697386,-2.33537045190961,6.12176879979619,0.7635816,0.030543262,-0.7296785,109.56288,14.206744,-47.707222,CSO
5141469853000,1.289973,-6.94539780996016,-2.35055295856574,6.11110898286853,0.7761043,0.04886922,-0.7360926,109.832565,14.217114,-47.669006,CSO
5141474829000,1.294949,-6.92687520481003,-2.3551836219415,6.10184765611699,0.7901542,0.06841691,-0.7528914,110.1069,14.231183,-47.630444,CSO
5141479861000,1.299981,-7.02029733558967,-2.42720262697139,6.09329485635031,0.7858781,0.08093964,-0.7464773,110.40273,14.26257,-47.599957,CSO
5141484953000,1.305073,-7.13514894131193,-2.51227771444522,6.08478729874389,0.7852673,0.06352998,-0.74189585,110.70048,14.2957945,-47.56477,CSO
5141489797000,1.309917,-7.20745416799242,-2.55737013541667,6.01914976515152,0.7779369,0.05681047,-0.75319684,111.00626,14.333092,-47.527878,CSO
5141494789000,1.314909,-7.25272626617424,-2.57547913541667,5.90596940151515,0.7593055,0.06261369,-0.73914695,111.29557,14.367088,-47.493042,CSO
5141499799000,1.319919,-7.26328388444399,-2.61376103389726,5.79442827604704,0.7272351,0.08002335,-0.7489208,111.6241,14.424043,-47.465202,CSO
5141504855000,1.324975,-7.22831982420054,-2.67869433334021,5.68454085702496,0.7257079,0.08368854,-0.75777835,111.94088,14.476335,-47.436436,CSO
5141509807000,1.329927,-7.21629342950327,-2.65322235894431,5.61628886325832,0.72265357,0.110872045,-0.7315111,112.25909,14.536369,-47.43419,CSO
5141514946000,1.335066,-7.22650087017526,-2.53583668463134,5.58566664782744,0.7156286,0.14446963,-0.6927212,112.5722,14.597155,-47.43369,CSO
5141520162000,1.340282,-7.26653435412593,-2.38183460035198,5.65480282667188,0.70616025,0.21655174,-0.6814202,112.91782,14.670988,-47.443283,CSO
5141524796000,1.344916,-7.31860192919437,-2.22563196576066,5.77195494986312,0.69974613,0.30726522,-0.6533204,113.24505,14.733946,-47.47107,CSO
5141529818000,1.349938,-7.41695301372032,-2.13780390735855,5.91368527057559,0.6948592,0.4297437,-0.6435465,113.56303,14.77785,-47.528084,CSO
5141534873000,1.354993,-7.55414758100264,-2.12361137613603,6.06980321282126,0.68508536,0.5925393,-0.6258314,113.883514,14.817042,-47.620956,CSO
5141539859000,1.359979,-7.67374531718919,-2.01756078396069,6.22422039980344,0.6774496,0.75655663,-0.5946773,114.16568,14.812865,-47.754524,CSO
5141544803000,1.364923,-7.77611872086486,-1.81746711878133,6.37778055390663,0.6533204,0.8436049,-0.54733527,114.44332,14.8080225,-47.909275,CSO
5141549784000,1.369904,-7.77599616140765,-1.66336319315836,6.48499868185393,0.61544675,1.0412198,-0.5170974,114.74202,14.789727,-48.129898,CSO
5141554832000,1.374952,-7.64293548628723,-1.56831996720731,6.5325202452079,0.60231316,1.2644911,-0.48563787,115.03508,14.762969,-48.378563,CSO
5141559795000,1.379915,-7.40125210590494,-1.46268683942391,6.45734685583293,0.6041457,1.4065173,-0.42730024,115.25747,14.678803,-48.661446,CSO
5141564815000,1.384935,-6.99504493643783,-1.33805506083533,6.20346716404225,0.6209445,1.4004086,-0.43004912,115.498405,14.604147,-48.95102,CSO
5141569777000,1.389897,-6.52945424370861,-1.36065496715232,5.87424815629139,0.61300325,1.2043208,-0.39584067,115.67228,14.496886,-49.218838,CSO
5141574787000,1.394907,-5.92329043881814,-1.6930672676108,5.37562988425879,0.5412266,0.8906415,-0.39492437,115.83416,14.409479,-49.44061,CSO
5141579850000,1.39997,-5.39528796184724,-1.96449570037515,5.03253582004052,0.49357912,0.54550266,-0.35033122,115.927574,14.301188,-49.6007,CSO
5141584834000,1.404954,-5.01925753957833,-2.12207034995498,4.96807345659514,0.45173484,0.22907446,-0.28619036,115.96092,14.202294,-49.683105,CSO
5141589801000,1.409921,-4.64450972509004,-2.27910752581032,4.90383096878752,0.42363504,-0.06963864,-0.21777347,116.06753,14.195864,-49.653934,CSO
5141594800000,1.41492,-4.62699634937337,-2.14596105143848,5.06274823819658,0.3857614,-0.26389378,-0.1563815,116.11415,14.186542,-49.575058,CSO
5141599821000,1.419941,-4.76723054043509,-1.88444337258611,5.32047568932766,0.33261612,-0.43463063,-0.1133155,116.095116,14.174458,-49.430977,CSO
5141604837000,1.424957,-4.92714741565833,-1.66257240142493,5.568257956854,0.29260445,-0.45234573,-0.04917465,116.13296,14.208481,-49.24373,CSO
5141609824000,1.429944,-5.18567683832192,-1.63976094558191,5.7659570555644,0.24831672,-0.45937067,0.0067195175,116.13209,14.245313,-49.021717,CSO
5141614775000,1.434895,-5.4423399968556,-1.61711416036459,5.96222901018946,0.18936823,-0.43157628,0.038789943,116.004776,14.200662,-48.823357,CSO
5141619787000,1.439907,-5.67667315362113,-1.61377518969007,6.0821050495098,0.13744467,-0.40653083,0.0693332,115.85807,14.15169,-48.63172,CSO
5141624850000,1.44497,-5.89902203605313,-1.62144238425047,6.15877723529412,0.05497787,-0.41599923,0.083383106,115.70804,14.11648,-48.44326,CSO
5141629840000,1.44996,-6.10788840375231,-1.6405860722699,6.2239222830557,-0.02565634,-0.45631635,0.1020145,115.5237,14.054337,-48.27707,CSO
5141636255000,1.456375,-6.28362437653542,-1.76980368820461,6.21358488241629,-0.082161374,-0.52106804,0.12064589,115.33303,14.000955,-48.106483,CSO
5141639951000,1.460071,-6.38487459561669,-1.84425237230355,6.20762899266364,-0.103847094,-0.57451874,0.14263703,115.12744,13.937287,-47.95326,CSO
5141644868000,1.464988,-6.50112163115596,-1.98917757244037,6.22164494137248,-0.118202426,-0.59773165,0.115453534,114.9341,13.89052,-47.79154,CSO
5141649832000,1.469952,-6.6127735586422,-2.14967708157798,6.24257965045138,-0.115453534,-0.6658431,0.13041973,114.705826,13.831668,-47.61418,CSO
5141655094000,1.475214,-6.73043514837482,-2.30598658918204,6.27363946814159,-0.092240654,-0.6786713,0.1441642,114.53202,13.795109,-47.4587,CSO
5141659868000,1.479988,-6.82874879040609,-2.27951756056571,6.40976606460177,-0.09437868,-0.643852,0.2171626,114.3309,13.74739,-47.310005,CSO
5141664881000,1.485001,-6.93198429260607,-2.25172341719461,6.55270754513274,-0.10751228,-0.60903263,0.2452624,114.20706,13.739411,-47.161922,CSO
5141669854000,1.489974,-7.01292082073717,-2.38087397547734,6.62246912832476,-0.12186762,-0.5870415,0.25228736,114.06997,13.721264,-47.02928,CSO
5141674792000,1.494912,-7.07965969852233,-2.60857074690354,6.64602411799768,-0.12980886,-0.5757405,0.25350907,113.931404,13.699986,-46.90922,CSO
5141679828000,1.499948,-7.10695232502512,-2.75441804772394,6.66972984542082,-0.16126843,-0.52778757,0.26816985,113.77472,13.665859,-46.811523,CSO
5141684821000,1.504941,-6.96282499441224,-2.53637938325991,6.69190325715279,-0.18387043,-0.5684101,0.2556471,113.62089,13.637837,-46.693752,CSO
5141689879000,1.509999,-6.81682138170647,-2.31550224229075,6.71436532735915,-0.21135938,-0.52442783,0.29932398,113.53671,13.651077,-46.612854,CSO
5141694858000,1.514978,-6.69976898112629,-2.25956365501839,6.50525962712384,-0.2932153,-0.5647449,0.3567453,113.435974,13.677978,-46.50179,CSO
5141699791000,1.519911,-6.60046796763006,-2.30507660693642,6.1535690867052,-0.36102137,-0.64599,0.3717115,113.33694,13.706433,-46.39443,CSO
5141705966000,1.526086,-6.36470637539006,-2.3148818521115,5.59739772748076,-0.39767328,-0.7309003,0.3811799,113.1408,13.683902,-46.272736,CSO
5141709844000,1.529964,-6.12906362211358,-2.28397781437487,5.1570160166424,-0.4392121,-0.79504114,0.36102137,112.94593,13.67847,-46.136806,CSO
5141714795000,1.534915,-6.12408192512423,-2.57441307223111,4.94979767735198,-0.44532076,-0.8155051,0.33964106,112.806465,13.690903,-46.02289,CSO
5141719794000,1.539914,-6.57568955571465,-3.37682322263118,5.28850335819085,-0.41447207,-0.8353582,0.3830125,112.64418,13.693967,-45.9001,CSO
5141725326000,1.545446,-6.993846193729,-4.11164570694289,5.67018796259798,-0.38087448,-0.9242391,0.34238997,112.550186,13.734969,-45.769142,CSO
5141729878000,1.549998,-6.8020650668693,-3.71064855045593,6.02934196413374,-0.37048978,-0.8127562,0.3857614,112.43461,13.746488,-45.70248,CSO
5141734903000,1.555023,-6.59035589233723,-3.26798363144297,6.42581579052152,-0.36010507,-0.85154617,0.37110063,112.51657,13.926271,-45.516563,CSO
5141739813000,1.559933,-6.47003691847703,-2.86491472480732,6.63103463498099,-0.35613444,-0.86254174,0.4196644,112.573784,14.078277,-45.38239,CSO
5141744797000,1.564917,-6.42589166730038,-2.48232273574144,6.67517998859316,-0.36774087,-0.8384125,0.43768495,112.64496,14.236555,-45.246826,CSO
5141749784000,1.569904,-6.40443853016986,-2.31269670927474,6.93870779158803,-0.37232238,-0.9120218,0.37018433,112.552155,14.292149,-45.043655,CSO
5141754843000,1.574963,-6.40008438931428,-2.30398833663162,7.37412687840388,-0.36468655,-0.9388999,0.4016439,112.42778,14.322062,-44.876106,CSO
5141759801000,1.579921,-6.47841676577139,-2.26737023107433,7.66049769081824,-0.33475417,-0.86254174,0.45173484,112.228386,14.288212,-44.723972,CSO
5141764798000,1.584918,-6.71256205725588,-2.17769769795961,7.68540674224443,-0.2770274,-0.6979135,0.48533243,112.036896,14.244645,-44.594715,CSO
5141769795000,1.589915,-6.94060998449859,-2.01574108443299,7.67312628547329,-0.25411993,-0.5928447,0.46303585,111.806496,14.194664,-44.417416,CSO
5141774890000,1.59501,-7.1646865564761,-1.75050746536082,7.60910405304592,-0.27183503,-0.6383542,0.3585779,111.60182,14.152567,-44.2427,CSO
5141779834000,1.599954,-7.36606264126733,-1.69898998586139,7.39777760657426,-0.28344148,-0.59498274,0.39828414,111.35621,14.053258,-44.162693,CSO
5141784818000,1.604938,-7.53146659992079,-2.12903980463366,6.83540490708911,-0.28619036,-0.5494733,0.4156938,111.15703,13.983287,-44.0616,CSO
5141790071000,1.610191,-7.64348028604797,-2.5008061429072,6.35333582776031,-0.25411993,-0.63255095,0.3707952,110.89776,13.851518,-43.985157,CSO
5141794797000,1.614917,-7.61908332473273,-2.67158325870991,6.14189757680352,-0.23090707,-0.7706065,0.3979787,110.60924,13.706467,-43.91531,CSO
5141799914000,1.620034,-7.59902405093729,-2.8384803948882,5.9370333285026,-0.22876903,-0.7770206,0.47433686,110.47974,13.643919,-43.91779,CSO
5141804836000,1.624956,-7.66644889222314,-2.75331219381917,6.06833430206279,-0.19150625,-0.82619524,0.453262,110.354744,13.585045,-43.865364,CSO
5141809880000,1.63,-7.7355449709403,-2.66603295647821,6.20288978979899,-0.12889257,-0.9654725,0.41050145,110.22628,13.559696,-43.7708,CSO
5141814804000,1.634924,-7.77823512040939,-2.4706259154124,6.43183187025888,-0.09896017,-0.91751957,0.4569272,110.092155,13.519417,-43.72211,CSO
5141819803000,1.639923,-7.78303899588601,-2.10073492747341,6.81613403318282,-0.06169739,-0.8527679,0.4596761,109.97719,13.482958,-43.63541,CSO
5141824796000,1.644916,-7.81508863851699,-1.88871197569516,7.09127515097837,-0.028710667,-0.9392053,0.37598756,109.83084,13.420221,-43.51859,CSO
5141829913000,1.650033,-7.89079072749743,-1.91899286398558,7.202305092276,-0.02443461,-0.97249746,0.35124752,109.6795,13.344544,-43.44136,CSO
5141834900000,1.65502,-7.97783863135464,-1.93221773412481,7.33273206003044,-0.021380283,-0.87017757,0.36682457,109.46268,13.193905,-43.368755,CSO
5141839857000,1.659977,-8.07899714388635,-1.9274006668899,7.48687811094876,-0.008857546,-0.82558435,0.3222314,109.27111,13.061153,-43.267002,CSO
5141845110000,1.66523,-8.21515440915759,-2.15816829269554,7.40281811659331,-0.006414085,-0.8744536,0.24404067,109.078926,12.940019,-43.159096,CSO
5141849805000,1.669925,-8.36096948675778,-2.56089550314261,7.12160353123311,-0.016798794,-0.8362745,0.2556471,108.88984,12.812909,-43.093174,CSO
5141855758000,1.675878,-8.52334626459627,-3.05162266223603,6.77572760496894,-0.02107485,-0.7339546,0.23060162,108.72901,12.703229,-43.009144,CSO
5141859802000,1.679922,-8.43013269254658,-3.20497349704969,6.6374111878882,0.06505715,-0.7275405,0.21868975,108.556335,12.575052,-42.914352,CSO
5141864970000,1.68509,-8.31101109503106,-3.40094706636646,6.46065074192547,0.098043874,-0.77854776,0.19272798,108.50345,12.574954,-42.82601,CSO
5141869856000,1.689976,-8.21689814192452,-3.53277811223393,6.28344495797348,0.1301143,-0.8304713,0.22204952,108.43613,12.548755,-42.745037,CSO
5141874846000,1.694966,-8.15840197191432,-3.55877653821149,6.08195754688881,0.110872045,-0.8341365,0.22815818,108.38788,12.53631,-42.66172,CSO
5141879877000,1.699997,-8.09942517205032,-3.58498857851071,5.87881462801768,0.13988814,-0.8744536,0.23273966,108.3751,12.55624,-42.538338,CSO
5141884875000,1.704995,-8.063671,-3.50943923734928,5.77577785717087,0.1695151,-0.8848383,0.24281894,108.36086,12.576817,-42.42663,CSO
5141889861000,1.709981,-8.063671,-3.27539372863445,5.827267923831,0.18173242,-0.9275989,0.2510656,108.33745,12.593782,-42.298916,CSO
5141894854000,1.714974,-7.95860166778584,-3.04391045872382,5.92296997669302,0.19058995,-0.92087936,0.2171626,108.33841,12.630257,-42.186783,CSO
5141899845000,1.719965,-7.65477719670768,-2.81798951462798,6.10214854429142,0.22602014,-0.895223,0.18417588,108.33337,12.65627,-42.07271,CSO
5141904911000,1.725031,-7.34638714051015,-2.58867364550566,6.2840196369489,0.23976462,-0.9239337,0.13652839,108.28548,12.652053,-41.948944,CSO
5141909826000,1.729946,-7.1297400159379,-2.51595438635863,6.39890371982363,0.21991149,-0.8741482,0.14752395,108.24118,12.642711,-41.8592,CSO
5141914879000,1.734999,-6.91636532412273,-2.45816549145692,6.51003629928348,0.20708331,-0.8503244,0.13775012,108.216835,12.642686,-41.752216,CSO
5141919794000,1.739914,-6.67055077088056,-2.23433496146469,6.71142125283348,0.21868975,-0.8503244,0.12370021,108.14144,12.599758,-41.617058,CSO
5141924754000,1.744874,-6.40701217628596,-1.94067760519933,6.95237103170326,0.2489276,-0.8491027,0.09987647,108.07804,12.560214,-41.49094,CSO
5141929791000,1.749911,-6.15005366247783,-1.71655611156755,7.09187562872748,0.25717425,-0.8371908,0.06627888,108.0145,12.52209,-41.33694,CSO
5141934954000,1.755074,-5.93770430721688,-1.841195877173,6.73180503943609,0.24281894,-0.80756384,0.048258353,107.958145,12.4850235,-41.19239,CSO
5141939838000,1.759958,-5.7615860240524,-1.96662551479652,6.42585633153656,0.22815818,-0.79901177,0.04734206,107.81977,12.391265,-40.99431,CSO
5141944854000,1.764974,-6.1071778135939,-2.25547833532696,6.84881953059165,0.21991149,-0.75777835,0.07360926,107.68829,12.299085,-40.819977,CSO
5141949825000,1.769945,-6.40868897618867,-2.52402801920882,7.2164157845873,0.25045475,-0.75228053,0.08582657,107.60206,12.2444725,-40.636246,CSO
5141954876000,1.774996,-6.52644624952453,-2.71538349231647,7.35257245416508,0.2910773,-0.73945236,0.07971791,107.520706,12.1888685,-40.472176,CSO
5141959893000,1.780013,-6.64341085857741,-2.90545088661088,7.48781260686192,0.33964106,-0.6924158,0.06566802,107.466896,12.1540165,-40.302216,CSO
5141964848000,1.784968,-6.81464313762536,-3.28910175369352,7.66411084799957,0.3631594,-0.67164636,0.04337143,107.419014,12.11932,-40.13349,CSO
5141969849000,1.789969,-7.0315664877386,-3.83141050649197,7.87586951823574,0.39370266,-0.6872234,-0.0033597588,107.38792,12.080954,-39.97009,CSO
5141974840000,1.79496,-6.92304599655959,-3.88774479108303,7.77168205236089,0.39950588,-0.61758476,-0.01282817,107.3888,12.079905,-39.82819,CSO
5141979931000,1.800051,-6.67058190356328,-3.73369892352115,7.52777619219765,0.43493605,-0.5842926,-0.02076942,107.40137,12.074469,-39.67413,CSO
5141984804000,1.804924,-6.50531886958976,-3.6953048126082,7.31510541437712,0.47708577,-0.5531385,-0.03268129,107.508255,12.145564,-39.51683,CSO
5141989855000,1.809975,-6.44159918338351,-3.80909023133233,7.12394588050433,0.52442783,-0.57360244,-0.07666359,107.62555,12.2135515,-39.356228,CSO
5141994797000,1.814917,-6.33872580732792,-3.83797114200471,7.00182877676001,0.56199604,-0.49480084,-0.06963864,107.71841,12.250848,-39.229156,CSO
5141999847000,1.819967,-6.13199273745093,-3.66077134265027,7.03980003646515,0.6044512,-0.49174652,-0.057421334,107.814,12.283492,-39.077404,CSO
5142005328000,1.825448,-5.89703530089843,-3.47164617124199,7.08123541647949,0.64996064,-0.5137377,-0.06383542,107.94618,12.334549,-38.93088,CSO
5142009840000,1.82996,-5.61665745892189,-3.34224102784294,7.11718146689127,0.66614854,-0.54183745,-0.105374254,108.08422,12.386705,-38.785484,CSO
5142014858000,1.834978,-5.30483653448964,-3.19832369416022,7.15715870114799,0.70707655,-0.5342017,-0.10598512,108.16575,12.390109,-38.62649,CSO
5142019787000,1.839907,-5.1810527,-3.01850895221816,7.19295147482478,0.7470882,-0.48533243,-0.08368854,108.25439,12.39408,-38.475006,CSO
5142024855000,1.844975,-5.1810527,-2.80680951954593,7.22732996866612,0.78984874,-0.50854534,-0.0842994,108.34398,12.393381,-38.30903,CSO
5142031095000,1.851215,-5.1810527,-2.54615354877349,7.26965865879436,0.8005389,-0.50610185,-0.11056661,108.42216,12.366875,-38.12209,CSO
5142034842000,1.854962,-5.1810527,-2.38963465093946,7.2950762232031,0.79259765,-0.54153204,-0.15393804,108.50017,12.33969,-37.922237,CSO
5142039874000,1.859994,-5.1810527,-2.17943900271399,7.32921051306293,0.75716746,-0.5308419,-0.15607607,108.57735,12.315089,-37.742134,CSO
5142044870000,1.86499,-5.21663238501594,-1.99168063995749,7.39056733390011,0.75502944,-0.5558874,-0.17623462,108.6684,12.297172,-37.543003,CSO
5142049880000,1.87,-5.36567437659609,-1.87009363676939,7.53960953025423,0.7626653,-0.50854534,-0.13988814,108.74806,12.276428,-37.37613,CSO
5142054915000,1.875035,-5.51546009068912,-1.7478999120085,7.68939545014306,0.77671516,-0.5207626,-0.112399206,108.7244,12.154824,-37.192795,CSO
5142059846000,1.879966,-5.73207068670767,-1.89221496883246,8.06316999859141,0.7779369,-0.5525276,-0.12156218,108.70484,12.0370455,-37.021687,CSO
5142064911000,1.885031,-5.9726545692094,-2.10874052839996,8.50584456748338,0.79045963,-0.54702985,-0.11636983,108.674515,11.908856,-36.86522,CSO
5142069839000,1.889959,-5.94086703438496,-2.05570915776848,8.4640363327919,0.8035932,-0.623388,-0.1441642,108.60918,11.752363,-36.682198,CSO
5142074913000,1.895033,-5.83158134138814,-1.92517330425439,8.28492891928531,0.78984874,-0.5717699,-0.13897185,108.544945,11.595877,-36.54371,CSO
5142079842000,1.899962,-5.72541871214469,-1.79836778159555,8.11093986899481,0.8179486,-0.5849035,-0.12370021,108.498695,11.451346,-36.349342,CSO
5142084869000,1.904989,-5.54415223661349,-1.68743409625216,7.92649652315972,0.82619524,-0.5900958,-0.099265605,108.454636,11.315051,-36.177883,CSO
5142089878000,1.909998,-5.3090492908226,-1.59062706038824,7.73749221401115,0.8176431,-0.59895337,-0.076052725,108.406136,11.176954,-36.008034,CSO
5142094828000,1.914948,-5.05475415221435,-1.44098887358725,7.56200202469442,0.8164214,-0.6743952,-0.074830994,108.32655,11.010837,-35.825684,CSO
5142100922000,1.921042,-4.71358218294951,-1.18769459737821,7.36040041385297,0.8127562,-0.59437186,-0.036957346,108.24109,10.840693,-35.693165,CSO
5142104875000,1.924995,-4.87995035210191,-1.25917728339703,7.63833506734607,0.8399397,-0.602924,-0.0021380284,108.14089,10.656061,-35.502323,CSO
5142109905000,1.930025,-6.24531645942675,-2.05180537755839,9.20825018284501,0.8472701,-0.6936375,-0.06169739,108.06261,10.489977,-35.312004,CSO
5142114793000,1.934913,-6.98090754077789,-2.29619186713657,9.79639066191482,0.84635377,-0.5992588,0.016187929,107.91282,10.259859,-35.16421,CSO
5142119802000,1.939922,-6.57988926637628,-1.51948288781855,8.56800834415699,0.8155051,-0.6026186,0.01740966,107.79782,10.061584,-34.960285,CSO
5142124873000,1.944993,-6.19868418464971,-0.785236909825971,7.42599361588577,0.7663304,-0.70616025,-0.019242255,107.73797,9.937945,-34.772053,CSO
5142129901000,1.950021,-6.10915527112896,-0.663477697376171,7.47612979848282,0.7199047,-0.6462954,-0.081855945,107.70037,9.828058,-34.632607,CSO
5142134878000,1.954998,-6.0205344671129,-0.542953512737617,7.52575743984828,0.68936145,-0.6401868,-0.10293079,107.54304,9.606689,-34.515945,CSO
5142139831000,1.959951,-5.99249757171738,-0.49354289239126,7.55049747331019,0.67103547,-0.657291,-0.11178834,107.408615,9.405971,-34.40995,CSO
5142144842000,1.964962,-6.06109572631203,-0.557241287706759,7.53579785779048,0.66156703,-0.70921457,-0.13500121,107.28715,9.220178,-34.297184,CSO
5142149793000,1.969913,-6.08770763615593,-0.641454805975395,7.57824232177664,0.65576386,-0.7110472,-0.17806722,107.15263,9.018319,-34.183426,CSO
5142154879000,1.974999,-6.05657959346541,-0.758185031072056,7.70275465505672,0.659429,-0.7189884,-0.19272798,107.0157,8.819758,-34.058105,CSO
5142160692000,1.980812,-6.01953452507518,-0.871735041791969,7.84004876537237,0.66553766,-0.7275405,-0.23487769,106.92387,8.641699,-33.92983,CSO
5142164856000,1.984976,-5.98073607020166,-0.787083750336105,7.89648289829294,0.6826419,-0.72143185,-0.24220806,106.828156,8.460785,-33.808765,CSO
5142169890000,1.99001,-5.93383130991509,-0.684745949858482,7.96470802440297,0.6750061,-0.6994407,-0.26358834,106.779305,8.316979,-33.66494,CSO
5142174849000,1.994969,-5.9575496982827,-0.637264622712461,7.94518200805812,0.6649268,-0.66798115,-0.30695978,106.74309,8.177998,-33.529037,CSO
5142179928000,2.000048,-6.01752041011889,-0.615846468530163,7.88092776021136,0.6618725,-0.63041294,-0.33108896,106.71065,8.042908,-33.405636,CSO
5142184999000,2.005119,-5.95169328900469,-0.647460017342366,7.95055619124544,0.6563747,-0.60139686,-0.36254853,106.675934,7.901923,-33.284016,CSO
5142189857000,2.009977,-5.71895144548202,-0.749284568187598,8.19784383355915,0.66859204,-0.5766568,-0.4251622,106.66281,7.769684,-33.173466,CSO
5142194846000,2.014966,-5.61246487142547,-0.894330099613408,8.40699211691884,0.7272351,-0.59650993,-0.48441613,106.66436,7.623055,-33.05936,CSO
5142199844000,2.019964,-5.65404744986607,-1.0849164133121,8.56639188033012,0.83260936,-0.6621779,-0.44532076,106.65312,7.460025,-32.944355,CSO
5142205119000,2.025239,-5.69793462499095,-1.28606543387244,8.73462592434663,0.93615097,-0.6817256,-0.49327368,106.71021,7.3259773,-32.786892,CSO
5142209899000,2.030019,-5.90567560420643,-1.46534472029211,8.96019090038948,0.9807441,-0.67164636,-0.51159966,106.742424,7.1737123,-32.627903,CSO
5142214821000,2.034941,-6.17647263781889,-1.64893589540409,9.21721850720545,1.0076222,-0.7089091,-0.52870387,106.78692,7.0122914,-32.453587,CSO
5142219796000,2.039916,-6.38123190723933,-1.74135423225284,9.37329297622906,1.0384709,-0.77579886,-0.5723807,106.89247,6.888453,-32.25623,CSO
5142224850000,2.04497,-6.55119822075905,-1.78384581916532,9.47461905497029,1.074512,-0.75319684,-0.6053675,107.00167,6.7614636,-32.0795,CSO
5142229902000,2.050022,-6.72109727416261,-1.82632059104538,9.57590503633171,1.0989466,-0.7501425,-0.64996064,107.141335,6.667696,-31.886227,CSO
5142234898000,2.055018,-6.4014367291042,-2.03132219362819,9.58343840873313,1.1233811,-0.75777835,-0.6743952,107.28367,6.5703483,-31.70205,CSO
5142239832000,2.059952,-5.88340071045727,-2.30140931664168,9.55244510307346,1.1316279,-0.7110472,-0.7257079,107.44996,6.4850445,-31.537312,CSO
5142244787000,2.064907,-5.46182002306893,-2.46063131725572,9.49032881197025,1.169807,-0.6627888,-0.7473936,107.62789,6.38515,-31.380222,CSO
5142249827000,2.069947,-5.11446363413561,-2.53010263534304,9.40155996821526,1.2290609,-0.63041294,-0.79504114,107.82975,6.2926764,-31.233723,CSO
5142255110000,2.07523,-4.7229692581759,-2.61138626690554,9.33602698925081,1.2974777,-0.5439755,-0.8371908,108.099625,6.2496033,-31.054398,CSO
5142259853000,2.079973,-4.16073264771987,-2.74947945863192,9.48891561156352,1.4086553,-0.48288897,-0.84299403,108.3687,6.1850467,-30.882137,CSO
5142264872000,2.084992,-3.67540512138007,-2.82244571878897,9.68103834197035,1.5225816,-0.4474588,-0.806953,108.67274,6.1185284,-30.682722,CSO
5142269866000,2.089986,-3.57931459653596,-2.63689156247748,9.97925044686158,1.6077974,-0.4083634,-0.786489,108.98156,6.0373483,-30.505789,CSO
5142274768000,2.094888,-3.48499426157683,-2.45475570460025,10.2719688565886,1.6536123,-0.39767328,-0.7263188,109.306564,5.9469147,-30.258512,CSO
5142279853000,2.099973,-3.52908613415141,-2.26797025883943,10.4671613478577,1.6694947,-0.42271876,-0.6282749,109.60818,5.8368406,-30.019272,CSO
5142284915000,2.105035,-3.86685777017471,-2.08648102943012,10.4369130552205,1.6142114,-0.44623706,-0.56505036,109.89793,5.7322803,-29.78931,CSO
5142289775000,2.109895,-4.18705938008506,-2.06210714318602,10.8059772422337,1.5668694,-0.46792278,-0.4801401,110.1129,5.5492115,-29.519068,CSO
5142294792000,2.114912,-4.51134005861686,-2.2664483564534,11.7965879741124,1.5057828,-0.5671884,-0.43310347,110.31394,5.382883,-29.226488,CSO
5142299783000,2.119903,-4.74126480338516,-2.44783726860854,12.6201639460736,1.4150693,-0.5665775,-0.3885103,110.45503,5.1951647,-29.002438,CSO
5142304836000,2.124956,-4.66031039303287,-2.55736365414289,12.9058846923834,1.3671165,-0.5702427,-0.3659083,110.583336,5.0125275,-28.75579,CSO
5142309818000,2.129938,-4.53466703227695,-2.61373553130697,12.9366546823313,1.3176364,-0.50915617,-0.32559118,110.71516,4.866607,-28.505575,CSO
5142314811000,2.134931,-4.23078793360649,-2.46979267290743,11.9930298710595,1.3435981,-0.4025602,-0.29443705,110.84196,4.7141633,-28.275126,CSO
5142320910000,2.14103,-3.87137328795617,-2.28478728647042,10.8280481441174,1.409877,-0.37965274,-0.2669481,110.97345,4.574029,-28.016659,CSO
5142324796000,2.144916,-3.93012178471539,-1.94266350727087,9.78439751211812,1.496009,-0.44684792,-0.28771752,111.10878,4.426173,-27.769054,CSO
5142329836000,2.149956,-4.00631643825796,-1.49894146734144,8.4308207789024,1.5641204,-0.37690386,-0.24220806,111.206,4.240454,-27.597607,CSO
5142334821000,2.154941,-4.11082185816135,-1.16132710262664,8.06774969793621,1.636508,-0.28771752,-0.25137106,111.32489,4.045798,-27.41568,CSO
5142339811000,2.159931,-4.23036733229697,-0.875272064745823,8.20437262565889,1.7507398,-0.1994475,-0.24953845,111.42647,3.8200881,-27.259497,CSO
5142344773000,2.164893,-4.26798862494981,-0.622101530593634,8.35546146840646,1.8390098,-0.14538592,-0.24587326,111.445045,3.5361695,-27.227432,CSO
5142349848000,2.169968,-4.18900579013479,-0.408383383834241,8.53201140866074,1.8723019,-0.101098195,-0.22876903,111.45952,3.2421167,-27.219582,CSO
5142354900000,2.17502,-4.11038090708345,-0.195633811927158,8.70776122110697,1.8698585,-0.10629055,-0.20005837,111.42799,2.878849,-27.219545,CSO
5142359874000,2.179994,-4.03296994740465,0.0138310278720964,8.88079755663894,1.822211,-0.116980694,-0.14813483,111.3832,2.5214562,-27.231903,CSO
5142364790000,2.18491,-3.97941406890372,0.208665279259395,8.94525662942306,1.7837266,-0.1142318,-0.093767814,111.330475,2.161921,-27.24184,CSO
5142369856000,2.189976,-4.00159385714547,0.368359856503612,8.65248333199232,1.7308867,-0.10415252,-0.06963864,111.270096,1.82314,-27.251883,CSO
5142374874000,2.194994,-4.02307233490308,0.522679593311288,8.36685211489168,1.7220291,-0.07238753,-0.043676864,111.1685,1.3877338,-27.224636,CSO
5142379839000,2.199959,-4.0366266999829,0.614849541937286,8.15269258615736,1.715615,-0.05467244,-0.046120327,111.06901,0.97412133,-27.19756,CSO
5142384832000,2.204952,-4.05025750458381,0.707539280807298,7.93732530982896,1.690875,-0.07086037,-0.09468412,110.95173,0.5497192,-27.194695,CSO
5142390635000,2.210755,-4.06609959533067,0.815265808879133,7.68701962095781,1.6783522,0.03573562,-0.029321533,110.79943,0.117649235,-27.233088,CSO
5142394787000,2.214907,-4.09200563401709,0.868994543649573,7.72808052894017,1.7366899,0.07422013,-0.008552114,110.6768,-0.30595806,-27.247597,CSO
5142399805000,2.219925,-4.1330794651282,0.918283183871795,7.92523500405128,1.7666223,0.10903945,0.021380283,110.53031,-0.72091895,-27.29147,CSO
5142404852000,2.224972,-4.16515264214548,1.00771307249389,8.08509916564792,1.7837266,0.084910266,0.03176499,110.35039,-1.1656983,-27.357344,CSO
5142409840000,2.22996,-4.16150284235941,1.24860252616137,8.09604852689487,1.7852536,0.05222898,0.067500606,110.15217,-1.6132312,-27.429138,CSO
5142414771000,2.234891,-4.15789475038967,1.48673923346577,8.10687276512836,1.7980819,0.059864793,0.12156218,109.95916,-2.0829203,-27.490952,CSO
5142419815000,2.239935,-4.2256029475344,1.68033235273318,8.2696303119266,1.7947221,0.0036651916,0.1441642,109.76629,-2.5406468,-27.524336,CSO
5142424872000,2.244992,-4.34593722018349,1.83769252568807,8.54423933027523,1.7889189,-0.05681047,0.17715092,109.553535,-3.0006874,-27.55706,CSO
5142429827000,2.249947,-4.46384434317661,1.9918787343081,8.81330946788991,1.7571539,-0.07666359,0.19120082,109.301506,-3.5077984,-27.580013,CSO
5142434814000,2.254934,-4.62417964290049,2.12105342044903,8.96603536468447,1.733941,-0.118507855,0.20738874,109.041855,-4.0106463,-27.578714,CSO
5142439863000,2.259983,-4.83934399317354,2.21885537927791,8.9709255621966,1.6969837,-0.17959438,0.21960606,108.78228,-4.4939203,-27.566132,CSO
5142444840000,2.26496,-4.89780877766025,2.32310338667822,8.91185233409319,1.7037032,-0.26267207,0.17501289,108.5169,-5.011389,-27.527647,CSO
5142449819000,2.269939,-4.78476468453542,2.43614761600255,8.78141678964165,1.6789632,-0.22693644,0.19028452,108.23047,-5.5105214,-27.50479,CSO
5142454896000,2.275016,-4.71250985097538,2.50251827368084,8.69057716810575,1.6994271,-0.23884831,0.20189096,107.94022,-6.0159407,-27.47416,CSO
5142460628000,2.280748,-4.7534713792133,2.4381503149984,8.70813183818356,1.7146988,-0.27397305,0.18967366,107.65661,-6.5021963,-27.448242,CSO
5142464859000,2.284979,-4.69994751570946,2.45185674442568,8.63211603209459,1.7140878,-0.3005457,0.14202617,107.38196,-7.0101647,-27.41458,CSO
5142469853000,2.289973,-4.52886664247814,2.546901585781,8.42776943213434,1.6869044,-0.23976462,0.15851954,107.09224,-7.511477,-27.395048,CSO
5142474753000,2.294873,-4.38545108517312,2.61211993600815,8.26694881995927,1.7296649,-0.22510384,0.15760323,106.83997,-8.001947,-27.36163,CSO
5142479915000,2.300035,-4.27671308207739,2.63225657209776,8.1662656395112,1.7712038,-0.19822577,0.14477506,106.58597,-8.475959,-27.3497,CSO
5142485271000,2.305391,-4.16410993504274,2.65596776837607,8.0624432051282,1.7876972,-0.16340645,0.1282817,106.3266,-8.974411,-27.333073,CSO
5142489846000,2.309966,-4.07829223004808,2.80809930817308,8.00393110576923,1.7971655,-0.15271631,0.11484267,106.072845,-9.470284,-27.318462,CSO
5142494852000,2.314972,-3.98438984071403,2.97456280286681,7.93990671901709,1.7974709,-0.12156218,0.13225232,105.81546,-9.975193,-27.306452,CSO
5142499851000,2.319971,-3.99597381937397,3.18656490121911,7.94447054892916,1.7965547,-0.10903945,0.13836098,105.56853,-10.469166,-27.294096,CSO
5142504931000,2.325051,-4.05608511624382,3.42300320731466,7.98053729357496,1.8115209,-0.110872045,0.14385876,105.317345,-10.959933,-27.285885,CSO
5142509871000,2.329991,-4.11367479450281,3.66261993095617,7.97256980575188,1.7941113,-0.0983493,0.16676621,105.04606,-11.4832535,-27.268198,CSO
5142514860000,2.33498,-4.16944983436273,3.93135268332803,7.8458092852807,1.7941113,-0.102319926,0.17592919,104.78098,-12.003691,-27.246315,CSO
5142519769000,2.339889,-4.22278612374794,4.13382405502726,7.78645033138709,1.7767016,-0.105374254,0.17654006,104.46746,-12.557194,-27.225866,CSO
5142524849000,2.344969,-4.27521749486497,4.23251852947889,7.84196586860023,1.7663169,-0.10751228,0.21471913,104.142746,-13.108015,-27.201593,CSO
5142530205000,2.350325,-4.33049749953087,4.33657514466844,7.90049760429187,1.7605137,-0.16615535,0.23182335,103.79239,-13.692946,-27.171429,CSO
5142534853000,2.354973,-4.36165568661545,4.45901418990093,7.93487806050344,1.7235563,-0.17989981,0.23609942,103.43452,-14.259547,-27.151361,CSO
5142539852000,2.359972,-4.33745713061059,4.70100000262839,7.91551926623534,1.720502,-0.21594086,0.2507602,103.07929,-14.825908,-27.10738,CSO
5142544822000,2.364942,-4.31243411967528,4.91015682126937,7.91008615043542,1.6978999,-0.25473082,0.28069258,102.709724,-15.394314,-27.058504,CSO
5142549846000,2.369966,-4.28402742258303,5.02023292081181,7.94914521062731,1.6627752,-0.29718593,0.30298916,102.346756,-15.948334,-26.999048,CSO
5142554829000,2.374949,-4.25585254766052,5.12941070823616,7.98788551654613,1.6377298,-0.35216382,0.321926,101.96221,-16.542084,-26.914936,CSO
5142559774000,2.379894,-4.21771817175614,5.21262566418562,7.98365799373976,1.5873333,-0.38087448,0.3390302,101.57918,-17.111258,-26.826374,CSO
5142564851000,2.384971,-4.16905228566879,5.27456381687898,7.93941667388535,1.5738943,-0.42119157,0.3494149,101.20562,-17.673355,-26.720884,CSO
5142569766000,2.389886,-4.12239339501755,5.32422759363562,7.8967929620378,1.5522085,-0.46853364,0.35185838,100.83032,-18.24334,-26.588741,CSO
5142574821000,2.394941,-4.07538219710167,5.35315743377904,7.85339805078061,1.5528195,-0.5012149,0.34666604,100.46404,-18.80393,-26.452791,CSO
5142579825000,2.399945,-4.02884529613804,5.38179540016434,7.81044095168447,1.5418239,-0.5174029,0.35735616,100.10368,-19.369905,-26.299866,CSO
5142584874000,2.404994,-3.92680644701158,5.46281143382518,7.77479230948823,1.536326,-0.5103779,0.36254853,99.75439,-19.924002,-26.149551,CSO
5142589858000,2.409978,-3.79753922982817,5.56979121581995,7.74358971404557,1.5286902,-0.5119051,0.364992,99.41225,-20.464224,-25.995937,CSO
5142594854000,2.414974,-3.6786453533848,5.65830894174584,7.74562068349169,1.5323554,-0.47525316,0.37201694,99.06764,-21.011868,-25.849121,CSO
5142599852000,2.419972,-3.56968925017815,5.72936750219715,7.7787814043943,1.520749,-0.48380527,0.39003745,98.73106,-21.544302,-25.69245,CSO
5142604896000,2.425016,-3.43871397485495,5.78423140092438,7.74803724977874,1.5015068,-0.5122105,0.40439278,98.39348,-22.098011,-25.521904,CSO
5142609978000,2.430098,-3.28556046601436,5.82251956573901,7.652316337988,1.4947872,-0.52687126,0.4297437,98.05294,-22.644575,-25.35328,CSO
5142614831000,2.434951,-3.18382906527713,5.8499857873735,7.55111553070281,1.4978416,-0.54428095,0.45631635,97.73072,-23.204735,-25.153135,CSO
5142619799000,2.439919,-3.13082279763253,5.86765463550274,7.43626834072974,1.5015068,-0.5500842,0.47708577,97.40962,-23.754524,-24.95452,CSO
5142624757000,2.444877,-3.09592170768212,5.89453091496689,7.33408356582781,1.5091426,-0.5525276,0.49205196,97.09491,-24.323835,-24.733244,CSO
5142629861000,2.449981,-3.10517052266793,5.94539930081362,7.26009314251656,1.5189165,-0.5381723,0.52106804,96.77505,-24.88785,-24.515291,CSO
5142634923000,2.455043,-3.11092158109113,5.99474832149721,7.19482575686609,1.5231925,-0.52503866,0.54519725,96.45924,-25.461115,-24.294931,CSO
5142639790000,2.45991,-3.10369742027278,6.0380933241243,7.16231699546652,1.5152513,-0.5225952,0.5687156,96.14101,-26.026249,-24.076553,CSO
5142645649000,2.465769,-3.09500081903286,6.09027297696838,7.12318224448233,1.518611,-0.52503866,0.5876524,95.807655,-26.60258,-23.860075,CSO
5142649844000,2.469964,-3.09133655180317,6.08267618088979,7.11753986879002,1.5103643,-0.5216789,0.61269784,95.47104,-27.166597,-23.646439,CSO
5142654844000,2.474964,-3.08810881334681,6.0536262314459,7.12076764095046,1.5079209,-0.52564955,0.63316184,95.13795,-27.72383,-23.433136,CSO
5142659792000,2.479912,-3.08491464337041,6.02487840147624,7.12396184428042,1.4972308,-0.5531385,0.6575964,94.80978,-28.288406,-23.210339,CSO
5142664789000,2.484909,-3.10118862464005,5.964774007823,7.11641602058937,1.4856243,-0.58368176,0.66706485,94.48731,-28.841782,-22.99003,CSO
5142669793000,2.489913,-3.12878829279132,5.88657486000192,7.10261592233634,1.4804319,-0.61544675,0.68416905,94.16688,-29.387318,-22.763092,CSO
5142674781000,2.494901,-3.18763199581625,5.80987807394707,7.0719718787924,1.4630222,-0.636827,0.6969972,93.873985,-29.914085,-22.534914,CSO
5142679960000,2.50008,-3.27544109148341,5.73131208415952,7.02575659068207,1.4422529,-0.65270954,0.6973027,93.58963,-30.428684,-22.305338,CSO
5142684853000,2.504973,-3.33993180192902,5.66997909776196,6.98013699213409,1.4107933,-0.68233645,0.6765333,93.333786,-30.91419,-22.079538,CSO
5142689858000,2.509978,-3.38032762138777,5.62509466644817,6.9307644176421,1.3836098,-0.7021896,0.66645396,93.08083,-31.38698,-21.856464,CSO
5142694817000,2.514937,-3.41194042739835,5.57467443533154,6.88880793150413,1.351234,-0.72387534,0.6731735,92.840126,-31.825907,-21.648666,CSO
5142699791000,2.519911,-3.4214115484243,5.50837668704643,6.86513012893926,1.3136657,-0.7528914,0.6612616,92.61563,-32.244057,-21.444927,CSO
5142704866000,2.524986,-3.41154013162712,5.4684694597422,6.8328827218569,1.2980887,-0.77396625,0.6609562,92.40269,-32.649593,-21.25135,CSO
5142709828000,2.529948,-3.34939907662993,5.50397839566598,6.77961899353634,1.2635747,-0.79809546,0.63591075,92.20822,-33.027954,-21.06206,CSO
5142715718000,2.535838,-3.25744396747812,5.54912853703023,6.7113653117673,1.2205088,-0.8213083,0.6389651,92.02411,-33.38917,-20.87112,CSO
5142719799000,2.539919,-3.15684069939693,5.58649563411047,6.65387765711554,1.1844677,-0.83169305,0.6414085,91.85153,-33.732746,-20.687578,CSO
5142724759000,2.544879,-3.03456865585791,5.63191116989042,6.58400782935942,1.171945,-0.86467975,0.6398814,91.70059,-34.08731,-20.482439,CSO
5142729853000,2.549973,-2.91702563687151,5.70034199289962,6.52161379275545,1.1588113,-0.8924741,0.6301075,91.55476,-34.42434,-20.28347,CSO
5142734930000,2.55505,-2.8118792650838,5.80110722202199,6.47342163515949,1.1365148,-0.9254609,0.6432411,91.41328,-34.751163,-20.07843,CSO
5142739858000,2.559978,-2.7179103263115,5.90639866882305,6.42495431951617,1.110553,-0.9425651,0.66675943,91.281105,-35.10548,-19.840303,CSO
5142744791000,2.564911,-2.65798521487723,6.04337042872157,6.36930965938208,1.0913107,-0.9816604,0.66614854,91.16409,-35.446712,-19.599018,CSO
5142750242000,2.570362,-2.59291993627871,6.19118920842351,6.31155111075905,1.0732902,-1.0210613,0.68294734,91.04098,-35.81565,-19.323923,CSO
5142754852000,2.574972,-2.55511219396652,6.2633674167536,6.31842523267419,1.0760391,-1.0626001,0.6985244,90.928535,-36.176594,-19.048143,CSO
5142759822000,2.579942,-2.51435200323083,6.34118210122227,6.32583616237446,1.0809261,-1.1169671,0.6918049,90.82454,-36.565674,-18.747435,CSO
5142764793000,2.584913,-2.46734974184847,6.43502634250403,6.33643838535196,1.0803152,-1.1557571,0.69027776,90.72321,-36.94754,-18.446524,CSO
5142769790000,2.58991,-2.41077720386889,6.55331454245029,6.35186727399248,1.0891727,-1.1982121,0.66859204,90.64158,-37.321316,-18.146969,CSO
5142774784000,2.594904,-2.39926425190318,6.62263587928809,6.33460092984338,1.1004738,-1.2052372,0.67103547,90.56108,-37.712437,-17.833672,CSO
5142779834000,2.599954,-2.42680829888942,6.65018016595159,6.28869415290935,1.1291844,-1.2076806,0.66859204,90.495995,-38.09838,-17.526617,CSO
5142785549000,2.605669,-2.37370761156713,6.6654577,6.29742079959163,1.1530081,-1.2189816,0.6462954,90.44519,-38.501736,-17.204039,CSO
5142789795000,2.609915,-2.27407365017866,6.6654577,6.34723771526289,1.1786644,-1.2275337,0.6160576,90.39852,-38.902493,-16.893518,CSO
5142794788000,2.614908,-2.17951784318423,6.68072913858564,6.38251659094773,1.2070698,-1.2235631,0.61178154,90.344,-39.308975,-16.595392,CSO
5142799798000,2.619918,-2.10998856852478,6.71317608825234,6.39178719639648,1.246776,-1.2162327,0.61575216,90.29656,-39.7134,-16.309835,CSO
5142804861000,2.624981,-2.04074340037279,6.73806465992544,6.3676037082945,1.2757921,-1.2098186,0.58032197,90.27765,-40.12036,-16.003592,CSO
5142809942000,2.630062,-1.97271955955266,6.75166942808947,6.2950448500466,1.3011429,-1.2156218,0.56107974,90.25616,-40.52933,-15.702386,CSO
5142814784000,2.634904,-1.92001192533589,6.77354135451056,6.23422552783109,1.3292428,-1.2131784,0.5748242,90.24343,-40.952057,-15.390836,CSO
5142819796000,2.639916,-1.90061641189009,6.82203001154662,6.19543480472775,1.351234,-1.1976013,0.5751296,90.23685,-41.366726,-15.096762,CSO
5142824778000,2.644898,-1.8888945943067,6.87397130684233,6.15161812803456,1.3652838,-1.1917981,0.52931476,90.24446,-41.79444,-14.799545,CSO
5142829835000,2.649955,-1.89726265140389,6.9367313637149,6.09304168466523,1.4165965,-1.1820242,0.51159966,90.24232,-42.231,-14.510397,CSO
5142835230000,2.65535,-1.90441288407873,7.00681832045211,6.0283583884829,1.4456125,-1.1847731,0.49449542,90.25081,-42.66676,-14.229102,CSO
5142839807000,2.659927,-1.8787869911332,7.12213481640846,5.93439703373283,1.4844025,-1.1786644,0.4859433,90.25727,-43.108097,-13.962394,CSO
5142844796000,2.664916,-1.85085437590373,7.24783156063529,5.83197772002338,1.5146403,-1.1633929,0.4352415,90.26753,-43.5605,-13.71014,CSO
5142849801000,2.669921,-1.83691373783854,7.31056442972655,5.7599436889703,1.5360206,-1.1560625,0.42149702,90.27155,-44.013344,-13.460557,CSO
5142854843000,2.674963,-1.8242783261939,7.36742378212744,5.69044879298705,1.572978,-1.1673635,0.40958515,90.2855,-44.46388,-13.228292,CSO
5142860358000,2.680478,-1.81045756157268,7.42961722292294,5.61443444325527,1.6163495,-1.1582005,0.3894266,90.286934,-44.946655,-12.998881,CSO
5142864808000,2.684928,-1.7380010841652,7.54531058464673,5.54378346504306,1.6560557,-1.1557571,0.3323107,90.300865,-45.423298,-12.784139,CSO
5142869763000,2.689883,-1.65451105481063,7.67713698542458,5.4646876429299,1.6960673,-1.1679744,0.32345316,90.30896,-45.903755,-12.570163,CSO
5142874785000,2.694905,-1.4258980266747,7.89962405321968,5.4120589350505,1.7293595,-1.1905763,0.3182608,90.31614,-46.40633,-12.362709,CSO
5142879848000,2.699968,-1.12939414827203,8.16468010138052,5.37162670740295,1.7681495,-1.205848,0.28313604,90.33029,-46.906757,-12.169883,CSO
5142884939000,2.705059,-0.962979956503299,8.32456244674835,5.34835685892554,1.790446,-1.210735,0.25045475,90.3537,-47.445217,-11.954616,CSO
5142889943000,2.710063,-0.90426266206409,8.39683039396795,5.33932343626767,1.8112154,-1.207986,0.27763826,90.37196,-47.983974,-11.740388,CSO
5142894798000,2.714918,-0.873086695284316,8.46911290568632,5.31032198741406,1.8432859,-1.2235631,0.2968805,90.4075,-48.59326,-11.457588,CSO
5142899792000,2.719912,-0.876955217422956,8.54648334845911,5.25229419572919,1.8768835,-1.2250903,0.31245756,90.434525,-49.197456,-11.182297,CSO
5142905299000,2.725419,-0.881732992863359,8.63053668146214,5.18962929982594,1.8985692,-1.2110404,0.30848694,90.4707,-49.81612,-10.894389,CSO
5142909832000,2.729952,-0.896845853111401,8.67209707180157,5.16695976288077,1.9300288,-1.1887437,0.3631594,90.49154,-50.439213,-10.601034,CSO
5142914767000,2.734887,-0.913298967014796,8.7173431618799,5.14227982358573,1.9914207,-1.1890492,0.4156938,90.51422,-51.08931,-10.306148,CSO
5142919793000,2.739913,-0.968927020539736,8.70014292613685,5.10708724936677,2.0060816,-1.2012665,0.42271876,90.5327,-51.72168,-10.021231,CSO
5142924822000,2.744942,-1.04670632960476,8.64692550526987,5.06615089014875,1.9960022,-1.2070698,0.4352415,90.53937,-52.354458,-9.734386,CSO
5142929816000,2.749936,-1.16689628249477,8.5704904155126,5.00252604499352,1.9712621,-1.2034045,0.43554693,90.553246,-52.98668,-9.45306,CSO
5142935161000,2.755281,-1.40659314565109,8.42769232619309,4.87502785175849,1.9349157,-1.1878275,0.44837508,90.56083,-53.600506,-9.177086,CSO
5142939815000,2.759935,-1.55877461569892,8.31329324659498,4.77354054272401,1.897042,-1.1914927,0.44318274,90.57696,-54.186726,-8.927899,CSO
5142944794000,2.764914,-1.58441057655914,8.21502179560932,4.68808720601255,1.8420641,-1.1847731,0.44348818,90.58252,-54.746304,-8.688019,CSO
5142949951000,2.770071,-1.58711685628227,8.10106535628227,4.60185733532889,1.808772,-1.1856894,0.45020768,90.58746,-55.275253,-8.498633,CSO
5142954833000,2.774953,-1.3212108697074,7.8561519697074,4.54587709301804,1.7754798,-1.178359,0.4474588,90.58774,-55.776524,-8.321117,CSO
5142959927000,2.780047,-1.04375796196213,7.60060326196213,4.48746591843149,1.7583756,-1.169807,0.4373795,90.60818,-56.27702,-8.13505,CSO
5142964769000,2.784889,-0.794433653264331,7.37296308825637,4.45144700850916,1.7550159,-1.1511755,0.42210788,90.62296,-56.76029,-7.9610524,CSO
5142970129000,2.790249,-0.544109960270701,7.14818256914809,4.446338418541,1.7400496,-1.1291844,0.41874814,90.632034,-57.22495,-7.7953477,CSO
5142974758000,2.794878,-0.361293838453406,6.94856185422866,4.42680203061864,1.7150042,-1.1102476,0.42363504,90.699486,-57.693554,-7.5758696,CSO
5142979850000,2.79997,-0.218091710861394,6.71943845207518,4.37906801965544,1.7037032,-1.1004738,0.44318274,90.75892,-58.152054,-7.3636703,CSO
5142984767000,2.804887,-0.153744255310698,6.49587855586163,4.32419521793722,1.6853772,-1.1038336,0.46609017,90.869774,-58.602226,-7.114498,CSO
5142990196000,2.810316,-0.253665753027363,6.24369571764437,4.243306595836,1.6371188,-1.1172725,0.5183192,90.9706,-59.034073,-6.861474,CSO
5142994827000,2.814947,-0.374919896002445,6.01914971004483,4.17379445937245,1.5818355,-1.1685852,0.56779927,91.11184,-59.45651,-6.573585,CSO
5142999792000,2.819912,-0.714000898844743,5.72366488715363,4.09628997984923,1.5121969,-1.2348641,0.6093381,91.251076,-59.854225,-6.279551,CSO
5143005109000,2.825229,-1.08864536639839,5.43105961189997,3.97406094153492,1.4208726,-1.3301591,0.6249151,91.416885,-60.207317,-5.99501,CSO
5143009824000,2.829944,-1.45638943547954,5.24502433337166,3.74476168676823,1.3203852,-1.4355333,0.64721173,91.591286,-60.531414,-5.6974864,CSO
5143014893000,2.835013,-1.83743511510754,5.04609393328188,3.49842802193064,1.2299771,-1.4779885,0.6731735,91.79099,-60.797646,-5.4478474,CSO
5143019794000,2.839914,-2.08861012939179,4.86254308545847,3.26174381759802,1.1383474,-1.5577064,0.69058317,92.01856,-61.02698,-5.184492,CSO
5143024802000,2.844922,-2.3298732062161,4.70419983457037,3.04059166917642,1.099252,-1.6129897,0.7199047,92.29838,-61.276077,-4.9334593,CSO
5143029931000,2.850051,-2.48411646066229,4.71822193197259,2.93893142640594,1.0516045,-1.6560557,0.7076874,92.592995,-61.488407,-4.687203,CSO
5143034877000,2.854997,-2.63285639758778,4.73174372837568,2.84089836718527,1.0253373,-1.6627752,0.6740898,92.92675,-61.724068,-4.452477,CSO
5143040476000,2.860596,-2.71061962482224,4.80517291771194,2.72096287446673,0.9950995,-1.6780468,0.63132924,93.272705,-61.938427,-4.2235575,CSO
5143044858000,2.864978,-2.67619024682771,4.92376281993619,2.61767474048314,0.9746355,-1.6847663,0.61850107,93.614746,-62.142395,-4.002886,CSO
5143049812000,2.869932,-2.60270464762299,5.08571697108127,2.51777978128301,0.95356065,-1.6859881,0.58246,93.98282,-62.360435,-3.8173695,CSO
5143054829000,2.874949,-2.33362032871508,5.40678351480939,2.51166423293451,0.97249746,-1.6832392,0.5571091,94.34893,-62.579422,-3.6387486,CSO
5143059874000,2.879994,-2.0630342436263,5.72964193878954,2.50551455356075,0.9816604,-1.6783522,0.5299256,94.70956,-62.82687,-3.4608843,CSO
5143065122000,2.885242,-1.78108182239541,6.06232287038556,2.51302787981952,0.99021256,-1.6600263,0.52748215,95.06317,-63.074703,-3.2919128,CSO
5143069862000,2.889982,-1.520410402379,6.32299419319114,2.69456691488925,0.9755518,-1.6508633,0.50854534,95.420395,-63.312096,-3.1398702,CSO
5143074923000,2.895043,-1.24139852357168,6.60200599189844,2.86752927534542,0.9804387,-1.6639969,0.4831944,95.745155,-63.610226,-2.9344888,CSO
5143079926000,2.900046,-0.957687545838866,6.88571716264131,2.79875081787188,0.94714653,-1.6759088,0.48808134,96.05942,-63.886192,-2.734997,CSO
5143084786000,2.904906,-0.682085836508164,7.16131905946528,2.73193824475148,0.88270026,-1.6676621,0.5323691,96.37646,-64.15087,-2.496303,CSO
5143089856000,2.909976,-0.452659287942324,7.35257310024745,2.54040305794232,0.83016586,-1.6084082,0.54092115,96.67698,-64.398506,-2.279721,CSO
5143094846000,2.914966,-0.238892427658704,7.52085739519368,2.3266361976587,0.77304995,-1.5366315,0.5140431,96.961586,-64.61757,-2.0724595,CSO
5143099789000,2.919909,0.00762065976411345,7.76443023747681,2.17185539898401,0.7290677,-1.4208726,0.4633413,97.22174,-64.88548,-1.817162,CSO
5143104828000,2.924948,0.271952029000795,8.04155186549165,2.03542635487234,0.68936145,-1.3197744,0.40378192,97.46373,-65.12721,-1.5893939,CSO
5143110624000,2.930744,0.724339501353352,8.41319613590866,1.91011414768012,0.6936375,-1.208597,0.32589662,97.68602,-65.44179,-1.3438963,CSO
5143115119000,2.935239,1.17317432946304,8.73635739099156,1.83381223739965,0.72021013,-1.1337659,0.22113322,97.89516,-65.73938,-1.140167,CSO
5143119788000,2.939908,1.68453731308358,9.0524563905106,1.85705093414472,0.73945236,-0.9877691,0.1731803,98.05662,-66.10649,-0.8972195,CSO
5143124795000,2.944915,2.26813884575449,9.37617272321004,1.96191680516307,0.81061816,-0.86162543,0.07513642,98.21587,-66.482185,-0.71296555,CSO
5143129883000,2.950003,3.05087862782795,9.86678573205474,2.33797391118145,0.9025534,-0.7165449,-0.009773844,98.34025,-66.925705,-0.4750621,CSO
5143134930000,2.95505,4.05887123797598,10.5507808651895,3.03996871097663,0.9789116,-0.6169739,-0.08735373,98.45162,-67.37233,-0.27978784,CSO
5143139800000,2.95992,4.77530154636477,11.0756459238679,3.60599091710636,1.0290025,-0.5571091,-0.15668693,98.55836,-67.84746,-0.031944796,CSO
5143144853000,2.964973,4.89592864333195,11.2917697874948,3.92263720409223,1.0112875,-0.5311473,-0.19822577,98.65329,-68.3119,0.18788686,CSO
5143149753000,2.969873,4.9093124947716,11.4329579389103,4.13054988398459,0.97219205,-0.5338962,-0.21533,98.77707,-68.69638,0.5349994,CSO
5143154932000,2.975052,4.73188319461567,11.4557052546322,4.16694582666483,0.91996306,-0.5326745,-0.22785273,98.89781,-69.05679,0.85944754,CSO
5143159840000,2.97996,4.5224375878593,11.4651342608737,4.17625312946293,0.8335256,-0.54336464,-0.22204952,99.04693,-69.34574,1.1988077,CSO
5143164849000,2.984969,4.13689785113464,11.42431252118,4.08100199304085,0.72692966,-0.54153204,-0.2180789,99.19424,-69.60056,1.5229733,CSO
5143169851000,2.989971,3.75823246416976,11.380672444203,3.97950290108654,0.61575216,-0.5720753,-0.21471913,99.36734,-69.81737,1.8270195,CSO
5143174795000,2.994915,3.45561371903362,11.3050174893263,3.80701019803145,0.5183192,-0.6068946,-0.20280726,99.53985,-69.99645,2.125648,CSO
5143179794000,2.999914,3.14962846277643,11.2285209036815,3.63259858343347,0.42546764,-0.6160576,-0.19608775,99.73122,-70.16126,2.3717961,CSO
5143185257000,3.005377,2.80912738691879,11.1421128915065,3.43723050241785,0.3472769,-0.61422503,-0.2012801,99.92827,-70.294205,2.6126688,CSO
5143189921000,3.010041,2.34760405722257,10.9898100148791,3.13724036462079,0.27152961,-0.6133087,-0.18906279,100.124855,-70.39323,2.853748,CSO
5143195129000,3.015249,1.82491443338507,10.7916810118937,2.79697447848165,0.22418754,-0.6010914,-0.18387043,100.32669,-70.52671,3.0352285,CSO
5143199804000,3.019924,1.26597791252889,10.2705105922396,2.42686784056516,0.17837265,-0.58276546,-0.21197024,100.52698,-70.634155,3.204436,CSO
5143204830000,3.02495,0.665076318128216,9.71021058599747,2.02897351710671,0.16035213,-0.5561928,-0.24801129,100.73932,-70.794,3.3213174,CSO
5143209846000,3.029966,0.366558319557184,9.37670523315594,1.78141777767848,0.1459968,-0.55863625,-0.28191432,100.95365,-70.93771,3.427464,CSO
5143214796000,3.034916,0.23803735259263,9.1720235532684,1.61957658579175,0.14569137,-0.5717699,-0.29565877,101.16179,-71.07604,3.523723,CSO
5143219792000,3.039912,0.193939142295467,8.98021857065686,1.55140743576294,0.13561209,-0.58459806,-0.31642818,101.38387,-71.27115,3.5372088,CSO
5143224809000,3.044929,0.19770073751742,8.79590067580052,1.53636103130823,0.1255328,-0.6221663,-0.34972036,101.61345,-71.46366,3.5453932,CSO
5143229855000,3.049975,0.208278484536817,8.61027726365796,1.51964125463183,0.1423316,-0.6649268,-0.38056904,101.83962,-71.677826,3.5333593,CSO
5143234835000,3.054955,0.280368205331462,8.42490318894407,1.48874568304902,0.15393804,-0.7367035,-0.4129449,102.082985,-71.88634,3.5169706,CSO
5143239868000,3.059988,0.371262393349106,8.27217373968191,1.47152517705047,0.1591304,-0.80909103,-0.45540005,102.35348,-72.0895,3.4975154,CSO
5143244797000,3.064917,0.51396664845163,8.22563994344769,1.49634335287855,0.19058995,-0.8680395,-0.49357912,102.637886,-72.301895,3.4747872,CSO
5143249812000,3.069932,0.659160772886435,8.17829423679022,1.52159455023659,0.22143865,-0.91965765,-0.5332854,102.946144,-72.51032,3.46039,CSO
5143254835000,3.074955,0.81921160305383,8.15214644570393,1.56558791204969,0.26450464,-0.95539325,-0.5705481,103.26414,-72.73002,3.4391701,CSO
5143259821000,3.079941,1.03670623938923,8.21146307085921,1.68422126559006,0.2947425,-0.9932669,-0.61544675,103.59535,-72.95417,3.4088783,CSO
5143264820000,3.08494,1.23794931699257,8.29481775459523,1.80389281693391,0.31215215,-1.0177015,-0.66156703,103.94755,-73.1735,3.4152756,CSO
5143269800000,3.08992,1.39182610717638,8.44403224618694,1.92512913488463,0.30268374,-1.033584,-0.70402217,104.304306,-73.39233,3.4115777,CSO
5143274816000,3.094936,1.52072513052804,8.59771713332727,2.03778309121149,0.28191432,-1.0308352,-0.7467828,104.68682,-73.5942,3.4345748,CSO
5143279855000,3.099975,1.55581196734527,8.76437920748887,2.11672846260111,0.23365596,-1.0412198,-0.784351,105.07228,-73.783714,3.4482172,CSO
5143284954000,3.105074,1.58699354326831,8.93546095075152,2.20089847300927,0.17348573,-1.0516045,-0.83077675,105.46187,-73.94408,3.4679484,CSO
5143289800000,3.10992,1.52762774450485,9.14818852115979,2.36910147480013,0.11209377,-1.0262536,-0.8594874,105.83859,-74.087975,3.4794354,CSO
5143294821000,3.114941,1.47308481489289,9.36179450072544,2.49487374787062,0.082161374,-0.97249746,-0.9129381,106.21676,-74.21866,3.4720418,CSO
5143299786000,3.119906,1.46091054336434,9.53223506486302,2.32849141549031,0.03359759,-0.8918633,-0.9621128,106.57544,-74.32527,3.4540913,CSO
5143304784000,3.124904,1.44865535522745,9.70380846658701,2.16100321866519,0.0018325958,-0.8530733,-1.0198395,106.93519,-74.40901,3.393803,CSO
5143309840000,3.12996,1.55531099700147,9.7998681655071,2.00554012183244,-0.036651913,-0.7770206,-1.0516045,107.25866,-74.47596,3.3202767,CSO
5143314828000,3.134948,1.69105854941695,9.8747629488486,1.85574962646742,-0.059253927,-0.6930266,-1.1249083,107.571335,-74.541756,3.2183437,CSO
5143319800000,3.13992,1.84181229674755,9.88973633918431,1.71092099623129,-0.12034045,-0.6432411,-1.2089024,107.86478,-74.63652,3.0982833,CSO
5143324792000,3.144912,1.99812641218379,9.88562315797625,1.56694749824471,-0.19730948,-0.5934556,-1.3139712,108.13727,-74.72196,2.949041,CSO
5143329909000,3.150029,2.1966371222267,9.863664056071,1.32759880620714,-0.28863382,-0.5720753,-1.4175128,108.402626,-74.8169,2.7969747,CSO
5143334870000,3.15499,2.43620199112545,9.82054197942719,0.982625179862848,-0.37782016,-0.5366451,-1.5314392,108.65437,-74.89231,2.612351,CSO
5143339791000,3.159911,2.66484898536708,9.77571107090489,0.59834508179773,-0.47311515,-0.52931476,-1.6355917,108.90705,-74.9626,2.413921,CSO
5143344795000,3.164915,2.88624384659034,9.72758180787386,0.155555545298785,-0.52656585,-0.52656585,-1.733941,109.15559,-75.01936,2.1885579,CSO
5143349789000,3.169909,3.08019938062974,9.701305,-0.21611490142817,-0.5687156,-0.48472157,-1.8264871,109.383354,-75.10674,1.9590579,CSO
5143354845000,3.174965,3.24355172354044,9.701305,-0.506518938148252,-0.57787853,-0.40683624,-1.9456058,109.60631,-75.18709,1.6977106,CSO
5143359809000,3.179929,3.35510105517889,9.75763000970064,-0.707153329957234,-0.5534439,-0.2996294,-2.0454822,109.794205,-75.33726,1.4350771,CSO
5143365530000,3.18565,3.36653082189423,9.95765197152394,-0.735727895931991,-0.49877146,-0.17440203,-2.1276436,109.95937,-75.48886,1.1432991,CSO
5143369826000,3.189946,3.31640594802429,10.121263936488,-0.650917329999036,-0.45265114,-0.05375614,-2.193617,110.08723,-75.69679,0.8483457,CSO
5143374788000,3.194908,3.1835914855532,10.3273557477833,-0.41734699470027,-0.4016439,0.021380283,-2.24157,110.19342,-75.91353,0.53610253,CSO
5143379831000,3.199951,2.99860992466588,10.5513260395872,-0.0908216880003383,-0.36987892,0.09896017,-2.282498,110.26376,-76.14017,0.20211595,CSO
5143384918000,3.205038,2.71014724794451,10.8068214967011,0.420169234833362,-0.3539964,0.14874569,-2.303573,110.31859,-76.365204,-0.13621973,CSO
5143390184000,3.210304,2.40442003799934,11.0749773774453,0.953000112300674,-0.36865717,0.18906279,-2.327702,110.36581,-76.53793,-0.5083179,CSO
5143394790000,3.21491,1.98020830877034,11.3904168227848,1.5041128772604,-0.5002986,0.19394971,-2.345417,110.40651,-76.66781,-0.87792873,CSO
5143399871000,3.219991,1.51224916934079,11.7383863889528,2.11205989392569,-0.6939429,0.13897185,-2.3695462,110.4833,-76.65624,-1.2892045,CSO
5143404830000,3.22495,0.918713261813711,12.0676926922187,2.74360053377688,-0.906524,0.09101892,-2.3893993,110.556015,-76.58857,-1.6960351,CSO
5143409873000,3.229993,0.196906775400636,12.3936700532253,3.41883873476039,-1.1475104,-0.044898596,-2.4147503,110.669586,-76.44642,-2.092747,CSO
5143414792000,3.234912,-0.515659173532285,12.6242842167627,3.83277514992674,-1.2800682,-0.26725355,-2.4489589,110.854576,-76.13367,-2.5514615,CSO
5143419793000,3.239913,-1.25018070412426,12.7552813985543,3.96377262483149,-1.4865406,-0.49296826,-2.5057693,111.082535,-75.72552,-3.001853,CSO
5143424771000,3.244891,-2.04348503509739,12.8027950091878,3.72243186396545,-1.63437,-0.63804877,-2.6108382,111.39525,-75.13348,-3.5919116,CSO
5143429871000,3.249991,-2.94995568008085,12.7265077434767,2.91468572008453,-1.6924021,-0.76144356,-2.7320948,111.77158,-74.503716,-4.171911,CSO
5143435774000,3.255894,-3.46325437994582,12.6369149272235,2.29914259158465,-1.6823229,-0.8597928,-2.9022207,112.19145,-73.7871,-4.900959,CSO
5143439796000,3.259916,-3.16763149674944,12.5743126334086,2.26436349507901,-1.6664404,-0.8689558,-2.9480357,112.622734,-73.05454,-5.606607,CSO
5143445086000,3.265206,-2.77209008969808,12.4844756163752,2.25049212673801,-1.6481144,-0.89827734,-2.9993484,113.0255,-72.40086,-6.5102706,CSO
5143449822000,3.269942,-2.33798819783346,12.3147811059776,2.6175055889846,-1.6084082,-0.90041536,-2.9944615,113.42357,-71.73927,-7.3904986,CSO
5143454825000,3.274945,-1.87941307853476,12.1355197809101,3.00521005512051,-1.5818355,-0.91813046,-2.9712486,113.84337,-71.08784,-8.191671,CSO
5143459907000,3.280027,-1.49898736535708,11.9201354281256,3.17097797334312,-1.5827519,-0.95172805,-2.912911,114.26522,-70.437515,-8.960617,CSO
5143464863000,3.284983,-1.1591593040022,11.6979402149807,3.24939973567101,-1.6358972,-0.9450085,-2.860682,114.679756,-69.77894,-9.707741,CSO
5143469836000,3.289956,-0.917523431749159,11.4402963322922,3.45254223296492,-1.6786577,-0.9114109,-2.8166997,115.14081,-69.084206,-10.332481,CSO
5143474792000,3.294912,-0.757870111057184,11.1552009041326,3.75664375838539,-1.6698002,-0.8921687,-2.7840183,115.60114,-68.40303,-10.928488,CSO
5143479885000,3.300005,-0.595760562825664,10.9107133421905,4.06729378736228,-1.6358972,-0.945314,-2.737287,116.08549,-67.73386,-11.43096,CSO
5143484940000,3.30506,-0.466340998243681,11.4480007907485,4.34574209856611,-1.6581937,-1.1065824,-2.6771169,116.59054,-67.071884,-11.896806,CSO
5143489858000,3.309978,-0.340428947083603,11.9707267397116,4.61664393724076,-1.7623463,-1.4333953,-2.6230555,117.20191,-66.34486,-12.287996,CSO
5143494848000,3.314968,-0.444547245267207,12.2104511667125,4.40495102957824,-1.8347337,-1.6710218,-2.5949554,117.8298,-65.64002,-12.64673,CSO
5143499788000,3.319908,-0.711024309973898,12.2429486842286,3.85249859325457,-1.8185458,-1.7024814,-2.5558603,118.48341,-64.95674,-12.960861,CSO
5143505357000,3.325477,-1.01143134911389,12.2795840435499,3.22970352890507,-1.7305813,-1.5671748,-2.499355,119.16329,-64.30541,-13.190408,CSO
5143509914000,3.330034,-1.40593045124014,12.1312830247078,3.18076589005987,-1.6053538,-1.4920384,-2.4901922,119.866005,-63.681866,-13.4001465,CSO
5143514855000,3.334975,-1.88707970662359,11.9064466300485,3.29318394652666,-1.5558738,-1.3060299,-2.4828618,120.49255,-63.084034,-13.611261,CSO
5143519791000,3.339911,-2.16859661235511,11.6407047795645,3.54187800064322,-1.4740179,-1.1120802,-2.5219572,121.01452,-62.61732,-13.924996,CSO
5143524790000,3.34491,-2.29690334118593,11.3391838562814,3.90113688826131,-1.457219,-0.96761054,-2.5851817,121.49922,-62.152763,-14.248573,CSO
5143529936000,3.350056,-2.42898304243886,11.0287964445561,4.2709601000402,-1.4688255,-0.8918633,-2.6526823,121.96764,-61.61483,-14.691311,CSO
5143534846000,3.354966,-2.32278810832996,10.7588214563283,4.34454872583906,-1.4782939,-0.86498517,-2.7452285,122.41971,-61.075954,-15.155241,CSO
5143539857000,3.359977,-2.05111349114436,10.5017012308937,4.22326550505459,-1.4553864,-0.8561276,-2.8002062,122.85868,-60.545437,-15.620604,CSO
5143544847000,3.364967,-1.82760953019822,10.2859047774436,4.26038176191388,-1.3836098,-0.90041536,-2.7837129,123.38127,-59.893646,-16.115873,CSO
5143549790000,3.36991,-1.63670374119617,10.0982343052632,4.39951633258373,-1.2773192,-0.9673051,-2.744312,123.91138,-59.26209,-16.601912,CSO
5143554881000,3.375001,-1.44008197874231,9.90494472932331,4.54281677751196,-1.1661417,-1.10139,-2.7021625,124.47539,-58.666996,-17.030388,CSO
5143559860000,3.37998,-1.22947495205289,9.68621385013599,4.65139831526775,-1.0855075,-1.25319,-2.5967882,125.04648,-58.117744,-17.407145,CSO
5143564840000,3.38496,-1.0103122463228,9.45363341873769,4.74532532792835,-0.9960158,-1.3503176,-2.482251,125.62899,-57.61588,-17.747198,CSO
5143569830000,3.38995,-0.822574866408308,9.29213855082219,4.65632486041927,-0.91629785,-1.3771957,-2.3762658,126.278725,-57.10718,-18.01306,CSO
5143574908000,3.395028,-0.658897014280219,9.1892547256467,4.40846997062217,-0.8561276,-1.3726143,-2.2311852,126.921,-56.650818,-18.22018,CSO
5143579893000,3.400013,-0.583490043396596,9.10074664899237,4.15204911974173,-0.79351395,-1.3362677,-2.1288655,127.59671,-56.20034,-18.382029,CSO
5143584921000,3.405041,-0.602332618501272,9.02537682077871,3.87883167251027,-0.73364913,-1.2904528,-1.9679024,128.23546,-55.806286,-18.485613,CSO
5143589912000,3.410032,-0.597741205169546,8.88441114587332,3.6608864460287,-0.66798115,-1.2522738,-1.8377881,128.85283,-55.468117,-18.568739,CSO
5143594796000,3.414916,-0.563540956110045,8.66210946449136,3.51553537413399,-0.6215554,-1.2070698,-1.7406605,129.43394,-55.167744,-18.62082,CSO
5143599777000,3.419897,-0.417570559359217,8.35972418300189,3.37173277962437,-0.5693264,-1.1908818,-1.6184875,129.97264,-54.935463,-18.657187,CSO
5143604878000,3.424998,0.137557761363636,7.77375526136364,3.24066082954545,-0.5363397,-1.1432343,-1.5497651,130.48166,-54.7223,-18.688976,CSO
5143609885000,3.430005,0.682456311032197,7.19858443394886,3.11200424180871,-0.45478916,-1.0876455,-1.473407,130.9685,-54.54843,-18.707312,CSO
5143614845000,3.434965,1.04225754590476,6.80385595057143,3.05680725047619,-0.37843102,-1.0662653,-1.4025466,131.43948,-54.396126,-18.708118,CSO
5143619803000,3.439923,1.32591507116883,6.48319968298701,3.03214130779221,-0.2779437,-1.0485502,-1.3267993,131.88179,-54.286137,-18.693335,CSO
5143624784000,3.444904,1.52091882375109,6.19905625862402,3.01843003868973,-0.19242255,-1.0433578,-1.2794572,132.37556,-54.186512,-18.587908,CSO
5143629829000,3.449949,1.56760450009663,5.97496509991304,3.02309865019809,-0.113926366,-1.0082331,-1.1963795,132.83734,-54.13055,-18.458994,CSO
5143634838000,3.454958,1.58109340118015,5.79717194865125,2.9946665246869,-0.046731193,-0.95111716,-1.1172725,133.32326,-54.081844,-18.282768,CSO
5143639807000,3.459927,1.52378710020873,5.71694302357097,2.89533563225755,-0.0027488936,-0.9071349,-1.0103711,133.78394,-54.06644,-18.079723,CSO
5143644764000,3.464884,1.46661919239724,5.63690784916506,2.79624462123475,0.029321533,-0.84513205,-0.8689558,134.22612,-54.057114,-17.860985,CSO
5143649798000,3.469918,1.25085127551615,5.52497069092166,2.60723203131483,0.06994407,-0.7635816,-0.70096785,134.62892,-54.082424,-17.616898,CSO
5143654898000,3.475018,0.995135497090783,5.40435012389608,2.39493973258915,0.106901415,-0.6826419,-0.57635134,134.99855,-54.13049,-17.3565,CSO
5143659854000,3.479974,0.868580814313466,5.30582336678515,2.29863798374804,0.17867808,-0.6429357,-0.41783184,135.31914,-54.225277,-17.079891,CSO
5143664827000,3.484947,0.770156708671571,5.21133632567579,2.22777258986526,0.24678956,-0.61636305,-0.26145032,135.6017,-54.346184,-16.782991,CSO
5143669860000,3.48998,0.639008198326755,4.9797170209456,2.27535696369487,0.3182608,-0.64599,-0.12889257,135.84384,-54.5038,-16.518456,CSO
5143674793000,3.494913,0.460643252943196,4.53785825520851,2.51047435129569,0.4156938,-0.6713409,-0.0036651916,136.05418,-54.705296,-16.222563,CSO
5143679878000,3.499998,0.276889959566517,4.08739009172895,2.73989241203288,0.5131268,-0.68783426,0.11178834,136.2467,-54.930576,-15.929406,CSO
5143684845000,3.504965,0.0991321168410563,3.72792423474506,2.75569313941206,0.6032294,-0.6545421,0.25442538,136.40938,-55.197697,-15.603873,CSO
5143689802000,3.509922,-0.0782678482062781,3.36918208594918,2.77146205538117,0.7021896,-0.59223384,0.42210788,136.60707,-55.37408,-15.306917,CSO
5143694849000,3.514969,-0.246755594680851,3.0659025287234,2.82413919148936,0.8179486,-0.50701815,0.56779927,136.77147,-55.590668,-14.990583,CSO
5143699793000,3.519913,-0.405061084650456,2.80325932860182,2.89609618115502,0.97066486,-0.46578476,0.6377433,136.91695,-55.850365,-14.656735,CSO
5143705301000,3.525421,-0.590654177796737,2.49183764403327,2.97508493484057,1.0543534,-0.2434298,0.9077458,136.97403,-56.076916,-14.354282,CSO
5143709905000,3.530025,-0.82105720157833,2.07805264076997,3.03151032547723,1.3307699,-0.160963,1.0002918,137.07324,-56.373455,-14.065881,CSO
5143714883000,3.535003,-1.06277283268502,1.66121611677512,3.05132629163389,1.4361442,0.05100725,1.169807,137.08757,-56.573368,-13.834487,CSO
5143719797000,3.539917,-1.25794658221666,1.4290266476439,2.82923193889882,1.6673567,0.2938262,1.3322971,137.06181,-56.88128,-13.601752,CSO
5143724775000,3.544895,-1.45566227720415,1.19381313984269,2.60424502642117,1.9281962,0.5739079,1.4963144,136.94992,-57.189518,-13.410344,CSO
5143729778000,3.549898,-1.7128141143252,1.07275266396485,2.50550307670056,2.1618521,0.81153446,1.5699236,136.77872,-57.5527,-13.232995,CSO
5143734831000,3.554951,-2.09501661892586,1.19219093729885,2.67271661945898,2.389705,1.0509937,1.7073684,136.50545,-58.002293,-13.042037,CSO
5143739761000,3.559881,-2.40614397504808,1.45317742013362,2.78972209200324,2.5891523,1.2534955,1.8234328,136.12889,-58.532932,-12.932495,CSO
5143744790000,3.56491,-2.57677470233829,2.0625731001822,2.79947241636805,2.7430904,1.3283265,1.8881844,135.71709,-59.113716,-12.816833,CSO
5143749755000,3.569875,-2.72025456132265,2.69398065711423,2.86288940140281,2.8389962,1.382999,2.0259347,135.23889,-59.704082,-12.754724,CSO
5143754878000,3.574998,-2.81389331167096,3.41031651306422,3.04548487413875,2.9336803,1.3261884,2.108096,134.77724,-60.325874,-12.683963,CSO
5143759912000,3.580032,-2.90199445137786,4.13324155120037,3.20457404085007,2.992018,1.1588113,2.175291,134.33559,-60.97962,-12.6303625,CSO
5143764868000,3.584988,-2.97736708640822,4.90026988883699,3.30211520415694,3.0234776,0.95264435,2.271197,133.91489,-61.652676,-12.53583,CSO
5143769828000,3.589948,-3.05413262931881,5.66376408271583,3.37692007620748,3.036611,0.7153232,2.3600779,133.56355,-62.351093,-12.407333,CSO
5143774793000,3.594913,-3.1432787366753,6.38966840371396,3.24107845635211,3.0445523,0.48166725,2.4495697,133.26537,-63.05416,-12.230524,CSO
5143779846000,3.599966,-3.23400487574324,7.12843870260691,3.10282917032408,3.022256,0.1966986,2.5793786,132.98027,-63.869873,-11.925063,CSO
5143784893000,3.605013,-3.35198953292434,7.53873383335281,2.86066006307333,2.9639182,-0.116980694,2.7073548,132.76965,-64.67334,-11.569953,CSO
5143789866000,3.609986,-3.47257207075665,7.89120568075762,2.60558148355244,2.874121,-0.46670106,2.7766879,132.65086,-65.45577,-11.166025,CSO
5143794851000,3.614971,-3.41826292808259,8.01627995436683,2.35416976185996,2.7684412,-0.6560693,2.8255572,132.5164,-66.35366,-10.692863,CSO
5143799761000,3.619881,-3.32430479853468,8.08674861284656,2.10752976377487,2.6841419,-1.0308352,2.8518243,132.5384,-67.219696,-10.159855,CSO
5143804823000,3.624943,-3.19795447388324,8.08555128645142,1.93108975796108,2.638938,-1.349096,2.8619037,132.57426,-68.14234,-9.627981,CSO
5143809884000,3.630004,-3.02646144803184,7.97122252793749,1.87392541601061,2.6138923,-1.6255124,2.85946,132.71713,-69.02874,-9.071,CSO
5143815068000,3.635188,-2.85080054188412,7.85411518074598,1.81537178062804,2.6331346,-1.8255708,2.837469,132.91908,-69.98611,-8.471412,CSO
5143819794000,3.639914,-2.38086256675254,8.010578758493,1.52226052047013,2.7159069,-1.9382755,2.8139508,133.19135,-70.9304,-7.869889,CSO
5143824851000,3.644971,-1.74926980969248,8.28738823989696,1.10899609306633,2.7818804,-2.0097466,2.8075366,133.52458,-71.85262,-7.2704515,CSO
5143830446000,3.650566,-1.0281525113749,8.61052974572342,0.702740122770584,2.8011227,-2.0271564,2.7690523,133.88795,-72.78789,-6.6404777,CSO
5143834825000,3.654945,-0.421392513217426,8.89547225583533,0.481490619210232,2.7638597,-2.0118847,2.6991081,134.28038,-73.69865,-6.0342183,CSO
5143840130000,3.66025,0.313675262581934,9.24066979320544,0.213454853878497,2.640465,-2.010663,2.5674667,134.66838,-74.774895,-5.263915,CSO
5143844803000,3.664923,1.22969559406998,9.96103188750831,0.585455523280419,2.42147,-2.158187,2.375655,135.12038,-75.77155,-4.5412745,CSO
5143849792000,3.669912,2.30582797346243,10.882296223986,1.2049265297889,2.1988094,-2.5060747,2.1120665,135.65692,-76.68588,-3.8830106,CSO
5143854845000,3.674965,3.40528955487646,12.1868477353706,2.39613195364109,2.0060816,-3.097087,1.8072448,136.30849,-77.66081,-3.064873,CSO
5143859865000,3.679985,4.52017584963156,14.364523517772,4.91765086261378,1.7403551,-3.9043453,1.4905112,137.14731,-78.494286,-2.316933,CSO
5143864766000,3.684886,5.20269044116479,15.9564500079418,6.1301197397088,1.4807373,-4.4443502,1.1609493,138.08603,-79.14285,-1.3478367,CSO
5143869852000,3.689972,5.3868926954524,16.9189056637988,5.77553061899404,1.2235631,-4.299575,0.9086621,139.07599,-79.637375,-0.47461817,CSO
5143874796000,3.694916,5.2506105640678,17.7121913270673,4.67857644601541,0.8775079,-3.3472362,0.79779,139.9941,-79.54586,0.51172286,CSO
5143879834000,3.699954,4.46258538983051,18.2276286671803,2.01217707950693,0.54275376,-1.9862283,0.8155051,140.75595,-79.333496,1.3837515,CSO
5143884791000,3.704911,3.52454696065054,18.6343797166799,0.201680868529353,0.5513059,-0.8888089,0.8546005,141.3232,-79.2186,2.174274,CSO
5143889872000,3.709992,2.29405936310988,18.8853032187624,-0.309815959347481,0.8695667,-0.25778514,0.75991637,141.64552,-79.08218,2.8420544,CSO
5143894800000,3.71492,1.16920631383361,18.588112337443,-0.420917434820891,1.2660183,-0.060170226,0.61544675,141.7918,-79.45557,3.3040252,CSO
5143900054000,3.720174,0.0945883165129598,17.2888008406951,0.16035316049801,1.4184291,0.2657264,0.19333886,141.74745,-79.84093,3.60036,CSO
5143904779000,3.724899,-0.770392501729481,15.738749003299,0.894839256485054,1.6310102,0.7134906,0.14874569,141.61462,-80.44495,3.7318769,CSO
5143909836000,3.729956,-1.46273255509347,13.2017835964211,2.168163929995,1.6099354,1.0567969,0.14172074,141.43669,-81.0311,3.7467387,CSO
5143914808000,3.734928,-2.08842979217132,11.0625756434966,3.28211134068808,1.4504995,1.2348641,0.12461651,141.18105,-81.567856,3.5856965,CSO
5143919788000,3.739908,-2.59072052940144,9.72313396893102,4.08577643284185,1.2110404,1.2095132,0.044593163,140.88791,-82.0698,3.4076414,CSO
5143924986000,3.745106,-3.09839572006408,8.41438174969964,4.87102785018022,0.9877691,1.0125091,-0.0033597588,140.58813,-82.31768,3.1389983,CSO
5143929858000,3.749978,-3.32885263668402,8.50781020304365,4.81497077817381,0.76144356,0.7131852,-0.008246681,140.32794,-82.498505,2.8688943,CSO
5143934856000,3.754976,-3.56526964597517,8.60365490949139,4.75746395430517,0.5757405,0.3707952,0.0027488936,140.14429,-82.4933,2.5301745,CSO
5143939966000,3.760086,-3.79585265846512,8.70580722140836,4.67176802795072,0.38056904,0.0421497,0.0027488936,140.140941188811,-82.4278246153846,2.36721711048951,CSO
5143944866000,3.764986,-3.85053631586482,8.86595165290494,4.1874273362577,0.22418754,-0.28344148,0.0015271631,140.13773,-82.36504,2.2109566,CSO
5143949828000,3.769948,-3.90591188892958,9.02812240169802,3.69695825213917,0.11759156,-0.5885687,0.021685716,140.12953,-82.23247,1.9036524,CSO
5143954810000,3.77493,-3.92140886909614,9.42887884814408,3.34698422710747,0.07147124,-0.8912524,0.053450707,140.30809,-82.04027,1.5741469,CSO
5143959831000,3.779951,-3.91327745575378,9.97368430624841,3.07864750190243,0.08552113,-1.180497,0.1020145,140.56638,-81.8167,1.2714843,CSO
5143964790000,3.78491,-3.88059616364491,10.5274775587737,2.83727548404175,0.129198,-1.4520267,0.14294247,140.89389,-81.67934,0.9812439,CSO
5143969849000,3.789969,-3.7758069282302,11.1379885826594,2.65958931267632,0.20280726,-1.6997325,0.17012598,141.29161,-81.542046,0.71664375,CSO
5143974842000,3.794962,-3.62833794068012,11.7246470187415,2.48724251501866,0.27885997,-1.9312505,0.19608775,141.74617,-81.47673,0.48079458,CSO
5143979991000,3.800111,-3.20180132172659,12.2306362620421,2.32833678600746,0.3717115,-2.1169536,0.2144137,142.2521,-81.429184,0.26445222,CSO
5143984779000,3.804899,-2.80516948417571,12.7011502447422,2.18057204906716,0.4288274,-2.2177463,0.2434298,142.78183,-81.43322,0.09052734,CSO
5143989825000,3.809945,-2.63827183179191,12.5187128381503,1.79617723063584,0.42943826,-2.2290473,0.25228736,143.33301,-81.44177,-0.074522495,CSO
5143994827000,3.814947,-2.54597278820809,12.1402869618497,1.34852699936416,0.3830125,-2.1817052,0.24495697,143.88974,-81.44758,-0.2293447,CSO
5143999982000,3.820102,-2.63608965036253,11.7232562426035,1.22212397138928,0.34300083,-2.0234911,0.23823744,144.38739,-81.49552,-0.29542404,CSO
5144004848000,3.824968,-2.79143845429619,11.3193494497041,1.22989140347529,0.26847526,-1.9013181,0.22357668,144.87628,-81.51724,-0.36300135,CSO
5144009829000,3.829949,-2.89711430049438,10.9265069369269,1.22492713895224,0.20555615,-1.8301523,0.1563815,145.32777,-81.59686,-0.4331047,CSO
5144015948000,3.836068,-2.87842346588789,10.5012903520453,1.18287271229567,0.15943582,-1.7489072,0.07941248,145.73709,-81.65575,-0.5140349,CSO
5144019781000,3.839901,-2.86671534870425,10.23493062499,1.15652941806873,0.13713925,-1.6410894,0.008857546,146.14558,-81.69847,-0.64521194,CSO
5144024797000,3.844917,-2.82287214087363,9.88422098595944,1.44074916599064,0.14844026,-1.5173893,-0.020463986,146.52301,-81.73209,-0.7881875,CSO
5144029828000,3.849948,-2.77119598106474,9.53188420163806,1.81187753980109,0.20158553,-1.4935656,0.00030543262,146.89415,-81.76589,-0.93454266,CSO
5144034827000,3.854947,-2.8147771675201,9.20902228282227,2.03680350908008,0.28405234,-1.4257594,0.009773844,147.22409,-81.80618,-1.0951252,CSO
5144039770000,3.85989,-2.88993951216632,8.89897742721048,2.2106163023122,0.37018433,-1.3469579,-0.01863139,147.54071,-81.856285,-1.2601604,CSO
5144044791000,3.864911,-2.9804319650422,8.83892301125329,2.27896708509847,0.4120286,-1.2611313,-0.06872234,147.84787,-81.846756,-1.422516,CSO
5144049941000,3.870061,-3.07890296558671,8.87920648979036,2.30582275303567,0.41599923,-1.1924089,-0.121256754,148.13605,-81.84397,-1.5946039,CSO
5144054891000,3.875011,-3.1091647988024,9.05391857724551,2.1888450342515,0.41722095,-1.1334605,-0.160963,148.41628,-81.80878,-1.7939094,CSO
5144060079000,3.880199,-3.08437216487026,9.35638933253493,1.94091859137725,0.4092797,-1.1151345,-0.17989981,148.68797,-81.76366,-2.001436,CSO
5144064857000,3.884977,-2.93330388261043,9.59170757938719,1.65262225137286,0.39095375,-1.1322387,-0.18203785,148.95955,-81.701324,-2.2326822,CSO
5144069858000,3.889978,-2.66648705000995,9.80134908147632,1.30004294539395,0.38545597,-1.2024882,-0.16676621,149.23938,-81.63311,-2.4603372,CSO
5144074789000,3.894909,-2.41119056878936,9.90030690482855,1.07095372554234,0.3933972,-1.2996159,-0.16249016,149.52199,-81.60358,-2.6798964,CSO
5144079868000,3.899988,-2.15590404362316,9.89605204277467,0.951819987141358,0.43127087,-1.3863586,-0.15027285,149.81807,-81.575935,-2.8876789,CSO
5144085751000,3.905871,-1.89191948870724,9.90076625986477,0.984751645312342,0.473726,-1.3997977,-0.13958271,150.10188,-81.62434,-3.0407913,CSO
5144089866000,3.909986,-1.74874576920981,9.91667476930064,1.2313285582198,0.50976706,-1.3518448,-0.11789699,150.3882,-81.67751,-3.1844969,CSO
5144094823000,3.914943,-1.54763116684269,9.92250886731127,1.47813896303459,0.5299256,-1.1878275,-0.12156218,150.63547,-81.77384,-3.2823083,CSO
5144099791000,3.919911,-1.257459284299,9.88712207489773,1.57014469721086,0.535118,-1.0305296,-0.122783914,150.86618,-81.87305,-3.374067,CSO
5144104820000,3.92494,-0.963724502231313,9.85130078281889,1.66328013142432,0.5235115,-1.0277808,-0.14110987,151.09529,-81.92942,-3.4410014,CSO
5144109800000,3.92992,-0.609879292737311,9.82049403355277,1.5446378473986,0.43035457,-1.1276573,-0.15515977,151.30608,-81.96327,-3.5083275,CSO
5144114850000,3.93497,-0.19906702254548,9.79310635393219,1.25022238268564,0.32467487,-1.1826351,-0.1255328,151.49974,-81.9914,-3.5692759,CSO
5144119759000,3.939879,0.200275043666737,9.76648336001982,0.96402723094783,0.26847526,-1.2330315,-0.048563786,151.71281,-82.020706,-3.5455594,CSO
5144124842000,3.944962,0.617525569251354,9.74201645715196,0.964813710194329,0.2950479,-1.260215,0.015882496,151.93193,-82.04603,-3.5156267,CSO
5144129871000,3.949991,1.03178731345492,9.7190018530583,1.07988645029468,0.37140608,-1.2724323,0.0720821,152.1563,-82.07828,-3.4650154,CSO
5144134811000,3.954931,1.33487109943837,9.72088609317019,1.13230019151539,0.44806966,-1.2592987,0.118507855,152.40053,-82.23444,-3.3035975,CSO
5144139855000,3.959975,1.26220224050747,9.81293365509979,0.962739486952161,0.47678033,-1.2626585,0.14110987,152.65012,-82.398186,-3.1347535,CSO
5144144846000,3.964966,1.13795295178207,9.86001981910154,0.677540872415073,0.47036624,-1.2980887,0.16890424,152.91008,-82.58582,-2.861748,CSO
5144149802000,3.969922,0.838392835539261,9.75869781687395,-0.000874624076480424,0.4297437,-1.3332134,0.19028452,153.16937,-82.76515,-2.5883472,CSO
5144155683000,3.975803,0.456670900257069,9.60575873264782,-0.751508477506427,0.39920044,-1.2993103,0.20219639,153.43591,-82.964836,-2.3328948,CSO
5144159881000,3.980001,0.111091890989717,9.40551669569409,-1.13584404464974,0.4392121,-1.210124,0.2134974,153.69505,-83.16637,-2.0766218,CSO
5144164793000,3.984913,-0.293263538624679,9.17121729466581,-1.58554778590938,0.5036584,-1.1096367,0.20769419,153.96986,-83.4722,-1.8964877,CSO
5144169844000,3.989964,-0.542017834801507,8.98839792871631,-1.79543276247464,0.5723807,-1.0439687,0.18875736,154.22847,-83.784225,-1.7225307,CSO
5144174833000,3.994953,-0.66662177456969,8.84994920312953,-1.81966128945233,0.6450737,-1.0155635,0.15363261,154.46895,-84.10733,-1.5606983,CSO
5144179864000,3.999984,-0.7922746951898,8.71033494407418,-1.84409378478702,0.7162395,-1.0403035,0.13713925,154.72263,-84.518456,-1.5051137,CSO
5144184813000,4.004933,-0.389869121816713,8.96309464392783,-1.4557133257607,0.784351,-1.0567969,0.14477506,154.96463,-84.94046,-1.4564922,CSO
5144189817000,4.009937,0.130605088254196,9.30290850911049,-0.973952091652455,0.83016586,-1.0885619,0.16218472,155.21655,-85.367065,-1.4115373,CSO
5144194848000,4.014968,0.497656950433632,9.51363820506034,-0.70259917039782,0.850019,-1.1175779,0.20769419,155.47989,-85.79031,-1.3957676,CSO
5144199784000,4.019904,0.751585103159206,9.63140167349163,-0.581155252054496,0.86284715,-1.1640037,0.25809056,155.75504,-86.21493,-1.3752327,CSO
5144205084000,4.025204,1.01478098129374,9.75213823064687,-0.456368868811241,0.8735373,-1.2067643,0.31123585,156.03172,-86.58618,-1.2286308,CSO
5144209821000,4.029941,1.13504964379639,9.7906244718982,-0.413072151314952,0.87872964,-1.2345587,0.37048978,156.31535,-86.9586,-1.0692844,CSO
5144214865000,4.034985,1.21995901908784,9.80751584079392,-0.380233195777027,0.8741482,-1.244638,0.4175264,156.60764,-87.32079,-0.8384816,CSO
5144219798000,4.039918,1.0470561191723,9.68116361479448,-0.426783966908784,0.87964594,-1.1713341,0.4437936,156.88269,-87.67832,-0.6026575,CSO
5144225102000,4.045222,0.861149575253378,9.54530871783502,-0.47683571839527,0.87598073,-1.0888673,0.45051312,157.16243,-88.01453,-0.34217915,CSO
5144229870000,4.04999,0.655921872496745,9.39279806640625,-0.551535111447483,0.83291477,-0.99204516,0.43127087,157.4165,-88.31428,-0.08820167,CSO
5144234887000,4.055007,0.35354377125,9.1634075,-0.697510790833333,0.7800749,-0.9083566,0.3903429,157.65033,-88.572205,0.15533233,CSO
5144239858000,4.059978,0.185575430486641,9.11352365539804,-0.739957190471647,0.75228053,-0.8381071,0.33841935,157.8724,-88.80112,0.3332178,CSO
5144244853000,4.064973,0.172533952576336,9.27328194874591,-0.661708295774264,0.74067414,-0.7761043,0.27091873,158.07262,-88.97593,0.49068585,CSO
5144249761000,4.069881,0.159719623530534,9.43025766521265,-0.584822294738277,0.7247916,-0.7275405,0.21410827,158.26877,-89.14589,0.5769362,CSO
5144254800000,4.07492,0.257810712463306,9.5753890011742,-0.517169261263105,0.6808093,-0.72692966,0.17195857,158.46008,-89.25231,0.6458515,CSO
5144259867000,4.079987,0.465376710536778,9.70562658282311,-0.460190342665437,0.6270532,-0.73273283,0.13530666,158.6383,-89.2888,0.69814277,CSO
5144264869000,4.084989,0.686530410287356,9.82392149022988,-0.407314240310345,0.571159,-0.7623598,0.115453534,158.82762,-90.738556,0.7357297,CSO
5144269854000,4.089974,1.00662881555556,9.87879564444444,-0.375304409333333,0.50762904,-0.77518797,0.102319926,159.01244,-90.80153,0.7636975,CSO
5144275111000,4.095231,1.3290749691521,9.93532506593167,-0.352073199350112,0.45540005,-0.7828238,0.096516706,159.20473,-90.922874,0.83491844,CSO
5144279943000,4.100063,1.49354013430768,9.97560201320084,-0.422558281146007,0.42088616,-0.8038987,0.10140363,159.4035,-91.04644,0.9038848,CSO
5144284858000,4.104978,1.66083034265613,10.0165708037282,-0.494254095928048,0.36865717,-0.8032878,0.11484267,159.59842,-91.21573,1.0381962,CSO
5144289786000,4.109906,1.82189702953995,10.0530718818823,-0.564082907516581,0.35063666,-0.7809912,0.124311075,159.79272,-91.382355,1.170177,CSO
5144294851000,4.114971,1.96998512033898,10.0786043021371,-0.630467253500368,0.34666604,-0.7357872,0.14996742,159.97998,-91.54756,1.3082016,CSO
5144299760000,4.11988,2.14369494368488,10.1544409184244,-0.620474884670902,0.32742378,-0.6936375,0.16615535,160.16846,-91.75517,1.4889721,CSO
5144305177000,4.125297,2.38978932251588,10.3302229125794,-0.475455007933926,0.30818152,-0.66431594,0.1826487,160.34784,-91.96459,1.6736497,CSO
5144309977000,4.130097,2.59736263378099,10.4788473739669,-0.35684488893595,0.27091873,-0.6407976,0.18906279,160.51888,-92.19588,1.8835045,CSO
5144314859000,4.134979,2.63358731754477,10.5110468873967,-0.401119480476928,0.23671028,-0.59223384,0.20219639,160.67491,-92.42632,2.0960307,CSO
5144319777000,4.139897,2.67007912310606,10.5434838409091,-0.44572055405303,0.20005837,-0.5543602,0.21655174,160.82672,-92.677765,2.3575902,CSO
5144324800000,4.14492,2.60628491891575,10.5295704098863,-0.492783986197907,0.17715092,-0.49571714,0.23854288,160.95985,-92.92933,2.619941,CSO
