timestamp,rel_time,acc_x,acc_y,acc_z,gyro_x,gyro_y,gyro_z,azimuth,pitch,roll,label
11361701147000,0,4.78972875314332,-0.170254426001909,9.03086986190782,-0.6563747,-0.13744467,0.25625798,199.68376,-16.078373,16.772253,SIT
11361706870000,0.005723,4.780464248378,-0.214669611790237,9.05294117287873,-0.63316184,-0.13683382,0.25137106,199.65863,-15.869027,17.027334,SIT
11361711136000,0.009989,4.77355836381941,-0.247777279547183,9.06939342040658,-0.62980205,-0.15821409,0.2519819,199.62848,-15.6573,17.28258,SIT
11361716151000,0.015004,4.76543998335496,-0.28669780317613,9.08873425991717,-0.61575216,-0.1863139,0.26847526,199.59563,-15.457638,17.53564,SIT
11361721145000,0.019998,4.75735559810282,-0.325455349537638,9.1079941108675,-0.6041457,-0.21930063,0.26236662,199.57132,-15.263932,17.789381,SIT
11361726177000,0.02503,4.7492096977046,-0.364507807144988,9.12740051254593,-0.59803706,-0.24648413,0.25381452,199.54488,-15.074954,18.045528,SIT
11361731101000,0.029954,4.74123862982684,-0.402722095948365,9.14639040162871,-0.57818395,-0.2510656,0.24953845,199.51991,-14.896559,18.29946,SIT
11361736146000,0.034999,4.73307168477337,-0.441875444245082,9.16584693908253,-0.5714644,-0.25717425,0.24098633,199.50114,-14.720899,18.555336,SIT
11361741223000,0.040076,4.72485293749161,-0.481277138854087,9.18542688767581,-0.55955255,-0.2510656,0.23579398,199.48216,-14.555406,18.80415,SIT
11361746159000,0.045012,4.722165278337,-0.4963953892921,9.18800583418,-0.5534439,-0.26236662,0.22357668,199.46979,-14.39486,19.053452,SIT
11361751144000,0.049997,4.7235974862845,-0.49353096616885,9.17774166933,-0.53969944,-0.25717425,0.21777347,199.45546,-14.242579,19.291924,SIT
11361756147000,0.055,4.725034865695,-0.4906562000935,9.1674404423,-0.5384777,-0.25411993,0.20341812,199.36882,-13.902365,19.499483,SIT
11361761157000,0.06001,4.72647425623,-0.487777411759,9.1571248022,-0.52473325,-0.25289822,0.19181168,199.28233,-13.575734,19.701723,SIT
11361766145000,0.064998,4.727907326088,-0.4849112648104,9.14685446032,-0.5164866,-0.24648413,0.18448131,199.19778,-13.25505,19.89689,SIT
11361771135000,0.069988,4.729340970553,-0.4820439686449,9.13658000042,-0.50640726,-0.27855456,0.19639318,199.11339,-12.943689,20.098982,SIT
11361777125000,0.075978,4.731061918518,-0.4786020640294,9.12424653052,-0.4886922,-0.26297748,0.16829337,199.03882,-12.647148,20.278976,SIT
11361781148000,0.080001,4.7322177404985,-0.47629041423505,9.11596313329,-0.48349985,-0.27275133,0.15118915,198.96143,-12.353321,20.47262,SIT
11361786129000,0.084982,4.733648799232,-0.4734282895456,9.10570720448,-0.4728097,-0.2687807,0.124311075,198.89311,-12.075039,20.651907,SIT
11361791185000,0.090038,4.735101405728,-0.4705230692224,9.09529684992,-0.45173484,-0.2406809,0.106901415,198.82605,-11.80703,20.823067,SIT
11361796153000,0.095006,4.736528729516,-0.4676684144428,9.08506768824,-0.42577308,-0.22052236,0.08582657,198.76842,-11.551495,20.989925,SIT
11361801151000,0.100004,4.737964672409,-0.4647965214097,9.07477675626,-0.40622538,-0.2125811,0.06383542,198.71529,-11.306719,21.148006,SIT
11361806147000,0.105,4.739400040695,-0.4619257775935,9.0644899423,-0.37690386,-0.2284636,0.06169739,198.66287,-11.076259,21.304033,SIT
11361811158000,0.110011,4.7408397185335,-0.45904641465055,9.05417224319,-0.35430184,-0.22937989,0.054367006,198.61726,-10.856534,21.449152,SIT
11361816146000,0.114999,4.7422727883915,-0.45618026770195,9.04390190131,-0.3555236,-0.19517145,0.044593163,198.57204,-10.642995,21.585733,SIT
11361821132000,0.119985,4.7437052836425,-0.45331526997025,9.03363567745,-0.33567044,-0.17104226,0.046731193,198.5263,-10.444587,21.72282,SIT
11361826163000,0.125016,4.745150707551,-0.4504244148583,9.02327679814,-0.32345316,-0.15668693,0.03726278,198.48581,-10.250063,21.84928,SIT
11361831148000,0.130001,4.7465829154985,-0.44755999173505,9.01301263329,-0.3231477,-0.122478485,0.04520403,198.4371,-10.059298,21.962046,SIT
11361836150000,0.135003,4.7480200076055,-0.44468580026815,9.00271346527,-0.3210097,-0.14385876,0.09773844,198.38048,-9.872027,22.08598,SIT
11361841228000,0.140081,4.7494789347785,-0.44176793855905,8.99225781249,-0.31398472,-0.093767814,0.09010262,198.33406,-9.695381,22.17529,SIT
11361846345000,0.145198,4.750949066788,-0.4388276671204,8.98172185832,-0.30024028,-0.0842994,0.08827003,198.27402,-9.518286,22.282902,SIT
11361851150000,0.150003,4.7523295601055,-0.43606667351815,8.97182831527,-0.28008172,-0.089491755,0.10903945,198.208,-9.346544,22.379345,SIT
11361856142000,0.154995,4.7537637791775,-0.43319822813575,8.96154973735,-0.26267207,-0.09101892,0.11056661,198.14827,-9.1833515,22.469158,SIT
11361861149000,0.160002,4.755202307802,-0.4303211636266,8.95124027428,-0.2171626,-0.09315695,0.10842858,198.0843,-9.034204,22.559597,SIT
11361866144000,0.164997,4.7566373887845,-0.42745099441885,8.94095551933,-0.18478674,-0.099265605,0.1142318,198.01836,-8.888171,22.65021,SIT
11361871148000,0.170001,4.7580750554985,-0.42457565373505,8.93065223329,-0.14202617,-0.087964594,0.10598512,197.95717,-8.76143,22.733917,SIT
11361876177000,0.17503,4.7595199048,-0.42168594784,8.920297472,-0.10262536,-0.07574729,0.10415252,197.89311,-8.6435,22.817877,SIT
11361881148000,0.180001,4.7609480904985,-0.41882956923505,8.91006213329,-0.08155051,-0.07788532,0.1020145,197.83238,-8.535208,22.900612,SIT
11361886128000,0.184981,4.7623788619285,-0.41596801915405,8.89980826349,-0.05375614,-0.08827003,0.10842858,197.76988,-8.440289,22.980947,SIT
11361891175000,0.190028,4.763828882693,-0.4130679703069,8.88941644002,-0.03176499,-0.1001819,0.10598512,197.71146,-8.35246,23.060268,SIT
11361896171000,0.195024,4.765264250979,-0.4101972264907,8.87912962606,-0.033292156,-0.11056661,0.09743301,197.65385,-8.267391,23.140532,SIT
11361901144000,0.199997,4.7666930112845,-0.40733969866885,8.86889016933,-0.02443461,-0.115453534,0.08827003,197.59796,-8.1927,23.220873,SIT
11361906121000,0.204974,4.768122920804,-0.4044798724132,8.85864247656,-0.014049901,-0.11636983,0.094989546,197.54056,-8.118645,23.301746,SIT
11361911107000,0.20996,4.769555416055,-0.4016148746815,8.8483762527,-0.0061086523,-0.11056661,0.08124508,197.49265,-8.051046,23.379194,SIT
11361916325000,0.215178,4.771054565718,-0.3986165677894,8.83763233852,-0.010995574,-0.11484267,0.0842994,197.43845,-7.9814324,23.459217,SIT
11361921134000,0.219987,4.7724362082495,-0.39585327575335,8.82773055943,-0.009468411,-0.12217305,0.08307768,197.39008,-7.9188843,23.53618,SIT
11361926159000,0.225012,4.773879908337,-0.3929658682921,8.81738403418,-0.010079277,-0.13255776,0.09407325,197.33777,-7.8539677,23.614386,SIT
11361931132000,0.229985,4.7753086686425,-0.39010834047025,8.80714457745,-0.01863139,-0.15057829,0.10170906,197.288,-7.7890983,23.695133,SIT
11361936140000,0.234993,4.7767474845705,-0.38723070135265,8.79683305537,-0.016493361,-0.17745635,0.09682214,197.24004,-7.7282586,23.77973,SIT
11361941180000,0.240033,4.7781954942105,-0.38433467476465,8.78645564497,-0.023823744,-0.1777618,0.09590584,197.18857,-7.6626,23.860777,SIT
11361946161000,0.245014,4.78430012314976,-0.384807734538071,8.77445609775833,-0.028710667,-0.19120082,0.08857546,197.14291,-7.600665,23.950974,SIT
11361951144000,0.249997,4.79409684281759,-0.387914009546408,8.76107519945723,-0.040011674,-0.19639318,0.08307768,197.09709,-7.536255,24.037271,SIT
11361956132000,0.254985,4.80390339262757,-0.391023401427119,8.74768087460757,-0.03604105,-0.20372356,0.08674286,197.03,-7.477973,24.163065,SIT
11361961149000,0.260002,4.81376695726203,-0.394150871167602,8.73420867577622,-0.035124753,-0.17745635,0.06627888,196.9712,-7.42043,24.27738,SIT
11361966152000,0.265005,4.82360299749846,-0.397269613665437,8.72077407128086,-0.047647487,-0.17104226,0.046731193,196.91261,-7.3608637,24.397377,SIT
11361971082000,0.269935,4.83329551765949,-0.400342849826605,8.70753549439457,-0.06078109,-0.16584991,0.039095376,196.85593,-7.3033266,24.507893,SIT
11361976110000,0.274963,4.84318070860668,-0.403477176686311,8.69403375715638,-0.07849618,-0.160963,0.024129177,196.8077,-7.2455044,24.613651,SIT
11361981112000,0.279965,4.85301478281468,-0.406595295809671,8.68060183797073,-0.08735373,-0.15271631,0.021380283,196.758,-7.187012,24.715286,SIT
11361986114000,0.284967,4.86284885702269,-0.40971341493303,8.66716991878508,-0.10262536,-0.14966199,0.014049901,196.71475,-7.125649,24.814428,SIT
11361991110000,0.289963,4.87267113506011,-0.412827793809541,8.65375411145771,-0.119729586,-0.14538592,0.0021380284,196.67375,-7.0634804,24.908869,SIT
11361996119000,0.294972,4.88251897146713,-0.415950276554224,8.64030339510407,-0.12950343,-0.1459968,-0.004581489,196.63385,-7.000643,25.002064,SIT
11362001108000,0.299961,4.89232748730554,-0.41906029180941,8.6269063849447,-0.1328632,-0.13347405,-0.01160644,196.5974,-6.9377,25.088219,SIT
11362006105000,0.304958,4.90215173137139,-0.422175294060395,8.61348789230761,-0.13072516,-0.11575896,-0.007330383,196.55968,-6.874285,25.17165,SIT
11362011138000,0.309991,4.91204675246073,-0.425312737792476,8.59997272852086,-0.11942416,-0.07391469,-0.028710667,196.53105,-6.8175645,25.241941,SIT
11362016118000,0.314971,4.92183757404327,-0.428417142677389,8.5865998861489,-0.119729586,-0.05375614,-0.04153884,196.49893,-6.7579947,25.312462,SIT
11362021111000,0.319964,4.9316539539954,-0.431529651430474,8.57319213475067,-0.10781772,-0.04917465,-0.040317107,196.46834,-6.7064486,25.374123,SIT
11362026097000,0.32495,4.94145657174852,-0.434637796562236,8.55980318052044,-0.09010262,-0.032070424,-0.042760566,196.44185,-6.6593566,25.424896,SIT
11362031079000,0.329932,4.95125132538792,-0.437743448196098,8.54642496752905,-0.082161374,-0.03145956,-0.042760566,196.41495,-6.6132917,25.47824,SIT
11362036118000,0.334971,4.96115814264785,-0.440884632175028,8.53289369188402,-0.07086037,-0.03023783,-0.040011674,196.38748,-6.573448,25.525717,SIT
11362041157000,0.34001,4.97106495990777,-0.444025816153958,8.51936241623898,-0.040011674,-0.034208454,-0.03848451,196.3608,-6.541612,25.57362,SIT
11362046100000,0.344953,4.98078303843839,-0.447107156183299,8.50608893032641,-0.025961773,-0.028405234,-0.0421497,196.33466,-6.5093594,25.6175,SIT
11362051152000,0.350005,4.99071541406791,-0.450256444030403,8.4925227456551,-0.02321288,-0.044898596,-0.04153884,196.3079,-6.4819617,25.668226,SIT
11362056053000,0.354906,5.00035091940446,-0.4533116023318,8.47936204275049,-0.032070424,-0.059864793,-0.043066,196.28284,-6.4563665,25.71589,SIT
11362061014000,0.359867,5.01010438644682,-0.456404163101689,8.46604022126309,-0.03573562,-0.07513642,-0.036651913,196.25589,-6.432176,25.767786,SIT
11362066003000,0.364856,5.01991290228523,-0.459514178356875,8.45264321110371,-0.03573562,-0.06658431,-0.036957346,196.23137,-6.408142,25.815958,SIT
11362071006000,0.369859,5.02974894252167,-0.462632920854709,8.43920860660835,-0.047036625,-0.04917465,-0.029321533,196.20274,-6.3789406,25.865482,SIT
11362076076000,0.374929,5.03971670666293,-0.465793429442361,8.4255940863622,-0.048563786,-0.045814894,-0.03726278,196.17955,-6.3547363,25.91508,SIT
11362081027000,0.37988,5.04945051342099,-0.468879756467502,8.41229911797193,-0.042760566,-0.038179077,-0.039095376,196.1514,-6.3283296,25.958174,SIT
11362086023000,0.384876,5.05927279145841,-0.471994135344012,8.39888331064456,-0.050396383,-0.046120327,-0.04153884,196.12662,-6.299682,26.003649,SIT
11362091066000,0.389919,5.06918747283206,-0.475137812820842,8.38534129376067,-0.05131268,-0.023518313,-0.038179077,196.09929,-6.2742405,26.037678,SIT
11362096026000,0.394879,5.07893897384599,-0.478229750216256,8.37202215758298,-0.032986723,0.010079277,-0.04337143,196.07553,-6.2536855,26.06969,SIT
11362101580000,0.400433,5.08985829574748,-0.48169197204975,8.35710794743562,-0.023823744,0.041233405,-0.041233405,196.04782,-6.2297025,26.09571,SIT
11362106097000,0.40495,5.09873884616683,-0.484507754552792,8.3449784034609,-0.0290161,0.055283304,-0.040927973,196.02185,-6.2080293,26.11635,SIT
11362111084000,0.409937,5.10854342994838,-0.487616523059029,8.33158676392095,-0.025350908,0.06994407,-0.040011674,195.99394,-6.1909885,26.12777,SIT
11362116126000,0.414979,5.11845614529359,-0.490759577161383,8.31804743234677,-0.029932396,0.07360926,-0.034208454,195.96443,-6.1702085,26.1383,SIT
11362121082000,0.419935,5.1281997821938,-0.493849021058898,8.30473903740793,-0.018020526,0.07574729,-0.032375857,195.93552,-6.1553416,26.14486,SIT
11362126130000,0.424983,5.1381242937096,-0.496995815408103,8.29118359397548,-0.020463986,0.07971791,-0.0290161,195.90424,-6.1350617,26.150002,SIT
11362131114000,0.429967,5.14792297940586,-0.500102713790914,8.27780001036467,-0.018936822,0.087964594,-0.02076942,195.87074,-6.118323,26.153439,SIT
11362136102000,0.434955,5.15772952921584,-0.503212105671625,8.264405685515,-0.01985312,0.0852157,-0.029932396,195.84213,-6.102447,26.158321,SIT
11362141108000,0.439961,5.16757146753757,-0.506332718292884,8.2509630250905,-0.009468411,0.087659165,-0.0143553335,195.80275,-6.086012,26.16045,SIT
11362146111000,0.444964,5.15619177579823,-0.500649585415077,8.24418809376092,-0.009468411,0.08277224,-0.0076358155,195.76962,-6.06928,26.16478,SIT
11362151111000,0.449964,5.13086160642173,-0.48917932591073,8.24179845796529,-0.009162978,0.07880162,-0.002443461,195.73212,-6.053801,26.168573,SIT
11362156087000,0.45494,5.10565302185825,-0.477764123652005,8.23942029242148,-0.0106901415,0.07788532,0.0036651916,195.65079,-6.0099173,26.249407,SIT
11362161121000,0.459974,5.08015060733,-0.466215866383028,8.23701440710243,0.0021380284,0.0888809,0.0061086523,195.5693,-5.9703255,26.326637,SIT
11362166106000,0.464959,5.05489642846164,-0.454780017657195,8.23463194021419,0.0036651916,0.09865474,0.0076358155,195.4869,-5.927521,26.403257,SIT
11362171845000,0.470698,5.0258224600513,-0.441614453798106,8.23188911624797,0.0033597588,0.10934488,0.0030543262,195.40585,-5.8886847,26.475052,SIT
11362176149000,0.475002,5.00401825025202,-0.431740854416764,8.22983211775509,0.0076358155,0.10934488,0.008246681,195.32187,-5.8506274,26.546227,SIT
11362181135000,0.479988,4.97875900534978,-0.420302711639029,8.22744917293969,0.009162978,0.11575896,0.017715093,195.23796,-5.812471,26.61135,SIT
11362186122000,0.484975,4.95349469441367,-0.408862274809394,8.22506575019712,0.014966198,0.122478485,0.018936822,195.1556,-5.777523,26.675117,SIT
11362191141000,0.489994,4.92806827039355,-0.397348428318931,8.22266703378547,0.011301007,0.124311075,0.01863139,195.07129,-5.7401605,26.737585,SIT
11362196162000,0.495015,4.90263171430568,-0.385829993724666,8.2202673615195,0.022296581,0.12583824,0.01740966,194.98726,-5.708591,26.797152,SIT
11362201146000,0.499999,4.87738260147119,-0.374396439050733,8.21788537255841,0.02443461,0.13041973,0.021991149,194.90192,-5.673723,26.854452,SIT
11362206133000,0.504986,4.85211829053508,-0.362956002221098,8.21550194981585,0.026572637,0.12705997,0.025961773,194.818,-5.6424494,26.912481,SIT
11362211150000,0.510003,4.82670199858271,-0.351446743834436,8.21310418925852,0.03145956,0.13041973,0.021685716,194.73544,-5.6134453,26.966187,SIT
11362216148000,0.515001,4.80138196127397,-0.339981072433891,8.2107155093172,0.05497787,0.13133603,0.030543262,194.64825,-5.5880346,27.02107,SIT
11362221165000,0.520018,4.7759656693216,-0.32847181404723,8.20831774875987,0.06811147,0.12614368,0.043676864,194.56174,-5.5617075,27.075771,SIT
11362226181000,0.525034,4.7505544434031,-0.316964849712469,8.20592046612969,0.073303826,0.11759156,0.043676864,194.47723,-5.5402966,27.130075,SIT
11362231145000,0.529998,4.72540665124612,-0.305577176076554,8.20354803571179,0.083383106,0.11026118,0.052839845,194.38634,-5.5208907,27.185223,SIT
11362236134000,0.534987,4.70013220824226,-0.294132151143117,8.20116365711491,0.09743301,0.11881329,0.059864793,194.29645,-5.504405,27.237211,SIT
11362241482000,0.540335,4.67303905907716,-0.281863561577267,8.1986077026679,0.09407325,0.10598512,0.0729984,194.20325,-5.4843125,27.296804,SIT
11362246152000,0.545005,4.64938068087952,-0.271150339200208,8.19637578283479,0.09040806,0.10354166,0.079107046,194.10999,-5.4679346,27.350023,SIT
11362251143000,0.549996,4.62409610580791,-0.259700726162969,8.19399044838359,0.10140363,0.10415252,0.079107046,194.01543,-5.4537582,27.405186,SIT
11362256130000,0.554983,4.5988317948718,-0.248260289333333,8.19160702564103,0.095294975,0.102319926,0.0852157,193.91779,-5.4329762,27.461061,SIT
11362261148000,0.560001,4.57341043688555,-0.236748736894771,8.18920878715653,0.09437868,0.09773844,0.07880162,193.82489,-5.418198,27.516132,SIT
11362266154000,0.565007,4.54804987130581,-0.225264713079019,8.18681628379795,0.08979719,0.086132,0.08093964,193.72824,-5.399264,27.573133,SIT
11362271159000,0.570012,4.52269437175994,-0.213782983315168,8.18442425836652,0.08277224,0.08124508,0.08368854,193.63406,-5.3805084,27.628311,SIT
11362276175000,0.575028,4.49728314584144,-0.202276018980407,8.18202697573634,0.07544186,0.07971791,0.07666359,193.54327,-5.3618164,27.684528,SIT
11362281141000,0.579994,4.47212522161671,-0.19088375724069,8.17965358946412,0.06536258,0.065973446,0.07422013,193.45142,-5.3399887,27.744736,SIT
11362286119000,0.584972,4.44690650498548,-0.179463966878163,8.177274468066,0.0720821,0.07360926,0.06047566,193.36546,-5.323353,27.79766,SIT
11362291218000,0.590071,4.42107479825533,-0.16776659623563,8.17483751748161,0.05467244,0.059253927,0.056199603,193.27916,-5.2974916,27.859842,SIT
11362296150000,0.595003,4.39608911918236,-0.156452332260542,8.1724803807328,0.044593163,0.048563786,0.06414085,193.19359,-5.2756953,27.917702,SIT
11362301143000,0.599996,4.370794412043,-0.144998131119502,8.17009409042728,0.029626964,0.040317107,0.05222898,193.11687,-5.25189,27.977116,SIT
11362306116000,0.604969,4.34560102558114,-0.133589811016479,8.16771735866495,0.011301007,0.035124753,0.051923547,193.03479,-5.2224975,28.038126,CSO
11362311094000,0.609947,4.32038230894991,-0.122170020653951,8.16533823726682,-0.0036651916,0.032070424,0.043982297,192.95992,-5.193298,28.099121,CSO
11362316137000,0.61499,4.29483430011678,-0.110601116917867,8.16292805060335,-0.014660766,0.032070424,0.03756821,192.88544,-5.160881,28.159578,CSO
11362321174000,0.620027,4.2693166874869,-0.099045977493188,8.16052073150283,-0.028405234,0.019547688,0.03359759,192.81395,-5.1253576,28.223139,CSO
11362326179000,0.625032,4.24396118794103,-0.087564247729337,8.15812870607141,-0.034208454,0.016798794,0.036957346,192.74254,-5.0895863,28.28279,CSO
11362331129000,0.629982,4.21888432025831,-0.0762086908200337,8.15576296663373,-0.042455133,0.004886922,0.03970624,192.67403,-5.051053,28.347294,CSO
11362336154000,0.635007,4.19342750003493,-0.0646810800181653,8.15336138265912,-0.05131268,-0.009468411,0.040927973,192.60582,-5.011376,28.412144,CSO
11362341150000,0.640003,4.16811759479394,-0.0532199967214221,8.15097365857213,-0.059864793,-0.014660766,0.043982297,192.53694,-4.969832,28.476671,CSO
11362346160000,0.645013,4.16405107514573,-0.0530287460957023,8.15410640764778,-0.06811147,-0.020158553,0.04550946,192.46939,-4.9269667,28.544079,CSO
11362351147000,0.65,4.17838976879394,-0.0625878702370089,8.1619927194732,-0.0842994,-0.02687807,0.05100725,192.40053,-4.879819,28.612213,CSO
11362356141000,0.654994,4.19274858894215,-0.0721604120380287,8.16989010091619,-0.084910266,-0.030543262,0.059864793,192.32756,-4.881073,28.604435,CSO
11362361151000,0.660004,4.20715341251895,-0.0817636227755355,8.17781278434218,-0.09162979,-0.03023783,0.07422013,192.25145,-4.875263,28.59769,CSO
11362366145000,0.664998,4.22151223266716,-0.0913361645765553,8.18571016578517,-0.089491755,-0.029626964,0.09162979,192.17194,-4.869963,28.59216,CSO
11362371125000,0.669978,4.23583079981536,-0.100881871058149,8.19358540799304,-0.0842994,-0.035124753,0.0870483,192.0955,-4.8649387,28.58799,CSO
11362376157000,0.67501,4.25029887810647,-0.110527251583325,8.20154288164564,-0.07971791,-0.057726767,0.093767814,192.01076,-4.8565273,28.589218,CSO
11362381150000,0.680003,4.2646548230404,-0.120097876575815,8.20943868171469,-0.08368854,-0.07238753,0.0983493,191.92857,-4.8483343,28.589457,CSO
11362386121000,0.684974,4.27894751326001,-0.129626331780634,8.21729969155713,-0.0852157,-0.09560041,0.10323623,191.8456,-4.841066,28.598547,CSO
11362391144000,0.689997,4.29338971462254,-0.139254461029037,8.2252429328443,-0.07819075,-0.109650314,0.122783914,191.75708,-4.832453,28.60944,CSO
11362396149000,0.695002,4.30778016212791,-0.148848087723892,8.2331577094006,-0.070554934,-0.11453723,0.1133155,191.6774,-4.827091,28.623262,CSO
11362401149000,0.700002,4.32215623356184,-0.158432130376094,8.24106457908721,-0.082161374,-0.13927728,0.10873401,191.59148,-4.815473,28.64693,CSO
11362406138000,0.704991,4.33650067763862,-0.167995088134462,8.24895405366051,-0.08155051,-0.14080444,0.108123146,191.50737,-4.80971,28.664738,CSO
11362411156000,0.710009,4.35092850292971,-0.177613633340212,8.256889388078,-0.09162979,-0.1441642,0.1133155,191.42432,-4.798324,28.689545,CSO
11362416156000,0.715009,4.36530457436364,-0.187197675992414,8.26479625776461,-0.09285152,-0.14049901,0.12003502,191.34142,-4.7893333,28.712208,CSO
11362421154000,0.720007,4.379674895369,-0.196777885027556,8.27269996470335,-0.101098195,-0.13591751,0.12522738,191.25803,-4.7757487,28.735062,CSO
11362426875000,0.725728,4.39612399630371,-0.207743946630206,8.28174700499877,-0.1133155,-0.11636983,0.13744467,191.17026,-4.759192,28.752386,CSO
11362431159000,0.730012,4.4084414143083,-0.215955554374613,8.28852161094626,-0.10354166,-0.11575896,0.13683382,191.0861,-4.747421,28.77304,CSO
11362436141000,0.734994,4.42276573188507,-0.225505094473267,8.29640001590201,-0.118507855,-0.1160644,0.14569137,190.99503,-4.723759,28.78851,CSO
11362441138000,0.739991,4.43713317767615,-0.235083386699878,8.30430214146681,-0.122783914,-0.10781772,0.16157386,190.90227,-4.7046647,28.80108,CSO
11362446116000,0.744969,4.45144599439577,-0.244625259564411,8.3121742209268,-0.13439035,-0.13683382,0.17012598,190.8109,-4.6801815,28.823963,CSO
11362451157000,0.75001,4.46593994961546,-0.254287891366362,8.32014592694484,-0.15118915,-0.13897185,0.19242255,190.70961,-4.6496997,28.837204,CSO
11362456132000,0.754985,4.48024414069222,-0.263824013805303,8.32801326228302,-0.14813483,-0.1255328,0.18906279,190.61514,-4.624196,28.853247,CSO
11362461140000,0.759993,4.49464321384045,-0.273423390925749,8.33593278296114,-0.16310102,-0.12034045,0.21197024,190.50612,-4.583907,28.872957,CSO
11362466111000,0.764964,4.50893590406007,-0.282951846130569,8.34379379280357,-0.17989981,-0.096516706,0.21410827,190.40489,-4.5479198,28.882362,CSO
11362471109000,0.769962,4.52330622506542,-0.29253205516571,8.3516974997423,-0.21105394,-0.07819075,0.25167647,190.28568,-4.497262,28.892872,CSO
11362476127000,0.77498,4.53773405035652,-0.30215060037146,8.35963283415979,-0.23640485,-0.047647487,0.25045475,190.17833,-4.4497976,28.891773,CSO
11362481117000,0.77997,4.55208136964758,-0.311715474938358,8.36752389010703,-0.25625798,-0.02565634,0.2657264,190.05426,-4.3895082,28.888937,CSO
11362486084000,0.784937,4.56636255901005,-0.321236262909056,8.37537857445371,-0.28802297,-0.012217305,0.26236662,189.93718,-4.3238587,28.879148,CSO
11362491120000,0.789973,4.58084213815831,-0.330889310668355,8.38334237360207,-0.3295618,-0.01740966,0.27214047,189.81195,-4.248189,28.869036,CSO
11362496611000,0.795464,4.59662993980705,-0.341414506309003,8.39202569789191,-0.37965274,-0.02107485,0.2779437,189.68993,-4.164906,28.854456,CSO
11362501155000,0.800008,4.60969491352621,-0.350124484271325,8.3992114610631,-0.40622538,-0.034208454,0.27580565,189.56902,-4.0785317,28.844051,CSO
11362506119000,0.804972,4.62396747724582,-0.359639521816431,8.40706140128797,-0.43799037,-0.035430185,0.27122417,189.44817,-3.9797459,28.831285,CSO
11362511281000,0.810134,4.63880933339421,-0.369534087450565,8.41522445355243,-0.4822781,-0.07544186,0.28252518,189.32558,-3.871255,28.833494,CSO
11362516036000,0.814889,4.65248097732788,-0.37864851201281,8.4227438866244,-0.50701815,-0.08735373,0.28008172,189.20967,-3.7643518,28.827469,CSO
11362521038000,0.819891,4.66686279919039,-0.388236388282073,8.43065391905889,-0.5161811,-0.07941248,0.25809056,189.09851,-3.6537085,28.826653,CSO
11362526071000,0.824924,4.68133375269579,-0.39788368561578,8.43861297408543,-0.5479461,-0.08307768,0.23304509,188.99123,-3.5343456,28.83204,CSO
11362531038000,0.829891,4.69561494205825,-0.407404473586478,8.44646765843212,-0.58184916,-0.09193522,0.21288654,188.8909,-3.41685,28.83597,CSO
11362536043000,0.834896,4.71000538956362,-0.416998100281332,8.45438243498842,-0.6065892,-0.0983493,0.1853976,188.80252,-3.300547,28.839306,CSO
11362541078000,0.839931,4.72448209349759,-0.4266492312321,8.46234465276284,-0.6301075,-0.082161374,0.1740966,188.7165,-3.1790457,28.838318,CSO
11362546049000,0.844902,4.74058580559568,-0.490639341384685,8.46120674377342,-0.6606508,-0.055283304,0.1591304,188.64185,-3.0563402,28.835224,CSO
11362551045000,0.849898,4.758271912628,-0.600102070737799,8.45260266297018,-0.68661255,-0.020463986,0.14019357,188.57295,-2.9334846,28.82476,CSO
11362556032000,0.854885,4.77592615917928,-0.709367609425546,8.44401408191218,-0.7012733,0.01160644,0.11575896,188.44168,-2.745148,28.861094,CSO
11362561033000,0.859886,4.79362996647885,-0.818939889148309,8.43540139013937,-0.70005155,0.044898596,0.106595986,188.31308,-2.558745,28.886023,CSO
11362566051000,0.864904,4.81139395468705,-0.928884640127879,8.42675942106998,-0.7339546,0.04337143,0.10415252,188.19238,-2.3662004,28.910648,CSO
11362571039000,0.869892,4.82905174129177,-1.03817208888955,8.41816911781807,-0.74097955,0.027488936,0.10140363,188.07645,-2.185784,28.929152,CSO
11362576085000,0.874938,4.84691485099655,-1.14873032193916,8.40947892731905,-0.76052725,0.009468411,0.09162979,187.96565,-1.9989,28.948017,CSO
11362581046000,0.879899,4.86447705615815,-1.25742619870473,8.40093512330286,-0.7678576,-0.027794369,0.08582657,187.85684,-1.8169537,28.976337,CSO
11362586029000,0.884882,4.88211714249563,-1.36660409709676,8.39235343102053,-0.8078693,-0.04520403,0.090713486,187.74954,-1.6255817,29.003445,CSO
11362591283000,0.890136,4.90071658331785,-1.48171962552375,8.38330502418702,-0.82650065,-0.05955936,0.0842994,187.65005,-1.4438514,29.03932,CSO
11362596146000,0.894999,4.91793186324142,-1.58826831504421,8.37492999517458,-0.8542951,-0.07727446,0.086437434,187.54823,-1.2518178,29.080326,CSO
11362601129000,0.899982,4.9355719495789,-1.69744621343624,8.36634830289225,-0.90102625,-0.06261369,0.07666359,187.4541,-1.0568048,29.11505,CSO
11362606138000,0.904991,4.95330407730606,-1.80719377375044,8.35772183356811,-0.9282097,-0.0290161,0.07147124,187.35968,-0.86274165,29.148426,CSO
11362611154000,0.910007,4.97106098540736,-1.91709470458215,8.34908330888656,-0.95294976,-0.0061086523,0.07696902,187.26686,-0.66154134,29.179712,CSO
11362616132000,0.914985,4.9886833714776,-2.02616305260453,8.34051022757381,-0.9627236,0.022907447,0.076358154,187.17946,-0.46296,29.19884,CSO
11362621136000,0.919989,5.00639779893751,-2.13580106254908,8.33189236921924,-0.96852684,0.057726767,0.0729984,187.09302,-0.26295006,29.20914,CSO
11362626164000,0.925017,5.0241971876802,-2.24596491426795,8.3232331782107,-0.9737192,0.09621128,0.06658431,187.00966,-0.065265454,29.209656,CSO
11362631157000,0.93001,5.04187267455218,-2.35536191339927,8.31463426398921,-0.9761627,0.105068825,0.045814894,186.93399,0.12666723,29.208471,CSO
11362636216000,0.935069,5.0597818049518,-2.46620497740996,8.30592168496928,-0.96761054,0.113926366,0.026267206,186.86183,0.3124823,29.196299,CSO
11362641174000,0.940027,5.07733338995304,-2.57483512395374,8.29738304753484,-0.9584476,0.032986723,-0.0015271631,186.80069,0.49084905,29.207457,CSO
11362646154000,0.945007,5.09496285613018,-2.68394729212398,8.28880652183426,-0.97433007,-0.08307768,-0.056199603,186.75606,0.663197,29.22646,CSO
11362651145000,0.949998,5.11263126289525,-2.79330047110745,8.2802110520006,-0.98990715,-0.040011674,-0.049480084,186.7021,0.8344352,29.222744,CSO
11362656136000,0.954989,5.13029966966032,-2.90265365009091,8.27161558216694,-0.960891,-0.04520403,-0.029626964,186.66238,0.9892666,29.265419,CSO
11362661152000,0.960005,5.14805657776163,-3.01255458092262,8.26297705748539,-0.8885035,-0.15515977,0.025961773,186.60944,1.1397194,29.324947,CSO
11362666142000,0.964995,5.16572144447325,-3.12188584983216,8.25438330984565,-0.86162543,-0.18997909,0.048258353,186.56245,1.2892306,29.363884,CSO
11362671140000,0.969993,5.18341463161247,-3.23139239933313,8.24577578465458,-0.8378017,-0.20372356,0.055588737,186.50276,1.4241437,29.426859,CSO
11362676171000,0.975024,5.20122464051551,-3.34162198127379,8.23711142706429,-0.82986045,-0.19120082,0.06963864,186.43477,1.5575746,29.4907,CSO
11362681150000,0.980003,5.21885056663919,-3.4507122393701,8.22853662355762,-0.8151997,-0.13439035,0.073303826,186.36942,1.680311,29.544424,CSO
11362686137000,0.98499,5.23650481319047,-3.55997777805785,8.21994804249962,-0.8051204,-0.087964594,0.08368854,186.29855,1.8025517,29.596039,CSO
11362691137000,0.98999,5.25420508043659,-3.66952814770668,8.21133707292072,-0.81061816,-0.05100725,0.07391469,186.23488,1.9202274,29.63328,CSO
11362696149000,0.995002,5.27194782832409,-3.77934143824267,8.20270543701483,-0.81397796,-0.03848451,0.06505715,186.1689,2.0340736,29.663414,CSO
11362701146000,0.999999,5.28963747540986,-3.88882607766971,8.19409963401768,-0.8145888,0.01160644,0.012217305,186.12268,2.1386569,29.672337,CSO
11362706120000,1.004973,5.3072457012663,-3.99780678539637,8.18553344148059,-0.8051204,0.03848451,-0.016798794,186.07245,2.2414029,29.683779,CSO
11362711114000,1.009967,5.32492472819172,-4.10722569460163,8.17693280506519,-0.79137594,0.039095376,-0.022296581,186.03294,2.3370008,29.688631,CSO
11362716131000,1.014984,5.34268517634647,-4.21714853550727,8.16829255818972,-0.7733554,-0.011911872,-0.01282817,185.99825,2.425274,29.700762,CSO
11362721135000,1.019988,5.36039960380638,-4.32678654545182,8.15967469983516,-0.7651087,-0.011911872,-0.04550946,185.996837399501,2.46096637147132,29.6937224576559,CSO
11362726156000,1.025009,5.37817421217493,-4.43679702665318,8.15102756418402,-0.76052725,0.03268129,-0.08857546,185.99542,2.49678,29.686659,CSO
11362731135000,1.029988,5.39580013829862,-4.54588728474949,8.14245276067736,-0.7706065,0.04642576,-0.12217305,185.97488,2.5751116,29.695097,CSO
11362736144000,1.034997,5.41353226602578,-4.65563484506369,8.13382629135321,-0.7837401,0.03481932,-0.1423316,185.97531,2.640796,29.698936,CSO
11362741149000,1.040002,5.43125023353914,-4.76529476508217,8.12520671080473,-0.7852673,0.04917465,-0.20525073,186.00156,2.6939712,29.692663,CSO
11362746151000,1.045004,5.44593342926188,-4.78042477871445,8.1186090314566,-0.78038037,0.043982297,-0.23884831,186.02423,2.7488244,29.69524,CSO
11362751823000,1.050676,5.45950540906969,-4.70143589285268,8.11318024633589,-0.7812967,0.058948494,-0.28863382,186.07327,2.793197,29.689276,CSO
11362756144000,1.054997,5.46984471174063,-4.64126117920516,8.10904453044969,-0.7806858,0.12339478,-0.36254853,185.8846,3.3225572,29.740877,CSO
11362761149000,1.060002,5.48182069180729,-4.57156100753059,8.10425414442551,-0.77854776,0.14080444,-0.39950588,185.70575,3.8383038,29.79965,CSO
11362766144000,1.064997,5.49377274384185,-4.50200009693829,8.09947332960218,-0.75136423,0.17623462,-0.43035457,185.55743,4.3269644,29.834572,CSO
11362771143000,1.069996,5.50573436708925,-4.43238348191308,8.09468868629851,-0.7144069,0.21135938,-0.4718934,185.43143,4.7951837,29.864468,CSO
11362776217000,1.07507,5.51787545057741,-4.36172240877087,8.08983225898849,-0.66828656,0.24129178,-0.50915617,185.32101,5.2404194,29.885553,CSO
11362781215000,1.080068,5.5298346810216,-4.29211971985389,8.08504857280491,-0.62888575,0.25045475,-0.52534413,185.22348,5.6656303,29.902523,CSO
11362786118000,1.084971,5.54156659516083,-4.22384001121844,8.08035581302938,-0.5852089,0.2828306,-0.5290093,185.14142,6.0658092,29.904774,CSO
11362791140000,1.089993,5.55358325288206,-4.15390309570401,8.07554915596376,-0.54244834,0.35369098,-0.54702985,185.07654,6.4435368,29.894371,CSO
11362796149000,1.095002,5.56556880416156,-4.08414721959654,8.07075494145925,-0.5180137,0.38606682,-0.5296202,185.00604,6.8114643,29.884586,CSO
11362801156000,1.100009,5.57754956983465,-4.01441919570551,8.0659626411949,-0.4810564,0.42180246,-0.51343226,184.95009,7.155385,29.854849,CSO
11362806132000,1.104985,5.58945615860821,-3.94512288116952,8.06120001165318,-0.473726,0.47983465,-0.5271767,184.90579,7.4915214,29.81086,CSO
11362811145000,1.109998,5.60145128110056,-3.87531130062913,8.05640196866833,-0.4746423,0.5039638,-0.5375614,184.86009,7.816407,29.766464,CSO
11362816131000,1.114984,5.61338179790623,-3.80587572501087,8.05162976792576,-0.473726,0.539394,-0.54702985,184.82693,8.130546,29.704235,CSO
11362821889000,1.120742,5.62715955879011,-3.7256891938416,8.04611867047777,-0.46181414,0.58276546,-0.5833763,184.81235,8.430387,29.636093,CSO
11362826158000,1.125011,5.63737443569412,-3.66623863782187,8.04203272483597,-0.42271876,0.5699373,-0.5888741,184.7942,8.720074,29.574358,CSO
11362831151000,1.130004,5.64932170212226,-3.59670557944602,8.03725382425281,-0.41691554,0.5323691,-0.6102544,184.7983,9.001667,29.511713,CSO
11362836137000,1.13499,5.66125221892793,-3.52727000382776,8.03248162351025,-0.3735441,0.50335294,-0.6414085,184.81087,9.256474,29.452768,CSO
11362841160000,1.140013,5.67327126945237,-3.45731916220511,8.02767400932454,-0.3222314,0.4364632,-0.68539083,184.83333,9.4975395,29.418388,CSO
11362846161000,1.145014,5.68523767830619,-3.38767469496345,8.02288745178071,-0.2742785,0.4025602,-0.72265357,184.86674,9.720169,29.385525,CSO
11362851149000,1.150002,5.69717298071828,-3.31821126712873,8.01811333679797,-0.17256944,0.32498032,-0.7516697,184.90688,9.906949,29.386595,CSO
11362856133000,1.154986,5.70909871191753,-3.24880354372692,8.01334305029558,-0.007941248,0.21594086,-0.75747293,184.9489,10.05997,29.40742,CSO
11362861145000,1.159998,5.72109144160666,-3.17900588929476,8.00854596443081,0.063224554,0.113926366,-0.74372846,184.99028,10.205965,29.448788,CSO
11362866143000,1.164996,5.73305067205085,-3.10940320037778,8.00376227824722,0.077579886,-0.025045475,-0.6976081,185.01352,10.326153,29.529058,CSO
11362871152000,1.170005,5.74503622333035,-3.0396473242703,7.99896806374271,0.071776666,-0.04550946,-0.6985244,185.04846,10.426437,29.605726,CSO
11362876177000,1.17503,5.75706005946122,-2.9696686304312,7.99415853531684,0.065973446,-0.004886922,-0.7180721,185.06894,10.524527,29.701063,CSO
11362881131000,1.179984,5.76891400656416,-2.90067869027619,7.98941696241699,0.07422013,0.0015271631,-0.6808093,185.06723,10.626141,29.806686,CSO
11362886117000,1.18497,5.78084452336983,-2.83124311465793,7.98464476167442,0.090713486,0.023823744,-0.66645396,185.08286,10.718683,29.89763,CSO
11362891293000,1.190146,5.79322967278542,-2.75916157847659,7.97969070811575,0.12339478,0.0018325958,-0.6713409,185.08978,10.805439,29.996748,CSO
11362896152000,1.195005,5.8048563035834,-2.69149461860312,7.97504006162395,0.13072516,-0.09437868,-0.65240407,185.08043,10.897709,30.10682,CSO
11362901144000,1.199997,5.81680117720833,-2.62197548633549,7.97026211816088,0.13255776,-0.105068825,-0.6637051,185.08675,10.976153,30.200033,CSO
11362906112000,1.204965,5.82868862355622,-2.55279058066531,7.96550714557984,0.12889257,-0.118202426,-0.6618725,185.0751,11.056799,30.317087,CSO
11362911148000,1.210001,5.8407387805224,-2.48265869963571,7.96068708883303,0.14996742,-0.12980886,-0.6795876,185.07233,11.124454,30.436893,CSO
11362916135000,1.214988,5.85267169013127,-2.41320919790922,7.95591393097038,0.15821409,-0.12095132,-0.7110472,185.07353,11.192493,30.553667,CSO
11362921147000,1.22,5.86466441982041,-2.34341154347707,7.95111684510561,0.14966199,-0.11911872,-0.73426,185.07594,11.256347,30.674444,CSO
11362926166000,1.225019,5.87667389913201,-2.27351640628732,7.94631305940025,0.1563815,-0.087964594,-0.76144356,185.09221,11.307627,30.7851,CSO
11362931131000,1.229984,5.88855416707026,-2.20437327894182,7.94156095817946,0.16371189,-0.038179077,-0.8060367,185.12273,11.353279,30.891003,CSO
11362936144000,1.234997,5.90054928956261,-2.13456169840144,7.93676291519461,0.14630222,0.011301007,-0.84665924,185.16266,11.398494,30.98828,CSO
11362941157000,1.24001,5.91254441205495,-2.06475011786105,7.93196487220976,0.13591751,0.053145275,-0.87964594,185.21732,11.433508,31.074907,CSO
11362946152000,1.245005,5.91677748051113,-2.0010853429637,7.91982323472331,0.13041973,0.06414085,-0.86467975,185.27051,11.471623,31.154757,CSO
11362951146000,1.249999,5.91343007466692,-1.94322300199573,7.90045609591705,0.14569137,0.03268129,-0.8561276,185.3359,11.500295,31.236448,CSO
11362956122000,1.254975,5.91009473396192,-1.88556921572088,7.88115876257705,0.13316862,-0.0009162979,-0.8426886,185.44673,11.258128,31.42635,CSO
11362961120000,1.259973,5.90674464697566,-1.82766052926555,7.86177611144496,0.122783914,-0.03145956,-0.81061816,185.54555,11.019976,31.618145,CSO
11362966145000,1.264998,5.90337646228059,-1.76943901077055,7.84228875211346,0.0983493,-0.028099801,-0.8060367,185.64818,10.790075,31.806505,CSO
11362971138000,1.269991,5.90002972672189,-1.71158825617442,7.82292549138866,0.05497787,-0.011911872,-0.81061816,185.74127,10.574524,31.994059,CSO
11362976160000,1.275013,5.89666355288336,-1.65340149679493,7.80344976630155,0.013744468,-0.04428773,-0.78893244,185.82025,10.372697,32.18823,CSO
11362981145000,1.279998,5.89332217960875,-1.59564343317352,7.78411753022842,-0.009468411,-0.10629055,-0.7476991,185.89258,10.182707,32.381397,CSO
11362986131000,1.284984,5.88998013604863,-1.53787378318027,7.76478141607383,-0.028099801,-0.20738874,-0.75747293,185.96912,10.000017,32.592434,CSO
11362991182000,1.290035,5.88659452393027,-1.47935101901743,7.74519322662441,-0.05681047,-0.2932153,-0.8026769,186.0404,9.82895,32.8121,CSO
11362996149000,1.295002,5.88326521579487,-1.42180151008914,7.72593079601754,-0.1001819,-0.38912117,-0.86132,186.11197,9.664743,33.059734,CSO
11363001143000,1.299996,5.87991780995066,-1.36393916912117,7.70656365721128,-0.14569137,-0.505491,-0.88239485,186.17923,9.50918,33.332726,CSO
11363006134000,1.304987,5.87657241496298,-1.30611158726872,7.68720815264939,-0.20189096,-0.569021,-0.87109387,186.25293,9.364744,33.613995,CSO
11363011153000,1.310006,5.87320825198098,-1.24795958700475,7.66774406180666,-0.25534168,-0.66828656,-0.88117313,186.33165,9.225719,33.934547,CSO
11363016127000,1.31498,5.869874251847,-1.19032897347358,7.64845448462957,-0.2929099,-0.75777835,-0.904386,186.4086,9.097641,34.264286,CSO
11363021140000,1.319993,5.86651411057807,-1.13224649144066,7.62901366227559,-0.35643986,-0.8405506,-0.94714653,186.49097,8.984771,34.615284,CSO
11363026203000,1.325056,5.86312045503357,-1.07358469081574,7.60937893584866,-0.45631635,-0.9108001,-1.001819,186.58194,8.884477,34.983112,CSO
11363031219000,1.330072,5.85975830290811,-1.01546744966729,7.5899264792503,-0.5726862,-0.91446525,-1.022283,186.67651,8.802197,35.348923,CSO
11363036134000,1.334987,5.8564638496193,-0.95852043207467,7.5708657088793,-0.67073005,-0.89736104,-0.9859365,186.76884,8.739632,35.721302,CSO
11363041141000,1.339994,5.85310773006344,-0.900507468272783,7.55144815501407,-0.75228053,-0.8368854,-0.97158116,186.88022,8.692943,36.077682,CSO
11363046153000,1.345006,5.84974825908002,-0.842436572611697,7.53201121074155,-0.83291477,-0.7504479,-0.9804387,186.99173,8.670082,36.41449,CSO
11363051143000,1.349996,5.84640353437786,-0.784620577131087,7.51265958426113,-0.91751957,-0.6954701,-1.0143417,187.1107,8.663785,36.73745,CSO
11363056134000,1.354987,5.84305813939018,-0.726792995278637,7.49330407969924,-0.9960158,-0.66339964,-1.0424415,187.23651,8.672532,37.037045,CSO
11363061149000,1.360002,5.83969665755023,-0.668687340502032,7.47385550118234,-1.07665,-0.64721173,-1.1129965,187.3933,8.685976,37.3245,CSO
11363066146000,1.364999,5.83634724084949,-0.610790240418543,7.4544767281317,-1.1462886,-0.63438356,-1.1484267,187.55089,8.713938,37.598583,CSO
11363071150000,1.370003,5.83299313215016,-0.552812035732176,7.43507080851085,-1.2250903,-0.61117065,-1.2189816,187.74904,8.741373,37.866154,CSO
11363076964000,1.375817,5.82909609218656,-0.485448869855569,7.41252364290821,-1.2889256,-0.6398814,-1.3051136,187.96394,8.769527,38.142933,CSO
11363081152000,1.380005,5.82628893646458,-0.43692514459048,7.3962822377579,-1.3451253,-0.7144069,-1.3826935,188.20045,8.799954,38.425095,CSO
11363086132000,1.384985,5.82295091461753,-0.379225012828268,7.37696939209207,-1.4046847,-0.7874053,-1.4068227,188.44768,8.836862,38.712223,CSO
11363091140000,1.389993,5.81959412477615,-0.321200462654542,7.35754796014538,-1.4636332,-0.78801614,-1.3906348,188.70917,8.8766775,38.99715,CSO
11363096154000,1.395007,5.81623331322171,-0.263106394249776,7.33810325970994,-1.4920384,-0.80939645,-1.4364496,188.99637,8.904017,39.308147,CSO
11363101147000,1.4,5.81288657766302,-0.205255639653647,7.31873999898514,-1.5577064,-0.84116143,-1.5106697,189.28857,8.946796,39.618114,CSO
11363106112000,1.404965,5.80955861009864,-0.147729303469032,7.29948532454119,-1.6190983,-0.86437434,-1.6053538,189.60541,8.979085,39.930527,CSO
11363111099000,1.409952,5.80621589625301,-0.089948067103941,7.28014533230514,-1.672549,-0.8735373,-1.6487253,189.93065,9.016119,40.24422,CSO
11363116131000,1.414984,5.80284301955936,-0.0316454440060593,7.26063082640344,-1.7415768,-0.8313876,-1.7024814,190.29791,9.046701,40.550987,CSO
11363121135000,1.419988,5.79948891086003,0.0263327606803081,7.24122490678258,-1.7907515,-0.8023715,-1.6899587,190.65634,9.085153,40.857567,CSO
11363126164000,1.425017,5.79611804502292,0.0846006246626706,7.22172203512526,-1.8277088,-0.71837753,-1.6468927,191.03186,9.128094,41.133446,CSO
11363131129000,1.429982,5.79279007745854,0.142126960847286,7.20246736068131,-1.8524488,-0.6301075,-1.677436,191.43387,9.163667,41.399124,CSO
11363136143000,1.434996,5.7894292659041,0.200221029252051,7.18302266024587,-1.9453003,-0.55924714,-1.7599027,191.84544,9.216191,41.642944,CSO
11363141148000,1.440001,5.78607448691927,0.258210820310258,7.16361286254356,-2.0320432,-0.45356745,-1.8570304,192.28455,9.260636,41.85165,CSO
11363146901000,1.445754,5.92628992304024,0.398355191282663,6.95336607739692,-2.130698,-0.3885103,-1.9092593,192.74048,9.316648,42.051254,CSO
11363151156000,1.450009,6.11252626342772,0.544105335609538,6.69020584739195,-2.1777346,-0.32742378,-1.8808541,193.21059,9.374084,42.22082,CSO
11363156140000,1.454993,6.31003981399881,0.457237762282362,6.61419696965599,-2.191479,-0.22693644,-1.8118263,193.72264,9.206187,42.483013,CSO
11363161174000,1.460027,6.4873866630344,0.0929572951918871,6.78675100825214,-2.1820107,-0.16035213,-1.8555032,194.27263,9.026362,42.73572,CSO
11363166117000,1.46497,6.5339991642086,-0.184146280291691,6.87399173531907,-2.2180517,-0.15118915,-1.9388863,194.64793,8.838652,43.095787,CSO
11363171191000,1.470044,6.43563345765375,-0.376193847513977,6.86930765172547,-2.2904391,-0.105068825,-2.0555615,195.07066,8.64009,43.422657,CSO
11363176263000,1.475116,6.39221346662353,-0.476365586098945,6.84045877996217,-2.363743,-0.00030543262,-2.1212296,195.44135,8.533541,43.71762,CSO
11363181174000,1.480027,6.42498493235119,-0.44827577579136,6.7795975283695,-2.4049764,0.08307768,-2.166739,195.85783,8.414017,44.0038,CSO
11363186040000,1.484893,6.51487899362688,-0.41395922639243,6.69278046417536,-2.435825,0.16371189,-2.2101104,196.21074,8.351482,44.25421,CSO
11363191150000,1.490003,6.70862526535342,-0.366704032630359,6.5557403400927,-2.4666739,0.24190263,-2.2391264,196.58759,8.288693,44.47825,CSO
11363196043000,1.494896,6.88067176212228,-0.352320928449955,6.39153058638691,-2.5033257,0.3213151,-2.2562308,196.85231,8.235719,44.726463,CSO
11363201144000,1.499997,7.02779958608573,-0.411172001704648,6.14141356730248,-2.510656,0.4098906,-2.266921,197.14046,8.175876,44.945675,CSO
11363206057000,1.50491,7.20987718789002,-0.424259273687598,5.88114167168487,-2.5399778,0.44868052,-2.275473,197.17001,8.132131,45.273087,CSO
11363211153000,1.510006,7.49062996909126,-0.338605863695398,5.56707920647426,-2.5463917,0.5326745,-2.2947154,197.23415,8.077124,45.55617,CSO
11363216214000,1.515067,7.76779212581716,-0.0795290079050588,5.16090581246103,-2.5900686,0.6441574,-2.3115141,196.87332,8.076138,45.976055,CSO
11363221136000,1.519989,8.03327271738912,0.598394887780348,4.53512982117067,-2.5986207,0.7696902,-2.2947154,196.54471,8.066383,46.35621,CSO
11363226193000,1.525046,8.29723773813967,0.898898238925449,4.08110696488557,-2.613587,0.9275989,-2.1050417,195.20013,8.147197,47.02156,CSO
11363231110000,1.529963,8.53312285639917,0.255995451668795,4.08573216138886,-2.5610526,1.16492,-2.147802,194.0421,8.162456,47.61608,CSO
11363236103000,1.534956,8.70570276285373,-0.25895167290554,4.03185075591869,-2.5631905,1.219287,-2.2278256,191.25739,8.116873,48.803905,CSO
11363241154000,1.540007,8.66714384356317,-0.340889854521722,3.79085620180351,-2.6279423,1.2922854,-2.2797492,188.74779,8.064289,49.857395,CSO
11363246120000,1.544973,8.60620998869631,-0.468503950243029,3.57411014253956,-2.6487117,1.4196508,-2.3316727,187.55566,7.9875317,50.5197,CSO
11363251104000,1.549957,8.47132649811605,-0.747263361290505,3.42124199875659,-2.6508498,1.5354098,-2.3970351,186.50113,7.8922405,51.143517,CSO
11363256115000,1.554968,8.31838714948507,-1.02183421940081,3.2960821342557,-2.676506,1.6224581,-2.4349089,185.80179,7.755473,51.68073,CSO
11363261148000,1.560001,8.02757210579424,-1.25248054128784,3.39636318019349,-2.6615398,1.6566665,-2.4654522,185.20657,7.589431,52.187218,CSO
11363266110000,1.564963,7.76340650615672,-1.4686354673694,3.48905757063433,-2.6429086,1.704314,-2.5231788,185.16687,7.4284115,52.50397,CSO
11363271095000,1.569948,7.59417738162313,-1.63786445239739,3.55585852371269,-2.605951,1.7440202,-2.5720482,185.17122,7.250408,52.807766,CSO
11363276195000,1.575048,7.42683523841084,-1.80352407807381,3.61386424385238,-2.5659394,1.7779233,-2.6282477,185.64684,7.08633,52.905716,CSO
11363281114000,1.579967,7.35144070382226,-1.8523088232348,3.51629475353041,-2.503631,1.8081611,-2.6673431,186.14503,6.9032607,52.99355,CSO
11363286113000,1.584966,7.27481999261909,-1.9018869775466,3.4171384449068,-2.430022,1.8432859,-2.7088819,186.86499,6.7324286,52.963005,CSO
11363291173000,1.590026,7.19509229659521,-2.0748701593947,3.23158650037831,-2.3377812,1.8768835,-2.7433958,187.59666,6.5417943,52.925713,CSO
11363296048000,1.594901,7.11810333064313,-2.25149156544767,3.04590749659521,-2.2198844,1.91323,-2.7827966,188.34637,6.3254647,52.879433,CSO
11363301105000,1.599958,7.05795370867347,-2.30984889477041,2.86821690848214,-2.0793853,1.9364429,-2.8041768,189.15411,6.0964437,52.808548,CSO
11363306436000,1.605289,7.0041917396155,-2.34882094750997,2.69212567903671,-1.9446895,1.9089539,-2.8041768,189.95872,5.847366,52.74159,CSO
11363311089000,1.609942,7.0816574092443,-2.40350238114327,2.7149096295429,-1.777007,1.890628,-2.7919595,190.77052,5.6122026,52.657078,CSO
11363316397000,1.61525,7.15491736445761,-2.46443966886633,2.75532415572476,-1.6924021,1.8371773,-2.762638,191.57571,5.38148,52.59652,CSO
11363321089000,1.619942,7.05354242176161,-2.50245518967851,2.94962588296672,-1.5219707,1.7580702,-2.731484,192.36023,5.1140447,52.546997,CSO
11363326179000,1.625032,6.94356832578492,-2.54369538595601,3.16040929977439,-1.3701707,1.6728544,-2.687807,193.12875,4.8581257,52.505447,CSO
11363331166000,1.630019,6.77010999898053,-2.73744166044449,3.44463163267408,-1.2095132,1.570229,-2.6258042,193.85783,4.5860815,52.488384,CSO
11363336040000,1.634893,6.59404078621674,-2.9420626052095,3.73014910175349,-1.0299188,1.4563028,-2.5442538,194.542,4.302493,52.49525,CSO
11363341109000,1.639962,6.22160331095606,-3.140168674505,4.20855060033943,-0.84604836,1.3460416,-2.4642303,195.24043,4.0215654,52.45381,CSO
11363346085000,1.644938,5.83968710050915,-3.33337348642278,4.69380926645295,-0.66920286,1.2379184,-2.3762658,195.88055,3.7353666,52.44022,CSO
11363351105000,1.649958,5.69289697712771,-3.30631006645725,4.92166265333268,-0.47555858,1.0977248,-2.2632558,196.4759,3.4958432,52.366146,CSO
11363356104000,1.654957,5.60360493432806,-3.22641748823991,5.08614722308825,-0.29718593,0.94989544,-2.1529946,197.01627,3.251951,52.32275,CSO
11363361115000,1.659968,5.59952947831167,-3.20461889389514,5.3240246650796,-0.105068825,0.8127562,-2.05098,197.52586,3.0512698,52.150696,CSO
11363366110000,1.664963,5.62048897590185,-3.1999612709946,5.58252302786622,0.07941248,0.6918049,-1.9468275,197.96837,2.8507707,52.014526,CSO
11363371093000,1.669946,5.64139812034468,-3.1953148375785,5.84040037356506,0.25442538,0.5516113,-1.851838,198.40315,2.6220815,51.87513,CSO
11363376197000,1.67505,5.66281499235675,-3.19055557686091,6.10453964156565,0.4364632,0.39584067,-1.7620409,198.77837,2.3868046,51.773186,CSO
11363381183000,1.680036,5.73053164088139,-3.15243968359119,6.43391710932958,0.6105598,0.22785273,-1.6609426,199.1042,2.1487784,51.707764,CSO
11363386103000,1.684956,5.81889142709798,-3.09942376572902,6.79177433577121,0.75716746,0.08124508,-1.5586227,199.3767,1.9085274,51.679173,CSO
11363391086000,1.689939,5.80938103794364,-3.06328657050979,7.16612109120241,0.8585711,-0.019242255,-1.4618006,199.63818,1.6603372,51.5931,CSO
11363396113000,1.694966,5.71100397795225,-3.04257557921058,7.55445148872876,0.9279043,-0.05131268,-1.3735305,199.84735,1.4176735,51.528297,CSO
11363401894000,1.700747,5.89791497929949,-2.84433787831562,8.13006075560803,0.9673051,-0.038789943,-1.3023647,200.05463,1.1635836,51.421333,CSO
11363406087000,1.70494,6.11915777447855,-2.6507504428473,8.58439854279811,0.99173975,0.043066,-1.2596041,200.22763,0.91793895,51.304092,CSO
11363411116000,1.709969,6.35953691683788,-2.533540745113,8.83600270658448,1.0067059,0.051923547,-1.1618657,200.37462,0.6889266,51.124676,CSO
11363416106000,1.714959,6.58396071441151,-2.48211035151159,8.92016141708248,0.9963212,-0.0571159,-1.047023,200.4874,0.47772685,50.958733,CSO
11363421089000,1.719942,6.60756629785651,-2.41344932715094,8.94025814289967,1.0183123,-0.18325958,-0.91996306,200.62985,0.22259554,50.739544,CSO
11363426135000,1.724988,6.49247348243525,-2.33192525582018,8.91628050431676,1.0500773,-0.31123585,-0.80481493,200.71786,-0.005019335,50.5573,CSO
11363431117000,1.72997,6.30148853536356,-2.20171073609761,8.87603136841583,1.0680978,-0.3915646,-0.7128797,200.76863,-0.22178361,50.417297,CSO
11363436099000,1.734952,6.05538139242139,-2.03606178121218,8.82397018500149,1.0882565,-0.4034765,-0.6414085,200.77145,-0.42005435,50.298527,CSO
11363441106000,1.739959,5.93235084417133,-1.84200211272127,8.77386734907824,1.1065824,-0.3662137,-0.591623,200.77097,-0.6222999,50.175396,CSO
11363446074000,1.744927,5.90616848628818,-1.62818008531597,8.7258668912226,1.1420126,-0.33841935,-0.5494733,200.73727,-0.8138425,50.06215,CSO
11363451074000,1.749927,5.9557991504959,-1.37157089996981,8.6510512097887,1.2021828,-0.3475823,-0.5213735,200.74313,-1.0416181,49.919724,CSO
11363456072000,1.754925,6.1312420974558,-1.04648605493747,8.53236918456231,1.2791518,-0.38728857,-0.48899764,200.72298,-1.2649078,49.782127,CSO
11363461089000,1.759942,6.32756096205047,-0.755987401386847,8.37323547138883,1.3460416,-0.3915646,-0.46944994,200.7556,-1.5436434,49.638817,CSO
11363466068000,1.764921,6.54072705821578,-0.500187888134314,8.17901737373336,1.3933836,-0.35735616,-0.45478916,200.76897,-1.8217646,49.49904,CSO
11363471249000,1.770102,6.92021464841981,-0.263419227332382,8.07002544698238,1.4434745,-0.29352075,-0.42821655,200.82942,-2.1677222,49.389652,CSO
11363476072000,1.774925,7.40679698997736,-0.0678768073854485,8.04728797213744,1.4926492,-0.24862215,-0.39675698,200.87212,-2.5111487,49.278187,CSO
11363481067000,1.77992,7.93914634193484,0.157723818409843,7.95833413928112,1.5552629,-0.20952678,-0.3659083,200.94344,-2.9101982,49.20974,CSO
11363486093000,1.784946,8.50631424267749,0.410328106467868,7.79628612498267,1.6029104,-0.16707164,-0.35277468,200.99753,-3.304569,49.128822,CSO
11363491069000,1.789922,8.97586093689177,0.502969235322914,7.62351199895803,1.6102408,-0.09712757,-0.3472769,201.056415467912,-3.72431551047089,49.0942262932645,CSO
11363496159000,1.795012,9.34482214302566,0.407135267702743,7.43184390360759,1.5806139,-0.007941248,-0.37751472,201.11665,-4.1536784,49.058838,CSO
11363501186000,1.800039,9.61531698906706,0.280205368090379,7.39004889067055,1.5583172,0.04337143,-0.42210788,201.19989,-4.6209908,49.106762,CSO
11363506331000,1.805184,9.77093990573372,0.108620909757046,7.53769139067055,1.5598444,0.13622294,-0.48258355,201.28537,-5.0861835,49.113667,CSO
11363510998000,1.809851,9.9121045611435,-0.047022368579527,7.67161705587949,1.5509869,0.21838433,-0.52198434,201.32887,-5.5131025,49.189888,CSO
11363516034000,1.814887,9.9319043379783,-0.233116206837236,7.50494364395203,1.539075,0.32436943,-0.6169739,201.40599,-5.955159,49.22483,CSO
11363521027000,1.81988,9.93799300613497,-0.403107177730061,7.37046909509202,1.4966198,0.48991394,-0.6988298,201.47453,-6.386146,49.215557,CSO
11363526063000,1.824916,9.92367633485058,-0.508097651911736,7.45159792889373,1.4501941,0.65209866,-0.7806858,201.51814,-6.7767205,49.173256,CSO
11363531039000,1.829892,9.88713298103603,-0.534093150872542,7.51364933017267,1.4544702,0.8005389,-0.8359691,201.52908,-7.1405764,49.114315,CSO
11363536040000,1.834893,9.74372472631999,-0.189913087981635,7.48974795438667,1.4850134,0.9462303,-0.86834496,201.54332,-7.507357,49.007366,CSO
11363541052000,1.839905,9.53256107960894,0.16980106276257,7.43206992248603,1.4773777,1.0888673,-0.883922,201.53435,-7.848247,48.845753,CSO
11363546047000,1.8449,8.99807913727055,0.599295637465283,7.21255053551477,1.4517213,1.2421945,-0.90224797,201.51695,-8.193733,48.640648,CSO
11363551032000,1.849885,8.47924422727865,0.98171945506936,7.0446734179406,1.4043792,1.3588698,-0.9071349,201.55588,-8.600854,48.381424,CSO
11363556042000,1.854895,8.03254617179034,1.12912969117401,7.13848010567917,1.3796391,1.4049901,-0.8933904,201.57355,-9.000491,48.103622,CSO
11363561247000,1.8601,7.55677383361008,1.26758238985696,7.24777295056517,1.3738359,1.352761,-0.8775079,201.68665,-9.489926,47.76657,CSO
11363566147000,1.865,6.92307811089327,1.16431345617685,7.53880349272782,1.3716979,1.251052,-0.8885035,201.78868,-9.970252,47.435215,CSO
11363571336000,1.870189,6.24310360350493,1.04586019975306,7.82972931484616,1.3466524,1.1414018,-0.91446525,201.9321,-10.477981,47.03679,CSO
11363576709000,1.875562,5.42332975136911,0.805051595244449,7.90658306332769,1.3197744,1.0372492,-0.9569204,202.07968,-10.982419,46.66861,CSO
11363581447000,1.8803,4.7215539682303,0.586825507518641,7.987878277395,1.2873985,0.93431836,-0.9975429,202.24608,-11.466131,46.198967,CSO
11363586120000,1.884973,4.22735539514866,0.316494711320434,8.19485049749882,1.3035865,0.80909103,-1.0433578,202.43045,-11.956181,45.766552,CSO
11363591136000,1.889989,3.69688245644172,0.0263215305521472,8.41701455828221,1.3292428,0.68661255,-1.0818423,202.62471,-12.415403,45.24812,CSO
11363596133000,1.894986,3.61807864950116,-0.302464198065101,8.70894640179381,1.3634512,0.6203337,-1.1169671,202.83072,-12.881123,44.75042,CSO
11363601038000,1.899891,3.58494155104303,-0.629101558591152,9.00244661443112,1.4318681,0.46089783,-1.1224649,203.0545,-13.353149,44.315624,CSO
11363606136000,1.904989,4.02565311631732,-0.865006297954067,9.38163176762612,1.4608842,0.26389378,-1.1108584,203.26529,-13.771173,43.803757,CSO
11363611090000,1.909943,4.50146789888677,-1.08388113271487,9.75752564707652,1.5121969,0.09010262,-1.0662653,203.4741,-14.194843,43.336155,CSO
11363616126000,1.914979,4.67928664928514,-1.34512414189371,10.1192131114108,1.518611,-0.010079277,-1.031446,203.63847,-14.53824,42.873707,CSO
11363621069000,1.919922,4.82826931821779,-1.60477951853251,10.4725147142343,1.50731,-0.05955936,-1.0198395,203.80516,-14.878107,42.45133,CSO
11363626202000,1.925055,5.14608616899511,-1.51368787139008,10.9054127264744,1.5012014,-0.092240654,-0.9972375,203.89786,-15.138459,42.097706,CSO
11363631152000,1.930005,5.51980217887436,-1.277158634288,11.3500878088015,1.4932601,-0.12186762,-0.9718866,203.98851,-15.389084,41.763924,CSO
11363636149000,1.935002,5.55576333618427,-1.02309787432209,11.1580490621052,1.4556919,-0.13255776,-0.9611965,204.01764,-15.558175,41.429363,CSO
11363641124000,1.939977,5.44925897716007,-0.76378224889688,10.6996160365439,1.3946054,-0.079107046,-0.98624194,204.04578,-15.720925,41.091568,CSO
11363646114000,1.944967,5.53399589582603,-0.408394616250644,10.3545724025559,1.3460416,-0.034208454,-1.0079277,204.08554,-15.889728,40.758125,CSO
11363651110000,1.949963,5.72630580187571,0.000880396636091935,10.0735035079872,1.3542882,-0.038179077,-1.0033462,204.12463,-16.056433,40.432697,CSO
11363656136000,1.954989,5.67884764892284,0.484006701826283,9.64889028799452,1.3784174,-0.1001819,-0.99265605,204.21986,-16.283333,40.147533,CSO
11363661144000,1.959997,5.52855958938504,0.995925133679005,9.1651509335096,1.4230106,-0.21013765,-0.97158116,204.31425,-16.510057,39.884247,CSO
11363666135000,1.964988,5.36704299511365,1.69747581250626,9.04655404285571,1.4584408,-0.30451632,-0.9611965,204.45857,-16.809906,39.687008,CSO
11363671149000,1.970002,5.19876076445379,2.50042194958446,9.11386675438069,1.4697418,-0.3491095,-0.97341377,204.60648,-17.109272,39.509197,CSO
11363676215000,1.975068,5.47973430227092,3.46759759048805,9.78756959193227,1.457219,-0.36041048,-0.99112886,204.84042,-17.525206,39.363007,CSO
11363681197000,1.98005,5.97395882505976,4.49406351389442,10.7427534662351,1.3759739,-0.33353242,-0.98563105,205.06383,-17.919226,39.22065,CSO
11363686122000,1.984975,6.40806264410058,5.29524667847723,11.5146746931598,1.2562444,-0.35796702,-0.9428705,205.40445,-18.448463,39.019753,CSO
11363691201000,1.990054,6.82715677117988,6.00941753248637,12.2202926522771,1.0626001,-0.42210788,-0.8875872,205.72997,-18.930763,38.825848,CSO
11363696144000,1.994997,7.07332176113561,6.37654041703409,12.4720406877084,0.8145888,-0.46395215,-0.8509353,206.13728,-19.49288,38.550602,CSO
11363701143000,1.999996,7.06302507908377,6.22209018625659,12.0292832519626,0.5751296,-0.46273044,-0.84329945,206.52205,-19.994978,38.2905,CSO
11363706107000,2.00496,7.14208472214658,5.70865898886664,11.2818010060072,0.47983465,-0.4120286,-0.83108217,206.9416,-20.541996,37.987137,CSO
11363711170000,2.010023,7.30713994148979,4.844546772497,10.228360925811,0.32284227,-0.364992,-0.79137594,207.32942,-20.998743,37.70106,CSO
11363716124000,2.014977,7.34551714216671,3.86584957423677,9.26687667690688,0.27091873,-0.30787608,-0.72784597,207.66537,-21.429165,37.46662,CSO
11363721128000,2.019981,7.27213630047851,2.75596290102402,8.35878740214375,0.3115413,-0.2501493,-0.65026605,207.96156,-21.822397,37.234993,CSO
11363726344000,2.025197,7.19895144600535,1.73633458504307,7.6879688959311,0.408058,-0.1826487,-0.59803706,208.12918,-22.094229,37.17834,CSO
11363731249000,2.030102,7.13384489135729,0.931805967044847,7.36708754472824,0.5329799,-0.086437434,-0.58184916,208.26341,-22.367853,37.105564,CSO
11363736060000,2.034913,7.1261949095861,0.374335902487895,7.26636496353963,0.6056729,0.005497787,-0.5696318,208.25504,-22.489468,37.17103,CSO
11363741160000,2.040013,7.20248053434205,0.131176259438305,7.48091759239555,0.6377433,0.14782938,-0.5381723,208.2084,-22.620365,37.20331,CSO
11363746038000,2.044891,7.20849929258817,0.109214519756724,7.77813608595338,0.65057147,0.31764993,-0.50854534,208.04955,-22.637234,37.274563,CSO
11363751154000,2.050007,7.08647540440327,0.489928358770871,8.26623061936641,0.60231316,0.4541783,-0.4831944,207.86252,-22.641434,37.321903,CSO
11363756052000,2.054905,6.94863101220553,0.918928711885604,8.62019930305381,0.49266282,0.6414085,-0.5009095,207.60216,-22.582357,37.314972,CSO
11363761790000,2.060643,6.74086417906932,1.56353924768783,8.78534745409598,0.34666604,0.8848383,-0.5311473,207.3059,-22.502798,37.261536,CSO
11363766046000,2.064899,6.55180520361446,2.05514810361446,8.88404592771084,0.2003638,1.0708468,-0.552833,207.03412,-22.447975,37.08364,CSO
11363771141000,2.069994,6.238270362249,2.67731850391566,8.94283383835341,0.07666359,1.1267409,-0.5720753,206.75536,-22.372368,36.87631,CSO
11363776133000,2.074986,5.85172198956655,3.21683651823236,8.94118544029971,-0.0021380284,1.0690142,-0.6047566,206.55016,-22.381294,36.575386,CSO
11363781230000,2.080083,5.26967871466323,3.60224351221399,8.79960735417338,-0.027794369,0.95325524,-0.65576386,206.35931,-22.381407,36.275574,CSO
11363786042000,2.084895,4.72018053164679,3.96610037998711,8.66594564131486,0.011911872,0.7993172,-0.72173727,206.27959,-22.50176,35.914825,CSO
11363791222000,2.090075,3.90018267508464,4.28481316263692,8.45872173590918,0.105068825,0.63041294,-0.806953,206.24123,-22.63855,35.58441,CSO
11363796073000,2.094926,3.08133141142203,4.56701610230034,8.25053886327425,0.23457226,0.54825157,-0.85062987,206.21875,-22.793911,35.273746,CSO
11363801146000,2.099999,2.15419628638889,4.65650184293651,8.12233654097222,0.31306845,0.34666604,-0.9569204,206.37138,-23.104181,34.9014,CSO
11363806063000,2.104916,1.23857371680556,4.69387435996032,8.01956270451389,0.4905248,0.12950343,-1.0616838,206.5452,-23.467093,34.553368,CSO
11363811163000,2.110016,0.567545365239191,4.76101533768574,8.01868453839517,0.6719518,-0.03634648,-1.16492,206.8329,-23.962578,34.106,CSO
11363816119000,2.114972,-0.0103241539900298,4.83381769960694,8.04598529939603,0.8344419,-0.15271631,-1.2641857,207.16814,-24.503544,33.68936,CSO
11363821159000,2.120012,-0.0525640957521538,5.00748042819275,8.24818705235255,0.9550878,-0.19975294,-1.3359623,207.58131,-25.136038,33.139935,CSO
11363826174000,2.125027,0.129307288707753,5.22117934422039,8.52099441153081,0.99173975,-0.2593123,-1.3888022,208.02734,-25.790665,32.611588,CSO
11363831788000,2.130641,0.855720750793716,5.46740461281521,8.76178266391071,1.0204504,-0.3295618,-1.4016303,208.51279,-26.504585,31.9842,CSO
11363836164000,2.135017,1.64398816412154,5.66230593633733,8.92203489541133,1.0134255,-0.39370266,-1.4217888,209.01064,-27.217667,31.36159,CSO
11363841137000,2.13999,2.29693003970497,5.72670634441923,8.98957883237054,1.0296134,-0.45265114,-1.4761559,209.51758,-27.947472,30.747684,CSO
11363846176000,2.145029,2.83456290631318,5.7117721082319,8.99953467794512,1.024421,-0.4709771,-1.5741998,210.0315,-28.667902,30.132004,CSO
11363851129000,2.149982,3.1514414645614,5.76315449824561,8.81529925964912,1.0088439,-0.43218717,-1.68385,210.5104,-29.367136,29.644073,CSO
11363856137000,2.15499,3.39184569738346,5.84008390496241,8.5556629512782,0.945314,-0.34666604,-1.7724255,210.99014,-30.05185,29.13994,CSO
11363861145000,2.159998,3.39565112871559,5.79258822239639,8.20111700862154,0.89369583,-0.26145032,-1.8527542,211.4414,-30.707497,28.711021,CSO
11363866180000,2.165033,3.31061670224356,5.69810563593612,7.80901397883805,0.852157,-0.2648101,-1.9129245,211.89722,-31.347187,28.274736,CSO
11363871140000,2.169993,3.03308891110481,5.52960565627067,7.47260917096683,0.8518516,-0.28955013,-1.9694295,212.33714,-32.00809,27.880096,CSO
11363876217000,2.17507,2.66088051491352,5.322823107315,7.15094732151971,0.8784242,-0.3036,-2.0308216,212.77802,-32.661854,27.474936,CSO
11363881232000,2.180085,2.1740648557524,5.18854851828887,7.12266794820759,0.9120218,-0.31306845,-2.0900755,213.21129,-33.337803,27.09708,CSO
11363886126000,2.184979,1.6172648468737,5.10551672864735,7.29361553140892,0.9117164,-0.3200934,-2.1453588,213.64723,-34.007854,26.712418,CSO
11363891149000,2.190002,1.3447057495015,5.12717625321847,7.51847645958765,0.90102625,-0.34666604,-2.1728477,214.09117,-34.6917,26.296412,CSO
11363896147000,2.195,1.23351057834672,5.20593967280999,7.76866547373923,0.9193522,-0.4447099,-2.1771238,214.54536,-35.37516,25.89233,CSO
11363901628000,2.200481,1.17753978332655,5.37163722420603,7.99527461604235,0.9297369,-0.623388,-2.1762075,215.04636,-36.0404,25.389719,CSO
11363906108000,2.204961,1.16443792664902,5.54632799293567,8.1568638017101,0.9718866,-0.66156703,-2.1856759,215.52913,-36.706833,24.876812,CSO
11363911170000,2.210023,1.43446897761759,5.81077439902685,8.2724229715264,0.9972375,-0.72051555,-2.1774292,216.04532,-37.34729,24.365313,CSO
11363916209000,2.215062,1.87799650884844,6.11515606125428,8.34634434781042,1.0112875,-0.7788532,-2.176513,216.56122,-37.9839,23.861355,CSO
11363921066000,2.219919,2.19004379126595,6.20671054759568,8.32579774288518,1.0476339,-0.9068295,-2.119397,217.07974,-38.62293,23.377409,CSO
11363926176000,2.225029,2.33411876192345,5.98099297154073,8.15770983415113,1.110553,-1.0079277,-2.0964894,217.60098,-39.26234,22.897165,CSO
11363931106000,2.229959,2.40597693608514,5.84015652078775,8.05918065008952,1.1838568,-1.0925325,-2.0906863,218.09314,-39.912712,22.537336,CSO
11363936145000,2.234998,2.35797858160931,5.83535679059081,8.07358044211259,1.2458596,-1.1969905,-2.1468859,218.6087,-40.56742,22.195782,CSO
11363941090000,2.239943,2.28741948975828,5.74960675229589,7.99538697786623,1.2654073,-1.2815952,-2.2269092,219.11523,-41.19342,21.915886,CSO
11363946135000,2.244988,2.17016156334336,5.50571006944957,7.73741924589846,1.2495248,-1.4440855,-2.1676552,219.63376,-41.80184,21.688744,CSO
11363951100000,2.249953,1.9714061143282,5.37469350213571,7.51446372784536,1.2596041,-1.6053538,-2.17804,220.19458,-42.430485,21.436752,CSO
11363956144000,2.254997,1.55786961303956,5.5183430040191,7.36646134986933,1.2837334,-1.7357736,-2.2461514,220.77487,-43.046535,21.209114,CSO
11363961179000,2.260032,1.15086054543539,5.66068253439568,7.225807625,1.244027,-1.9025398,-2.2678373,221.39163,-43.633472,21.025,CSO
11363966144000,2.264997,0.815484644155346,5.78903625827238,7.16784125,1.2250903,-2.0677788,-2.2186625,222.02893,-44.22044,20.8628,CSO
11363971388000,2.270241,0.461262846307907,5.92460260832463,7.10661755,1.2064588,-2.2461514,-2.1908681,222.73888,-44.868576,20.630041,CSO
11363976256000,2.275109,0.413571470021752,6.09090782537077,6.96404851471228,1.1630874,-2.4599543,-2.1090124,223.46608,-45.480145,20.452671,CSO
11363981136000,2.279989,0.42743388346846,6.26649841821238,6.80232051866719,1.1679744,-2.6929994,-1.9956968,224.22028,-46.080143,20.319593,CSO
11363986125000,2.284978,0.469950971218404,6.46354941812796,6.48471799770932,1.1930199,-2.9119947,-1.8869628,225.02835,-46.71391,20.146673,CSO
11363991061000,2.289914,0.521292048074645,6.66424635936019,6.12066304478673,1.2183707,-3.0112603,-1.8301523,225.84477,-47.33012,20.00107,CSO
11363996155000,2.295008,0.663897450886974,6.90013559736442,5.76967504997466,1.248914,-3.148705,-1.7223345,226.67636,-47.972908,19.939482,CSO
11364001044000,2.299897,0.834759699746579,7.13744438646731,5.44218911429296,1.2925909,-3.2754595,-1.640784,227.51892,-48.610703,19.89051,CSO
11364006144000,2.304997,0.973591416556748,7.28360801565115,5.04383137931883,1.3564262,-3.4202344,-1.488984,228.3332,-49.30775,19.935814,CSO
11364011087000,2.30994,1.09474430276602,7.39078144197264,4.63843516818585,1.4367551,-3.5656204,-1.3747523,229.16899,-50.00161,19.998692,CSO
11364016131000,2.314984,1.26731550077566,7.59702180710024,4.23202283970764,1.534188,-3.6505308,-1.2873985,229.93391,-50.758137,20.164637,CSO
11364021114000,2.319967,1.45713737553699,7.83904486837709,3.83339686306683,1.6331482,-3.6948185,-1.2064588,230.70888,-51.502636,20.353394,CSO
11364026193000,2.325046,1.76727290052941,8.12052957876471,3.40067055029412,1.702176,-3.723529,-1.1453724,231.39427,-52.309994,20.639185,CSO
11364031211000,2.330064,2.12062894864706,8.41263749315686,2.96250912147059,1.7809776,-3.726889,-1.0922271,232.08093,-53.10894,20.920614,CSO
11364036126000,2.334979,2.48992864349693,8.73001177484663,2.50444659220859,1.8576412,-3.6984837,-1.0497719,232.58167,-53.974297,21.328135,CSO
11364041179000,2.340032,2.8808219551636,9.07142459151329,2.01954092387526,1.9333885,-3.6270125,-1.0158689,233.08414,-54.8129,21.709745,CSO
11364046149000,2.345002,3.1269768722299,9.24637776456646,1.67302533447561,2.0002782,-3.5515707,-1.0015136,233.27158,-55.690247,22.301022,CSO
11364051140000,2.349993,3.32050957588386,9.35966547975509,1.37564587072882,2.044566,-3.4434474,-0.99265605,233.47055,-56.50929,22.841877,CSO
11364056142000,2.354995,3.33503198351389,9.39810384045696,1.28980361292102,2.0491474,-3.3270776,-0.9789116,233.18742,-57.294556,23.672518,CSO
11364061134000,2.359987,3.26911659095923,9.40281217057317,1.29922017482765,2.046704,-3.2244523,-0.96486163,232.97484,-57.9771,24.423943,CSO
11364066142000,2.364995,3.04675532951176,9.32014151017988,1.48974152775252,1.9960022,-3.173445,-0.9618073,232.65152,-58.55665,25.235733,CSO
11364071159000,2.370012,2.74284185236213,9.19192735965606,1.77466046836331,1.9083431,-3.196047,-0.95294976,232.4204,-59.016582,25.970816,CSO
11364076200000,2.375053,2.32221705619602,8.98703370887728,1.99538797734485,1.8075503,-3.2852333,-0.97158116,232.28336,-59.39097,26.6111,CSO
11364081173000,2.380026,1.84395368821048,8.74311974477807,2.17712805518176,1.6884315,-3.419929,-1.0064005,232.2384,-59.672607,27.18624,CSO
11364086113000,2.384966,1.54650574759225,8.43510906482745,2.24401833781186,1.5775595,-3.5036175,-1.03786,232.55835,-60.08725,27.395088,CSO
11364091158000,2.390011,1.34199530055276,8.08383227953289,2.24883034478363,1.4785993,-3.538437,-1.0815369,232.91756,-60.450962,27.56586,CSO
11364096144000,2.394997,1.1398765515064,7.73666358746576,2.25358607654997,1.4330899,-3.599829,-1.103528,233.51978,-60.938957,27.48083,CSO
11364101146000,2.399999,0.937109206394104,7.38838083621832,2.25835706938897,1.3472633,-3.681074,-1.1426234,234.13046,-61.394737,27.367527,CSO
11364106108000,2.404961,0.946977567645899,7.11548911841483,2.20732749258675,1.258077,-3.7531562,-1.1661417,234.77463,-61.84365,27.210903,CSO
11364111122000,2.409975,1.08425331524054,6.88354041076498,2.12212191750789,1.2012665,-3.8020253,-1.1713341,235.42271,-62.26191,27.040209,CSO
11364116133000,2.414986,1.26185558081049,6.80132491263409,2.10763954517282,1.1484267,-3.860363,-1.1691961,236.20477,-62.740456,26.751257,CSO
11364121150000,2.420003,1.46706159450735,6.82041388006555,2.14104515097338,1.1096367,-3.936721,-1.1814134,236.9906,-63.19728,26.451973,CSO
11364126155000,2.425008,1.66497859971609,6.87987040957047,2.04382603286015,1.0873401,-4.0033054,-1.1707232,237.79321,-63.59074,26.187716,CSO
11364131146000,2.429999,1.85758827867021,6.9674200641817,1.85559379778368,1.0861185,-3.9996402,-1.1545353,238.58058,-63.961376,25.915386,CSO
11364136148000,2.435001,2.09886450691797,7.05639204285564,1.66572702583974,1.0900891,-3.948633,-1.1410962,239.39139,-64.3005,25.64437,CSO
11364141165000,2.440018,2.4125322915447,7.14745716984311,1.47347893508476,1.1026118,-3.8741074,-1.1184943,240.17635,-64.60999,25.375586,CSO
11364146151000,2.445004,2.77827914535563,7.26031370550071,1.25739627919807,1.1285735,-3.7849212,-1.0818423,240.89063,-115.160065,25.160055,CSO
11364151151000,2.450004,3.19797610284102,7.39538845867419,1.01619124192222,1.1621711,-3.6798522,-1.0231993,241.56085,-114.96777,24.952282,CSO
11364156561000,2.455414,3.71842046693854,7.5441888547626,0.712940692455578,1.183246,-3.5763106,-0.9639453,242.17462,-114.86745,24.804325,CSO
11364161136000,2.459989,4.20339796402563,7.6718146965919,0.427910023288669,1.2226468,-3.4287865,-0.9098838,242.72867,-114.807976,24.667301,CSO
11364166082000,2.464935,4.67973571719102,7.726724415074,0.197927233535039,1.2382239,-3.2898147,-0.872621,243.22858,-114.86923,24.614664,CSO
11364171120000,2.469973,5.10532781584828,7.67943644251691,0.060792022264628,1.2391402,-3.133128,-0.8426886,243.66718,-114.9664,24.570698,CSO
11364176119000,2.474972,5.49085996913767,7.65585228903681,-0.0291119480627332,1.2284501,-2.950479,-0.820392,244.02747,-115.21128,24.63342,CSO
11364181162000,2.480015,5.82695799016641,7.66559415451336,-0.0534668843761977,1.2046263,-2.7198775,-0.7825184,244.31882,-115.48408,24.703836,CSO
11364186065000,2.484918,5.98941307110878,7.79321998599733,-0.0746750125823966,1.2110404,-2.6352727,-0.77763146,244.59639,-115.87562,24.863495,CSO
11364191288000,2.490141,5.92747216184035,8.09815930356258,-0.0937337535130501,1.180497,-2.4715607,-0.79290307,244.77551,-116.27269,25.024754,CSO
11364196044000,2.494897,5.81280488231091,8.36394558732265,-0.120731113177503,1.0925325,-2.2531765,-0.8017606,245.04764,-116.61395,25.135635,CSO
11364201130000,2.499983,5.56422059732571,8.62247397050117,-0.170448001322854,1.058324,-2.0167716,-0.8051204,245.25569,-116.95762,25.242674,CSO
11364206065000,2.504918,5.28390908571976,8.85779430571784,-0.194516217314433,1.0198395,-1.8225164,-0.8191703,245.36986,-117.26356,25.314747,CSO
11364211152000,2.510005,4.92463075816493,9.0724280928072,-0.175852408470453,0.9975429,-1.6548339,-0.8384125,245.41275,-117.565056,25.387774,CSO
11364216042000,2.514895,4.54072962057865,9.23287688630807,-0.10684149949674,0.9859365,-1.4831808,-0.8472701,245.43451,-117.73975,25.336134,CSO
11364221152000,2.520005,4.03221038606357,9.27276049877751,0.107534187738386,0.9841039,-1.3435981,-0.84238315,245.40724,-117.914764,25.289516,CSO
11364226886000,2.525739,3.41485027763604,9.23144774147897,0.397785839968108,0.9877691,-1.2302825,-0.8197812,245.33115,-117.98381,25.136042,CSO
11364231147000,2.53,2.90649399550528,9.10944232549332,0.666197937738689,0.9807441,-1.1600331,-0.80664754,245.21893,-118.05589,24.990383,CSO
11364236074000,2.534927,2.35718149338589,8.99642189290521,0.995516504864449,0.95417154,-1.1187997,-0.80909103,245.1033,-117.991776,24.728117,CSO
11364241093000,2.539946,1.88585565684484,8.94559257594693,1.37442552868679,0.89461213,-1.1032226,-0.8173377,244.96942,-117.93229,24.477543,CSO
11364246087000,2.54494,1.47214556108658,8.89962301747905,1.74902141704658,0.8359691,-1.1609493,-0.8344419,244.87634,-117.71777,24.094023,CSO
11364251088000,2.549941,1.24775890518065,8.86941741003694,2.11580734628345,0.79412484,-1.248914,-0.85062987,244.78363,-117.50543,23.716381,CSO
11364256386000,2.555239,1.02814570163073,8.84179215716318,2.49992917963226,0.69974613,-1.3768903,-0.8897252,244.74463,-117.1272,23.21433,CSO
11364261158000,2.560011,1.07816270646821,8.87680371062712,2.7850259661924,0.56688297,-1.5381587,-0.9071349,244.74152,-116.749275,22.715664,CSO
11364266170000,2.565023,1.17672566466321,8.94860952190297,3.03593703565709,0.43463063,-1.6939293,-0.90224797,244.79224,-116.25766,22.148733,CSO
11364271105000,2.569958,1.46167512165803,9.1623219865756,3.08491278459727,0.2950479,-1.8463402,-0.8924741,244.89125,-115.75247,21.578568,CSO
11364276122000,2.574975,1.75442960465753,9.38620354478398,3.12314208726027,0.17256944,-2.0103576,-0.8622363,245.04805,-115.211395,21.014225,CSO
11364281099000,2.579952,2.09093889205479,9.70764484668072,2.98753383643836,0.07819075,-2.1731532,-0.80664754,245.25607,-114.67147,20.460978,CSO
11364286172000,2.585025,2.42540491898393,10.0169938057955,2.80719088914275,-0.014049901,-2.257147,-0.754724,245.4969,-114.14863,19.960285,CSO
11364291090000,2.589943,2.70973826452122,10.2313378952354,2.43537026549642,-0.061391957,-2.399784,-0.7318166,245.80884,-113.63438,19.464039,CSO
11364296432000,2.595285,3.01471443062538,10.440936704806,2.03097433287754,-0.12522738,-2.484389,-0.643852,246.13857,-113.18208,19.050621,CSO
11364301103000,2.599956,3.23509747994169,10.3464863233461,1.67116531494068,-0.20677789,-2.5127943,-0.61269784,246.49387,-112.72146,18.634132,CSO
11364306384000,2.605237,3.48022741967851,10.2294060664482,1.26021744896079,-0.2284636,-2.521041,-0.5681047,246.87982,-112.37339,18.297167,CSO
11364311171000,2.610024,3.6538974467083,9.99941098290161,0.837776976461554,-0.24801129,-2.5002716,-0.5439755,247.26619,-112.02407,17.973639,CSO
11364316140000,2.614993,3.83189811464177,9.75576409998105,0.398699924094011,-0.2501493,-2.4651468,-0.5149594,247.65616,-111.78664,17.728,CSO
11364321112000,2.619965,3.98081040990334,9.44891414205838,-0.0480374046095527,-0.2415972,-2.3991733,-0.49113566,248.02988,-111.5583,17.498087,CSO
11364326584000,2.625437,4.14430331505334,9.1136381572501,-0.543027810837614,-0.23609942,-2.3069327,-0.47219884,248.39282,-111.43517,17.331839,CSO
11364331184000,2.630037,4.27484462678783,8.87431275227183,-1.0173275951126,-0.22418754,-2.1972823,-0.4541783,248.72903,-111.323074,17.181316,CSO
11364336066000,2.634919,4.41338868850257,8.62031565942315,-1.52070401833663,-0.19822577,-2.0534234,-0.41691554,249.02219,-111.33772,17.106068,CSO
11364341106000,2.639959,4.43779748428187,8.45353112179807,-2.01365601906708,-0.16462818,-1.9101756,-0.3885103,249.27972,-111.35845,17.041445,CSO
11364346088000,2.644941,4.45206384076547,8.29659985976278,-2.49871412575501,-0.093767814,-1.7379116,-0.35277468,249.48587,-111.40054,17.001122,CSO
11364351105000,2.649958,4.36925771295741,8.23533046530694,-2.73670026313737,-0.004886922,-1.568702,-0.33017266,249.6145,-111.581406,17.027714,CSO
11364356060000,2.654913,4.2791150569886,8.18314295080984,-2.95019641055789,0.09315695,-1.4159856,-0.3145956,249.69695,-111.78022,17.070164,CSO
11364361117000,2.65997,4.24154359942501,8.28046444226162,-2.81175869549593,0.20861048,-1.2663237,-0.31520647,249.67645,-112.1003,17.146128,CSO
11364366044000,2.664897,4.20989105939626,8.3889878143747,-2.64445236527072,0.3155119,-1.1273518,-0.31490102,249.61554,-112.43555,17.232073,CSO
11364371141000,2.669994,4.26235237739364,8.49369998338615,-2.23078349882839,0.38545597,-1.0033462,-0.31764993,249.45624,-112.82895,17.321037,CSO
11364376198000,2.675051,4.33211590935369,8.59601961010276,-1.77034352741765,0.44684792,-0.9233228,-0.31490102,249.27238,-113.23584,17.41379,CSO
11364381198000,2.680051,4.43028933511791,8.69762035818993,-1.12082821715743,0.48899764,-0.9074403,-0.30940324,249.14609,-113.570305,17.47649,CSO
11364386036000,2.684889,4.53364425785001,8.79605366687912,-0.436716228408753,0.5002986,-0.89766645,-0.31948254,248.99707,-113.90296,17.53824,CSO
11364391111000,2.689964,4.63392393137844,8.86728906233036,0.085470877349748,0.50518554,-0.89644474,-0.3313944,248.93196,-114.12841,17.586771,CSO
11364396068000,2.694921,4.73056203026367,8.93171420531214,0.564058723276464,0.47433686,-0.9114109,-0.3594942,248.86414,-114.340324,17.625938,CSO
11364401108000,2.699961,4.73857336084625,8.92937310786651,0.860531460846246,0.43860126,-0.9083566,-0.40011674,248.83319,-114.43008,17.660316,CSO
11364406103000,2.704956,4.7243195022348,8.91036799612634,1.1075993522348,0.37690386,-0.8912524,-0.4166101,248.80005,-114.506645,17.693127,CSO
11364411117000,2.70997,4.49395708703004,8.68281170389895,1.25354718841257,0.31429017,-0.829555,-0.46089783,248.75462,-114.4923,17.722929,CSO
11364416110000,2.714963,4.20859576447185,8.40220699104834,1.37244758221603,0.22968534,-0.8035932,-0.55833083,248.70743,-114.44765,17.732038,CSO
11364421089000,2.719942,3.99506115530824,8.69174431597794,1.17789341638634,0.16187929,-0.77304995,-0.59528816,248.64876,-114.36024,17.74984,CSO
11364426176000,2.725029,3.79704299725152,9.14907216365044,0.890295448015097,0.15210545,-0.6469063,-0.5720753,248.55183,-114.262276,17.76808,CSO
11364431208000,2.730061,3.54742863295132,9.49751837952264,0.697103178542338,0.15851954,-0.48563787,-0.5467244,248.44113,-114.113754,17.743607,CSO
11364436129000,2.734982,3.28407193551809,9.80104825099451,0.540874614286797,0.16615535,-0.33017266,-0.52198434,248.29793,-113.971275,17.736267,CSO
11364441088000,2.739941,3.03136487217158,9.9246582075067,0.596113866702413,0.17256944,-0.24770586,-0.50640726,248.133,-113.8073,17.671986,CSO
11364446155000,2.745008,2.78158111642895,9.92986213876676,0.793859260756032,0.18845193,-0.1908954,-0.50426924,247.93176,-113.65197,17.622396,CSO
11364451066000,2.749919,2.6608949894539,10.0039297376336,1.04377337402058,0.18173242,-0.15699236,-0.49021935,247.71155,-113.46104,17.512945,CSO
11364456081000,2.754934,2.58012029757618,10.1037097811634,1.31935759646814,0.17959438,-0.1432479,-0.47036624,247.4816,-113.27935,17.410837,CSO
11364461075000,2.759928,2.59425375887145,10.2575448006159,1.55058542934631,0.17654006,-0.13316862,-0.45631635,247.25436,-113.038284,17.268005,CSO
11364466062000,2.764915,2.64644484917544,10.4330970101331,1.76409422795549,0.16218472,-0.119729586,-0.43799037,247.02469,-112.80453,17.13596,CSO
11364471089000,2.769942,2.74515768869822,10.5594724736686,1.9715953533432,0.15271631,-0.12736541,-0.4071417,246.80693,-112.52095,16.99076,CSO
11364476073000,2.774926,2.86283720317554,10.6630300649901,2.17400409661736,0.1255328,-0.13988814,-0.3717115,246.58957,-112.24237,16.855478,CSO
11364481639000,2.780492,2.89805620065385,10.559790157024,2.41563898568457,0.108123146,-0.1572978,-0.3567453,246.37502,-111.936874,16.723124,CSO
11364486085000,2.784938,2.89383800639984,10.4037172339013,2.61389424776105,0.070554934,-0.18661933,-0.3539964,246.17084,-111.63509,16.59805,CSO
11364491129000,2.789982,2.76677630468426,10.0858420497085,2.58447629255855,0.04642576,-0.15607607,-0.36713,245.959565387219,-111.319231968545,16.4953172864822,CSO
11364496131000,2.794984,2.57741686750667,9.6976549167902,2.42352088959383,0.030543262,-0.0852157,-0.39095375,245.75005,-111.006004,16.39344,CSO
11364501115000,2.799968,2.40074524631418,9.49572286375191,2.29425149273005,0.023823744,-0.019242255,-0.44073927,245.53323,-110.67211,16.293978,CSO
11364506216000,2.805069,2.22689730548043,9.39638147224199,2.18000849053381,0.023823744,0.057726767,-0.48563787,245.400917670363,-110.486304018145,16.2359870346774,CSO
11364511035000,2.809888,2.34085773415671,9.37743436459464,2.24139742527144,-0.07269296,0.105068825,-0.54733527,245.27592,-110.31077,16.181202,CSO
11364516038000,2.814891,2.59663520380022,9.39477533659066,2.3887945781759,-0.13927728,0.16462818,-0.589485,245.0391,-109.97883,16.058397,CSO
11364520990000,2.819843,2.81948839346519,9.39637277389955,2.43458132427768,-0.19822577,0.22082779,-0.61575216,244.77277,-109.612,15.894871,CSO
11364526051000,2.824904,3.00745900722319,9.37757558003684,2.34999451619158,-0.26297748,0.26908615,-0.6337727,244.49124,-109.23289,15.726541,CSO
11364530971000,2.829824,3.15220645188327,9.43355064626881,2.16001805841664,-0.32559118,0.35430184,-0.6133087,244.181,-108.88059,15.623893,CSO
11364536020000,2.834873,3.23521215464001,9.61909285635666,1.77916815947693,-0.36896262,0.43860126,-0.573297,243.8594,-108.53163,15.524276,CSO
11364540991000,2.839844,3.22040185685019,9.88653985423028,1.46306404951246,-0.38759398,0.5045747,-0.50885075,243.51935,-108.24129,15.480089,CSO
11364546025000,2.844878,3.05421088911652,10.29014661765,1.23514492730228,-0.38056904,0.5665775,-0.42638394,243.16078,-107.97319,15.454738,CSO
11364551775000,2.850628,2.79297163035141,10.7050418786117,1.07029231216486,-0.36865717,0.68600166,-0.355829,242.76733,-107.77218,15.459518,CSO
11364556086000,2.854939,2.53146622072885,10.9737114408243,1.03446964152711,-0.37873647,0.8402451,-0.28069258,242.35068,-107.599174,15.490309,CSO
11364561083000,2.859936,2.22865633803873,11.2743653466583,0.982851944347283,-0.43982297,1.0354166,-0.23335053,241.90985,-107.41119,15.492245,CSO
11364566110000,2.864963,1.92795298317718,11.4397529140121,0.802429952363106,-0.5671884,1.2370021,-0.21074851,241.42467,-107.234604,15.511281,CSO
11364571082000,2.869935,1.64316196237317,11.5715309966178,0.612980451110485,-0.74372846,1.4535538,-0.19547687,240.89708,-106.98862,15.46515,CSO
11364576126000,2.874979,1.42532470994927,11.5261482653138,0.358836956777527,-0.93951076,1.6523905,-0.15271631,240.31767,-106.75096,15.436221,CSO
11364581281000,2.880134,1.20949566617344,11.4792125742648,0.115203298125117,-1.1160508,1.8484782,-0.109650314,239.73294,-106.45103,15.340043,CSO
11364586112000,2.884965,1.10550864000749,11.4272189254542,0.119536091636074,-1.3075571,1.9453003,-0.08246681,239.11996,-106.15442,15.251146,CSO
11364591450000,2.890303,0.990608464955984,11.3697686879565,0.124323599763064,-1.387275,2.2073615,0.036651913,238.45685,-105.87081,15.153304,CSO
11364596117000,2.89497,0.782288478373548,11.3974380405124,0.273337911038626,-1.6551393,2.2608123,0.087964594,237.8252,-105.56609,15.036809,CSO
11364601043000,2.899896,0.557443211349419,11.4302281495383,0.437287595304339,-1.772731,2.3090706,0.16462818,237.1207,-105.332085,14.962582,CSO
11364606081000,2.904934,0.155431271509944,11.6324617164511,0.411257189852288,-2.0289888,2.3014348,0.2098322,236.44038,-105.0828,14.864128,CSO
11364611110000,2.909963,-0.272342644452597,11.8602975560919,0.355460590218189,-2.2947154,2.2366831,0.22113322,235.76274,-104.87505,14.771471,CSO
11364616109000,2.914962,-0.591411892600283,12.0206820896649,0.34841227630958,-2.5326474,2.1731532,0.17989981,235.0999,-104.64665,14.621317,CSO
11364621535000,2.920388,-0.91020792652572,12.1776274112317,0.353316837453516,-2.680782,2.0992384,0.119729586,234.45834,-75.538025,14.461864,CSO
11364626101000,2.924954,-0.943078921628838,12.2948167102804,0.59738052082777,-2.8032606,1.9889772,0.06963864,233.86945,-75.77123,14.1936,CSO
11364631082000,2.929935,-0.894088379767896,12.4172934485981,0.950112330146862,-2.9196305,1.8307631,0.02076942,233.31454,-75.95666,13.906715,CSO
11364636106000,2.934959,-0.617896455468512,12.7598848327399,1.1916796406552,-3.073874,1.6484199,-0.028710667,232.81326,-76.146454,13.540611,CSO
11364641092000,2.939945,-0.263257442972835,13.1776790657239,1.39086042344084,-3.2696562,1.45783,-0.07147124,232.35876,-76.264595,13.166188,CSO
11364646116000,2.944969,0.264732379464899,13.8052304788249,1.27344307543876,-3.4779613,1.2315043,-0.07513642,231.96474,-76.27044,12.796013,CSO
11364651109000,2.949962,0.839412025267074,14.4893724437238,1.06363939666158,-3.6957347,1.0525209,-0.05955936,231.61125,-76.1736,12.425369,CSO
11364656090000,2.954943,1.31562083598072,15.0414685579422,0.975692371358969,-3.8973203,0.915687,-0.05497787,231.32367,-75.91352,12.104192,CSO
11364661124000,2.959977,1.75003298849539,15.5364963154862,0.94538454247171,-4.062254,0.77946407,-0.07452556,231.0882,-75.5463,11.7901945,CSO
11364666106000,2.964959,1.98218155134179,15.9813376077853,0.620162478762607,-4.175264,0.64660084,-0.10995574,230.94534,-75.049255,11.564132,CSO
11364671133000,2.969986,2.15728002094761,16.4167174153151,0.203712127575936,-4.2253547,0.6221663,-0.12186762,230.81172,-74.47886,11.3446455,CSO
11364676230000,2.975083,2.48627881627476,16.7139170125866,-0.393464835503952,-4.194812,0.77366084,-0.05131268,230.7073,-73.817444,11.195374,CSO
11364681278000,2.980131,2.86363240503464,16.9591974067714,-1.04439991106957,-4.1276164,0.89369583,0.07422013,230.61807,-73.11666,11.063601,CSO
11364686116000,2.984969,3.4372345014652,17.0015395732106,-1.70726754882685,-4.068057,1.3704761,0.1908954,230.45033,-72.428635,10.940141,CSO
11364691251000,2.990104,4.13830119194139,16.9625916581527,-2.42780824766855,-3.7830884,1.9960022,0.50946164,230.18481,-71.737854,10.887917,CSO
11364696147000,2.995,4.03846664189446,16.2257837188345,-2.55617895375989,-3.3805282,2.3301454,0.7171558,229.98055,-71.11892,10.889951,CSO
11364701140000,2.999993,3.57882592040653,15.1485000982277,-2.42690504927406,-3.0686815,2.5085182,0.8179486,229.62813,-70.51127,10.91229,CSO
11364706111000,3.004964,3.16168345229772,13.9894483601728,-2.21511998992537,-2.8316658,2.5149322,0.84574294,229.4614,-69.92275,11.10027,CSO
11364711213000,3.010066,2.75386988130401,12.7564125907306,-1.9560383358209,-2.6007588,2.3719897,0.80848014,229.28159,-69.40549,11.2900095,CSO
11364716133000,3.014986,2.76531110007935,11.8492138964491,-1.52053889761952,-2.3432791,2.1163425,0.7657196,229.1349,-68.9129,11.451976,CSO
11364721150000,3.020003,3.00359143005356,11.0819507801032,-0.972494198393176,-2.0882428,1.7941113,0.77549344,229.04353,-68.47904,11.6326065,CSO
11364726192000,3.025045,3.52816443888341,10.5726545438943,-0.31937484987177,-1.8545868,1.5180001,0.8362745,229.00003,-68.045784,11.796912,CSO
11364731214000,3.030067,4.22078908863681,10.2215980191359,0.392225905898599,-1.6578883,1.2638801,0.9468411,229.03285,-67.66319,12.001429,CSO
11364736124000,3.034977,4.80444434655804,10.0462822231971,1.12479372813344,-1.5335772,1.0476339,1.1117748,229.10971,-67.19066,12.309183,CSO
11364741140000,3.039993,5.33705954354994,9.98144225019283,1.89824361490551,-1.4541647,0.94714653,1.2913691,229.21133,-66.74292,12.658035,CSO
11364746146000,3.044999,5.54727134326443,9.91991305416964,2.5685295321454,-1.4761559,0.9990701,1.4770721,229.26822,-66.14603,13.159783,CSO
11364751149000,3.050002,5.45945654363099,9.86137016006517,3.14420478821912,-1.5885551,1.2131784,1.642922,229.28786,-65.52873,13.687236,CSO
11364756108000,3.054961,4.91646539239034,9.63894724504682,3.2007481835584,-1.7589865,1.5506815,1.7403551,229.23822,-64.74393,14.297511,CSO
11364761175000,3.060028,3.98373912469197,9.27542283440118,2.8324409144899,-1.8875736,1.8600847,1.7186694,229.12239,-63.947315,14.88297,CSO
11364766141000,3.064994,2.94107447748535,8.58803489216407,2.1653227678121,-1.892766,2.0027218,1.5748106,228.96538,-63.090164,15.400278,CSO
11364771243000,3.070096,1.75218661523488,7.57869354936935,1.1996545754196,-1.7504344,2.0711386,1.4227052,228.73602,-62.259808,15.864284,CSO
11364776264000,3.075117,1.02905940661082,6.61309486117283,0.436387377654343,-1.5097535,2.1474967,1.2993103,228.57396,-61.545395,16.129044,CSO
11364781155000,3.080008,0.70490602117556,5.69608193031324,-0.14794171062648,-1.2513574,2.1743748,1.208597,228.41295,-60.902542,16.345596,CSO
11364786105000,3.084958,0.471057738008237,4.81529311764706,-0.549228707155983,-1.1325442,2.1456642,1.1664472,228.5668,-60.355827,16.400742,CSO
11364791135000,3.089988,0.445621390822685,4.02676664705882,-0.528879618783398,-0.9062186,2.0842721,1.0989466,228.7194,-59.925213,16.415327,CSO
11364796135000,3.094988,0.450919870577725,3.43240404764741,-0.501176691876117,-0.70463306,2.0341814,1.0305296,228.79218,-59.58176,16.402388,CSO
11364801144000,3.099997,0.498537739636688,3.09907906367878,-0.463082416517768,-0.51923543,2.0176878,0.96974856,228.87056,-59.305378,16.36873,CSO
11364806724000,3.105577,0.55443278165862,2.83376098451016,-0.392673147480386,-0.37782016,2.0363193,0.91629785,228.88675,-59.03576,16.338522,CSO
11364811211000,3.110064,0.601976761965399,2.71706206672702,-0.310551691665661,-0.2687807,2.078469,0.8561276,228.90433,-58.81858,16.282612,CSO
11364816042000,3.114895,0.741673853009911,2.70367020444004,-0.181094652222993,-0.1777618,2.1261165,0.81061816,228.83159,-58.62539,16.227997,CSO
11364821135000,3.119988,1.02204368977007,2.85835698099108,0.0170977871734391,-0.10323623,2.180789,0.77457714,228.75078,-58.465775,16.148346,CSO
11364826096000,3.124949,1.22783513621061,2.99912917361519,0.172554043168918,-0.013744468,2.2363777,0.7312057,228.63708,-58.32748,16.050505,CSO
11364831173000,3.130026,1.33252011362302,3.12760629072225,0.272480682078685,0.06994407,2.2736404,0.6942484,228.51729,-58.21278,15.9356365,CSO
11364836038000,3.134891,1.41066874894462,3.27050551220953,0.358541444172153,0.16035213,2.3087652,0.67011917,228.3137,-58.117855,15.844172,CSO
11364841259000,3.140112,1.44939883264911,3.4641558296282,0.431160311940356,0.2828306,2.3530529,0.63804877,228.10568,-58.05963,15.732278,CSO
11364846047000,3.1449,1.47998588656569,3.62482758960499,0.522680714082764,0.39614612,2.3863451,0.61422503,227.89168,-58.016422,15.623741,CSO
11364851126000,3.149979,1.49924757043857,3.75002863534304,0.686405132594793,0.5204572,2.4104743,0.57787853,227.67683,-58.013622,15.497493,CSO
11364856064000,3.154917,1.516682250387,3.87222100657895,0.86356555123839,0.6383542,2.4196372,0.53878313,227.54971,-58.03511,15.344144,CSO
11364861146000,3.159999,1.53080849934211,3.99935626381579,1.09900151289474,0.7657196,2.4168882,0.50640726,227.4246,-58.094444,15.180655,CSO
11364866102000,3.164955,1.53123036358006,4.11337617361412,1.38094637522453,0.89980453,2.3967297,0.47036624,227.39154,-58.15864,14.988783,CSO
11364871142000,3.169995,1.47642094890059,4.18811645481573,1.8841959162589,1.0308352,2.371379,0.42271876,227.3661,-58.259735,14.786596,CSO
11364876864000,3.175717,1.41193508087726,4.32384825555983,2.40184764282416,1.1499538,2.3231206,0.35308012,227.47684,-58.348,14.545439,CSO
11364881173000,3.180026,1.36033219461331,4.49453472550981,2.71940403178145,1.258077,2.2748623,0.3286455,227.58989,-58.465702,14.307727,CSO
11364886105000,3.184958,1.31287938370112,4.7160164622665,3.0578196534396,1.318858,2.1560488,0.28893927,228.00476,-58.471043,13.9980755,CSO
11364891139000,3.189992,1.31768233375841,5.06182906699875,3.28836145679701,1.4223998,2.0179935,0.2510656,228.41936,-58.517853,13.693705,CSO
11364896127000,3.19498,1.32244139511831,5.40448168368618,3.51679660084682,1.5552629,1.8322903,0.23732115,229.14598,-58.488018,13.320556,CSO
11364901149000,3.200002,1.32723289595019,5.74946994371108,3.7467888409066,1.6820174,1.6551393,0.23396139,229.86328,-58.490772,12.964393,CSO
11364906112000,3.204965,1.33661627870551,6.12042945404771,3.94927922319124,1.8319849,1.4825699,0.23793201,230.52974,-58.578087,12.624978,CSO
11364911132000,3.209985,1.36951892340634,6.64687294720375,4.02918566707079,1.9761491,1.3402383,0.25534168,231.19609,-58.697605,12.315784,CSO
11364916099000,3.214952,1.40422204183209,7.17699810004842,4.10324273322359,2.1273382,1.2388347,0.2770274,231.88322,-58.870144,11.97225,CSO
11364921152000,3.220005,1.45576729018108,7.78616942151641,4.1407304445628,2.273335,1.1847731,0.30634892,232.55658,-59.077785,11.659733,CSO
11364926205000,3.225058,1.50177235448556,8.38634365372529,4.16405601378611,2.3881776,1.1866057,0.33383787,233.19832,-59.390488,11.33824,CSO
11364931165000,3.230018,1.47769687146477,8.86303811697922,4.00997272133806,2.4828618,1.2006557,0.34574974,233.82156,-59.732544,11.040213,CSO
11364936101000,3.234954,1.45465581314433,9.31843603181657,3.85103135893175,2.5454755,1.2357804,0.33383787,234.42973,-60.17528,10.724501,CSO
11364941148000,3.240001,1.44176905309278,9.56328550444366,3.62336433769996,2.5460863,1.2873985,0.3115413,235.0068,-60.619713,10.4221945,CSO
11364946534000,3.245387,1.42801670721649,9.8245811770352,3.38040523796658,2.5011878,1.38025,0.32467487,235.54327,-61.167027,10.1016655,CSO
11364951149000,3.250002,1.39334987881258,10.1851005967388,3.11789980120205,2.44621,1.5473217,0.35735616,236.02823,-61.699734,9.784515,CSO
11364956111000,3.254964,1.3536131641685,10.5874349297585,2.82980868486464,2.4058928,1.7449366,0.3866777,236.4618,-62.21192,9.473179,CSO
11364961140000,3.259993,1.23928633139873,11.1892213625866,2.52617485374034,2.3765712,1.9914207,0.42638394,236.79709,-62.80919,9.143996,CSO
11364966042000,3.264895,1.12143937684506,11.7925975612009,2.22920062867758,2.3252585,2.275473,0.46486846,237.05463,-63.37088,8.813596,CSO
11364971134000,3.269987,0.884663616182358,12.2307014665262,2.45025550267216,2.2391264,2.5689938,0.53878313,237.21109,-64.0157,8.467756,CSO
11364976173000,3.275026,0.639701537871851,12.6466749946365,2.71832716566421,2.0772474,2.6945267,0.58062744,237.32877,-64.60459,8.132933,CSO
11364981110000,3.279963,0.452995672428846,12.6962327681556,3.49358277118404,1.7989981,2.8457158,0.5934556,237.3898,-65.24572,7.749217,CSO
11364986039000,3.284892,0.276093912352882,12.6818890935886,4.35896699664742,1.6319265,2.8561006,0.62858033,237.43954,-65.841995,7.411465,CSO
11364991088000,3.289941,0.0218618772502992,12.4941981570469,5.0934302615944,1.2556335,2.7608054,0.6411031,237.34131,-66.31849,7.0552006,CSO
11364996116000,3.294969,-0.244098822876738,12.2769967033048,5.79822607689404,0.88361657,2.6331346,0.65179324,237.24478,-66.726395,6.7329,CSO
11365001109000,3.299962,-0.611763109821671,12.13802833893,6.26591017571175,0.535118,2.528066,0.6786713,237.00497,-66.910934,6.418222,CSO
11365006106000,3.304959,-1.02598671761393,12.0332250056836,6.63022748496194,0.22479841,2.4471262,0.6835582,236.7969,-66.99725,6.125307,CSO
11365011140000,3.309993,-1.45256195796972,12.0203847160879,6.46612975960226,-0.05497787,2.3872614,0.6750061,236.4867,-66.88495,5.808781,CSO
11365016173000,3.315026,-1.88177004303948,12.0346916920946,6.14660800921144,-0.21838433,2.3047945,0.6450737,236.20976,-66.72201,5.506992,CSO
11365021163000,3.320016,-2.1490567530688,12.2359520976306,5.64463486894091,-0.27458394,2.1862867,0.5864306,235.84769,-66.492424,5.160457,CSO
11365026118000,3.324971,-2.36579931644305,12.4933339122657,5.08923212986012,-0.21410827,2.0060816,0.5177083,235.53381,-66.25662,4.8258905,CSO
11365031108000,3.329961,-2.54554388526394,12.8368218195433,4.80753310560229,-0.08552113,1.8255708,0.43676865,235.17177,-66.12165,4.448132,CSO
11365036106000,3.334959,-2.70484271765739,13.2262190167329,4.67478401700102,0.05222898,1.7067575,0.3295618,234.85733,-66.01078,4.066881,CSO
11365041096000,3.339949,-2.60226424295587,13.7047933510367,4.43908562598618,0.12614368,1.6615535,0.2275473,234.56158,-66.05141,3.6658692,CSO
11365046111000,3.344964,-2.21926834635832,14.2818406867624,4.09183604150984,0.18936823,1.5855007,0.13316862,234.31982,-66.12544,3.2664273,CSO
11365051106000,3.349959,-1.66708475209125,14.4255873164628,3.39311354808344,0.24281894,1.4431691,0.019242255,234.1059,-66.27806,2.8385122,CSO
11365056086000,3.354939,-1.00543778631179,14.2883568684102,2.46680775505087,0.2706133,1.2932017,-0.059253927,233.92242,-66.432526,2.4172103,CSO
11365061182000,3.360035,-0.408592589075647,13.3913378436897,1.09982108305674,0.28405234,1.1016954,-0.118202426,233.8342,-66.682205,2.0476263,CSO
11365066110000,3.364963,0.128743549990351,12.1481789953686,-0.430220781242763,0.32406402,0.95356065,-0.14385876,233.77762,-66.93469,1.691146,CSO
11365071147000,3.37,0.705845153739612,10.9007409473684,-1.77279693961219,0.42271876,0.7867944,-0.092240654,233.85864,-67.31358,1.4611801,CSO
11365076248000,3.375101,1.30996183209735,9.65384368609022,-2.97619732592006,0.59437186,0.7504479,0.03634648,233.93373,-67.70965,1.25676,CSO
11365081189000,3.380042,1.95543896024867,8.68790944066557,-3.76213002991406,0.82894415,0.8173377,0.124005646,234.0491,-68.310646,1.1553397,CSO
11365086108000,3.384961,2.64022793480527,7.89544945639056,-4.27895188392759,0.9294315,1.0412198,0.2846632,234.10663,-68.90619,1.1015757,CSO
11365091083000,3.389936,3.25765500898828,7.22138441728181,-4.24137553962223,1.0940597,1.3573426,0.45998153,234.17056,-69.682236,1.1491555,CSO
11365096115000,3.394968,3.75462596982197,6.75580096613113,-3.25266483315241,1.1737776,1.5439619,0.6096435,234.19632,-70.44744,1.2306573,CSO
11365101108000,3.399961,4.08768472234101,6.73192230501382,-2.23061035603226,1.2067643,1.6551393,0.67347896,234.05624,-71.29611,1.44317,CSO
11365106085000,3.404938,4.28097553098618,7.08775321817512,-1.17629664374194,1.2455542,1.7663169,0.6927212,233.85829,-72.154,1.672124,CSO
11365111109000,3.409962,4.4396043429725,7.69559130584897,-0.389461684264077,1.2425,1.9373591,0.6658431,233.52722,-72.83945,1.958981,CSO
11365116108000,3.414961,4.53363971153426,8.73520470779136,-0.0916829815122217,1.2281445,2.1389446,0.61483586,233.1601,-73.51749,2.2388906,CSO
11365121176000,3.420029,4.57512838063398,9.66969081228331,-0.0581059354294205,1.2394456,2.329229,0.54183745,232.69228,-74.02018,2.521189,CSO
11365126164000,3.425017,4.57039642635958,10.4883191982169,-0.252116195076374,1.2379184,2.4352143,0.4905248,232.19655,-74.4988,2.7908344,CSO
11365131765000,3.430618,4.45757789541636,11.0019269750921,-0.24026422420339,1.258077,2.450486,0.44806966,231.6845,-74.96909,3.041525,CSO
11365136102000,3.434955,4.30862059952346,11.1672085429624,-0.0994689343276836,1.278541,2.3817637,0.4334089,231.17094,-75.41987,3.2866838,CSO
11365141080000,3.439933,4.1376477106706,11.3569183988209,0.0621356202033898,1.2599095,2.264172,0.42119157,230.7017,-75.91378,3.5147126,CSO
11365146105000,3.444958,3.965060573972,11.5484194084009,0.225265971050847,1.2113458,2.1203132,0.41508293,230.26288,-76.380356,3.7480767,CSO
11365151106000,3.449959,3.36124307726422,11.3927563213758,0.365980875336553,1.153619,1.9819523,0.41905355,229.84885,-76.81804,3.9894733,CSO
11365156087000,3.45494,2.2141742962452,10.800417882724,0.478807314262344,1.1010846,1.8500054,0.4111123,229.47812,-77.21978,4.2345905,CSO
11365161065000,3.459918,1.38883181457272,10.2955242296489,0.570098049623843,1.0622946,1.7030923,0.3979787,229.14899,-77.56714,4.4255805,CSO
11365166096000,3.464949,1.03100677744599,9.9144633433642,0.630510082175926,1.0430524,1.543351,0.38240165,228.86609,-77.88603,4.620919,CSO
11365171147000,3.47,0.76756714675,9.58589352354651,0.675195523488372,1.0424415,1.4654657,0.35918877,228.67021,-78.19392,4.6309505,CSO
11365176108000,3.474961,0.689303651,9.36491414302326,0.689006716744186,1.0534371,1.3109168,0.34513888,228.54654,-78.48875,4.655186,CSO
11365181055000,3.479908,0.66723783703689,9.19075079397435,0.716691201551158,1.0800097,1.1658363,0.30818152,228.37988,-78.79287,4.63416,CSO
11365186107000,3.48496,0.801939734497365,9.14264301471612,0.784042142746346,1.1093313,1.0900891,0.2864958,228.24167,-79.09076,4.6206775,CSO
11365191070000,3.489923,0.932163710952381,9.09648554500703,0.851611347247338,1.1606439,1.0396926,0.27183503,228.11285,-79.39918,4.600969,CSO
11365196119000,3.494972,1.05846324380952,9.05276660196906,0.924476472111714,1.2098186,0.9746355,0.25228736,228.01462,-79.708275,4.5808096,CSO
11365201716000,3.500569,1.19269244920635,9.06482766666667,0.971817872222222,1.2495248,0.93492925,0.22296582,227.92323,-80.00317,4.577217,CSO
11365206085000,3.504938,1.28916025590139,9.16129551210428,0.960686956548727,1.2773192,0.89461213,0.17562376,227.85538,-80.3022,4.5682893,CSO
11365211333000,3.510186,1.39789730950497,9.27161456858762,0.938928424879718,1.2794572,0.8176431,0.079107046,227.80019,-80.59212,4.5605955,CSO
11365216107000,3.51496,1.39300912755266,9.29116739848177,0.797169591467978,1.2562444,0.8237518,0.06566802,227.73412,-80.86703,4.5633764,CSO
11365221116000,3.519969,1.37073557155365,9.29970524982975,0.6621143017025,1.2678508,0.90010995,0.05955936,227.64719,-81.1534,4.5686584,CSO
11365226101000,3.524954,1.24997965706781,9.23932705010215,0.6063807989785,1.2400564,0.9755518,0.036651913,227.56256,-81.41773,4.5672917,CSO
11365231106000,3.529959,1.132386998812,9.1777572970003,0.556308093733294,1.2137892,1.0155635,0.008857546,227.4864,-81.693794,4.5624967,CSO
11365236119000,3.534972,1.05158856557767,9.10646460558361,0.565813785922186,1.1691961,1.0445796,-0.02443461,227.39578,-81.95193,4.549676,CSO
11365241124000,3.539977,0.974755627555446,9.03773345362247,0.581537305736816,1.1355985,1.071763,-0.04917465,227.25267,-82.228004,4.5205407,CSO
11365246117000,3.54497,0.946475487185806,9.00002682947265,0.675804407491375,1.102001,1.0891727,-0.06627888,227.10841,-82.4867,4.4862704,CSO
11365251260000,3.550113,0.923707834621636,8.96451021004154,0.773265273234604,1.0800097,1.099252,-0.07941248,226.94087,-82.74189,4.4394703,CSO
11365256080000,3.554933,0.98206463315875,8.97284706032147,0.869137136337367,1.0482447,1.0937542,-0.093462385,226.77684,-82.98058,4.390162,CSO
11365261114000,3.559967,1.04301237669316,8.98155405291674,0.969265551038468,1.0045679,1.0693196,-0.09468412,226.60043,-83.200455,4.336732,CSO
11365266109000,3.564962,1.17568293312102,9.00405381837483,1.01123991202953,0.9624182,1.0329732,-0.07880162,226.4325,-83.40451,4.2871404,CSO
11365271618000,3.570471,1.33861248535032,9.03205710422698,1.04433498231036,0.91507614,1.0070114,-0.050396383,226.27168,-83.58789,4.243434,CSO
11365276112000,3.574965,1.47152325095541,9.0549009536769,1.07133248563984,0.8668178,0.999681,-0.036651913,226.09332,-83.74466,4.210781,CSO
11365281079000,3.579932,1.61842306687898,9.08014915132214,1.1011715152432,0.84207773,0.9575313,-0.009468411,225.93471,-83.882034,4.1927404,CSO
11365286104000,3.584957,1.74687278296948,9.14957558895584,1.0368419024637,0.79320854,0.9275989,0.024129177,225.76276,-83.99999,4.1818275,CSO
11365291094000,3.589947,1.86489182850934,9.23927038298923,0.928264402256248,0.7699956,0.8949176,0.049480084,225.60655,-84.108894,4.1780057,CSO
11365296111000,3.594964,1.96123840405048,9.35044900352216,0.838269971370707,0.77213365,0.8588765,0.084910266,225.42885,-84.17703,4.2326264,CSO
11365301109000,3.599962,2.04553223393014,9.47220685559143,0.758659053800998,0.7644979,0.8356637,0.12492194,225.25952,-84.22641,4.2955365,CSO
11365306089000,3.604942,2.14295041275371,9.66952571978188,0.686611493002121,0.7538077,0.8472701,0.15057829,225.10147,-84.26524,4.382657,CSO
11365311110000,3.609963,2.24977389893972,9.91716196708068,0.618632912727456,0.7473936,0.90133166,0.18600847,224.94011,-84.28515,4.4823675,CSO
11365316127000,3.61498,2.39841537432797,10.1051484741681,0.584632151002298,0.70707655,0.990518,0.22113322,224.75162,-84.28945,4.601912,CSO
11365321172000,3.620025,2.57222779948036,10.2596483852303,0.570147783079844,0.68477994,1.0803152,0.26939157,224.55026,-84.27578,4.7325993,CSO
11365326085000,3.624938,2.6774779156916,10.3267515419975,0.543103593089219,0.6365216,1.1704178,0.3023783,224.3217,-84.24097,4.8784375,CSO
11365331120000,3.629973,2.74800315858755,10.3469020622649,0.507840892739239,0.5830709,1.2443326,0.32834008,224.07565,-84.18417,5.032133,CSO
11365336103000,3.634956,2.73904676238268,10.28249445795,0.462976888389555,0.54305923,1.3225232,0.3454443,223.79765,-84.09422,5.2136736,CSO
11365341293000,3.640146,2.6974770857727,10.1808787818976,0.412169354210575,0.49113566,1.3790283,0.33841935,223.50923,-83.98953,5.391177,CSO
11365346108000,3.644961,2.58883098891892,10.0547796527027,0.269082388783784,0.46639562,1.4162911,0.32162055,223.19977,-83.87229,5.5778866,CSO
11365351108000,3.649961,2.42457184130977,9.90047559864865,0.0500701746465696,0.44409904,1.4526376,0.28955013,222.87953,-83.752,5.7533636,CSO
11365356086000,3.654939,2.28503971985683,9.81122773956025,-0.189593674626726,0.44073927,1.4828753,0.24862215,222.55424,-83.64424,5.912635,CSO
11365361126000,3.659979,2.15752299512528,9.75775322788478,-0.444626956576615,0.45814893,1.4966198,0.20311269,222.2288,-83.54441,6.057623,CSO
11365366107000,3.66496,2.0289346372189,9.71893375480717,-0.637744574554047,0.46853364,1.4972308,0.15607607,221.91489,-83.48784,6.164253,CSO
11365371152000,3.670005,1.8924664829006,9.71368487213471,-0.690232343500272,0.48838675,1.4813483,0.092240654,221.60793,-83.44741,6.2509737,CSO
11365376096000,3.674949,1.78759159455446,9.76208464851485,-0.679858457920792,0.48075095,1.4361442,0.067500606,221.33698,-83.44268,6.3098273,CSO
11365381116000,3.679969,1.7161922339604,9.87632344653465,-0.594179235148515,0.44012842,1.412015,0.01038471,221.07092,-83.45709,6.3408165,CSO
11365386087000,3.68494,1.7114492750914,10.0196319937464,-0.494588550877429,0.3903429,1.3652838,-0.022907447,220.83092,-83.48816,6.350435,CSO
11365391133000,3.689986,1.79513621900135,10.2056033578026,-0.373707392412931,0.32284227,1.349096,-0.042760566,220.5942,-83.5219,6.3482313,CSO
11365396086000,3.694939,1.82993415836833,10.1649792075585,-0.214963989322136,0.24709499,1.3008375,-0.04550946,220.36104,-83.56381,6.3296404,CSO
11365401150000,3.700003,1.77659816820636,9.70435013257349,0.0226235498260348,0.17592919,1.2428054,-0.094989546,220.13997,-83.61785,6.292929,CSO
11365406072000,3.704925,1.75474099279919,9.5820322505071,0.0782850512981745,0.07971791,1.2324207,-0.0711658,219.89822,-83.631996,6.288217,CSO
11365411142000,3.709995,1.78921169655172,10.0744706551724,-0.197480362758621,0.06078109,1.2840388,-0.032375857,219.65909,-83.65489,6.2739825,CSO
11365416042000,3.714895,1.77588980066815,10.3384084142539,-0.477389950868597,0.057421334,1.3182472,0.004886922,219.39638,-83.65921,6.268944,CSO
11365421166000,3.720019,1.68085436187663,10.2457487113392,-0.793382828265711,0.06291912,1.3133603,0.03268129,219.13391,-83.65562,6.271315,CSO
11365426090000,3.724943,1.58952834692554,10.1567057025274,-1.09704186969885,0.07849618,1.2993103,0.063224554,218.8817,-83.65111,6.2826047,CSO
11365431161000,3.730014,1.49547590545173,10.0650044235499,-1.40976628056551,0.09743301,1.2901474,0.08827003,218.63368,-83.64077,6.2994924,CSO
11365436070000,3.734923,1.40243359003112,9.97134101214738,-1.62712932045979,0.108123146,1.2944235,0.105374254,218.38994,-83.62455,6.3219347,CSO
11365441195000,3.740048,1.29895962908343,9.85801270675635,-1.58278338129706,0.12492194,1.2666291,0.11881329,218.16214,-83.603485,6.349662,CSO
11365446082000,3.744935,1.19761830018631,9.76437772426642,-1.52548675006986,0.12950343,1.239751,0.11881329,217.96251,-83.60415,6.3656464,CSO
11365451127000,3.74998,1.0851008424313,9.71036920167676,-1.42197072841174,0.14782938,1.2327261,0.12217305,217.76883,-83.59628,6.386837,CSO
11365456115000,3.754968,0.967999780667041,9.66224138151371,-1.325123162569,0.14630222,1.2116512,0.110872045,217.54915,-83.58909,6.402856,CSO
11365461134000,3.759987,0.803867610627748,9.65549632257461,-1.2711618928244,0.13316862,1.1863003,0.090713486,217.33662,-83.580154,6.417321,CSO
11365466071000,3.764924,0.642417018182244,9.64886146384133,-1.2180822377678,0.14844026,1.1676689,0.06047566,217.11018,-83.59165,6.4081445,CSO
11365471124000,3.769977,0.477172974506502,9.64207071213397,-1.16375542046964,0.14935656,1.14018,0.046120327,216.89719,-96.398315,6.39796,CSO
11365476103000,3.774956,0.314348891098325,9.63537940939283,-1.11022420667041,0.1685988,1.1016954,0.008857546,216.69612,-96.375916,6.372986,CSO
11365481148000,3.780001,0.105835329739443,9.61007208325846,-1.14972450715783,0.19792034,1.0458013,-0.02321288,216.50127,-96.3575,6.3493834,CSO
11365486086000,3.784939,-0.106609734591195,9.58174599580713,-1.20637653417191,0.2125811,0.98807454,-0.063224554,216.32104,-96.32926,6.3134017,CSO
11365491211000,3.790064,-0.252364247300335,9.50835849043581,-1.30886112157365,0.21655174,0.9242391,-0.09682214,216.12798,-96.243546,6.219241,CSO
11365496107000,3.79496,-0.377189452080457,9.42976470459476,-1.41519367767699,0.23976462,0.86620694,-0.13103059,215.95198,-96.150635,6.114977,CSO
11365501169000,3.800022,-0.40612347042394,9.3477418,-1.50278007790524,0.25259277,0.8249735,-0.17195857,215.76987,-96.02335,5.9729776,CSO
11365506136000,3.804989,-0.410868404648379,9.26707772,-1.58344400926683,0.25778514,0.7812967,-0.19700404,215.60655,-95.896484,5.827893,CSO
11365511331000,3.810184,-0.364593405332625,9.20827750201913,-1.68087003579171,0.27672195,0.7296785,-0.20891592,215.44502,-95.759384,5.6644893,CSO
11365516001000,3.814854,-0.312312799997875,9.16074970605739,-1.77117294737513,0.2968805,0.6762278,-0.21533,215.29745,-95.62439,5.4980135,CSO
11365521040000,3.819893,-0.302223135891511,9.1215497040047,-1.80245952054245,0.32253686,0.6462954,-0.2049453,215.15137,-95.50962,5.341443,CSO
11365526026000,3.824879,-0.297547729566239,9.08414664868305,-1.8258365521688,0.34788775,0.6041457,-0.21135938,215.0246,-95.39897,5.180561,CSO
11365531048000,3.829901,-0.28011188006448,9.08510133417953,-1.80820867234464,0.3652974,0.57787853,-0.2049453,214.89874,-95.326004,5.0448594,CSO
11365535969000,3.834822,-0.260969932112104,9.09227945816409,-1.78428123428107,0.38423425,0.5626069,-0.19822577,214.78229,-95.264275,4.909683,CSO
11365541058000,3.839911,-0.24117448949279,9.099702639013,-1.75953692777721,0.4184427,0.5626069,-0.19303341,214.67079,-95.22171,4.7801833,CSO
11365545974000,3.844827,-0.222051990786454,9.1068734696385,-1.73563380127437,0.44440445,0.57910025,-0.18509217,214.5595,-95.19402,4.65586,CSO
11365551051000,3.849904,-0.159193390676662,9.17297848392188,-1.6854159329059,0.4633413,0.59498274,-0.17379116,214.43385,-95.18786,4.541739,CSO
11365555994000,3.854847,-0.0938220986594989,9.24301910692444,-1.63405276061353,0.48258355,0.6053675,-0.16737708,214.30577,-95.19647,4.4308705,CSO
11365561103000,3.859956,-0.0343627144969649,9.29870500816002,-1.58486663038113,0.49571714,0.59406644,-0.1518,214.17471,-95.22354,4.334382,CSO
11365565971000,3.864824,0.0213083710080605,9.3497373823266,-1.5384740429794,0.49938235,0.6056729,-0.13897185,214.03517,-95.26118,4.241438,CSO
11365571015000,3.869868,0.0224505077356145,9.45073961839161,-1.39831755511762,0.50671273,0.63132924,-0.12614368,213.89697,-95.31401,4.1650405,CSO
11365576037000,3.87489,0.0152746898990401,9.55837681101109,-1.24523346041926,0.51343226,0.6160576,-0.11789699,213.76859,-95.37466,4.092234,CSO
11365581044000,3.879897,0.00812030521012583,9.66569250663948,-1.09260660614711,0.5103779,0.6041457,-0.11209377,213.63438,-95.441574,4.0332713,CSO
11365586006000,3.884859,0.00103021996419157,9.77204371129457,-0.941351473153628,0.5140431,0.5946773,-0.099571034,213.50565,-95.517166,3.9797356,CSO
11365591247000,3.8901,-0.00793968592076302,9.92247147909024,-0.784398800953779,0.49663344,0.5934556,-0.09621128,213.3625,-95.593,3.9335594,CSO
11365596610000,3.895463,-0.017360158397102,10.082619295763,-0.624250782627476,0.4914411,0.57971114,-0.08827003,213.22768,-95.67669,3.8928409,CSO
11365601140000,3.899993,-0.00891650539576564,10.2359532868603,-0.482860027299959,0.47067168,0.550695,-0.08674286,213.08449,-95.70001,3.8440351,CSO
11365606128000,3.904981,0.0056354175788485,10.4105763392567,-0.325214191065191,0.44135013,0.5271767,-0.0888809,212.9457,-95.721146,3.7969558,CSO
11365611207000,3.91006,0.0204528227087734,10.5883851770918,-0.164692298074736,0.42241332,0.50243664,-0.089186326,212.79375,-95.715256,3.7495744,CSO
11365616139000,3.914992,0.0348413720493501,10.7610477461413,-0.00881634292038994,0.38759398,0.47678033,-0.07819075,212.65112,-95.701256,3.7047038,CSO
11365621171000,3.920024,0.0649472955058345,10.9325081745816,0.128630677331524,0.344528,0.42730024,-0.07422013,212.51761,-95.68161,3.659073,CSO
11365626260000,3.925113,0.100215585991316,11.1044408796924,0.260886767227499,0.2837469,0.3744604,-0.06169739,212.39479,-95.65399,3.6186671,CSO
11365631183000,3.930036,0.134481311005208,11.2376064886458,0.377507752685417,0.21502456,0.30757064,-0.04886922,212.27863,-95.561806,3.5797265,CSO
11365636148000,3.935001,0.169152345614583,11.3465732402083,0.486473873279167,0.15607607,0.24648413,-0.038179077,212.17786,-95.46286,3.5424604,CSO
11365641129000,3.939982,0.160792731770844,11.3747285574396,0.553938590055182,0.076358154,0.19211712,-0.022296581,212.07216,-95.335434,3.5170906,CSO
11365646152000,3.945005,0.12700823132437,11.3554227398415,0.59737579267583,0.0015271631,0.14080444,-0.014966198,211.9847,-95.201805,3.4902086,CSO
11365651147000,3.95,0.0809675473801653,11.320735107438,0.625262608099174,-0.07880162,0.1001819,-0.009468411,211.89847,-95.049706,3.469873,CSO
11365656130000,3.954983,0.0280615302304979,11.277447994356,0.644501176591413,-0.1414153,0.076052725,-0.005497787,211.82353,-94.894424,3.4493053,CSO
11365661196000,3.960049,0.0158211214646534,11.193636783116,0.679322296019218,-0.20922135,0.06963864,-0.0061086523,211.74013,-94.7286,3.416606,CSO
11365666368000,3.965221,0.0255340821898225,11.0867945919208,0.723030589616629,-0.2751948,0.07452556,-0.0015271631,211.6617,-94.560776,3.3856118,CSO
11365671150000,3.970003,0.0906861638227993,10.986862958755,0.717700923754058,-0.3277292,0.073303826,-0.005497787,211.5843,-94.38036,3.342514,CSO
11365676271000,3.975124,0.193697645678824,10.8791689252435,0.68492456805423,-0.35643986,0.064751714,0.007941248,211.50885,-94.206604,3.3051193,CSO
11365681233000,3.980086,0.325592414443166,10.7478889327617,0.659604958744118,-0.40011674,0.056199603,0.010995574,211.43497,-94.02691,3.260949,CSO
11365686118000,3.984971,0.482138106244902,10.5962358113563,0.640036725558925,-0.43554693,0.05100725,0.018325957,211.3636,-93.85898,3.2213335,CSO
11365691132000,3.989985,0.619679277116402,10.4408167379973,0.589491575483049,-0.46822822,0.050701816,0.02687807,211.29732,-93.71998,3.1988363,CSO
11365696152000,3.995005,0.742152801455026,10.2853688916324,0.518833781871448,-0.4896085,0.03756821,0.04886922,211.23721,-93.5945,3.1813653,CSO
11365701144000,3.999997,0.827337882032529,10.1535262832768,0.455954237967472,-0.4981606,0.02687807,0.06627888,211.19078,-93.50672,3.1908984,CSO
11365706110000,4.004963,0.88428271465476,10.0396368063261,0.39900940534524,-0.5009095,0.029626964,0.07971791,211.14502,-93.434975,3.2042768,CSO
11365711130000,4.009983,0.889738827881229,9.91840674728363,0.33337979838048,-0.4972443,0.03573562,0.08979719,211.11261,-93.4071,3.2441607,CSO
11365716150000,4.015003,0.853713669657175,9.79231898032971,0.261329486634507,-0.48991394,0.04153884,0.08857546,211.08005,-93.39124,3.2829065,CSO
11365721113000,4.019966,0.807266588294712,9.68656929788077,0.18238989155813,-0.47219884,0.06383542,0.09010262,211.04762,-93.40428,3.3358688,CSO
11365726171000,4.025024,0.744906377064765,9.60502119449396,0.0912480559734601,-0.44959682,0.09101892,0.09560041,211.0127,-93.42683,3.3877504,CSO
11365731061000,4.029914,0.701262535410877,9.56507431957126,0.0290307646768559,-0.41508293,0.12736541,0.09285152,210.96516,-93.45264,3.4313161,CSO
11365736148000,4.035001,0.681922645930925,9.58441461294164,0.00485588566157205,-0.3979787,0.13775012,0.102319926,210.91826,-93.48755,3.478182,CSO
11365741054000,4.039907,0.649454168293396,9.60467863062537,-0.011320334399474,-0.36377025,0.15363261,0.1020145,210.85634,-93.51545,3.511706,CSO
11365746153000,4.045006,0.592373927858952,9.62846204344438,-0.0160770204400935,-0.34483343,0.16157386,0.09437868,210.7951,-93.544945,3.5442133,CSO
11365751042000,4.049895,0.521648681320144,9.64666208634557,-0.0219707905076269,-0.31337386,0.16249016,0.0983493,210.73244,-86.42269,3.57731,CSO
11365756110000,4.054963,0.413962063174633,9.65563568383101,-0.0309446751969123,-0.27214047,0.17837265,0.095294975,210.66467,-86.39461,3.604777,CSO
11365761077000,4.05993,0.310866518582153,9.66381717879044,-0.0309347668042927,-0.25473082,0.17898351,0.098043874,210.59882,-86.374214,3.623567,CSO
11365766148000,4.065001,0.218441924626771,9.66895198181434,0.015277526956439,-0.23854288,0.18600847,0.09468412,210.52812,-86.357185,3.6386235,CSO
11365771130000,4.069983,0.132894941224953,9.67130410132325,0.065676254910397,-0.21166481,0.18325958,0.08552113,210.45537,-86.36167,3.6319993,CSO
11365776246000,4.075099,0.0588005079962193,9.66667310586011,0.130508884831758,-0.19394971,0.1777618,0.07727446,210.38284,-86.36721,3.6240716,CSO
11365781172000,4.080025,-0.0102631922120243,9.65615591234402,0.19478832115809,-0.18753563,0.16768251,0.056505036,210.30426,-86.39618,3.5922794,CSO
11365786131000,4.084984,-0.0690335965762607,9.61697587460039,0.268251331727338,-0.17470746,0.16982053,0.042455133,210.22514,-86.42589,3.5599878,CSO
11365791107000,4.08996,-0.122658106671545,9.58058166358731,0.332380812958932,-0.17562376,0.1572978,0.033292156,210.1466,-86.47346,3.5081513,CSO
11365796116000,4.094969,-0.157759339640538,9.5542556644105,0.363094390088722,-0.16554448,0.13897185,0.0125227375,210.07034,-86.528076,3.4494503,CSO
11365801250000,4.100103,-0.192106416049687,9.5303487136355,0.393789651503888,-0.15851954,0.1151481,-0.00061086525,209.99403,-86.58936,3.3813999,CSO
11365806098000,4.104951,-0.200911342065238,9.55236100568936,0.411399494340982,-0.15943582,0.08399397,-0.018020526,209.92601,-86.65612,3.3070498,CSO
11365811081000,4.109934,-0.209961454758202,9.5749862637967,0.429499710276882,-0.14966199,0.062308256,-0.03145956,209.85909,-86.72814,3.225681,CSO
11365816130000,4.114983,-0.202270417130698,9.61469387043692,0.414117643052771,-0.12736541,0.052839845,-0.04062254,209.79807,-86.80223,3.141752,CSO
11365821131000,4.119984,-0.19321166418763,9.65545812152449,0.396000146625686,-0.12217305,0.03604105,-0.0571159,209.74573,-86.87941,3.053247,CSO
11365826179000,4.125032,-0.172572931873979,9.72747299164345,0.366100603415618,-0.12339478,0.026267206,-0.06688975,209.69992,-86.95139,2.9664428,CSO
11365831070000,4.129923,-0.150077418404572,9.80395787743733,0.334606885498031,-0.13164146,0.02107485,-0.07360926,209.6576,-87.02389,2.8773186,CSO
11365836150000,4.135003,-0.113078815729558,9.84618624626794,0.318817374464028,-0.13041973,0.0030543262,-0.07788532,209.62311,-87.09488,2.7896123,CSO
11365841094000,4.139947,-0.0720377303553886,9.87354704603679,0.309697130095348,-0.11301007,-0.016493361,-0.0711658,209.59041,-87.16237,2.7047336,CSO
11365846143000,4.144996,-0.0424891232634827,9.88027059618306,0.29448044861185,-0.105374254,-0.038179077,-0.070249505,209.56625,-87.22636,2.6232197,CSO
11365851657000,4.15051,-0.0174195678170338,9.87525658383973,0.274424807605393,-0.11484267,-0.08002335,-0.06780604,209.55319,-87.28535,2.5458128,CSO
11365856164000,4.155017,-0.0203404369313201,9.86561511423088,0.252005151590748,-0.10903945,-0.10476339,-0.06811147,209.54404,-87.33824,2.4772043,CSO
11365861179000,4.160032,-0.0397436015990304,9.85106244631855,0.222900398257752,-0.11484267,-0.111177474,-0.06658431,209.54103,-87.38552,2.411387,STD
