timestamp,rel_time,acc_x,acc_y,acc_z,gyro_x,gyro_y,gyro_z,azimuth,pitch,roll,label
7896273729000,0,-4.33268378757286,-0.242457475656959,8.48575366285777,-0.027794369,0.0009162979,0.011301007,75.99673,6.3183193,-27.838087,SIT
7896278738000,0.005009,-4.32908076532487,-0.243178080859004,8.48743505936167,-0.025961773,-0.0036651916,0.0106901415,75.971794,6.235392,-27.791843,SIT
7896283823000,0.010094,-4.32542307554029,-0.243909619579786,8.48914196717207,-0.02443461,-0.0021380284,0.009162978,75.94568,6.151428,-27.748804,SIT
7896288767000,0.015038,-4.3218668084223,-0.244620873746069,8.4908015447954,-0.024740042,-0.00030543262,0.004886922,75.92051,6.0696225,-27.705643,SIT
7896293732000,0.020003,-4.31829543580077,-0.245335149016214,8.49246817159553,-0.026572637,0.00030543262,0.007941248,75.89352,5.988724,-27.663939,SIT
7896299596000,0.025867,-4.314077403766,-0.246178756304054,8.49443657029764,-0.019242255,0.0036651916,0.014049901,75.8671,5.907389,-27.624624,SIT
7896303752000,0.030023,-4.31108795268542,-0.246776647144481,8.49583163595349,-0.026572637,0.0027488936,0.013744468,75.84166,5.8322873,-27.585245,SIT
7896308735000,0.035006,-4.30750363248943,-0.247493511932221,8.49750430490516,-0.02565634,-0.00061086525,0.008857546,75.81582,5.754656,-27.547194,SIT
7896313718000,0.039989,-4.30391931229345,-0.248210376719961,8.49917697385683,-0.020463986,0.00061086525,0.00580322,75.78971,5.6791425,-27.51124,SIT
7896318742000,0.045013,-4.30030550040008,-0.248933139853336,8.50086340548701,-0.023823744,0.00061086525,-0.0015271631,75.76641,5.608286,-27.474699,SIT
7896323742000,0.050013,-4.29670895193933,-0.249652450296583,8.50254178091514,-0.019547688,0.0021380284,0.0030543262,75.74042,5.5345063,-27.440193,SIT
7896328736000,0.055007,-4.29311671933673,-0.250370897567298,8.50421814229275,-0.021685716,-0.00061086525,0.014049901,75.714554,5.464771,-27.40541,SIT
7896333800000,0.060071,-4.28947413505568,-0.251099415184219,8.50591800092635,-0.028710667,-0.00580322,0.0106901415,75.691826,5.397931,-27.37098,SIT
7896338760000,0.065031,-4.28590635898262,-0.25181297114392,8.50758294935105,-0.032986723,-0.0009162979,0.0106901415,75.664825,5.3304467,-27.339966,SIT
7896343731000,0.070002,-4.28233067050293,-0.252528109586596,8.50925159020169,-0.024740042,0.008857546,0.0106901415,75.63899,5.2633386,-27.30969,SIT
7896348733000,0.075004,-4.2787326834228,-0.253247707754021,8.51093063697999,-0.024129177,0.0012217305,0.00580322,75.614426,5.201182,-27.276566,SIT
7896353751000,0.080022,-4.27512318738759,-0.253969607714864,8.51261505455966,-0.02321288,-0.0021380284,0.009773844,75.58757,5.1369925,-27.248442,SIT
7896358738000,0.085009,-4.27153598995283,-0.254687047950958,8.51428906621167,-0.020158553,-0.0021380284,0.003970624,75.575719306573,5.10640655088811,-27.234056018866,SIT
7896363716000,0.089987,-4.26795526630531,-0.255403193428255,8.51596005678791,-0.024740042,-0.0018325958,0.008552114,75.56389,5.0758758,-27.219696,SIT
7896368950000,0.095221,-4.26419039937659,-0.256156167600246,8.51771698018607,-0.030543262,0.005497787,0.007941248,75.53895,5.016263,-27.19293,SIT
7896373741000,0.100012,-4.2607441866415,-0.256845410866966,8.5193251995213,-0.013133603,0.002443461,0.00580322,75.514656,4.9527035,-27.163992,SIT
7896378757000,0.105028,-4.25713612922567,-0.257567023103631,8.5210089457508,-0.027183503,-0.005497787,0.008246681,75.489296,4.8992753,-27.136559,SIT
7896383799000,0.11007,-4.25350936975785,-0.258292375754602,8.52270141953252,-0.029932396,0.00030543262,0.01160644,75.46473,4.839936,-27.112835,SIT
7896388775000,0.115046,-4.25239126694233,-0.258140469435688,8.52566893855496,-0.023823744,0.0033597588,0.009162978,75.44102,4.783474,-27.086725,SIT
7896393742000,0.120013,-4.25286636697629,-0.257427819136703,8.52946974378758,-0.022296581,-0.0067195175,0.0106901415,75.41489,4.729007,-27.0594,SIT
7896398753000,0.125024,-4.25334567566769,-0.256708855849364,8.53330421832364,-0.0290161,-0.0021380284,0.01160644,75.3918,4.6775174,-27.027,SIT
7896403746000,0.130017,-4.25382326263558,-0.255992475148169,8.53712491905375,-0.026267206,0.0009162979,0.013133603,75.36762,4.6239915,-26.992458,SIT
7896408738000,0.135009,-4.25430075395218,-0.255276237923983,8.54094485457242,-0.025350908,0.007941248,0.013133603,75.34385,4.573713,-26.961378,SIT
7896413723000,0.139994,-4.25477757570963,-0.254561005038853,8.544759433611,-0.024129177,0.007941248,0.009162978,75.3317310527367,4.54889484988014,-26.9454889348781,SIT
7896418750000,0.145021,-4.25525841482192,-0.253839746119384,8.54860615153013,-0.02565634,0.005497787,0.01282817,75.31951,4.5238676,-26.929466,SIT
7896423755000,0.150026,-4.25573714960548,-0.253121643694093,8.55243603479755,-0.033292156,0.0033597588,0.015577064,75.2944,4.4762406,-26.900581,SIT
7896428749000,0.15502,-4.25621483222469,-0.252405119515891,8.5562575007391,-0.026572637,0.01038471,0.004886922,75.27391,4.427767,-26.874123,SIT
7896433847000,0.160118,-4.25670246257965,-0.251673673728851,8.56015854867062,-0.024129177,0.004581489,0.01282817,75.246216,4.380433,-26.84477,SIT
7896438904000,0.165175,-4.2571861712311,-0.250948110499141,8.56402822293302,-0.026572637,0.0036651916,0.01282817,75.22484,4.3359566,-26.81912,SIT
7896443733000,0.170004,-4.25764807138491,-0.250255260027267,8.56772342898664,-0.027794369,0.013133603,0.015271631,75.20031,4.2900953,-26.795805,SIT
7896448743000,0.175014,-4.258127284425,-0.249536440216935,8.57155713831126,-0.03726278,0.0012217305,0.015882496,75.17584,4.248065,-26.766842,SIT
7896453746000,0.180017,-4.25860582790595,-0.24881862474566,8.57538549115579,-0.032070424,0.006414085,0.018325957,75.15081,4.202898,-26.746204,SIT
7896458739000,0.18501,-4.25908341487385,-0.248102244044466,8.5792061918859,-0.04184427,0.010995574,0.015882496,75.12695,4.1652837,-26.72263,SIT
7896463719000,0.18999,-4.25955975837478,-0.247387728544376,8.58301694486726,-0.03726278,0.008552114,0.014660766,75.102036,4.122984,-26.69927,SIT
7896468742000,0.195013,-4.26004021488184,-0.24666704353294,8.58686060194063,-0.03481932,0.008552114,0.016187929,75.077354,4.084395,-26.678526,SIT
7896473738000,0.200009,-4.26051808880366,-0.245950232400721,8.59068359830507,-0.026572637,0.010995574,0.015577064,75.05389,4.0443025,-26.658308,SIT
7896478725000,0.204996,-4.26099510186373,-0.245234712561575,8.59449970776653,-0.028099801,0.010995574,0.016187929,75.02963,4.0064497,-26.638037,SIT
7896483873000,0.210144,-4.26148751478396,-0.244496092924133,8.59843901627015,-0.024129177,0.004276057,0.015271631,75.0061,3.9661164,-26.617031,SIT
7896488782000,0.215053,-4.26195706704221,-0.243791764291614,8.60219543923913,-0.03268129,0.01282817,0.01985312,74.98116,3.929327,-26.601036,SIT
7896493730000,0.220001,-4.26243034970136,-0.243081840055782,8.60598170545435,-0.032375857,0.009162978,0.0106901415,74.96058,3.8918762,-26.579876,SIT
7896498749000,0.22502,-4.2629104236032,-0.242361728952378,8.60982230168195,-0.027183503,0.01160644,0.01160644,74.935875,3.8541574,-26.563684,SIT
7896503749000,0.23002,-4.26338868013024,-0.241644343912127,8.61364835889215,-0.024740042,0.013133603,0.013439035,74.913826,3.8187802,-26.546509,SIT
7896508720000,0.234991,-4.26386416276942,-0.24093111970511,8.61745222497054,-0.019242255,0.004276057,0.007330383,74.89398,3.782868,-26.52737,SIT
7896513716000,0.239987,-4.26434203669124,-0.240214308572891,8.62127522133497,-0.022602014,0.0061086523,0.0076358155,74.87198,3.748225,-26.512321,SIT
7896518783000,0.245054,-4.26482670185574,-0.239487310573101,8.62515254771179,-0.026572637,0.00580322,0.007330383,74.85194,3.713878,-26.494495,SIT
7896523736000,0.250007,-4.26530046277142,-0.238776668952228,8.62894263998422,-0.023518313,0.00030543262,0.0125227375,74.83012,3.678503,-26.476295,SIT
7896528735000,0.255006,-4.26577862364715,-0.238059427388985,8.63276793198298,-0.017715093,0.0033597588,0.008246681,74.811714,3.6453032,-26.460718,SIT
7896533760000,0.260031,-4.26625927145682,-0.237338455423533,8.63661311947924,-0.026572637,0.00061086525,0.008552114,74.79011,3.6144476,-26.442602,SIT
7896538748000,0.265019,-4.2667363801682,-0.236622792107379,8.64042999415213,-0.027794369,0.006414085,0.013439035,74.76879,3.5807507,-26.428259,SIT
7896543737000,0.270008,-4.26721358453087,-0.235906985314217,8.64424763403647,-0.0290161,0.0021380284,0.013133603,74.74889,3.5505211,-26.41062,SIT
7896548728000,0.274999,-4.26769098019616,-0.235190891567038,8.6480668043437,-0.024129177,0.005497787,0.0067195175,74.72987,3.5197508,-26.397186,SIT
7896554426000,0.280697,-4.26823600133437,-0.234373359575168,8.65242697914045,-0.026572637,0.004276057,0.0067195175,74.70889,3.4909348,-26.38177,SIT
7896558746000,0.285017,-4.26864921497373,-0.233753538900392,8.65573269257006,-0.03145956,0.005192355,0.0061086523,74.69043,3.4629426,-26.368174,SIT
7896563737000,0.290008,-4.26912661063902,-0.233037445153213,8.65955186287729,-0.026267206,0.004276057,0.0125227375,74.669785,3.4326222,-26.354227,SIT
7896568749000,0.29502,-4.26960601498172,-0.232318338388866,8.6633871026248,-0.0290161,0.004886922,0.00580322,74.653755,3.407831,-26.341082,SIT
7896573741000,0.300012,-4.27008350629832,-0.231602101164679,8.66720703814346,-0.017715093,0.00580322,0.0070249503,74.63328,3.376771,-26.328407,SIT
7896578747000,0.305018,-4.27056233673319,-0.23088385526238,8.67103768662232,-0.023823744,-0.0033597588,0.005192355,74.615875,3.3526614,-26.313183,SIT
7896583898000,0.310169,-4.27105503660734,-0.230144805193913,8.67497929076027,-0.03023783,0.0012217305,0.007330383,74.59723,3.3255682,-26.302626,SIT
7896588778000,0.315049,-4.26860373737724,-0.229180295659802,8.67274123200574,-0.028099801,0.00580322,0.008246681,74.5795,3.2987328,-26.289778,SIT
7896593732000,0.320003,-4.26387566647649,-0.227998280279686,8.66588555203325,-0.025045475,-0.004276057,0.005497787,74.562195,3.2739615,-26.274395,SIT
7896598737000,0.325008,-4.2590989214506,-0.226804096392428,8.65895929481436,-0.028099801,-0.0021380284,0.0067195175,74.56869,3.2378485,-26.251877,SIT
7896603752000,0.330023,-4.25431263247861,-0.225607526523377,8.65201919891972,-0.03176499,-0.003970624,0.0106901415,74.57442,3.2020235,-26.22617,SIT
7896608737000,0.335008,-4.24955497534494,-0.224418114599704,8.64512061905236,-0.02107485,-0.004886922,0.014049901,74.57957,3.1640904,-26.20214,SIT
7896613717000,0.339988,-4.24480209018432,-0.223229895666927,8.63822895852289,-0.0290161,0.005497787,0.0070249503,74.586555,3.1335266,-26.181473,SIT
7896618795000,0.345066,-4.23995567435186,-0.222018294112582,8.63120167897095,-0.028099801,0.0033597588,0.013133603,74.58763,3.0967262,-26.157993,SIT
7896624400000,0.350671,-4.23460629255963,-0.22068095131776,8.62344510120634,-0.032375857,0.0070249503,0.009162978,74.594086,3.066273,-26.139482,SIT
7896628765000,0.355036,-4.23044036008451,-0.219639470265236,8.61740451923623,-0.035124753,-0.0125227375,0.007330383,74.597084,3.034941,-26.114496,SIT
7896633901000,0.360172,-4.22553858936464,-0.218414030016493,8.61029697536487,-0.020463986,-0.002443461,0.007330383,74.5979857012597,3.01591335752849,-26.1078338860228,SIT
7896638767000,0.365038,-4.22089450518962,-0.217253011276154,8.60356307573908,-0.010995574,0.003970624,0.014660766,74.59884,2.997886,-26.101522,SIT
7896643730000,0.370001,-4.21615784473738,-0.216068848512425,8.5966949409584,-0.025045475,0.0030543262,0.008857546,74.604324,2.97393,-26.078485,SIT
7896648728000,0.374999,-4.21138778047377,-0.214876334812421,8.58977837081255,-0.02687807,-0.0036651916,0.004276057,74.60696,2.940391,-26.05919,SIT
7896653757000,0.380028,-4.20658812997723,-0.21367642456886,8.58281890077184,-0.022602014,-0.0067195175,0.013744468,74.606705,2.9085834,-26.041367,SIT
7896658739000,0.38501,-4.20183333602739,-0.212487728439725,8.57592447250721,-0.021380283,-0.0030543262,0.016493361,74.609695,2.8801413,-26.023973,SIT
7896663709000,0.38998,-4.19708999481287,-0.211301895488741,8.5690466506535,-0.033292156,0.00061086525,0.018325957,74.60961,2.8536038,-26.00645,SIT
7896668789000,0.39506,-4.19224167019119,-0.210089816738037,8.5620166033664,-0.02687807,0.003970624,0.010079277,74.61166,2.8236504,-25.990316,SIT
7896673743000,0.400014,-4.18751359929044,-0.208907801357922,8.55516092339391,-0.008552114,-0.0018325958,0.016187929,74.60825,2.7922642,-25.97337,SIT
7896678752000,0.405023,-4.18273303668612,-0.207712663077946,8.54822913070472,-0.016187929,-0.0018325958,0.009468411,74.6095853376777,2.78233428282978,-25.9669638411335,SIT
7896683871000,0.410142,-4.17784749067463,-0.206491278998251,8.54114511258216,-0.028710667,0.002443461,0.011301007,74.61095,2.7721863,-25.960417,SIT
7896688756000,0.415027,-4.17318527300201,-0.205325726892505,8.53438491947242,-0.03023783,-0.0036651916,0.01282817,74.60914,2.7417455,-25.94351,SIT
7896693937000,0.420208,-4.16824055452466,-0.204089549725695,8.52721510156013,-0.024129177,-0.005497787,0.02107485,74.60664,2.7148767,-25.929522,SIT
7896698716000,0.424987,-4.16367950268076,-0.202949289026952,8.52060159841347,-0.029626964,-0.005192355,0.02076942,74.606125,2.692823,-25.914776,SIT
7896703752000,0.430023,-4.15887317142195,-0.201747708596136,8.51363244129972,-0.032070424,-0.00030543262,0.021380283,74.602554,2.6678352,-25.901424,SIT
7896708736000,0.435007,-4.15411646868289,-0.200558535270643,8.50673524529994,-0.034208454,-0.0061086523,0.020158553,74.599365,2.6449833,-25.885532,SIT
7896713722000,0.439993,-4.1493578571546,-0.19936888474879,8.49983528156501,-0.03634648,-0.0036651916,0.022907447,74.59481,2.622692,-25.873865,SIT
7896718817000,0.445088,-4.14449521661377,-0.198153227025398,8.49278447626427,-0.03604105,-0.015577064,0.021380283,74.591545,2.6014817,-25.856798,SIT
7896723787000,0.450058,-4.13975187539925,-0.196967394074414,8.48590665441056,-0.032375857,-0.020158553,0.02443461,74.58601,2.5794837,-25.84304,SIT
7896728763000,0.455034,-4.13500280781707,-0.195780129534354,8.47902052935138,-0.03390302,-0.016493361,0.026572637,74.5811,2.559481,-25.828716,SIT
7896733826000,0.460097,-4.13017070790377,-0.194572106952698,8.47201400781309,-0.044593163,-0.01740966,0.02687807,74.57558,2.5411825,-25.812315,SIT
7896738770000,0.465041,-4.12545218094913,-0.193392477554375,8.46517216651635,-0.044593163,-0.032375857,0.024129177,74.57011,2.521056,-25.793407,SIT
7896743742000,0.470013,-4.12070693094539,-0.192206167407033,8.45829157692749,-0.046731193,-0.03023783,0.030848695,74.56175,2.5033648,-25.779743,SIT
7896748743000,0.475014,-4.11593400349795,-0.191012937912491,8.45137085517891,-0.04153884,-0.031154128,0.027183503,74.55724,2.485737,-25.76135,SIT
7896753746000,0.480017,-4.11115916726129,-0.189819231221592,8.44444736569518,-0.032375857,-0.026267206,0.035124753,74.547005,2.4656568,-25.746038,SIT
7896758740000,0.485011,-4.10639292057612,-0.188627671914305,8.43753633101964,-0.03848451,-0.028405234,0.044898596,74.53721,2.4487336,-25.72898,SIT
7896763957000,0.490228,-4.10141384389279,-0.187382905213041,8.4303166938746,-0.039095376,-0.01863139,0.030543262,74.5328,2.4304352,-25.716974,SIT
7896768862000,0.495133,-4.09673253832796,-0.18621258114371,8.42352882341334,-0.035430185,-0.013744468,0.027794369,74.52156,2.4103029,-25.703712,SIT
7896773770000,0.500041,-4.0920483695793,-0.185041541279841,8.41673680134935,-0.030543262,-0.009773844,0.032375857,74.5127,2.3912246,-25.693268,SIT
7896778773000,0.505044,-4.08727353334264,-0.183847834588941,8.40981331186562,-0.033292156,-0.02565634,0.034513887,74.50525,2.3741744,-25.678787,SIT
7896783881000,0.510152,-4.08239848567186,-0.182629075089218,8.4027445162864,-0.03573562,-0.020158553,0.03359759,74.4977,2.3559844,-25.671846,SIT
7896788787000,0.515058,-4.08204005402912,-0.18458256082575,8.40087786848828,-0.03268129,-0.022907447,0.025961773,74.491264,2.3380008,-25.658344,SIT
7896793735000,0.520006,-4.08751032622354,-0.190766336969539,8.4056346161205,-0.034513887,-0.03145956,0.02687807,74.48244,2.3212938,-25.645193,SIT
7896798742000,0.525013,-4.09304582599668,-0.197023848520054,8.41044808325763,-0.04734206,-0.046120327,0.025961773,74.47306,2.3041263,-25.626465,SIT
7896803748000,0.530019,-4.09858022021763,-0.203280110317913,8.41526058904722,-0.054061573,-0.044898596,0.022602014,74.46427,2.2863877,-25.610306,SIT
7896808735000,0.535006,-4.10409360894713,-0.2095126268153,8.42005482923353,-0.0720821,-0.062002823,0.01863139,74.455505,2.2753131,-25.5853,SIT
7896813725000,0.539996,-4.10961031433318,-0.215748892570657,8.42485195346246,-0.06994407,-0.08032878,0.016493361,74.44724,2.2611525,-25.560875,SIT
7896818791000,0.545062,-4.11521104168503,-0.222080139527899,8.4297221401045,-0.082161374,-0.10140363,0.010079277,74.44134,2.2564313,-25.531425,SIT
7896823741000,0.550012,-4.12068352498381,-0.228266415177,8.4344808104318,-0.0842994,-0.118507855,0.0033597588,74.43598,2.2489042,-25.498749,SIT
7896828779000,0.55505,-4.12625329687458,-0.234562669059863,8.43932407934269,-0.09743301,-0.13683382,0.004886922,74.4297,2.2470977,-25.46082,SIT
7896833795000,0.560066,-4.13179874661735,-0.240831428384286,8.44414619860769,-0.111177474,-0.15424347,-0.00030543262,74.42737,2.2475684,-25.419329,SIT
7896838746000,0.565017,-4.13727233546831,-0.247018953786044,8.44890583028253,-0.1142318,-0.16615535,0.0009162979,74.42228,2.2475092,-25.375643,SIT
7896843737000,0.570008,-4.14279014640654,-0.253256469294057,8.453703915859,-0.13072516,-0.16829337,-0.00030543262,74.4194,2.2551343,-25.331196,SIT
7896848739000,0.57501,-4.14832011841877,-0.25950773208129,8.45851257625843,-0.12950343,-0.16493362,0.0021380284,74.41484,2.258063,-25.286552,SIT
7896853748000,0.580019,-4.15385782929627,-0.265767743137118,8.46332796609064,-0.14538592,-0.15668693,0.009162978,74.4092,2.2688758,-25.244297,SIT
7896858746000,0.585017,-4.15938337909977,-0.272014006913726,8.4681327810999,-0.15332718,-0.14660765,0.01282817,74.40391,2.277058,-25.204987,SIT
7896863715000,0.589986,-4.16487686789,-0.278224027863298,8.47290971703047,-0.14905111,-0.13500121,0.01160644,74.39812,2.2854774,-25.169846,SIT
7896868799000,0.59507,-4.17049749518112,-0.284577770368355,8.47779720792825,-0.1386664,-0.112399206,0.01038471,74.39153,2.293454,-25.141983,SIT
7896873737000,0.600008,-4.17595671185372,-0.29074904898558,8.48254434208506,-0.14110987,-0.096516706,0.005497787,74.38668,2.3038301,-25.116508,SIT
7896879520000,0.605791,-4.18235012011976,-0.297976368597449,8.4881038149139,-0.13988814,-0.09193522,0.003970624,74.38138,2.3099997,-25.095089,SIT
7896883795000,0.610066,-4.18707635569598,-0.303319061203491,8.49221357565111,-0.12705997,-0.09407325,-0.004886922,74.38013,2.3149776,-25.076761,SIT
7896888781000,0.615052,-4.1925886388733,-0.309550327948222,8.49700685448988,-0.13713925,-0.096516706,-0.024129177,74.382744,2.3267508,-25.06007,SIT
7896893732000,0.620003,-4.19806222772427,-0.31573785334998,8.50176648616472,-0.1337795,-0.10995574,-0.03481932,74.38526,2.331557,-25.04018,SIT
7896898750000,0.625021,-4.2036098885714,-0.322009112179716,8.5065905281248,-0.129198,-0.13225232,-0.039095376,74.391525,2.3399465,-25.017496,SIT
7896903741000,0.630012,-4.20912769950963,-0.328246627687729,8.51138861370127,-0.1386664,-0.14263703,-0.040317107,74.4,2.3517802,-24.995,SIT
7896908737000,0.635008,-4.21465103820877,-0.334490391959024,8.51619150601545,-0.14263703,-0.13744467,-0.033292156,74.40687,2.3602662,-24.971548,SIT
7896913712000,0.639983,-4.22015116031209,-0.340707911424535,8.52097421003127,-0.15363261,-0.13225232,-0.03176499,74.415474,2.3735306,-24.946024,SIT
7896918826000,0.645097,-4.22580495416865,-0.347099146509283,8.52589054135527,-0.13652839,-0.12644911,-0.01282817,74.416275,2.3772523,-24.923386,SIT
7896923737000,0.650008,-4.23123432093236,-0.353236681804785,8.53061171912848,-0.15118915,-0.106901415,-0.0009162979,74.41895,2.3923686,-24.906914,SIT
7896928787000,0.655058,-4.2368173594493,-0.359547932719525,8.53546652420986,-0.14355333,-0.0842994,0.01282817,74.415146,2.394503,-24.893948,SIT
7896933801000,0.660072,-4.24236059808771,-0.365814192538635,8.54028672077978,-0.13652839,-0.052534413,0.03023783,74.40692,2.3984401,-24.889889,SIT
7896938812000,0.665083,-4.24790052006957,-0.372076703099776,8.54510403330707,-0.14630222,-0.040011674,0.04153884,74.396484,2.4036334,-24.88712,SIT
7896943731000,0.670002,-4.25333873125072,-0.378224236416529,8.5498329018606,-0.13988814,-0.029626964,0.058643065,74.379395,2.3998985,-24.893017,SIT
7896949544000,0.675815,-4.2597653060822,-0.38548904860809,8.55542121511567,-0.15668693,-0.020463986,0.087964594,74.355415,2.4017577,-24.902224,SIT
7896953753000,0.680024,-4.26441857521444,-0.390749257538811,8.55946752691518,-0.14782938,-0.025045475,0.10903945,74.329025,2.3941486,-24.910225,SIT
7896958739000,0.68501,-4.26993085839176,-0.396980524283542,8.56426080575395,-0.14569137,-0.04184427,0.112704635,74.29946,2.3910637,-24.917042,SIT
7896963716000,0.689987,-4.27543319159945,-0.403200543254365,8.56904543246485,-0.15790866,-0.060170226,0.12644911,74.260704,2.3855755,-24.922071,SIT
7896968763000,0.695034,-4.28101291345985,-0.409508044911136,8.57389735350362,-0.14721853,-0.0720821,0.11789699,74.22841,2.3757668,-24.92361,SIT
7896973742000,0.700013,-4.2865174577719,-0.415730563387272,8.5786839029096,-0.14569137,-0.09040806,0.13347405,74.184586,2.3667934,-24.918463,SIT
7896978746000,0.705017,-4.29204964088849,-0.421984325679819,8.58349448600411,-0.13622294,-0.10903945,0.1414153,74.14641,2.3548524,-24.90962,SIT
7896983833000,0.710104,-4.29767358483615,-0.428341817442844,8.5883848609445,-0.13225232,-0.12614368,0.13622294,74.10799,2.3435757,-24.896172,SIT
7896988779000,0.71505,-4.28250829275102,-0.426586773758081,8.59968123119811,-0.109650314,-0.15027285,0.1328632,74.0669,2.3238037,-24.875822,SIT
7896993728000,0.719999,-4.25220025043314,-0.419009764167591,8.61578235565481,-0.093767814,-0.16798794,0.12980886,74.02791,2.3053362,-24.852829,SIT
7896998743000,0.725014,-4.22148801923004,-0.411331707368984,8.63209820514973,-0.051618114,-0.17348573,0.11728613,74.036446,2.2962172,-24.825293,SIT
7897003713000,0.729984,-4.19105137135777,-0.403722546394093,8.6482676512095,-0.043676864,-0.19242255,0.09590584,74.04804,2.293299,-24.78975,SIT
7897008704000,0.734975,-4.16048611793112,-0.396081234034801,8.66450541887234,-0.05009095,-0.2507602,0.07544186,74.06228,2.2848155,-24.742264,SIT
7897013752000,0.740023,-4.1295717922854,-0.388352653632135,8.68092863088636,-0.065973446,-0.3100141,0.058948494,74.08119,2.279089,-24.690111,SIT
7897019377000,0.745648,-4.09512387593098,-0.379740675667596,8.69922906027997,-0.07819075,-0.34330627,0.04337143,74.105156,2.2765646,-24.630226,SIT
7897023736000,0.750007,-4.06842903728405,-0.373066966876942,8.71341067303138,-0.0888809,-0.37568212,0.026572637,74.1331,2.279838,-24.555782,SIT
7897028759000,0.75503,-4.0376678134888,-0.365376661931897,8.72975254980366,-0.10262536,-0.36560285,0.018020526,74.162636,2.2877805,-24.486483,SIT
7897033760000,0.760031,-4.00704131932196,-0.357720039389557,8.7460228515632,-0.10873401,-0.3549127,0.004581489,74.197624,2.2988043,-24.410692,SIT
7897038758000,0.765029,-3.97643319737718,-0.350068009902131,8.76228339309373,-0.10842858,-0.33658674,0.00061086525,74.23162,2.3112545,-24.342667,SIT
7897043767000,0.770038,-3.94575771061819,-0.342399139213353,8.77857972213063,-0.112704635,-0.31581733,-0.004276057,74.269325,2.3277948,-24.280735,SIT
7897048765000,0.775036,-3.9151495886734,-0.334747109725928,8.79484026366116,-0.11362094,-0.30115658,-0.020158553,74.310936,2.344783,-24.224358,SIT
7897053757000,0.780028,-3.88457821117273,-0.327104266348331,8.81108128473367,-0.11301007,-0.29657507,-0.017104227,74.34734,2.360463,-24.1732,SIT
7897058678000,0.784949,-3.85444164292737,-0.319570125270376,8.82709131371961,-0.11209377,-0.28985557,-0.019242255,74.38958,2.3784323,-24.128378,SIT
7897063649000,0.78992,-3.82399887098109,-0.31195943327718,8.84326401318905,-0.12644911,-0.27305678,-0.026572637,74.43174,2.4001527,-24.089401,SIT
7897068664000,0.794935,-3.79328663977798,-0.304281376478573,8.85957986268397,-0.118507855,-0.24648413,-0.03573562,74.47444,2.4159563,-24.056656,SIT
7897073654000,0.799925,-3.76272751042535,-0.296641595137586,8.87581437693714,-0.1142318,-0.20677789,-0.04184427,74.51799,2.4365878,-24.033775,SIT
7897078644000,0.804915,-3.73216838107271,-0.289001813796599,8.89204889119031,-0.1160644,-0.1731803,-0.04917465,74.56415,2.457662,-24.01768,SIT
7897083694000,0.809965,-3.70124180727896,-0.281270171357323,8.90847861002368,-0.105068825,-0.16126843,-0.05100725,74.60982,2.4741156,-24.007385,SIT
7897088659000,0.81493,-3.67083577977679,-0.273668665473957,8.9246317890351,-0.09254608,-0.15577064,-0.05467244,74.65781,2.4915268,-24.005066,SIT
7897093655000,0.819926,-3.64023990598004,-0.266019698023141,8.94088582374629,-0.08735373,-0.15485434,-0.057421334,74.70527,2.5079856,-24.005018,SIT
7897098677000,0.824948,-3.60948480625881,-0.2583309240964,8.9572244471089,-0.082161374,-0.18325958,-0.06383542,74.75371,2.5220017,-23.998177,SIT
7897103739000,0.83001,-3.57848474357683,-0.250580909437467,8.97369320685831,-0.061391957,-0.19700404,-0.064751714,74.80057,2.530275,-23.995943,SIT
7897108732000,0.835003,-3.54790724200214,-0.242936535041566,8.98993748134049,-0.062308256,-0.24373524,-0.07574729,74.850655,2.5447805,-23.976297,SIT
7897113727000,0.839998,-3.51731749227941,-0.235289098609055,9.00618826264201,-0.040011674,-0.30268374,-0.0888809,74.900276,2.5482476,-23.949677,SIT
7897118811000,0.845082,-3.48618269996903,-0.227505401547416,9.02272859740416,-0.03176499,-0.35185838,-0.099265605,74.9508,2.5566187,-23.913294,SIT
7897123739000,0.85001,-3.45600326320554,-0.219960543341327,9.03876140025779,-0.015271631,-0.39614612,-0.10995574,75.0035,2.5586562,-23.862738,SIT
7897128746000,0.855017,-3.42534002459459,-0.212294734689158,9.05505122247535,-0.0012217305,-0.4370741,-0.102319926,75.0517,2.5583122,-23.801088,SIT
7897133800000,0.860071,-3.39438895450476,-0.204556968176663,9.07149395494739,0.004886922,-0.46028697,-0.10293079,75.104065,2.5580442,-23.733837,SIT
7897138809000,0.86508,-3.36371346774577,-0.196888097487885,9.08779028398429,0.013439035,-0.44959682,-0.106595986,75.15355,2.5530744,-23.667208,SIT
7897143737000,0.870008,-3.33353403098229,-0.189343239281796,9.10382308683793,-0.004886922,-0.42332962,-0.105068825,75.200134,2.5531857,-23.601154,SIT
7897148733000,0.875004,-3.30293815718554,-0.18169427183098,9.12007712154912,-0.022296581,-0.37384954,-0.09162979,75.24336,2.5501096,-23.547415,SIT
7897153748000,0.880019,-3.27222592598243,-0.174016215032373,9.13639297104403,-0.0571159,-0.33353242,-0.081855945,75.28628,2.5568094,-23.50071,SIT
7897158732000,0.885003,-3.24170354107391,-0.166385619801215,9.15260796483918,-0.1020145,-0.30818152,-0.070249505,75.32389,2.569086,-23.465706,SIT
7897163719000,0.88999,-3.21116278394333,-0.158750431515142,9.16883271886335,-0.12705997,-0.3005457,-0.06841691,75.36096,2.585215,-23.438337,SIT
7897168774000,0.895045,-3.18020558977948,-0.151011133984343,9.18527870474506,-0.13500121,-0.29260445,-0.058948494,75.3917,2.6061087,-23.419474,SIT
7897173740000,0.900011,-3.14979343820329,-0.143408097082671,9.20143513716615,-0.15210545,-0.29443705,-0.06658431,75.426544,2.6372428,-23.400574,SIT
7897178722000,0.904993,-3.1192833014428,-0.135780563888123,9.21764362414196,-0.1563815,-0.28160888,-0.06383542,75.45499,2.6643155,-23.389112,SIT
7897183774000,0.910045,-3.08834447950101,-0.128045859412238,9.23407984979467,-0.15210545,-0.27763826,-0.074830994,75.48938,2.6954465,-23.374979,SIT
7897188750000,0.915021,-3.09297997914946,-0.140016380450547,9.23805652503234,-0.14508049,-0.2761111,-0.0842994,75.52207,2.7258658,-23.364422,SIT
7897193736000,0.920007,-3.1282794699502,-0.169114613540592,9.23137825719152,-0.12461651,-0.28099802,-0.11026118,75.56274,2.7541769,-23.353254,SIT
7897198743000,0.925014,-3.16372763489993,-0.198335402365672,9.22467186186882,-0.12370021,-0.28802297,-0.12797627,75.57499,2.7410324,-23.243616,SIT
7897203747000,0.930018,-3.19915456068551,-0.227538683228605,9.21796948475782,-0.124005646,-0.29626966,-0.14508049,75.594864,2.7259007,-23.134798,SIT
7897208746000,0.935017,-3.2345460878642,-0.256712784154625,9.21127380466631,-0.14782938,-0.31306845,-0.15607607,75.617805,2.718205,-23.024342,SIT
7897213712000,0.939983,-3.26970398423734,-0.285694297497016,9.20462232490347,-0.18234327,-0.3277292,-0.16401732,75.64459,2.7151396,-22.914953,SIT
7897218738000,0.945009,-3.30528666389329,-0.315025970082367,9.19789048090669,-0.21410827,-0.34574974,-0.17165314,75.67389,2.7188098,-22.802753,SIT
7897223739000,0.95001,-3.34069235051473,-0.344211742983152,9.19119212200738,-0.23884831,-0.3539964,-0.17928895,75.70505,2.7303882,-22.6922,SIT
7897228772000,0.955043,-3.37632458822034,-0.373584267480182,9.18445090218331,-0.24740042,-0.36163223,-0.18173242,75.73615,2.745921,-22.579895,SIT
7897233748000,0.960019,-3.41155328180728,-0.4026241406964,9.17778602838148,-0.24740042,-0.36468655,-0.1863139,75.769615,2.7662268,-22.469675,SIT
7897238750000,0.965021,-3.44696604815011,-0.431815749584568,9.17108633007827,-0.24373524,-0.36743546,-0.19333886,75.80386,2.787731,-22.360561,SIT
7897243732000,0.970003,-3.48223722006533,-0.460890638725081,9.16441341985305,-0.23762658,-0.3643811,-0.20280726,75.83971,2.808728,-22.255365,SIT
7897248736000,0.975007,-3.51766414585092,-0.490093919588014,9.15771104274205,-0.23396139,-0.34147367,-0.20891592,75.8763,2.8292036,-22.1582,SIT
7897253761000,0.980032,-3.55323974578549,-0.519419756185983,9.15098053814916,-0.21930063,-0.32711834,-0.20952678,75.91331,2.8450212,-22.062496,SIT
7897258739000,0.98501,-3.58848259881519,-0.548471301376966,9.14431298553953,-0.22571471,-0.3286455,-0.21899518,75.95428,2.8665712,-21.971415,SIT
7897263712000,0.989983,-3.623690053238,-0.577493666631036,9.1376521299494,-0.2284636,-0.32834008,-0.21471913,75.99074,2.8814578,-21.887804,SIT
7897268762000,0.995033,-3.65944264620706,-0.606965402913572,9.13088814025904,-0.23090707,-0.3286455,-0.22571471,76.03398,2.9001896,-21.805801,SIT
7897274519000,1.00079,-3.7002006021918,-0.640563182275663,9.12317719201203,-0.2415972,-0.31306845,-0.23365596,76.07446,2.9206328,-21.731056,SIT
7897278833000,1.005104,-3.73074252022517,-0.665739631844546,9.11739900359139,-0.23579398,-0.31673363,-0.23365596,76.114746,2.9372213,-21.653141,SIT
7897283771000,1.010042,-3.76570218439968,-0.694557737540222,9.11078502713773,-0.24098633,-0.3136793,-0.226631,76.154854,2.9591985,-21.583862,SIT
7897288742000,1.015013,-3.80089547937972,-0.723568430819526,9.10412685035539,-0.23518312,-0.28893927,-0.21533,76.19313,2.975824,-21.52205,SIT
7897293736000,1.020007,-3.83625160795151,-0.752713351808632,9.09743786728338,-0.23945917,-0.27550024,-0.20555615,76.22879,2.9954932,-21.460115,SIT
7897298734000,1.025005,-3.87163605540881,-0.781881616747269,9.09074352659577,-0.24678956,-0.27488935,-0.20158553,76.26227,3.0134819,-21.403526,SIT
7897303747000,1.030018,-3.90712669868682,-0.811137421496646,9.08402909484968,-0.23915374,-0.2764165,-0.1853976,76.28854,3.02595,-21.352203,SIT
7897308736000,1.035007,-3.9424474286517,-0.840253162548839,9.07734680879716,-0.23151793,-0.27763826,-0.16340645,76.31123,3.0389557,-21.30292,SIT
7897313722000,1.039993,-3.97774691945245,-0.869351395638883,9.07066854095634,-0.22052236,-0.2761111,-0.14844026,76.33064,3.0477455,-21.255692,SIT
7897318834000,1.045105,-4.01393845514708,-0.899184963139145,9.06382150822424,-0.20830505,-0.27152961,-0.13469578,76.3433,3.0517426,-21.210815,SIT
7897323749000,1.05002,-4.04873528572984,-0.927868841125019,9.05723833806025,-0.20250183,-0.25870144,-0.116980694,76.35,3.052378,-21.17045,SIT
7897328751000,1.055022,-4.08414805207267,-0.957060450013187,9.05053863975705,-0.19822577,-0.24312437,-0.09682214,76.351616,3.0483992,-21.133738,SIT
7897333807000,1.060078,-4.11994312337001,-0.986567202220019,9.04376661364329,-0.1966986,-0.21868975,-0.07513642,76.34756,3.0415967,-21.10466,SIT
7897338817000,1.065088,-4.15541252748388,-1.01580549900725,9.03705620010889,-0.19425514,-0.19486602,-0.0693332,76.3424,3.0330007,-21.080847,SIT
7897344109000,1.07038,-4.19287841302691,-1.04668954423639,9.02996807467495,-0.18142697,-0.16493362,-0.074830994,76.33465,3.0202227,-21.066578,CSO
7897348735000,1.075006,-4.22562920413085,-1.07368682186867,9.0237719922378,-0.15485434,-0.12858713,-0.05681047,76.31855,3.000209,-21.06183,CSO
7897353746000,1.080017,-4.26110568796609,-1.10293095464328,9.01706023929951,-0.13041973,-0.09315695,-0.043676864,76.306175,2.978627,-21.065342,CSO
7897358738000,1.085009,-4.29644765709512,-1.13206420365762,9.01037393503529,-0.09987647,-0.06414085,-0.03481932,76.29023,2.9473088,-21.0774,CSO
7897363715000,1.089986,-4.33168343040344,-1.16110991286122,9.00370772182956,-0.07941248,-0.010995574,-0.027794369,76.271965,2.9115803,-21.106108,CSO
7897368776000,1.095047,-4.36751390030769,-1.19064584500497,8.99692899869631,-0.06811147,0.036651913,-0.018020526,76.25068,2.8697395,-21.140898,CSO
7897373784000,1.100055,-4.4029691449788,-1.21987246981743,8.99022126396971,-0.05222898,0.08246681,-0.016187929,76.23068,2.8222563,-21.189056,CSO
7897378735000,1.105006,-4.43802084553124,-1.24876644334908,8.98358987526536,-0.054061573,0.09315695,-0.01160644,76.20726,2.7762356,-21.239304,CSO
7897383844000,1.110115,-4.47419114206173,-1.2785825028872,8.97674686074495,-0.058643065,0.07849618,-0.00580322,76.18342,2.7275434,-21.2934,CSO
7897388826000,1.115097,-4.45207497801958,-1.27405566080105,8.97091909538505,-0.05131268,0.03848451,-0.011911872,76.16184,2.678059,-21.341103,CSO
7897393745000,1.120016,-4.37549984904495,-1.23753521268755,8.9659711625512,-0.06566802,-0.018936822,-0.021991149,76.13947,2.6364586,-21.377756,CSO
7897398738000,1.125009,-4.29777274618455,-1.20046536161401,8.96094879446025,-0.06841691,-0.07666359,-0.029932396,76.2254,2.71429,-21.498434,CSO
7897403749000,1.13002,-4.21976543346004,-1.16326187198262,8.95590832049596,-0.07788532,-0.12980886,-0.043676864,76.31467,2.7985833,-21.598906,CSO
7897408737000,1.135008,-4.142116166673,-1.12622914273071,8.95089098181427,-0.07696902,-0.17592919,-0.04886922,76.40207,2.879827,-21.680916,CSO
7897414166000,1.140437,-4.05760175821534,-1.08592226881158,8.94543004923551,-0.07544186,-0.21410827,-0.063224554,76.49466,2.9647324,-21.74646,CSO
7897418781000,1.145052,-3.98575906250119,-1.0516588274528,8.94078790448491,-0.08277224,-0.23609942,-0.06566802,76.583496,3.0498517,-21.801014,CSO
7897423741000,1.150012,-3.90854567772498,-1.01483398040198,8.93579873049511,-0.09132435,-0.24770586,-0.06780604,76.67483,3.135151,-21.845411,CSO
7897428740000,1.155011,-3.83072517157655,-0.97771958314249,8.93077032711304,-0.08582657,-0.23823744,-0.061086524,76.76282,3.2166698,-21.888012,CSO
7897433761000,1.160032,-3.75256218670531,-0.940441849867858,8.92571979433021,-0.065973446,-0.20861048,-0.054061573,76.850174,3.2954767,-21.931604,CSO
7897438847000,1.165118,-3.67338733288036,-0.902681532912117,8.92060387922696,-0.04184427,-0.18875736,-0.04917465,76.934845,3.3699,-21.973738,CSO
7897443738000,1.170009,-3.59724808591656,-0.866368966999705,8.91568411108499,-0.016187929,-0.17623462,-0.03726278,77.01436,3.4360342,-22.020817,CSO
7897448737000,1.175008,-3.51942757976813,-0.829254569740218,8.91065570770293,0.01985312,-0.16890424,-0.051923547,77.09963,3.4944572,-22.069868,CSO
7897453745000,1.180016,-3.44146696868764,-0.792073353201808,8.90561825138419,0.07269296,-0.15790866,-0.06291912,77.17925,3.5392568,-22.121962,CSO
7897458737000,1.185008,-3.36375543304191,-0.755010926492595,8.90059688917509,0.13408493,-0.14569137,-0.06688975,77.26009,3.5726225,-22.174507,CSO
7897463722000,1.189993,-3.28615286789889,-0.718000470333655,8.89558256813896,0.15363261,-0.14752395,-0.089186326,77.348465,3.6061919,-22.223734,CSO
7897468753000,1.195024,-3.20783421088093,-0.680648493415776,8.89052197653761,0.19792034,-0.15515977,-0.10415252,77.43434,3.6169193,-22.272943,CSO
7897473738000,1.200009,-3.13023164573791,-0.643638037256836,8.88550765550148,0.21471913,-0.16157386,-0.122783914,77.5265,3.6330237,-22.319666,CSO
7897478747000,1.205018,-3.05225546744274,-0.606449396354102,8.88046919330089,0.22388211,-0.16615535,-0.13255776,77.618546,3.640776,-22.362978,CSO
7897483822000,1.210093,-2.97325185297919,-0.568770747405933,8.87536434289801,0.21838433,-0.19761491,-0.14385876,77.71411,3.650901,-22.394892,CSO
7897488745000,1.215016,-2.89661445514587,-0.532220601835128,8.87041238653676,0.20463985,-0.23365596,-0.14813483,77.80832,3.6618404,-22.42277,CSO
7897493737000,1.220008,-2.81890291950014,-0.495158175125915,8.86539102432766,0.18325958,-0.269697,-0.14385876,77.90061,3.6771648,-22.440619,CSO
7897498729000,1.225,-2.74119138385441,-0.458095748416701,8.86036966211857,0.17989981,-0.32925636,-0.14966199,77.99406,3.6933594,-22.44058,CSO
7897503744000,1.230015,-2.66312180227122,-0.420862561328018,8.85532516462686,0.19394971,-0.36071593,-0.1600467,78.085464,3.7108412,-22.438059,CSO
7897508744000,1.235015,-2.58528572890811,-0.383740739704207,8.85029575536294,0.2003638,-0.3662137,-0.17837265,78.178444,3.7328115,-22.426058,CSO
7897513719000,1.23999,-2.50783883591181,-0.346804527188514,8.84529149314534,0.22968534,-0.35735616,-0.19150625,78.27066,3.7456641,-22.409767,CSO
7897518773000,1.245044,-2.42916213295638,-0.309281789891166,8.84020776626137,0.24312437,-0.33658674,-0.20158553,78.36562,3.7628205,-22.395758,CSO
7897523736000,1.250007,-2.35190204653616,-0.27243466974737,8.83521557462601,0.24556783,-0.32620203,-0.20280726,78.45972,3.7758982,-22.381876,CSO
7897528751000,1.255022,-2.27383246495296,-0.235201482658687,8.8301710771343,0.23609942,-0.30665436,-0.20799962,78.55666,3.7905316,-22.376703,CSO
7897533798000,1.260069,-2.19526473250024,-0.197730715911612,8.8250943914233,0.20219639,-0.2947425,-0.19730948,78.64703,3.809798,-22.372936,CSO
7897538745000,1.265016,-2.11825372151478,-0.161002385597013,8.82011829389758,0.18051068,-0.24098633,-0.1863139,78.73823,3.8292434,-22.386742,CSO
7897543738000,1.270009,-2.04052661865438,-0.123932534523475,8.81509592580663,0.1554652,-0.1563815,-0.17592919,78.82543,3.8575935,-22.412973,CSO
7897548731000,1.275002,-1.96279951579398,-0.0868626834499367,8.81007355771568,0.13805555,-0.06291912,-0.16676621,78.90937,3.888649,-22.456764,CSO
7897553751000,1.280022,-1.88465209813741,-0.04959237453963,8.80502403081471,0.12889257,-0.014966198,-0.1685988,78.99296,3.9242215,-22.510363,CSO
7897558741000,1.285012,-1.80697169692103,-0.0125447965590661,8.80000468036932,0.115453534,0.06383542,-0.16493362,79.073616,3.9639304,-22.597569,CSO
7897563718000,1.289989,-1.72949366949539,0.0244062646852758,8.79499840638801,0.10415252,0.100792766,-0.1704314,79.156654,4.006682,-22.683683,CSO
7897568771000,1.295042,-1.65083253375463,0.0619215776182998,8.7899156853859,0.090713486,0.09437868,-0.18173242,79.24012,4.0537643,-22.77659,CSO
7897573740000,1.300011,-1.57347904404637,0.0988132439480436,8.78491745845941,0.06688975,0.05222898,-0.20066923,79.32663,4.107954,-22.866028,CSO
7897578770000,1.305041,-1.49517595424309,0.136157796501598,8.77985787273991,0.032070424,-0.0125227375,-0.21655174,79.41389,4.169302,-22.943674,CSO
7897583772000,1.310043,-1.41730874645063,0.173294466854059,8.77482645171229,-0.004276057,-0.08124508,-0.24495697,79.508606,4.2404046,-23.004648,CSO
7897588737000,1.315008,-1.27012682741484,0.256432560068513,8.90678336437325,-0.053450707,-0.12950343,-0.27458394,79.60624,4.3252025,-23.050535,CSO
7897593734000,1.320005,-1.05308553430956,0.385733780583808,9.17462169641995,-0.129198,-0.15760323,-0.30115658,79.70914,4.4282875,-23.080662,CSO
7897599446000,1.325717,-0.856258217223404,0.529471089359574,9.48191719510638,-0.21227567,-0.13683382,-0.3371976,79.71361,4.391532,-22.923073,CSO
7897603755000,1.330026,-0.746507001654255,0.634832268224468,9.71458990138298,-0.2657264,-0.04795292,-0.36010507,79.72321,4.3685613,-22.778683,CSO
7897608735000,1.335006,-0.697214137363495,0.758686476389431,9.93271203295632,-0.31245756,0.076052725,-0.35705075,79.719086,4.3320155,-22.6042,CSO
7897613720000,1.339991,-0.711178747737909,0.884368042667707,10.1095969032761,-0.364992,0.18692477,-0.34574974,79.72176,4.3129187,-22.453001,CSO
7897618752000,1.345023,-0.820921178989339,0.877650456409804,10.2757913340888,-0.40775254,0.26542094,-0.31429017,79.70562,4.271911,-22.296377,CSO
7897623742000,1.350013,-1.0255045608411,0.737250123336691,10.428226137245,-0.45540005,0.29077184,-0.27550024,79.686,4.244562,-22.158058,CSO
7897628759000,1.35503,-1.22817159554629,0.596675803376147,10.5608297904921,-0.46181414,0.29138273,-0.22082779,79.6416,4.1843395,-22.019495,CSO
7897633757000,1.360028,-1.40781455531276,0.460945530055046,10.5408694708924,-0.4718934,0.26053402,-0.1685988,79.587326,4.1346693,-21.881662,CSO
7897638677000,1.364948,-1.58465396348624,0.327333496293578,10.5212206568807,-0.49541172,0.21074851,-0.09621128,79.54707,4.1140127,-21.752024,CSO
7897643735000,1.370006,-1.88324465744681,0.175960687513787,10.4825859309226,-0.5439755,0.16615535,-0.020463986,79.4907,4.0975375,-21.61873,CSO
7897648727000,1.374998,-2.22534535531915,0.0208750808365614,10.4369725489934,-0.59895337,0.124005646,0.055283304,79.412834,4.082096,-21.47624,CSO
7897653747000,1.380018,-2.61889106432599,-0.114759696389544,10.3522877478216,-0.6780604,0.099265605,0.12217305,79.35913,4.1130357,-21.340567,CSO
7897658738000,1.385009,-3.04027641053819,-0.237255450714813,10.2444913572527,-0.7122689,0.07727446,0.15424347,79.293945,4.1421456,-21.198322,CSO
7897663714000,1.389985,-3.31657226954691,-0.333139637154233,10.124299548833,-0.79412484,0.08246681,0.21105394,79.26277,4.2277904,-21.084658,CSO
7897669613000,1.395884,-3.55961101555149,-0.43138934769611,9.9743396794508,-0.85062987,0.13988814,0.26419923,79.22507,4.311465,-20.985086,CSO
7897673735000,1.400006,-3.61784992446787,-0.480854523149199,9.90527722471113,-0.91690874,0.16615535,0.2782491,79.24705,4.4418187,-20.903502,CSO
7897678755000,1.405026,-3.59348567553213,-0.524710206850801,9.85167577528887,-0.9294315,0.20708331,0.30268374,79.25163,4.5637307,-20.847977,CSO
7897683751000,1.410022,-3.46318452554905,-0.566493867850868,9.7716873142648,-0.9602802,0.21410827,0.31703907,79.26705,4.7331557,-20.807062,CSO
7897688833000,1.415104,-3.22905053535871,-0.607212810881615,9.66480002436729,-0.9984592,0.17287487,0.310625,79.281586,4.903764,-20.766382,CSO
7897693740000,1.420011,-3.01047860529248,-0.691850917465181,9.53399127855153,-1.0430524,0.087659165,0.3109304,79.29391,5.092068,-20.703611,CSO
7897698730000,1.425001,-2.79305749442897,-0.807217201615599,9.38312740854225,-1.0827587,-0.008552114,0.29077184,79.3134,5.287728,-20.628162,CSO
7897703742000,1.430013,-2.59393286989158,-0.929429485904921,9.23445361801501,-1.1093313,-0.073303826,0.2648101,79.333824,5.5022917,-20.505405,CSO
7897708736000,1.435007,-2.41941979947873,-1.0590678322352,9.08985722122602,-1.1618657,-0.13194689,0.21594086,79.36517,5.73389,-20.361532,CSO
7897713714000,1.439985,-2.31311329258525,-1.18664389194295,8.96937105355625,-1.1902709,-0.15149458,0.18112154,79.41493,5.9932756,-20.185194,CSO
7897718768000,1.445039,-2.26739566882025,-1.31465306662888,8.86879230036838,-1.235475,-0.1459968,0.14996742,79.47716,6.269993,-20.005512,CSO
7897723664000,1.449935,-2.27285593882003,-1.46178062072385,8.77502798661378,-1.2660183,-0.12095132,0.13072516,79.56303,6.5731897,-19.821177,CSO
7897728736000,1.455007,-2.35473506798215,-1.64962084569162,8.68351623173029,-1.284955,-0.083383106,0.108123146,79.65929,6.882417,-19.648243,CSO
7897733728000,1.459999,-2.4605015176298,-1.83349354230957,8.59210758159773,-1.2889256,-0.04062254,0.079107046,79.78137,7.22773,-19.467936,CSO
7897738716000,1.464987,-2.60529881196832,-2.01565801408038,8.49869000381344,-1.2873985,0.0015271631,0.05589417,79.908714,7.5712304,-19.304384,CSO
7897743668000,1.469939,-2.75826034879415,-2.19322884879415,8.39320834295481,-1.2873985,0.043066,0.034208454,80.07074,7.9507284,-19.170021,CSO
7897748732000,1.475003,-2.93323977188568,-2.36820827188568,8.2596710668439,-1.2757921,0.063224554,0.010995574,80.23915,8.321631,-19.045593,CSO
7897753682000,1.479953,-3.0954217200174,-2.54315310456215,8.14242178358786,-1.244027,0.0729984,0.0030543262,80.43524,8.719732,-18.952988,CSO
7897758737000,1.485008,-3.23111798171274,-2.73499939356273,8.06755491764933,-1.2284501,0.08032878,-0.032375857,80.644806,9.116137,-18.866438,CSO
7897763735000,1.490006,-3.35442740316857,-2.91730497004647,7.9880274678496,-1.1957687,0.09040806,-0.056505036,80.86958,9.534989,-18.808008,CSO
7897768770000,1.495041,-3.42572737449303,-3.0649979311259,7.88107764381073,-1.1395692,0.0852157,-0.09987647,81.1072,9.940383,-18.74672,CSO
7897773728000,1.499999,-3.47883088536495,-3.19442389202482,7.7805967463505,-1.0961977,0.087964594,-0.13225232,81.35478,10.376873,-18.719404,CSO
7897778752000,1.505023,-3.48774415753983,-3.28355675338088,7.6914640246017,-1.0668762,0.09682214,-0.16035213,81.6109,10.797643,-18.690645,CSO
7897783751000,1.510022,-3.48660661637535,-3.37217263382398,7.60061630861699,-1.0531317,0.09743301,-0.1872302,81.86822,11.242913,-18.675423,CSO
7897788757000,1.515028,-3.4130992400184,-3.4603814317234,7.49403057068384,-1.0534371,0.118202426,-0.22785273,82.136566,11.680065,-18.665466,CSO
7897793716000,1.519987,-3.34028200482981,-3.54776206072524,7.38844553784115,-1.0369438,0.15668693,-0.27000242,82.41093,12.130164,-18.666813,CSO
7897798721000,1.524992,-3.32942267551598,-3.66249103587218,7.37651312896805,-1.0235047,0.19456059,-0.2996294,82.691795,12.575914,-18.671114,CSO
7897803748000,1.530019,-3.37986025973808,-3.80371608209534,7.45721320052383,-1.0091494,0.22632557,-0.3390302,82.986916,13.014152,-18.679903,CSO
7897808832000,1.535103,-3.5068899341285,-3.95467403291571,7.53369777999399,-0.95539325,0.25411993,-0.35705075,83.306076,13.460592,-18.687008,CSO
7897813717000,1.539988,-3.67569589032775,-4.10472363575223,7.60403355427483,-0.9126327,0.28680122,-0.3830125,83.63813,13.903197,-18.6995,CSO
7897818744000,1.545015,-3.88167799331272,-4.23211942746502,7.69419449031891,-0.8359691,0.3200934,-0.39553526,83.96627,14.343034,-18.722307,CSO
7897823734000,1.550005,-4.10716777935242,-4.34097661034819,7.7952760905467,-0.77671516,0.36285394,-0.38515055,84.29479,14.768855,-18.754715,CSO
7897828753000,1.555024,-4.3302796635591,-4.44642608683149,7.90705941591553,-0.7449502,0.3735441,-0.37323865,84.6218,15.204422,-18.805025,CSO
7897833754000,1.560025,-4.53173792294618,-4.52865387771483,8.07562647308782,-0.6939429,0.38637227,-0.35918877,84.94496,15.61028,-18.865828,CSO
7897838696000,1.564967,-4.7308194502189,-4.60991157468452,8.24220483672418,-0.6227771,0.3622431,-0.3203988,85.24423,16.011923,-18.952526,CSO
7897843737000,1.570008,-4.85298898536419,-4.69030508747447,8.40758237503647,-0.54183745,0.33322698,-0.269697,85.532684,16.38702,-19.040165,CSO
7897848737000,1.575008,-4.95543452654867,-4.76946778318584,8.57056423830594,-0.4596761,0.3005457,-0.23854288,85.80926,16.73367,-19.118711,CSO
7897853743000,1.580014,-4.98710724727433,-4.80273906939397,8.631052741823,-0.42088616,0.21624629,-0.23335053,86.06243,17.067919,-19.194576,CSO
7897858712000,1.584983,-4.99645541950693,-4.82143551147235,8.65909725852077,-0.31856623,0.11636983,-0.204029,86.291084,17.350855,-19.259443,CSO
7897863756000,1.590027,-5.01208804679583,-4.80559374895678,8.49644994295827,-0.25228736,-0.014049901,-0.17195857,86.505005,17.63004,-19.296547,CSO
7897868776000,1.595047,-5.02999994545455,-4.77648691363636,8.26135617954546,-0.18112154,-0.13103059,-0.13713925,86.6971,17.87097,-19.311821,CSO
7897873766000,1.600037,-5.04780480089419,-4.74755402354694,8.02766735894188,-0.12705997,-0.22357668,-0.10354166,86.85646,18.09529,-19.302773,CSO
7897878783000,1.605054,-5.065705995231,-4.71846458274963,7.79271408980999,-0.08093964,-0.2706133,-0.09040806,87.00106,18.295761,-19.27623,CSO
7897883751000,1.610022,-5.08670324853627,-4.68022053403691,7.58887295373356,-0.04184427,-0.27947086,-0.07971791,87.12329,18.477299,-19.239502,CSO
7897888706000,1.614977,-5.1118692667798,-4.62988833988121,7.42277712821383,-0.013744468,-0.28619036,-0.064751714,87.233086,18.64308,-19.193766,CSO
7897893723000,1.619994,-5.10265980333483,-4.59016384497535,7.32447935476468,0.019547688,-0.3042109,-0.058948494,87.34053,18.813412,-19.174065,CSO
7897898748000,1.625019,-5.06383319822501,-4.55996532928731,7.28565265956073,0.07819075,-0.31764993,-0.03634648,87.436325,18.962734,-19.157803,CSO
7897903707000,1.629978,-5.0243794229314,-4.51336471867044,7.25140715279349,0.13805555,-0.34055737,-0.02107485,87.52741,19.09994,-19.147415,CSO
7897908735000,1.635006,-4.98181214913366,-4.42823008217822,7.22586685074258,0.19394971,-0.3747658,-0.005497787,87.607475,19.217606,-19.133532,CSO
7897913777000,1.640048,-4.93864498670558,-4.34580215596628,7.19555456549935,0.24007004,-0.42821655,0.0036651916,87.669525,19.31945,-19.105648,CSO
7897918828000,1.645099,-4.88766890748217,-4.31051095490434,7.08968092136835,0.3005457,-0.48930305,0.0106901415,87.72186,19.399313,-19.069117,CSO
7897924461000,1.650732,-4.83081912441634,-4.27115333550584,6.97160801750973,0.37232238,-0.56138515,0.008552114,87.75755,19.447292,-19.013594,CSO
7897928748000,1.655019,-4.81174012080131,-4.28864825518832,6.90542801457533,0.43768495,-0.6310238,0.0018325958,87.78537,19.479588,-18.944519,CSO
7897933766000,1.660037,-4.80250556405649,-4.33482079784781,6.84078640663912,0.49357912,-0.68875057,0.006414085,87.80337,19.493656,-18.862562,CSO
7897938737000,1.665008,-4.80038284373315,-4.42231638324179,6.79229169316888,0.54367006,-0.7501425,0.012217305,87.81037,19.495352,-18.76038,CSO
7897943736000,1.670007,-4.80516402053331,-4.55140955474883,6.75882305616698,0.61391956,-0.82711154,0.017715093,87.80789,19.476181,-18.641943,CSO
7897948736000,1.675007,-4.79841397630422,-4.66630768834321,6.71692857743168,0.68875057,-0.8567385,0.015271631,87.81124,19.45587,-18.523813,CSO
7897953748000,1.680019,-4.78006936671126,-4.76720375943054,6.66648068555322,0.7296785,-0.9098838,0.013133603,87.80195,19.4255,-18.38294,CSO
7897958735000,1.685006,-4.75631346725673,-4.8267107,6.63772240271667,0.8228355,-0.947452,0.018325957,87.80301,19.386986,-18.242163,CSO
7897963724000,1.689995,-4.72453583955797,-4.8267107,6.64016679831168,0.9056077,-0.9718866,0.019547688,87.80109,19.341099,-18.094051,CSO
7897968782000,1.695053,-4.69231871370101,-4.8267107,6.64264500094137,0.9978484,-0.98899084,0.005497787,87.81118,19.292088,-17.937437,CSO
7897973741000,1.700012,-4.66073217215799,-4.8267107,6.64507469782564,1.0772609,-0.9923506,0.00580322,87.81528,19.223385,-17.783758,CSO
7897978771000,1.705042,-4.66808907525375,-4.71468845053649,6.66964195340744,1.1633929,-0.9941832,-0.0036651916,87.82544,19.131187,-17.624897,CSO
7897983766000,1.710037,-4.71433012479459,-4.49273242670855,6.71588276152731,1.2437216,-0.9987647,-0.013133603,87.834595,19.020493,-17.468683,CSO
7897988738000,1.715009,-4.74628875238943,-4.29010082222639,6.82861058503561,1.3154984,-1.0009027,-0.034513887,87.84896,18.893475,-17.305365,CSO
7897994573000,1.720844,-4.76199737940405,-4.08065297233883,7.064239443497,1.3897184,-0.9993755,-0.0711658,87.87001,18.748426,-17.143763,CSO
7897998714000,1.724985,-4.76627943152197,-3.94236382741693,7.2814536988746,1.4602734,-1.0054842,-0.101098195,87.873985,18.54248,-16.985855,CSO
7898003723000,1.729994,-4.75599637864952,-3.79840173144695,7.65678322282958,1.5372424,-1.0338894,-0.13775012,87.88855,18.32209,-16.822245,CSO
7898008693000,1.734964,-4.73895496449584,-3.69351832899167,8.07639301147086,1.5968018,-1.0622946,-0.15821409,87.88817,18.04189,-16.652094,CSO
7898013706000,1.739977,-4.7123082493802,-3.64022489876041,8.56491658566143,1.6471981,-1.0647382,-0.18448131,87.90044,17.751902,-16.481634,CSO
7898018678000,1.744949,-4.68820198766163,-3.56984504510107,9.05304653938263,1.6600263,-1.0445796,-0.19975294,87.89215,17.417112,-16.29731,CSO
7898023742000,1.750013,-4.67053770246767,-3.44619597097979,9.56089099212348,1.6355917,-0.98899084,-0.21166481,87.894424,17.087032,-16.124664,CSO
7898028771000,1.755042,-4.65578755166567,-3.32068767400758,10.0721622587273,1.5763378,-0.91415983,-0.21563543,87.88554,16.728893,-15.937886,CSO
7898033749000,1.76002,-4.67480757310991,-3.16377347769799,10.6617784549172,1.4828753,-0.83658,-0.21838433,87.88541,16.395082,-15.771065,CSO
7898038791000,1.765062,-4.70252615186588,-2.99930009683652,11.2434298564122,1.3713925,-0.74372846,-0.2275473,87.87189,16.036083,-15.600305,CSO
7898043763000,1.770034,-4.83331423983709,-2.76929348372798,11.6267744470544,1.2434162,-0.691194,-0.2666427,87.8711,15.717882,-15.441765,CSO
7898048700000,1.774971,-4.96318165542716,-2.54090598394582,12.0074205138284,1.1252137,-0.6035349,-0.28680122,87.84954,15.375784,-15.299154,CSO
7898053715000,1.779986,-5.09510085518091,-2.30891017446486,12.3940804337943,1.0824533,-0.55771995,-0.32742378,87.84585,15.061046,-15.159116,CSO
7898058626000,1.784897,-5.22428434271642,-2.08172544458231,12.7727218828377,1.0528263,-0.5326745,-0.36651915,87.85257,14.783841,-15.039591,CSO
7898063790000,1.790061,-5.39049074032918,-2.06833999852369,12.5251479083292,1.106277,-0.4972443,-0.43035457,87.85493,14.4426365,-14.936854,CSO
7898068631000,1.794902,-5.55235045660848,-2.10071206733167,12.1644313566085,1.2278391,-0.42424592,-0.4999932,87.874855,14.102975,-14.850866,CSO
7898073654000,1.799925,-5.69514253689311,-2.25232127213302,11.2751679972447,1.3762794,-0.3203988,-0.5861252,87.90033,13.696134,-14.787609,CSO
7898078611000,1.804882,-5.83045549672209,-2.42822784674584,10.2828740888361,1.5274686,-0.24373524,-0.6747007,87.949425,13.272031,-14.733815,CSO
7898083682000,1.809953,-5.68276563372434,-2.60319634010264,9.33847349256389,1.6603317,-0.23518312,-0.75991637,88.0584,12.842127,-14.71152,CSO
7898088625000,1.814896,-5.42495411906158,-2.77176532375367,8.44604921784667,1.7886134,-0.32436943,-0.8561276,88.1934,12.390606,-14.677313,CSO
7898093653000,1.819924,-4.94725947477975,-2.85077580942008,8.29463188072418,1.9110919,-0.44806966,-0.9584476,88.40347,11.985717,-14.6886215,CSO
7898098695000,1.824966,-4.41432969114145,-2.90687370964275,8.33203074121406,2.0097466,-0.5852089,-1.0607675,88.63337,11.5680685,-14.666968,CSO
7898103747000,1.830018,-3.7864380492478,-2.85569335852966,8.87356008856089,2.0916026,-0.6630942,-1.1725558,88.9205,11.193868,-14.621694,CSO
7898108727000,1.834998,-3.13663945997729,-2.76995607837071,9.57299588191882,2.1456642,-0.63041294,-1.2629639,89.2274,10.813539,-14.568795,CSO
7898113714000,1.839985,-2.85907715371666,-2.67565980670493,9.74777461485215,2.1804836,-0.4709771,-1.3322971,89.54103,10.444693,-14.447279,CSO
7898118767000,1.845038,-2.79138352812214,-2.57528649894843,9.62405874313829,2.1972823,-0.22143865,-1.389413,89.87897,10.079195,-14.362239,CSO
7898123736000,1.850007,-2.72481522699822,-2.47658177576576,9.50239949782934,2.1844542,0.03573562,-1.4269812,90.10424,9.722875,-14.175331,CSO
7898128760000,1.855031,-2.65751010628045,-2.37678452696927,9.37939365189812,2.1755965,0.16340645,-1.4666874,90.34504,9.372558,-14.029082,CSO
7898133762000,1.860033,-2.47055087217209,-2.21393057133263,9.41133645026233,2.2516494,0.15393804,-1.493871,90.61523,9.002138,-13.914143,CSO
7898138747000,1.865018,-2.16497230758657,-1.98850379740818,9.59668717193074,2.3878722,-0.058948494,-1.520749,90.88452,8.628536,-13.781018,CSO
7898143737000,1.870008,-1.84339839794168,-1.74818883582047,9.70756114465409,2.5228734,-0.18142697,-1.5357152,91.13025,8.219143,-13.662066,CSO
7898148730000,1.875001,-1.51076639371069,-1.49757568259958,9.76679675681342,2.5674667,-0.3753767,-1.5274686,91.355865,7.805585,-13.470518,CSO
7898153737000,1.880008,-1.26853719053957,-1.2202373971332,9.75133640278489,2.6141977,-0.39645153,-1.4984524,91.572815,7.3099546,-13.253137,CSO
7898158740000,1.885011,-1.12136990144364,-0.916091673164738,9.65813062035425,2.6438248,-0.31978795,-1.4605788,91.77225,6.8145504,-13.022546,CSO
7898163689000,1.88996,-0.796782872690696,-0.636792131489243,9.41260704274937,2.6584857,-0.20677789,-1.4147639,91.95709,6.2565556,-12.765914,CSO
7898168831000,1.895102,-0.296867646090528,-0.366195806230791,9.0181787191953,2.7046058,-0.10323623,-1.3707817,92.12533,5.689603,-12.5430565,CSO
7898173667000,1.899938,0.137454349626709,-0.224861426708624,8.74013674245255,2.740036,-0.00061086525,-1.3118331,92.26826,5.069255,-12.3464775,CSO
7898178765000,1.905036,0.535947085662307,-0.263270362307012,8.60090454203953,2.7763824,0.057421334,-1.25319,92.39169,4.4447694,-12.178232,CSO
7898183721000,1.909992,0.770491382646887,-0.267561818007782,8.46689375515564,2.8038714,0.074830994,-1.212873,92.567406,3.7406373,-12.0008745,CSO
7898188735000,1.915006,0.728452180048638,-0.211509551128405,8.33376937256809,2.8255572,0.18203785,-1.1459832,92.71301,3.0345652,-11.874025,CSO
7898193669000,1.91994,0.687083726594358,-0.156351616389105,8.2027690327821,2.8429668,0.3210097,-1.0830641,92.90323,2.3130682,-11.735879,CSO
7898198728000,1.924999,0.644667227602626,-0.0997962876809338,8.06844987611868,2.864958,0.47158796,-1.0201449,93.06804,1.5914155,-11.637019,CSO
7898203714000,1.929985,0.540518200080953,-0.00383310997586985,7.97237197454659,2.8570168,0.61544675,-0.95172805,93.20656,0.88074887,-11.579864,CSO
7898208731000,1.935002,0.237584124956799,0.220562487631354,7.99107159531408,2.8487701,0.677755,-0.893085,93.32242,0.1725385,-11.544765,CSO
7898213727000,1.939998,-0.0640819382922083,0.444018817239822,8.00969294380011,2.83808,0.69058317,-0.8518516,93.42913,-0.55010664,-11.553869,CSO
7898218768000,1.945039,-0.425430621997467,0.697148896573186,8.13382089162294,2.83808,0.7244862,-0.79137594,93.50477,-1.2660626,-11.586905,CSO
7898223740000,1.950011,-0.808804377937398,0.959910712451601,8.30612403582414,2.840218,0.70646566,-0.7507534,93.566414,-1.9693035,-11.608412,CSO
7898228780000,1.955051,-1.22746273264043,1.24579877590641,8.49079269844339,2.8231137,0.6740898,-0.70554936,93.50236,-2.6813102,-11.658575,CSO
7898233738000,1.960009,-1.6727625090496,1.54878621606884,8.68360247800445,2.794403,0.6209445,-0.6637051,93.421326,-3.3812225,-11.696409,CSO
7898238734000,1.965005,-2.08457047334793,1.87027865849362,8.86231940297086,2.7763824,0.5900958,-0.61453044,93.24341,-4.0990796,-11.75812,CSO
7898243736000,1.970007,-2.44035494123976,2.21694045382784,9.01740521748238,2.7559185,0.52626044,-0.5934556,93.060585,-4.79761,-11.794077,CSO
7898248814000,1.975085,-2.80399084054351,2.56760206412147,9.1348787418858,2.7537806,0.45631635,-0.54092115,92.932594,-5.569501,-11.88658,CSO
7898253749000,1.98002,-3.16278135798218,2.90559320445594,9.16087803113654,2.7317894,0.36193767,-0.4841107,92.794464,-6.3169365,-11.950698,CSO
7898258732000,1.985003,-3.46494465084548,3.23448148816327,9.15906258250729,2.730873,0.25534168,-0.42577308,92.64722,-7.127963,-12.030587,CSO
7898263705000,1.989976,-3.70098918323615,3.54920743469388,9.12666413994169,2.7113254,0.122783914,-0.38087448,92.48851,-7.9138184,-12.072602,CSO
7898268817000,1.995088,-3.9508802750306,3.86042116758466,9.07564475397797,2.7061331,-0.0571159,-0.3481932,92.402054,-8.774442,-12.129627,CSO
7898273788000,2.000059,-4.20338212876377,4.14691372957976,9.00280773929009,2.6945267,-0.25686884,-0.3136793,92.307014,-9.612346,-12.140848,CSO
7898278775000,2.005046,-4.43130833776163,4.42112185194767,8.95091216366279,2.666427,-0.45998153,-0.2724459,92.23312,-10.501906,-12.135079,CSO
7898284397000,2.010668,-4.65564504119186,4.71328123026163,8.91960928168605,2.6554313,-0.68752885,-0.23854288,92.1648,-11.375393,-12.0669365,CSO
7898288706000,2.014977,-4.78898608209296,4.94588598016348,8.90466224655451,2.638327,-0.90010995,-0.20250183,92.10183,-12.280751,-11.979655,CSO
7898293737000,2.020008,-4.88973504898774,5.22981489556126,8.90008265459557,2.611449,-1.0824533,-0.18112154,92.05047,-13.16186,-11.8409395,CSO
7898298709000,2.02498,-4.94751620998346,5.47516674148098,8.87031348924783,2.5815165,-1.2272283,-0.1563815,92.02349,-14.07854,-11.687205,CSO
7898303751000,2.030022,-4.90053146190523,5.63491508119101,8.77634423839642,2.5555549,-1.3481796,-0.12461651,92.00655,-14.970265,-11.4948435,CSO
7898308673000,2.034944,-4.7829928188326,5.77696621585903,8.63181441629956,2.5219572,-1.4660766,-0.09560041,91.998405,-15.89009,-11.283,CSO
7898313715000,2.039986,-4.41074172662195,5.87365469323188,8.29823876551862,2.4972172,-1.5830573,-0.08857546,92.00528,-16.784754,-11.0464735,CSO
7898318855000,2.045126,-4.06267399966327,5.93757781662498,7.99401679983644,2.460565,-1.6927075,-0.07360926,92.0181,-17.689314,-10.778045,CSO
7898323740000,2.050011,-3.81962372445642,5.90157037540889,7.80497778045026,2.4376578,-1.7821994,-0.07391469,92.04999,-18.569878,-10.494691,CSO
7898328712000,2.054983,-3.59241396778941,5.86780687308237,7.61592256529861,2.4013114,-1.8429805,-0.07452556,92.07746,-19.462305,-10.159029,CSO
7898333742000,2.060013,-3.47424674380602,5.84962730746297,7.4432165020851,2.36863,-1.8985692,-0.07422013,92.119606,-20.330044,-9.813442,CSO
7898338931000,2.065202,-3.3524249340027,5.8306023705538,7.2730195092661,2.3341162,-1.9214766,-0.083383106,92.164764,-21.17705,-9.451075,CSO
7898343736000,2.070007,-3.24054315921657,5.80988353939667,7.20671929283206,2.3154848,-1.9333885,-0.0870483,92.21723,-22.001715,-9.090121,CSO
7898348686000,2.074957,-3.12528513940567,5.78853947816299,7.1384183414588,2.3011293,-1.9620992,-0.08979719,92.28864,-22.81796,-8.718609,CSO
7898353702000,2.079973,-3.03399762679261,5.78844353823192,7.01978653644714,2.2757785,-2.006387,-0.09682214,92.368095,-23.60861,-8.354824,CSO
7898358733000,2.085004,-2.9485080140382,5.79347222778416,6.88903766751905,2.2757785,-2.044566,-0.090713486,92.44983,-24.386402,-7.9977784,CSO
7898363726000,2.089997,-2.91119510319057,5.83110536953147,6.81012546292038,2.2653937,-2.0766363,-0.09407325,92.55189,-25.146317,-7.633535,CSO
7898368707000,2.094978,-2.87920173501006,5.87223973413816,6.73699787330651,2.254398,-2.1212296,-0.09987647,92.66,-25.890223,-7.270243,CSO
7898373725000,2.099996,-2.91091913252724,5.8939328896625,6.51631597528568,2.244319,-2.1471913,-0.11301007,92.76551,-26.626017,-6.910597,CSO
7898378664000,2.104935,-2.95700810950483,5.91069250174506,6.26492157529453,2.2434027,-2.1658227,-0.12492194,92.87704,-27.345951,-6.5563083,CSO
7898383754000,2.110025,-3.01227859931514,5.93258811680539,6.03533786555684,2.2660046,-2.1496348,-0.13805555,92.9869,-28.068504,-6.215053,CSO
7898388741000,2.115012,-3.07266370273944,5.95774853277842,5.83405453777263,2.3011293,-2.1453588,-0.16310102,93.10632,-28.778906,-5.883066,CSO
7898393732000,2.120003,-3.14230841359223,6.0067033,5.65859137864078,2.3173172,-2.1508565,-0.17256944,93.24634,-29.517447,-5.5621333,CSO
7898398714000,2.124985,-3.21659830194175,6.0678832,5.49690133980583,2.3356433,-2.147802,-0.18936823,93.39256,-30.251394,-5.2617865,CSO
7898403719000,2.12999,-3.30214152406015,6.14403061186896,5.37213614017186,2.352442,-2.1416936,-0.20280726,93.61798,-31.033978,-4.9612823,CSO
7898408736000,2.135007,-3.40019633714286,6.23692481265306,5.28956364897959,2.38268,-2.1355848,-0.22479841,93.84946,-31.810764,-4.6786423,CSO
7898413720000,2.139991,-3.49525474919141,6.3328487141037,5.24337172762913,2.4058928,-2.1230621,-0.25167647,94.1058,-32.615044,-4.415941,CSO
7898418753000,2.145024,-3.58973693037342,6.43205485142605,5.21975120699794,2.4153612,-2.0998492,-0.28008172,94.365616,-33.409462,-4.173909,CSO
7898423682000,2.149953,-3.6822874194725,6.57400875499559,5.21505078394941,2.4346035,-2.0583105,-0.3042109,94.64715,-34.23149,-3.95389,CSO
7898428827000,2.155098,-3.77891000492205,6.75759162699284,5.22471308285126,2.437047,-2.012801,-0.33536503,94.93309,-35.036625,-3.7583847,CSO
7898433775000,2.160046,-3.85224419514738,7.00369714902747,5.25744335182474,2.44285,-1.9642372,-0.3662137,95.23519,-35.86005,-3.5934465,CSO
7898438796000,2.165067,-3.91009674714257,7.31224429436535,5.31047480747945,2.4007003,-1.9440787,-0.4034765,95.5431,-36.655445,-3.4502356,CSO
7898443769000,2.17004,-3.95635139295034,7.65105810833496,5.4179520988705,2.3402247,-1.9019289,-0.4260785,95.8557,-37.46661,-3.3397877,CSO
7898448722000,2.174993,-3.99330086940604,8.01593428479065,5.57036878570594,2.2989914,-1.8686367,-0.49480084,96.18457,-38.25474,-3.2568698,CSO
7898453710000,2.179981,-4.0290326097561,8.39652348780488,5.75075563414634,2.1994202,-1.8390098,-0.56596667,96.521706,-39.042362,-3.191807,CSO
7898458743000,2.185014,-4.06346466787427,8.79495279957139,5.96226721517502,2.0845776,-1.8026633,-0.64843345,96.86783,-39.79658,-3.1595592,CSO
7898463734000,2.190005,-4.14975131091536,9.18146811894109,6.10413763530015,1.988061,-1.7373008,-0.75411314,97.22411,-40.55168,-3.1596756,CSO
7898468798000,2.195069,-4.28536931874534,9.56571847240865,6.18550853440529,1.9178114,-1.6148223,-0.86009824,97.57725,-41.263214,-3.2029994,CSO
7898473815000,2.200086,-4.47661205607358,9.99831665620044,6.22653132248652,1.8081611,-1.4639386,-0.9795224,97.93947,-41.95385,-3.2866735,CSO
7898478815000,2.205086,-4.75503699528491,10.5096064331325,6.20628214181203,1.7018706,-1.2819008,-1.0864239,98.28631,-42.60547,-3.42537,CSO
7898483742000,2.210013,-5.03259819770856,10.9517783123698,6.08974241900605,1.5650368,-1.1029172,-1.1960741,98.61955,-43.24046,-3.634773,CSO
7898488742000,2.215013,-5.31759388266045,11.3365223853784,5.87124574208908,1.4480561,-0.9502009,-1.3072516,98.937515,-43.828903,-3.8977723,CSO
7898493749000,2.22002,-5.48232100063498,11.5879302545198,5.64195045797689,1.3341297,-0.83108217,-1.416902,99.27652,-44.443134,-4.2272434,CSO
7898498729000,2.225,-5.51176330171973,11.6888759393245,5.40220511535409,1.2391402,-0.7883216,-1.5173893,99.61329,-45.004948,-4.589292,CSO
7898503716000,2.229987,-5.49447705178792,11.7504117583231,5.18153081905055,1.171945,-0.8216137,-1.6019942,99.96928,-45.6029,-5.0034757,CSO
7898508739000,2.23501,-5.28687520242499,11.6515538331278,5.03818667267776,1.0867293,-0.9483683,-1.6911805,100.34916,-46.141167,-5.423839,CSO
7898513728000,2.239999,-5.01459979011756,11.5155885233681,4.91578143864093,0.97494096,-1.1123856,-1.7767016,100.76303,-46.682503,-5.84328,CSO
7898518751000,2.245022,-4.54564851591322,11.2673199193348,4.85141560383255,0.86406887,-1.2794572,-1.8536706,101.21229,-47.17318,-6.250205,CSO
7898523751000,2.250022,-4.0751207382847,11.0049874298065,4.78782865553591,0.7461719,-1.4202617,-1.9459113,101.69677,-47.61416,-6.6204667,CSO
7898528824000,2.255095,-3.57874136878868,10.6613401471657,4.72578131533549,0.6600399,-1.5302174,-2.0335703,102.215996,-48.009624,-6.97752,CSO
7898533751000,2.260022,-3.09960111067914,10.3319871399768,4.64762016775998,0.602924,-1.5775595,-2.119397,102.77286,-48.361485,-7.260366,CSO
7898538717000,2.264988,-2.63622075711943,10.0291842599846,4.45033927850666,0.61208695,-1.6224581,-2.1502457,103.3495,-48.691196,-7.5291886,CSO
7898543828000,2.270099,-2.14380083843329,9.6929363362207,4.22348899523585,0.6218608,-1.6087136,-2.2033908,103.93282,-48.974567,-7.745185,CSO
7898548722000,2.274993,-1.477460275153,9.06189878777893,3.70718545016477,0.65576386,-1.5351044,-2.257147,104.50687,-49.253593,-7.9709797,CSO
7898554465000,2.280736,-0.731294651132058,8.34078480071637,3.14392247711377,0.6936375,-1.3753631,-2.3237314,105.01803,-49.520958,-8.147901,CSO
7898558774000,2.285045,-0.552365718931096,8.00626505544349,3.17504049188425,0.7333437,-1.3286319,-2.3499987,105.526985,-49.78779,-8.321086,CSO
7898563691000,2.289962,-0.348189910244132,7.62454456634933,3.210549259261,0.7461719,-1.2730432,-2.417194,105.952576,-50.08463,-8.386158,CSO
7898568813000,2.295084,-0.215828077846758,7.27085825451585,3.26689819317115,0.7440339,-1.2819008,-2.4669793,106.3682,-50.37951,-8.454519,CSO
7898573681000,2.299952,-0.108666167523226,6.94490758611244,3.32494432587875,0.75136423,-1.314582,-2.52043,106.77464,-50.66775,-8.547795,CSO
7898578842000,2.305113,0.0244343523213198,6.69410149489345,3.46774554626338,0.7669413,-1.3552046,-2.543643,107.15965,-50.927887,-8.569025,CSO
7898583756000,2.310027,0.158456979652755,6.4907567196995,3.63411839499165,0.782213,-1.3616186,-2.562885,107.538994,-51.17922,-8.606881,CSO
7898588718000,2.314989,0.264200075104518,6.47540980465273,3.91198993106878,0.7870999,-1.3720033,-2.5738807,107.981964,-51.399136,-8.642393,CSO
7898593789000,2.32006,0.358348062778152,6.54909078496291,4.24764794397336,0.7779369,-1.3946054,-2.5601363,108.413,-51.61289,-8.676734,CSO
7898598696000,2.324967,0.404411197181208,6.72182555771812,4.60657256040268,0.7467828,-1.4654657,-2.5170703,108.951775,-51.78621,-8.729084,CSO
7898603723000,2.329994,0.347996079277724,7.13211738757857,5.05276489257484,0.6924158,-1.5888605,-2.438574,109.48414,-51.948128,-8.757309,CSO
7898609448000,2.335719,0.299716895644063,7.75618984133847,5.31099023671898,0.6102544,-1.6960673,-2.3695462,110.07286,-52.055878,-8.768965,CSO
7898613744000,2.340015,0.275350908910275,8.34097360775837,5.31911222522949,0.539394,-1.7369953,-2.3167064,110.65016,-52.151405,-8.756623,CSO
7898618745000,2.345016,0.210953371719513,8.91275950885439,5.3132100287201,0.4822781,-1.7525724,-2.2638667,111.246155,-52.221146,-8.709304,CSO
7898623761000,2.350032,0.0940351545022241,9.3280207405791,5.28498840877885,0.42332962,-1.8090774,-2.2198844,111.84021,-52.26982,-8.63915,CSO
7898629003000,2.355274,-0.0349082770137831,9.7374104970983,5.2455995997461,0.3747658,-1.8710803,-2.179567,112.44376,-52.388935,-8.567923,CSO
7898633784000,2.360055,-0.230045696363257,9.82875109457744,5.09613265515053,0.30115658,-1.885741,-2.1368067,113.02866,-52.482704,-8.487751,CSO
7898638718000,2.364989,-0.431427839653428,9.92301474401523,4.94188251822633,0.18142697,-1.8848248,-2.1142046,113.61965,-52.614086,-8.414855,CSO
7898643894000,2.370165,-0.598842536033436,9.85163976156831,4.6901880582645,0.1001819,-1.8008307,-2.0613647,114.16972,-52.733994,-8.341565,CSO
7898648687000,2.374958,-0.745011569652702,9.75114892894815,4.43896002278834,-0.082161374,-1.6389514,-2.0289888,114.68932,-52.78704,-8.284832,CSO
7898653732000,2.380003,-0.805431276807836,9.64090644713339,4.26362410305387,-0.25289822,-1.4636332,-2.0024164,115.16929,-52.857067,-8.268655,CSO
7898658673000,2.384944,-0.841785041371363,9.53184524834342,4.11366463442812,-0.39187005,-1.3069462,-1.9575176,115.59688,-52.88389,-8.266913,CSO
7898663721000,2.389992,-0.746826463672391,9.37006439498018,4.03145600700132,-0.4633413,-1.1716396,-1.9031507,115.977806,-52.91103,-8.308752,CSO
7898668720000,2.394991,-0.600882586444467,9.19006636053247,3.97794334006707,-0.5363397,-1.058324,-1.8533652,116.31217,-52.899185,-8.363302,CSO
7898673742000,2.400013,-0.482583132368651,9.03169059958108,3.96162690738349,-0.5571091,-0.97249746,-1.8112154,116.64913,-52.89384,-8.454838,CSO
7898679390000,2.405661,-0.359844875863152,8.86174534561006,3.9569062086228,-0.5751296,-0.91415983,-1.7831156,116.952774,-52.870045,-8.550153,CSO
7898683743000,2.410014,-0.281898662626648,8.76207270715764,3.9235235465737,-0.57543504,-0.84696466,-1.7757853,117.28225,-52.835762,-8.664238,CSO
7898688770000,2.415041,-0.208470567754657,8.67815537890838,3.85534036139013,-0.58276546,-0.7828238,-1.7928895,117.59178,-52.794304,-8.78356,CSO
7898693732000,2.420003,-0.187811408705825,8.59811423475728,3.81609254976699,-0.5714644,-0.73273283,-1.8029687,117.928215,-52.73738,-8.915122,CSO
7898698728000,2.424999,-0.197101839342718,8.5191454215534,3.79286638829126,-0.55924714,-0.7067711,-1.8484782,118.25849,-52.675083,-9.061293,CSO
7898703742000,2.430013,-0.258484326502097,8.33119125695768,3.62897896587876,-0.5412266,-0.7089091,-1.8875736,118.58482,-52.618084,-9.204692,CSO
7898708736000,2.435007,-0.358768787192146,8.06224636484941,3.36003426416317,-0.52931476,-0.7275405,-1.9315559,118.911964,-52.559303,-9.356789,CSO
7898713699000,2.43997,-0.471783540143856,7.9022470011988,3.17559825928072,-0.5149594,-0.7840455,-1.997224,119.296974,-52.495808,-9.533009,CSO
7898718798000,2.445069,-0.603498615886114,7.86322054905095,3.08290990056943,-0.4868596,-0.84940815,-2.057394,119.689445,-52.43644,-9.708366,CSO
7898723730000,2.450001,-0.700294434915,7.85462418215,3.007799647,-0.45356745,-0.9126327,-2.1132884,120.112724,-52.3788,-9.923267,CSO
7898728767000,2.455038,-0.7646122489,7.878743269,2.94750172,-0.42058071,-0.9755518,-2.1655173,120.55473,-52.323925,-10.134709,CSO
7898733866000,2.460137,-0.828112425740813,7.90447124920417,2.89580134449794,-0.39095375,-1.0189233,-2.219579,121.01664,-52.27599,-10.37519,CSO
7898738756000,2.465027,-0.87412401545392,7.94128048638239,2.93261053363136,-0.3735441,-1.0280862,-2.2375994,121.48108,-52.231285,-10.609063,CSO
7898743932000,2.470203,-0.918691649075655,7.97952541096023,2.97562802348206,-0.36377025,-1.0436633,-2.2608123,121.96711,-52.191326,-10.867618,CSO
7898749177000,2.475448,-0.908947654938894,8.00875751037827,3.07306816834142,-0.37720928,-1.0528263,-2.2962425,122.45189,-52.145206,-11.127153,CSO
7898754075000,2.480346,-0.899657124518656,8.032314902654,3.16616122312212,-0.37507126,-1.0363328,-2.2977695,122.9405,-52.097088,-11.396873,CSO
7898758737000,2.485008,-0.886539760448536,7.97110057351875,3.30170708109882,-0.3594942,-1.0189233,-2.281887,123.42722,-52.045483,-11.663481,CSO
7898763692000,2.489963,-0.872597988898247,7.90603901177162,3.44577180144942,-0.34513888,-1.0002918,-2.2794437,123.92715,-51.9745,-11.936974,CSO
7898768750000,2.495021,-0.858120290392098,7.77608715059363,3.58200564940637,-0.3173445,-0.9896017,-2.2385156,124.40907,-51.914986,-12.1936,CSO
7898773681000,2.499952,-0.843985839389404,7.64416550950813,3.71392729049187,-0.28496864,-0.98746365,-2.2021692,124.882645,-51.858887,-12.446553,CSO
7898778740000,2.505011,-0.744193487808484,7.58128937607498,3.74680506872162,-0.2507602,-0.9944886,-2.1664336,125.366,-51.77805,-12.686927,CSO
7898783725000,2.509996,-0.638093492499758,7.52593270683158,3.76987026729153,-0.2049453,-0.98899084,-2.1099286,125.83013,-51.71404,-12.910914,CSO
7898788745000,2.515016,-0.550517928458203,7.47612366062004,3.75432115523159,-0.15027285,-0.981355,-2.064419,126.30902,-51.622707,-13.125105,CSO
7898793669000,2.51994,-0.467848825217752,7.42826272590884,3.73256614360583,-0.11148291,-0.9599747,-2.01219,126.76692,-51.54594,-13.322521,CSO
7898798723000,2.524994,-0.347468493442847,7.38356623242398,3.68365921030605,-0.06627888,-0.93279123,-1.9520199,127.23283,-51.47602,-13.500172,CSO
7898803747000,2.530018,-0.211035291416838,7.34122482305662,3.6224995386917,-0.026267206,-0.9193522,-1.8912388,127.68303,-51.42076,-13.662205,CSO
7898808738000,2.535009,-0.0416934346252185,7.31280015941871,3.56723705264423,0.022602014,-0.8906415,-1.8347337,128.12643,-51.380005,-13.810929,CSO
7898813704000,2.539975,0.145380782846372,7.29201425885053,3.51527192139423,0.092240654,-0.88178396,-1.7712038,128.55536,-51.36272,-13.939002,CSO
7898819027000,2.545298,0.354048118863547,7.25926860007865,3.43955365945733,0.17195857,-0.8793405,-1.7067575,128.98123,-51.371395,-14.043054,CSO
7898823749000,2.55002,0.54076761817735,7.22814875393236,3.36842252286669,0.2284636,-0.87109387,-1.645671,129.38954,-51.3986,-14.132663,CSO
7898828734000,2.555005,0.720055472194543,7.16996102016607,3.32131161209964,0.29871312,-0.8732319,-1.577254,129.79918,-51.466225,-14.181687,CSO
7898833745000,2.560016,0.895215166953189,7.10427595058856,3.28190057035313,0.36957347,-0.8765916,-1.5427402,130.19933,-51.551136,-14.223556,CSO
7898838738000,2.565009,1.03427844960066,7.02312776494997,3.28373516807124,0.40591997,-0.87017757,-1.4624114,130.58496,-51.670914,-14.212352,CSO
7898843739000,2.57001,1.14859351404572,6.93079648681722,3.31451241381621,0.47494772,-0.8555168,-1.3875804,130.96172,-51.82005,-14.194074,CSO
7898848720000,2.574991,1.25973897341393,6.84301630558468,3.33065819122713,0.54367006,-0.8347474,-1.3075571,131.33249,-51.990765,-14.131151,CSO
7898853753000,2.580024,1.36803058879854,6.76050849020006,3.32550139891944,0.61269784,-0.79779,-1.2156218,131.67868,-52.188236,-14.052726,CSO
7898858737000,2.585008,1.44201472828041,6.66622971281561,3.33054620194147,0.6945538,-0.754724,-1.1203269,132.01418,-52.40251,-13.938022,CSO
7898863720000,2.589991,1.48765469057001,6.5612574993114,3.34423825258225,0.75502944,-0.7067711,-1.0198395,132.32101,-52.638577,-13.807722,CSO
7898868734000,2.595005,1.51723778073122,6.46162794266385,3.34709637605796,0.82436264,-0.65240407,-0.9034697,132.61191,-52.899708,-13.649715,CSO
7898873738000,2.600009,1.52643505366088,6.36965532541023,3.3363661949621,0.89888823,-0.5946773,-0.78038037,132.8709,-53.187817,-13.475554,CSO
7898878732000,2.605003,1.53561394674855,6.27786650635256,3.32565745707386,0.9639453,-0.5177083,-0.64660084,133.10124,-53.485744,-13.28053,CSO
7898883755000,2.610026,1.54484614137799,6.18554467252663,3.3148865338835,1.0503827,-0.46670106,-0.50793445,133.30157,-53.82005,-13.061504,CSO
7898888690000,2.614961,1.55391659339795,6.09484026282506,3.30430431092026,1.1505647,-0.4092797,-0.38453966,133.46713,-54.182213,-12.832225,CSO
7898893735000,2.620006,1.56318922367975,6.00211407296805,3.29348621267313,1.2400564,-0.37110063,-0.24801129,133.59973,-54.57665,-12.573624,CSO
7898898679000,2.62495,1.56236014232096,5.91431648646106,3.28301434486147,1.3362677,-0.34972036,-0.1133155,133.7027,-55.00747,-12.294489,CSO
7898903750000,2.630021,1.51666478609514,5.83815764777836,3.27285983303711,1.4404203,-0.33261612,0.019547688,133.77608,-55.472725,-11.990817,CSO
7898908671000,2.634942,1.46357470617308,5.76356105499475,3.24486071896766,1.5393804,-0.3323107,0.160963,133.84747,-55.93823,-11.663538,CSO
7898913748000,2.640019,1.38471161761282,5.68469777267436,3.16599767884744,1.6627752,-0.34422258,0.29138273,133.8994,-56.444202,-11.310119,CSO
7898918747000,2.645018,1.31403493037975,5.61023873012658,3.08019209113924,1.7669277,-0.34513888,0.42455134,133.93211,-56.967907,-10.93887,CSO
7898923740000,2.650011,1.27368301070675,5.54971103495781,2.95913633212025,1.8726074,-0.32742378,0.53878313,133.94757,-57.528255,-10.544613,CSO
7898928693000,2.654964,1.23584211399713,5.51174331966407,2.84967711893773,1.994475,-0.3115413,0.59406644,133.9495,-58.12094,-10.156336,CSO
7898933759000,2.66003,1.2028054849739,5.53009698116063,2.76525023772414,2.0442605,-0.2950479,0.7153232,133.92227,-58.730564,-9.729944,CSO
7898938754000,2.665025,1.17023186437164,5.54819341605508,2.68200659941742,2.1432207,-0.2666427,0.80909103,133.88643,-59.39192,-9.318924,CSO
7898943736000,2.670007,1.12722829651908,5.56315659927597,2.60112315524923,2.2565362,-0.1957823,0.89736104,133.82207,-60.07094,-8.890826,CSO
7898948728000,2.674999,1.07841355210248,5.57646952603732,2.52124443622946,2.3478606,-0.12186762,0.9795224,133.74065,-60.767483,-8.448666,CSO
7898953745000,2.680016,1.00129741797516,5.56341093033046,2.36864004592717,2.435825,-0.006414085,1.0549643,133.61667,-61.51307,-8.016462,CSO
7898958739000,2.68501,0.895597741906967,5.52314463733951,2.14214075508314,2.5271494,0.15393804,1.1151345,133.4573,-62.2777,-7.586057,CSO
7898963711000,2.689982,0.764208866352387,5.47086239905716,1.85665891467295,2.6306913,0.36560285,1.1746938,133.24173,-63.080887,-7.1730623,CSO
7898968938000,2.695209,0.606886638833235,5.40695018316637,1.51251650989,2.754086,0.63591075,1.2070698,132.9697,-63.903973,-6.7809486,CSO
7898973736000,2.700007,0.460926552118445,5.39965539054703,1.2191515106393,2.8780916,0.93309665,1.235475,132.61775,-64.78583,-6.4298077,CSO
7898978734000,2.705005,0.307701241215516,5.43120175386498,0.930727429215705,2.993545,1.2339478,1.2608259,132.19547,-65.68829,-6.10254,CSO
7898983730000,2.710001,0.172717201685053,5.50539769136842,0.703465822273684,3.1096096,1.502423,1.2831224,131.6849,-66.6764,-5.835739,CSO
7898988768000,2.715039,0.060985104292,5.637444732,0.5561826234,3.2082644,1.7290541,1.3292428,131.10571,-67.682465,-5.5796604,CSO
7898993754000,2.720025,0.0327861604190553,5.84519258215583,0.537414681873234,3.3011158,1.8212948,1.393689,130.46877,-68.77306,-5.3608556,CSO
7898998740000,2.725011,0.0761601619735567,6.11989461162697,0.62898203341744,3.3991597,1.8035797,1.4703526,129.8015,-69.88356,-5.130797,CSO
7899004409000,2.73068,0.164620268986466,6.51620813784461,0.762179420125313,3.4718525,1.7269161,1.5748106,129.11392,-71.04312,-4.895362,CSO
7899008726000,2.734997,0.251658327237293,6.86021569423559,0.878230139358396,3.5195,1.5949692,1.6759088,128.44862,-72.21333,-4.625516,CSO
7899013722000,2.739993,0.34822463887926,7.19811821772152,0.907720875455696,3.5417967,1.4425583,1.7751744,127.81112,-73.391464,-4.2965126,CSO
7899018724000,2.744995,0.441512245720545,7.48730979746835,0.851748305506329,3.542713,1.2550226,1.8732183,127.22264,-74.56578,-3.9219644,CSO
7899023719000,2.74999,0.586214643622577,7.74959480717084,0.613698535100934,3.5442402,1.1429288,1.9587394,126.66051,-75.736984,-3.4810634,CSO
7899028720000,2.754991,0.783426444270363,7.98528670864718,0.190414651504068,3.5873063,0.9447031,2.0173824,126.181816,-76.90079,-3.0010283,CSO
7899033712000,2.759983,0.907339769429025,8.50324707850912,0.0262279962640761,3.6435058,0.7635816,2.1612413,125.72288,-78.09172,-2.4412334,CSO
7899038784000,2.765055,0.960304612093577,9.31216471213323,0.117712705031721,3.7055085,0.6209445,2.309376,125.31959,-79.26644,-1.8579472,CSO
7899043717000,2.769988,0.979374192160366,10.1495158832234,0.119411462132682,3.6456437,0.48502702,2.4810293,124.94403,-80.51675,-1.1710663,CSO
7899048718000,2.774989,0.964909919202698,11.0511221512055,0.0302151269109579,3.535688,0.38056904,2.6624563,124.611145,-81.714516,-0.44215325,CSO
7899063640000,2.789911,0.854431540154357,13.6698587950371,-0.205508387792106,3.2064316,0.2144137,3.2113185,123.830574,-84.50759,2.0424764,CSO
7899068691000,2.794962,0.703208557659242,14.4354247917155,-0.233862696393122,3.0586023,0.19181168,3.3454034,123.62912,-84.93078,2.9301813,CSO
7899073760000,2.800031,0.492305464964286,15.0861163909774,-0.200176858669173,2.8863382,0.14996742,3.4174857,123.45693,-85.01924,3.8049457,CSO
7899078675000,2.804946,0.222659896843537,15.5874886251343,-0.0990597717787325,2.703995,0.07147124,3.4034357,123.320175,-84.76495,4.6705556,CSO
7899083723000,2.809994,-0.0760611122109933,16.0886268292577,0.00376357543691841,2.5185974,-0.07360926,3.2989779,123.236145,-84.31671,5.4597483,CSO
7899088659000,2.81493,-0.439212975806752,16.5336166825362,0.100945059165981,2.3200662,-0.22571471,3.0903673,123.19203,-83.744736,6.194623,CSO
7899093612000,2.819883,-0.730895004894834,16.8269602712029,0.21155674114762,2.1068742,-0.33383787,2.8258626,123.19456,-83.20783,6.78717,CSO
7899098657000,2.824928,-0.899484655471552,16.8550581388,0.347365080015508,1.8784106,-0.39187005,2.5127943,123.23405,-97.30016,7.29502,CSO
7899103700000,2.829971,-1.02277631618625,16.7475960608748,0.510773310058456,1.6939293,-0.44990227,2.162463,123.31541,-97.6648,7.6300745,CSO
7899108681000,2.834952,-1.04681488725055,16.3485558113284,0.731927852600282,1.5714508,-0.51893,1.7632625,123.416306,-97.9421,7.8613544,CSO
7899113673000,2.839944,-1.0895998115076,15.8594825868026,0.941596359567639,1.5415184,-0.54825157,1.3286319,123.51784,-98.08645,7.95161,CSO
7899118727000,2.844998,-1.17184479923534,15.1786768683093,1.12893219940527,1.5653422,-0.55924714,0.9117164,123.628654,-98.13899,7.939929,CSO
7899123706000,2.849977,-1.24489807378054,14.5481243694904,1.29959704012258,1.6258179,-0.55833083,0.6114761,123.72772,-98.11785,7.850048,CSO
7899128707000,2.854978,-1.28912860395433,14.0615889154563,1.4202257282428,1.6673567,-0.5006041,0.5140431,123.80867,-98.05819,7.710031,CSO
7899133671000,2.859942,-1.33303189365293,13.5786531038536,1.5399619425657,1.7647897,-0.36835176,0.39706242,123.84985,-97.93001,7.4877076,CSO
7899138684000,2.864955,-1.11648399002853,13.7338673192672,1.76345698250488,1.8466456,-0.17470746,0.3381139,123.85399,-97.815125,7.265248,CSO
7899143622000,2.869893,-0.848986315816189,14.0203027116684,2.00491502323172,1.9083431,0.070249505,0.30757064,123.80221,-97.707436,7.029799,CSO
7899148677000,2.874948,-0.57515060436552,14.3135248478751,2.25209412324673,1.926669,0.34880406,0.2855795,123.66406,-97.599655,6.7899985,CSO
7899153686000,2.879957,-0.303806770803424,14.6040786916454,2.49702391790059,1.8942931,0.63071835,0.24495697,123.45337,-97.50085,6.54804,CSO
7899158715000,2.884986,-0.0417860278351201,14.7326958377819,2.61209612056932,1.8069394,0.88056225,0.20158553,123.16701,-97.407234,6.309177,CSO
7899163722000,2.889993,0.217025661487616,14.828420792902,2.70073031222181,1.641395,1.0711522,0.16890424,122.81697,-97.30739,6.0733814,CSO
7899169010000,2.895281,0.458711181438698,14.8498884574692,2.76576121677606,1.4504995,1.2617421,0.15332718,122.36331,-97.22637,5.9301224,CSO
7899173890000,2.900161,0.550733004489367,14.5400816446574,2.70748073738514,1.2571607,1.4114041,0.1563815,121.87098,-97.123276,5.7909317,CSO
7899178748000,2.905019,0.642339975059071,14.2316715019034,2.64946299786033,1.0934488,1.4853189,0.14630222,121.3322,-97.03121,5.7082334,CSO
7899183737000,2.910008,0.706953604171557,13.8705244771616,2.55439970171166,0.95111716,1.4840971,0.12583824,120.77846,-96.91436,5.626519,CSO
7899188717000,2.914988,0.478380405873435,13.0681860293916,2.10658279736894,0.84116143,1.4544702,0.1142318,120.218414,-96.7811,5.546436,CSO
7899194027000,2.920298,0.240955421883828,12.2340748422493,1.59842046539133,0.7470882,1.387275,0.10262536,119.671875,-96.66442,5.492128,CSO
7899198888000,2.925159,0.0765738668114407,11.6505201170551,0.875141596038665,0.6658431,1.2638801,0.103847094,119.15687,-96.53642,5.435906,CSO
7899203704000,2.929975,-0.0862859499399718,11.0723675647952,0.158558375548552,0.58459806,1.0564915,0.11911872,118.712204,-96.41462,5.348362,CSO
7899208819000,2.93509,-0.0706379266807798,11.0208700697715,-0.211553926652906,0.5467244,0.78954333,0.14660765,118.32503,-96.29195,5.2614064,CSO
7899213708000,2.939979,-0.00455905740407515,11.1241182288965,-0.459349695281027,0.49480084,0.50640726,0.1572978,118.006226,-96.15609,5.170344,CSO
7899218736000,2.945007,0.086181661937855,11.210603926161,-0.641636476795857,0.4456262,0.25595254,0.16157386,117.78683,-96.07919,5.0614724,CSO
7899223729000,2.95,0.198015599947878,11.2777046412964,-0.753470404796525,0.39461896,0.13683382,0.19456059,117.61156,-96.00468,4.962078,CSO
7899228720000,2.954991,0.309804741667892,11.3447784785165,-0.865259536511193,0.36682457,-0.101098195,0.21594086,117.55091,-95.964745,4.869686,CSO
7899233699000,2.95997,0.412916536488758,11.3282489457869,-0.978686663663585,0.28588495,-0.35063666,0.26511553,117.52727,-95.923325,4.793261,CSO
7899238718000,2.964989,0.508866728489178,11.2322984057575,-1.09483688581635,0.18753563,-0.5708536,0.3115413,117.56178,-95.879555,4.719521,CSO
7899243700000,2.969971,0.587956545744681,11.0900907042914,-1.26850554462676,0.0870483,-0.75411314,0.33964106,117.65472,-95.87139,4.6824903,CSO
7899248706000,2.974977,0.657111240425532,10.9172040804183,-1.48029179426614,0.021685716,-0.89919364,0.344528,117.79755,-95.85756,4.649253,CSO
7899253639000,2.97991,0.706257627699438,10.7478584133715,-1.73761667325708,-0.015882496,-1.0173961,0.3368922,117.98453,-95.86242,4.636918,CSO
7899258640000,2.984911,0.725148694379253,10.5778387146238,-2.07765607075239,-0.022602014,-1.0855075,0.32436943,118.19552,-95.860886,4.6229944,CSO
7899263648000,2.989919,0.739197785330513,10.4103719949233,-2.42150789955579,0.029321533,-1.0934488,0.30573806,118.42415,-95.89887,4.621142,CSO
7899268652000,2.994923,0.744266247223691,10.2481810026441,-2.77123208773136,0.112399206,-1.0522153,0.2782491,118.65412,-95.93591,4.6125803,CSO
7899273634000,2.999905,0.731576556179775,10.101536581862,-3.01208252479936,0.21502456,-0.9615019,0.2489276,118.87767,-96.02509,4.6059465,CSO
7899278644000,3.004915,0.697882898876405,9.9715751312199,-3.12760373607544,0.3304781,-0.9095783,0.21594086,119.09567,-96.12573,4.589721,CSO
7899283644000,3.009915,0.620134561849539,9.86696984002379,-3.171352643146,0.3933972,-0.8756753,0.18509217,119.292496,-96.27382,4.5714855,CSO
7899288651000,3.014922,0.491808759827535,9.79092487986916,-3.133330212697,0.42424592,-0.8570439,0.16065755,119.473564,-96.435265,4.5452776,CSO
7899293646000,3.019917,0.348467776860047,9.73096112451765,-3.17524737127529,0.43004912,-0.80970186,0.14202617,119.6252,-96.611435,4.5068474,CSO
7899298683000,3.024954,0.185024808699859,9.69010050644706,-3.31598987417412,0.41996986,-0.73761976,0.13530666,119.7591,-96.79192,4.4651165,CSO
7899303639000,3.02991,0.073518358853368,9.70634339735762,-3.39695884463017,0.4196644,-0.6942484,0.14905111,119.88079,-96.958916,4.40095,CSO
7899308694000,3.034965,0.0638274851900711,9.84201583304974,-3.35819542890602,0.41080686,-0.64873886,0.13408493,119.97544,-97.11908,4.328402,CSO
7899313646000,3.039917,0.0528263513223222,9.92033513608941,-3.27557018157452,0.42180246,-0.59712076,0.13316862,120.04623,-97.28809,4.231215,CSO
7899318721000,3.044992,0.0384057320462862,9.88668684709722,-3.09771580020769,0.44043383,-0.59223384,0.11759156,120.111176,-97.45685,4.1258163,CSO
7899323634000,3.049905,0.0381110397122015,9.83308284890576,-2.8867454597082,0.45112398,-0.6169739,0.10903945,120.16547,-97.622055,4.019716,CSO
7899329094000,3.055365,0.0720753524632757,9.72073954321975,-2.5549402448586,0.45204028,-0.6264423,0.102319926,120.20871,-97.79095,3.9108994,CSO
7899333706000,3.059977,0.100764621768762,9.62584442859998,-2.27466814762666,0.4541783,-0.6169739,0.077579886,120.24542,-97.934875,3.7927024,CSO
7899338695000,3.064966,0.131799046002298,9.52319227620665,-1.97148569032177,0.47769663,-0.6105598,0.036957346,120.28051,-98.084435,3.6685467,CSO
7899343663000,3.069934,0.191006220339063,9.46261187206656,-1.69802545585904,0.5036584,-0.6246097,-0.01160644,120.318245,-98.235275,3.5359223,CSO
7899348689000,3.07496,0.315673824911702,9.49661202637156,-1.48646833093949,0.5128214,-0.64660084,-0.062002823,120.35045,-98.385826,3.3924038,CSO
7899353674000,3.079945,0.439324443454203,9.53033482167805,-1.27663700031395,0.52503866,-0.6407976,-0.10293079,120.36488,-98.45466,3.253239,CSO
7899358740000,3.085011,0.616387784464511,9.65691685658802,-1.1253561892708,0.54000485,-0.6243043,-0.12614368,120.37856,-98.52564,3.1062162,CSO
7899363742000,3.090013,0.807088891189436,9.81040768754248,-0.995121282852704,0.5216789,-0.58368176,-0.13591751,120.38002,-98.59084,2.9546404,CSO
7899368757000,3.095028,0.981432046604215,9.85780857142857,-1.00024927377049,0.46883908,-0.5357288,-0.13988814,120.37661,-98.61903,2.8312495,CSO
7899373690000,3.099961,1.14625995549395,9.86232449562682,-1.05895510950151,0.43554693,-0.4615087,-0.13469578,120.35286,-98.648895,2.712282,CSO
7899378729000,3.105,1.31462967633227,9.86693745772595,-1.11892241261291,0.40775254,-0.33414328,-0.14202617,120.305824,-98.656136,2.633126,CSO
7899383854000,3.110125,1.48587294271376,9.87162914868805,-1.17991317039144,0.3567453,-0.14538592,-0.16035213,120.21995,-98.64808,2.5591335,CSO
7899388736000,3.115007,1.59988393441865,9.89312010307292,-1.20424867443406,0.27947086,0.023518313,-0.172264,120.10386,-98.62587,2.4904134,CSO
7899393735000,3.120006,1.6736717459108,9.93001379212022,-1.19963693922551,0.17959438,0.1469131,-0.16737708,119.94805,-98.58424,2.428077,CSO
7899399354000,3.125625,1.6767669466275,9.92435338256582,-1.27206380674499,0.083383106,0.22235495,-0.16126843,119.773094,-98.5701,2.4357128,CSO
7899403744000,3.130015,1.61943468868142,9.88466194335466,-1.38672832263716,0.009468411,0.3051272,-0.14263703,119.56374,-98.536606,2.4529393,CSO
7899408736000,3.135007,1.52977547445424,9.84064281163629,-1.52693298583016,-0.03604105,0.37201694,-0.12950343,119.34562,-98.48906,2.485344,CSO
7899413722000,3.139993,1.41979662716804,9.79760772992189,-1.67516532784899,-0.07422013,0.4269948,-0.12339478,119.110504,-98.42567,2.5225618,CSO
7899418746000,3.145017,1.33253965123263,9.78443939030443,-1.80817365610523,-0.09560041,0.45753807,-0.10995574,118.865166,-98.37676,2.55475,CSO
7899423740000,3.150011,1.26527859350596,9.79630881618134,-1.92686965004964,-0.111177474,0.51068336,-0.10842858,118.600334,-98.31992,2.5869913,CSO
7899428744000,3.155015,1.19870042120929,9.81462727323752,-2.03613301148057,-0.1151481,0.5546656,-0.10170906,118.334114,-98.28219,2.6016028,CSO
7899433753000,3.160024,1.13750870687133,9.87581894497831,-2.0810069892848,-0.12064589,0.58459806,-0.08735373,118.05977,-98.2418,2.6192412,CSO
7899438673000,3.164944,1.07740424798877,9.93592336202058,-2.12508364546305,-0.12767084,0.60994893,-0.06505715,117.77383,-98.22121,2.625665,CSO
7899443748000,3.170019,1.01286958135317,9.93955444337812,-2.04964627512476,-0.15577064,0.6414085,-0.04337143,117.48068,-98.19554,2.6364439,CSO
7899448693000,3.174964,0.94924169212572,9.92592010076775,-1.94056992071017,-0.17837265,0.6395759,-0.025961773,117.193054,-98.17198,2.6509683,CSO
7899453745000,3.180016,0.886221138617284,9.89527697530864,-1.86962918987654,-0.19150625,0.6221663,-0.013744468,116.90132,-98.1473,2.6545649,CSO
7899458740000,3.185011,0.824801883550617,9.85748024197531,-1.81765903920988,-0.18173242,0.57604593,-0.0021380284,116.62149,-98.125244,2.6607583,CSO
7899463720000,3.189991,0.774035407005445,9.83279052994556,-1.80652296678766,-0.16401732,0.52412236,0.009162978,116.35214,-98.07803,2.654093,CSO
7899469101000,3.195372,0.724811227918617,9.81310097344541,-1.8163677964371,-0.12736541,0.48563787,0.017715093,116.094826,-98.04079,2.648013,CSO
7899473740000,3.200011,0.670054112379617,9.78604767517531,-1.860798191669,-0.09254608,0.43401974,0.035430185,115.85778,-97.997604,2.63229,CSO
7899478761000,3.205032,0.602613514520804,9.75007956914446,-1.93273482625526,-0.06261369,0.39950588,0.057421334,115.62937,-97.9655,2.6190755,CSO
7899483735000,3.210006,0.531585530066339,9.70327906954847,-2.02410618476354,-0.05589417,0.37048978,0.070249505,115.41448,-97.93673,2.5966814,CSO
7899488743000,3.215014,0.454610383821956,9.64169878108282,-2.14213476734432,-0.050701816,0.34574974,0.08582657,115.21084,-97.918846,2.5799952,CSO
7899493737000,3.220008,0.372395774311787,9.59964541140684,-2.23176019072243,-0.06505715,0.34391713,0.10293079,115.00711,-97.90873,2.5527773,CSO
7899498723000,3.224994,0.286155358958175,9.57241151920152,-2.29984477904943,-0.06994407,0.34208453,0.11209377,114.812126,-97.90397,2.5268273,CSO
7899503741000,3.230012,0.22594242745797,9.55540689750861,-2.34347987040713,-0.06780604,0.3222314,0.124005646,114.62004,-97.91558,2.4916286,CSO
7899508738000,3.235009,0.196862837884343,9.55056070832489,-2.35801965254203,-0.06688975,0.3005457,0.14569137,114.43096,-97.92782,2.4617937,CSO
7899513700000,3.239971,0.196800950437068,9.57351962987552,-2.35699043481789,-0.039095376,0.28802297,0.14782938,114.237305,-97.95313,2.4095335,CSO
7899518760000,3.245031,0.228079001004149,9.62713883319502,-2.33911718041494,-0.0106901415,0.2782491,0.17348573,114.05179,-97.983475,2.3697646,CSO
7899523671000,3.249942,0.266407965200913,9.68040904216688,-2.30540027304296,0.0015271631,0.26450464,0.17745635,113.86964,-98.01633,2.3181405,CSO
7899528733000,3.255004,0.324125357281476,9.73812658993948,-2.2332535894434,0.032986723,0.25320363,0.1872302,113.6917,-98.06524,2.2755668,CSO
7899533719000,3.25999,0.381768320393343,9.79449462027232,-2.16311237518911,0.053145275,0.24587326,0.18936823,113.52134,-98.1107,2.236927,CSO
7899538745000,3.265016,0.441736497623921,9.85017913998398,-2.0945772720477,0.07086037,0.24953845,0.20769419,113.35298,-98.16618,2.2059681,CSO
7899543838000,3.270109,0.499801978258915,9.90603405274199,-2.02847497362901,0.0693332,0.25320363,0.22357668,113.18542,-98.20866,2.1847277,CSO
7899548725000,3.274996,0.523177200749176,9.9527844489062,-2.0050997755469,0.06780604,0.267559,0.23487769,113.01544,-98.2568,2.1680007,CSO
7899553851000,3.280122,0.544318258957655,9.99569042996743,-1.97709588273616,0.049785517,0.2874121,0.24587326,112.84375,-98.2879,2.1685765,CSO
7899558740000,3.285011,0.524250959073376,9.9635829513115,-1.90886709246528,0.032070424,0.31490102,0.2611449,112.66774,-98.31961,2.174103,CSO
7899563727000,3.289998,0.503781410183439,9.93083187827876,-1.83927065616321,0.0027488936,0.34605515,0.25320363,112.48764,-98.33772,2.1812458,CSO
7899568757000,3.295028,0.48759353434,9.876503362,-1.7641244382,-0.041233405,0.3585779,0.2507602,112.30737,-98.348404,2.1939983,CSO
7899573709000,3.29998,0.473366225404,9.8148514572,-1.68824548692,-0.06872234,0.36896262,0.24373524,112.11998,-98.35473,2.2037506,CSO
7899578731000,3.305002,0.466358228933907,9.80578906432008,-1.66345910590023,-0.105374254,0.38423425,0.2452624,111.928,-98.32987,2.208354,CSO
7899583739000,3.31001,0.462309899034355,9.81793432033426,-1.65941077177344,-0.13836098,0.3943135,0.2489276,111.73629,-98.298965,2.211329,CSO
7899588738000,3.315009,0.404232564719876,9.79970790659287,-1.66657362225459,-0.16493362,0.40561453,0.24923302,111.54287,-98.24714,2.2111735,CSO
7899593732000,3.320003,0.246343111237013,9.72540694280998,-1.69443644730556,-0.18570304,0.4089743,0.2434298,111.3509,-98.18905,2.2099295,CSO
7899598699000,3.32497,0.134761572712551,9.67120242591093,-1.7266013159919,-0.21685717,0.41996986,0.23487769,111.15272,-98.12075,2.207985,CSO
7899603749000,3.33002,0.1372090848583,9.66630729939271,-1.77065656017207,-0.23609942,0.43799037,0.20830505,110.95282,-98.04982,2.199241,CSO
7899608676000,3.334947,0.139596984331984,9.6615314007085,-1.81363877563259,-0.25625798,0.46914452,0.17654006,110.73116,-97.96563,2.1522923,CSO
7899613727000,3.339998,0.142044981133603,9.6566353048583,-1.85770274362348,-0.27885997,0.49357912,0.15821409,110.50834,-97.87681,2.1024523,CSO
7899618860000,3.345131,0.145376428768766,9.66118054337809,-1.88490657303176,-0.3100141,0.5335908,0.15454891,110.274025,-97.7802,2.0483096,CSO
7899623739000,3.35001,0.150006588407075,9.68201643338453,-1.88027641822821,-0.31398472,0.55771995,0.14996742,110.039406,-97.6862,1.9897131,CSO
7899628678000,3.354949,0.154693687905663,9.70310855487291,-1.87558932362384,-0.31795537,0.57940567,0.14263703,109.7948,-97.60307,1.9328471,CSO
7899633779000,3.36005,0.159534525027003,9.72489250136253,-1.87074849155725,-0.31703907,0.57879484,0.13683382,109.55244,-97.52265,1.8758125,CSO
7899638698000,3.364969,0.168036053720434,9.76576465494852,-1.87793797563306,-0.32375857,0.59040123,0.13744467,109.291374,-97.43976,1.8194222,CSO
7899643737000,3.370008,0.18594070835173,9.85528788136537,-1.91374731293943,-0.34147367,0.61300325,0.12797627,109.029976,-97.35571,1.7595793,CSO
7899648740000,3.375011,0.204599825951719,9.94788602751838,-1.9399075321975,-0.36254853,0.6270532,0.129198,108.77219,-97.27002,1.7055572,CSO
7899654280000,3.380551,0.230953643376714,10.0743841618319,-1.90828291606398,-0.37568212,0.66248333,0.13164146,108.5049,-97.1839,1.6514509,CSO
7899658722000,3.384993,0.24560678044,10.175117839,-1.8804155568,-0.39706242,0.68416905,0.122783914,108.233925,-97.09696,1.5986049,CSO
7899663757000,3.390028,0.219305386858182,10.2847073603636,-1.8321963688,-0.42577308,0.68233645,0.1282817,107.963776,-97.00821,1.5515665,CSO
7899669291000,3.395562,0.189575639846338,10.4013041312959,-1.77558285412327,-0.44318274,0.66248333,0.13316862,107.690994,-96.91116,1.5072429,CSO
7899673739000,3.40001,0.149574446252348,10.4194864799385,-1.65921570889534,-0.45204028,0.6249151,0.13622294,107.42783,-96.81176,1.4638447,CSO
7899678668000,3.404939,0.105247584016561,10.4396350402937,-1.53026479638894,-0.45723262,0.5925393,0.13041973,107.170006,-96.69661,1.4126774,CSO
7899683768000,3.410039,0.0688751698220784,10.4425248534169,-1.39979183132835,-0.46883908,0.52656585,0.10720685,106.935905,-96.57973,1.3559089,CSO
7899688797000,3.415068,0.0396626178245047,10.4327871395067,-1.27320414328751,-0.5143485,0.42577308,0.06047566,106.72376,-96.45358,1.28957,CSO
7899693713000,3.419984,0.0355210253651175,10.3748180711806,-1.21613043143029,-0.59131753,0.4279111,0.080634214,106.508705,-96.288666,1.2256992,CSO
7899698741000,3.425012,0.0467745401231303,10.2847898107639,-1.20005397554087,-0.59620446,0.5027421,0.10415252,106.30372,-96.13323,1.1503853,CSO
7899703749000,3.43002,0.057983291497062,10.1951196579861,-1.18404146736779,-0.54092115,0.5345071,0.119729586,106.09905,-95.95148,1.0716714,CSO
7899708732000,3.435003,0.0691360886408921,10.1058971397569,-1.16810889384014,-0.50793445,0.4813618,0.12339478,105.90224,-95.76796,0.9976047,CSO
7899713745000,3.440016,0.080356030860844,10.0161374600694,-1.15208039873798,-0.5015204,0.44409904,0.12675454,105.69691,-95.59813,0.9307976,CSO
7899718773000,3.445044,0.0916095456188568,9.92610919965278,-1.13600394284856,-0.4896085,0.37751472,0.1337795,105.519455,-95.44395,0.86530685,CSO
7899724328000,3.450599,0.0924952368241819,9.86338563606951,-1.08097077869292,-0.48075095,0.29718593,0.14874569,105.35831,-95.295906,0.8048736,CSO
7899728717000,3.454988,0.0886098058058791,9.82841685265299,-1.02268929718987,-0.50915617,0.27214047,0.1554652,105.204,-95.1446,0.745309,CSO
7899733734000,3.460005,0.0721561964617851,9.78559746819882,-0.972376034019241,-0.51251596,0.22174409,0.17348573,105.07699,-95.0033,0.6990718,CSO
7899738797000,3.465068,0.0410579353265633,9.73895021721005,-0.94127776747194,-0.5222898,0.18692477,0.18509217,104.95583,-94.855644,0.6537452,CSO
7899743827000,3.470098,-0.0121171104171076,9.67705842345679,-0.939162138602293,-0.52931476,0.16340645,0.19517145,104.8459,-94.69899,0.6148209,CSO
7899748719000,3.47499,-0.0782190352601411,9.60682500617284,-0.9556876295194,-0.537256,0.16432275,0.20372356,104.741905,-94.5431,0.57936007,CSO
7899753652000,3.479923,-0.114833019088678,9.58342760479643,-0.962424759498048,-0.56230146,0.1881465,0.18020524,104.63574,-94.376045,0.530095,CSO
7899758655000,3.484926,-0.0827664733530396,9.66893844551032,-0.946391469888455,-0.57726765,0.19853121,0.16035213,104.53615,-94.2136,0.48496112,CSO
7899763639000,3.48991,-0.0574258909489051,9.68781391605839,-0.898157662226277,-0.6093381,0.19120082,0.1432479,104.42008,-94.044044,0.4186738,CSO
7899768665000,3.494936,-0.0383315427311964,9.64198775404634,-0.817961400190416,-0.6261369,0.1414153,0.110872045,104.3159,-93.877914,0.34327707,CSO
7899773939000,3.50021,-0.0212540265637265,9.59199354733664,-0.734146792607289,-0.62858033,0.07574729,0.10873401,104.21791,-93.70723,0.27744508,CSO
7899778655000,3.504926,-0.0650838745749407,9.50920369441449,-0.665967050731076,-0.63804877,0.021685716,0.13683382,104.13389,-93.53426,0.21219225,CSO
7899783702000,3.509973,-0.11796990802523,9.41920094759825,-0.582740108384279,-0.65393126,-0.013744468,0.13255776,104.055824,-93.342064,0.14140724,CSO
7899788691000,3.514962,-0.206062586092188,9.32183483930131,-0.43900993771179,-0.675617,-0.06261369,0.09590584,103.99987,-93.15046,0.06988309,CSO
7899793624000,3.519895,-0.283732822808128,9.23658643020525,-0.302561771692025,-0.6881397,-0.12858713,0.061086524,103.96145,-92.949486,-0.0115396045,CSO
7899798660000,3.524931,-0.229559763957929,9.30553458235474,-0.24346388229756,-0.6844745,-0.2012801,0.031154128,103.94108,-92.75339,-0.10060362,CSO
7899803685000,3.529956,-0.159579255112862,9.37883341572984,-0.20018297765867,-0.6805039,-0.25045475,-0.012217305,103.929924,-92.534035,-0.2231633,CSO
7899808692000,3.534963,0.0271824698203063,9.48494773249535,-0.272340921370275,-0.6774496,-0.27122417,-0.041233405,103.93397,-92.32779,-0.34728307,CSO
7899813680000,3.539951,0.213235492382048,9.59065937859609,-0.344225048239356,-0.66798115,-0.29077184,-0.05375614,103.96043,-92.1255,-0.4633548,CSO
7899818738000,3.545009,0.371935354621658,9.68662836373981,-0.259405607418927,-0.66523224,-0.2733622,-0.0842994,103.98382,-91.94159,-0.58911246,CSO
7899823851000,3.550122,0.527479451922056,9.78181205125166,-0.147971020769012,-0.6658431,-0.21319197,-0.13041973,104.00217,-91.78298,-0.7191318,CSO
7899828692000,3.554963,0.674748956133131,9.87193218253366,-0.0424645013142424,-0.6569856,-0.15790866,-0.18997909,104.01426,-91.648544,-0.8110556,CSO
7899833739000,3.56001,0.828285247757444,9.96588721301915,0.0675316572662621,-0.6582073,-0.14019357,-0.2507602,104.02115,-91.54005,-0.9138498,CSO
7899838709000,3.56498,1.04591122436948,10.0773114767479,0.0954541778493136,-0.6621779,-0.12889257,-0.29138273,104.01564,-91.466866,-1.0247741,CSO
7899843661000,3.569932,1.29824895564542,10.1984333811855,0.0803139129188039,-0.6612616,-0.106901415,-0.31612277,104.00359,-91.43478,-1.1452736,CSO
7899848684000,3.574955,1.51353315115237,10.3048427812329,0.0732747472456557,-0.68386364,-0.04734206,-0.3481932,104.01143,-91.35963,-1.2064662,CSO
7899853734000,3.580005,1.71699868572343,10.4065762182184,0.0688515846153283,-0.70921457,0.04428773,-0.37201694,104.0053,-91.33018,-1.2705823,CSO
7899858735000,3.585006,1.91964360347757,10.4399802809721,0.130797874412172,-0.74006325,0.12461651,-0.39492437,103.9964,-91.305336,-1.2957494,CSO
7899863748000,3.590019,2.1235921250247,10.4257510275637,0.239886613312586,-0.77121735,0.20250183,-0.4098906,103.96363,-88.672844,-1.3247305,CSO
7899868746000,3.595017,2.3229441239407,10.4365970754915,0.298658222664283,-0.81489426,0.24373524,-0.4202753,103.93058,-88.645874,-1.3142298,CSO
7899873740000,3.600011,2.51905778458627,10.4667684806014,0.318772443730417,-0.84207773,0.31245756,-0.42149702,103.86921,-88.574646,-1.3059087,CSO
7899878736000,3.605007,2.6421536227561,10.5221595571135,0.393310234434223,-0.87964594,0.39920044,-0.4156938,103.80234,-88.47847,-1.2610246,CSO
7899883761000,3.610032,2.72811132571224,10.5909258092346,0.49645954978655,-0.9071349,0.49327368,-0.39461896,103.71565,-88.34109,-1.2138035,CSO
7899888742000,3.615013,2.77086816259259,10.5875505659259,0.615242443377778,-0.93462384,0.5589417,-0.36743546,103.6242,-88.18568,-1.1285686,CSO
7899893763000,3.620034,2.75560299428571,10.4857831314286,0.757716936685714,-0.97341377,0.6056729,-0.3472769,103.51334,-87.99254,-1.0422658,CSO
7899898716000,3.624987,2.72125838789132,10.3717470894861,0.902980293750738,-1.0033462,0.66706485,-0.33567044,103.39166,-87.76053,-0.93622667,CSO
7899903714000,3.629985,2.66942600844654,10.2445214692853,1.05376551567631,-1.0381655,0.7125743,-0.34697145,103.263596,-87.49726,-0.8347077,CSO
7899908726000,3.634997,2.6171742611382,10.1612182701224,1.20340473529997,-1.0781772,0.73639804,-0.35735616,103.13231,-87.18488,-0.7375613,CSO
7899913734000,3.640005,2.56468517945478,10.123044664312,1.35132837959407,-1.1227703,0.7788532,-0.36896262,102.98573,-86.85392,-0.6479751,CSO
7899918745000,3.645016,2.49918364665181,10.1535747241981,1.51793276421165,-1.1417072,0.8246681,-0.37934732,102.84391,-86.48323,-0.57327414,CSO
7899923741000,3.650012,2.42036047793391,10.2555814341506,1.7033992542979,-1.1701124,0.84849185,-0.3848451,102.69974,-86.0983,-0.503487,CSO
7899928731000,3.655002,2.28928631893805,10.3301768082596,1.89378389982301,-1.2030991,0.870483,-0.3866777,102.55145,-85.67827,-0.44907588,CSO
7899933742000,3.660013,2.08638132082596,10.3679268343166,2.09197013235988,-1.2281445,0.90469146,-0.38759398,102.39682,-85.257545,-0.39907074,CSO
7899938730000,3.665001,1.91791183360763,10.4588362585562,2.26106316100617,-1.2366967,0.9392053,-0.39492437,102.250626,-84.800896,-0.37017155,CSO
7899943856000,3.670127,1.79855905429213,10.6378651878624,2.38959691597157,-1.2565498,0.98746365,-0.40530908,102.09507,-84.34177,-0.34580433,CSO
7899948681000,3.674952,1.67342222769853,10.81098944087,2.53171732149722,-1.2812898,1.0708468,-0.40744713,101.9321,-83.84722,-0.3662543,CSO
7899953747000,3.680018,1.50164034324734,11.0073114188164,2.74767165098634,-1.3154984,1.16492,-0.4251622,101.758156,-83.35365,-0.39720082,CSO
7899958670000,3.684941,1.30892594295141,11.1749557414517,3.00947853203359,-1.348485,1.2223413,-0.43860126,101.56743,-82.838745,-0.46255395,CSO
7899963785000,3.690056,1.03466278293341,11.2827021271746,3.430668405009,-1.3738359,1.2140946,-0.46975538,101.37604,-82.32656,-0.5392736,CSO
7899968722000,3.694993,0.786282725853363,11.3791074397091,3.77922724518279,-1.3833044,1.144456,-0.505491,101.20392,-81.78303,-0.6557875,CSO
7899973741000,3.700012,0.577553403362957,11.4567742091497,3.97824813279136,-1.3805555,1.0751228,-0.5186246,101.04122,-81.24758,-0.77315646,CSO
7899978704000,3.704975,0.423605928187572,11.4976713614945,4.1085762385589,-1.3683381,1.0241156,-0.53878313,100.91868,-80.64192,-0.9595328,CSO
7899983737000,3.710008,0.397879626844072,11.4498941267251,4.07549962351506,-1.3451253,0.9984592,-0.54733527,100.81599,-80.05361,-1.140698,CSO
7899988698000,3.714969,0.372521355243614,11.4028003731605,4.04289618873809,-1.2938126,0.9718866,-0.56138515,100.75159,-79.45151,-1.3667991,CSO
7899993756000,3.720027,0.466222219370804,11.2845200003837,3.90473120953386,-1.2345587,0.9615019,-0.5702427,100.69704,-78.871735,-1.5875802,CSO
7899998724000,3.724995,0.616813058764627,11.1339285129484,3.7176335467677,-1.1710287,0.93828905,-0.5500842,100.65897,-78.321465,-1.7963437,CSO
7900003711000,3.729982,0.819824441743504,10.9134331290863,3.52845523000838,-1.1145236,0.92087936,-0.5366451,100.62597,-77.80263,-2.01094,CSO
7900008709000,3.73498,1.06055308032272,10.6426136921626,3.33787830603521,-1.0412198,0.9089675,-0.5299256,100.60215,-77.31847,-2.215256,CSO
7900013878000,3.740149,1.29853014022932,10.3781997106037,3.13292877437279,-1.0076222,0.8897252,-0.5002986,100.531654,-76.87898,-2.3827252,CSO
7900018729000,3.745,1.51706602632301,10.1368995419443,2.93715712330459,-0.9202685,0.8866709,-0.4859433,100.46485,-76.48387,-2.5491571,CSO
7900023724000,3.749995,1.6630594097,9.9095000436,2.7997325903,-0.83169305,0.88331115,-0.46120325,100.39433,-76.135475,-2.657013,CSO
7900028769000,3.75504,1.7645209182,9.6920827416,2.6982710818,-0.7431176,0.8567385,-0.45051312,100.33431,-75.818565,-2.761095,CSO
7900033749000,3.76002,1.87613086098189,9.54245057903593,2.6774905258735,-0.6627888,0.8032878,-0.4361578,100.25567,-75.55924,-2.8199968,CSO
7900038759000,3.76503,1.99485744724339,9.42847320300901,2.70123583320796,-0.58123827,0.73761976,-0.4288274,100.189964,-75.33012,-2.87415,CSO
7900043770000,3.770041,2.06075041904845,9.35393504416017,2.66323247530886,-0.5122105,0.6536258,-0.398895,100.13143,-75.13549,-2.8962054,CSO
7900049376000,3.775647,2.09838307020065,9.29748601831245,2.57855913301498,-0.4596761,0.573297,-0.355829,100.09012,-74.963684,-2.9074848,CSO
7900053659000,3.77993,2.11304841252534,9.23095003671998,2.49160285120523,-0.40500367,0.5018258,-0.321926,100.07636,-74.80805,-2.884381,CSO
7900058675000,3.784946,2.10222677954494,9.1065009184501,2.3455107494706,-0.36987892,0.43768495,-0.28069258,100.07967,-74.666794,-2.8422952,CSO
7900063628000,3.789899,2.08506965189571,9.00107761226244,2.18617161212874,-0.31887165,0.40775254,-0.23487769,100.08439,-74.56327,-2.7811272,CSO
7900068694000,3.794965,2.06190268052717,8.90841011383822,2.01010326836023,-0.27947086,0.37323865,-0.17745635,100.10412,-74.47041,-2.7011378,CSO
7900073656000,3.799927,2.01835395124935,8.8141422160705,1.84209508696734,-0.25350907,0.36865717,-0.12950343,100.079025,-74.40531,-2.625636,CSO
7900078652000,3.804923,1.94890452675998,8.71492875251426,1.67839271670295,-0.23671028,0.36987892,-0.08735373,100.05794,-74.35182,-2.5348732,CSO
7900083651000,3.809922,1.89836370491225,8.62815838631238,1.53619247278165,-0.21685717,0.35643986,-0.03481932,100.01651,-74.33812,-2.437345,CSO
7900088657000,3.814928,1.86545942741445,8.55294911403079,1.41397671815864,-0.20005837,0.3173445,0.011911872,99.979195,-74.3298,-2.329198,CSO
7900093635000,3.819906,1.81214635091846,8.47973270674789,1.28010315766635,-0.19028452,0.26328292,0.061391957,99.918495,-74.35052,-2.2233572,CSO
7900098688000,3.824959,1.73504633197751,8.40716793289597,1.13043836487348,-0.15790866,0.19303341,0.119729586,99.86908,-74.384026,-2.099344,CSO
7900103741000,3.830012,1.6396106865626,8.32700522732374,0.986622140516274,-0.122478485,0.15974127,0.17379116,99.80387,-74.44163,-1.9717885,CSO
7900108737000,3.835008,1.51268598377717,8.23425222660953,0.85481577328844,-0.08093964,0.098043874,0.20158553,99.763664,-74.50996,-1.8297327,CSO
7900113719000,3.83999,1.37699066352162,8.1088574690717,0.734900586679796,-0.06658431,0.052534413,0.2501493,99.70171,-74.60739,-1.6885903,CSO
7900119291000,3.845562,1.20980163385552,7.91300747999284,0.620256649270432,-0.030848695,0.03481932,0.29993483,99.647194,-74.72157,-1.5388473,CSO
7900123735000,3.850006,1.07436388696173,7.75342266709961,0.533186744661804,0.0033597588,0.033292156,0.30482176,99.58654,-74.85768,-1.4157742,CSO
7900128733000,3.855004,0.911769644060346,7.55735315945649,0.456671793901489,0.009773844,0.053145275,0.3100141,99.52148,-74.995155,-1.2812369,CSO
7900133815000,3.860086,0.753390125710338,7.37394123024441,0.387438450757406,0.03268129,0.09712757,0.2910773,99.42974,-75.15549,-1.1954911,CSO
7900138743000,3.865014,0.631113992710942,7.26796858873823,0.358907360860178,0.03573562,0.14110987,0.2666427,99.332985,-75.31022,-1.1127453,CSO
7900143671000,3.869942,0.508837859711547,7.16199594723206,0.33037627096295,0.03268129,0.19120082,0.24678956,99.205025,-75.471146,-1.080026,CSO
7900148720000,3.874991,0.381527505420131,7.0809559522645,0.309775932199941,0.036957346,0.23243423,0.2302962,99.069435,-75.6334,-1.0561641,CSO
7900153683000,3.879954,0.255996671049594,7.00656726724054,0.291178765798689,0.038789943,0.25503623,0.21868975,98.92687,-75.79265,-1.0390174,CSO
7900158739000,3.88501,0.183611905234974,6.94839380127412,0.30152926871757,0.04917465,0.29229903,0.2134974,98.76296,-75.95349,-1.0641892,CSO
7900163684000,3.889955,0.126770894838888,6.89592516435232,0.319018817401902,0.06872234,0.30573806,0.21074851,98.600876,-76.116295,-1.0913969,CSO
7900168838000,3.895109,0.0804179047824367,6.85745208322785,0.387928861776108,0.09712757,0.312763,0.2134974,98.41222,-76.28047,-1.1581237,CSO
7900173780000,3.900051,0.0429744058386076,6.82936948101266,0.481537584699367,0.12003502,0.31031954,0.21288654,98.22403,-76.44731,-1.2256635,CSO
7900178769000,3.90504,-0.0545583284817208,6.84453471460403,0.563099969501302,0.15760323,0.29016098,0.19242255,98.040436,-76.61619,-1.3128465,CSO
7900183807000,3.910078,-0.189524142200251,6.88642062813736,0.637563893537185,0.19242255,0.2855795,0.18325958,97.853676,-76.78953,-1.3965005,CSO
7900188861000,3.915132,-0.320202425989086,6.99317254774898,0.667528283901774,0.23426682,0.27275133,0.16982053,97.68483,-76.94946,-1.492876,CSO
7900193773000,3.920044,-0.44361851625669,7.14620864236541,0.662591644002519,0.2846632,0.27214047,0.16462818,97.5151,-77.11974,-1.5882922,CSO
7900198720000,3.924991,-0.586421022002352,7.33243080452808,0.672678949318828,0.34880406,0.2782491,0.17104226,97.346695,-77.284004,-1.7202829,CSO
7900203750000,3.930021,-0.74222363773302,7.54016758606292,0.691564102313045,0.41691554,0.27885997,0.17959438,97.18164,-77.46056,-1.8500272,CSO
7900208735000,3.935006,-0.874615682623338,7.76346598735598,0.707526562274742,0.48166725,0.30573806,0.1826487,96.99856,-77.65392,-2.0144105,CSO
7900213766000,3.940037,-0.993229491332349,8.00069316880355,0.721760205051699,0.5122105,0.31123585,0.17959438,96.822784,-77.85216,-2.1729925,CSO
7900218747000,3.945018,-1.0778891345961,8.2283276180369,0.771573623883217,0.5540548,0.3371976,0.18875736,96.61647,-78.06377,-2.3731105,CSO
7900223738000,3.950009,-1.13781836818915,8.45092237399248,0.848625509693713,0.6236934,0.36560285,0.1881465,96.411125,-78.28414,-2.5713224,CSO
7900228741000,3.955012,-1.17445582768876,8.71344525768218,0.968303258358209,0.6646214,0.3924809,0.19394971,96.19057,-78.50159,-2.7946162,CSO
7900233772000,3.960043,-1.16388051330114,9.0571411808604,1.17452094477612,0.6783658,0.40317106,0.19700404,95.96981,-78.721664,-3.0119855,CSO
7900238745000,3.965016,-1.10130158699286,9.40378595450846,1.35110839709686,0.70066243,0.40286562,0.19303341,95.75265,-78.93518,-3.2329667,CSO
7900243736000,3.970007,-0.988907291294203,9.75826025296193,1.50240841574568,0.7470882,0.42485678,0.20647246,95.52855,-79.15117,-3.4420261,CSO
7900248711000,3.974982,-0.874862940120169,10.0434097000356,1.62387509763735,0.79504114,0.4343252,0.22143865,95.327576,-79.339714,-3.6306052,CSO
7900253755000,3.980026,-0.754339217087428,10.1663932533734,1.67552813353531,0.8524625,0.45753807,0.24373524,95.11908,-79.53682,-3.8078396,CSO
7900258710000,3.984981,-0.635942102173227,10.2872067955599,1.72626976574673,0.90408057,0.5015204,0.27152961,94.93114,-79.73627,-3.9266288,CSO
7900263776000,3.990047,-0.514892700729161,10.4107267561485,1.77814809244361,0.9468411,0.54611355,0.3023783,94.73841,-79.944336,-4.0342216,CSO
7900268714000,3.994985,-0.396031928695312,10.6868592056377,2.01369494181267,0.9779953,0.59498274,0.33108896,94.5341,-80.158714,-4.1319857,CSO
7900273740000,4.000011,-0.273544038784379,11.2380545306842,2.57431260257414,1.0158689,0.61819565,0.35460728,94.326675,-80.381775,-4.218895,CSO
7900278666000,4.004937,-0.21451752205515,11.6530527361164,3.12201689166987,1.0262536,0.6273586,0.38545597,94.126656,-80.61926,-4.229124,CSO
7900283754000,4.010025,-0.289424199042083,11.8028659336568,3.68381681019408,0.98746365,0.6270532,0.38423425,93.92604,-80.84681,-4.2407584,CSO
7900288706000,4.014977,-0.368393931203467,11.912422350847,4.20239007056333,0.92271197,0.6068946,0.36010507,93.782196,-80.9874,-4.2114854,CSO
7900293760000,4.020031,-0.468494866779594,11.9076557927418,4.64092760168407,0.79779,0.54305923,0.32925636,93.652626,-81.10017,-4.183221,CSO
7900298701000,4.024972,-0.538251953376973,11.8696538061224,5.00186440096265,0.66737026,0.47708577,0.2883284,93.58362,-81.076324,-4.181312,CSO
7900304418000,4.030689,-0.496087438344243,11.6799135765306,5.12308747524066,0.5421429,0.32559118,0.25625798,93.55786,-81.0232,-4.1797214,CSO
7900308732000,4.035003,-0.459965072905631,11.5344100901616,5.17665022125442,0.49693888,0.15393804,0.25045475,93.59626,-80.866,-4.204258,CSO
7900313794000,4.040065,-0.39043960881155,11.3490084718424,5.00051895004303,0.42088616,-0.006414085,0.24617869,93.67416,-80.67355,-4.2303557,CSO
7900318850000,4.045121,-0.318358185967213,11.1629452754098,4.8138683647541,0.34880406,-0.1459968,0.26053402,93.815575,-80.45889,-4.237385,CSO
7900323738000,4.050009,-0.212840609442623,10.9710952819672,4.48772332581967,0.27550024,-0.25350907,0.27000242,93.990295,-80.230804,-4.240582,CSO
7900328696000,4.054967,-0.106586120909166,10.7840586234634,4.15739092865275,0.22449298,-0.30787608,0.26542094,94.172455,-80.02955,-4.2254534,CSO
7900333782000,4.060053,-0.00612485660589061,10.6755607868163,3.8238593483871,0.16707164,-0.3173445,0.27030787,94.367676,-79.81521,-4.202075,CSO
7900338710000,4.064981,0.0912155111657454,10.5704335082089,3.50068915028463,0.10720685,-0.30665436,0.2660318,94.543884,-79.65163,-4.1589932,CSO
7900343739000,4.07001,0.182688443549559,10.461750303625,3.1574297918779,0.057421334,-0.27122417,0.26633725,94.71231,-79.479576,-4.1146874,CSO
7900348724000,4.074995,0.269433933515036,10.3533180618697,2.81044784107386,-0.005192355,-0.2171626,0.2660318,94.86976,-79.29087,-4.073809,CSO
7900353712000,4.079983,0.345778284163823,10.2378676825939,2.47075080989761,-0.053450707,-0.15027285,0.2706133,94.97537,-79.17442,-4.006255,CSO
7900358739000,4.08501,0.410506162844141,10.11339107281,2.13715323572241,-0.10598512,-0.0842994,0.26633725,95.064865,-79.040436,-3.9453704,CSO
7900363728000,4.089999,0.483964309957831,10.0071063310241,1.84955060060241,-0.14508049,-0.008246681,0.26328292,95.10091,-78.97147,-3.8685253,CSO
7900368817000,4.095088,0.567148889361446,9.9141355126506,1.59510366626506,-0.20341812,0.058948494,0.27947086,95.11967,-78.884895,-3.792158,CSO
7900374441000,4.100712,0.633836513197609,9.82489168976466,1.35631478912962,-0.2406809,0.13255776,0.2883284,95.094086,-78.85341,-3.7079053,CSO
7900378732000,4.105003,0.672213497271199,9.76348847357116,1.19513147685842,-0.2510656,0.2012801,0.29443705,95.05079,-78.81429,-3.6251242,CSO
7900383744000,4.110015,0.721168362742845,9.66630808397744,1.00797244112179,-0.25503623,0.26175576,0.30879238,94.972946,-78.81626,-3.5264566,CSO
7900388748000,4.115019,0.776228492201796,9.53116036139545,0.822770136170879,-0.25167647,0.32925636,0.31764993,94.87501,-78.81647,-3.4337382,CSO
7900393738000,4.120009,0.806759365325914,9.3949642527822,0.651686271234102,-0.23762658,0.4016439,0.3268129,94.74399,-78.85606,-3.3336158,CSO
7900398719000,4.12499,0.811499234244833,9.2575076581876,0.495270488024642,-0.22693644,0.43188173,0.33169982,94.607445,-78.894684,-3.235662,CSO
7900403707000,4.129978,0.802996239244537,9.14885380213587,0.433867307687135,-0.18600847,0.4877759,0.32284227,94.4366,-78.97645,-3.1337194,CSO
7900408792000,4.135063,0.778919264548601,9.07180798190448,0.482021226909918,-0.16707164,0.5170974,0.30879238,94.267006,-79.05342,-3.034131,CSO
7900413715000,4.139986,0.738282589497525,9.02694864602596,0.607077586082002,-0.11911872,0.50823987,0.28710666,94.080505,-79.17187,-2.9403605,CSO
