timestamp,rel_time,acc_x,acc_y,acc_z,gyro_x,gyro_y,gyro_z,azimuth,pitch,roll,label
2180553546000,0,7.00961358582719,0.536707147179214,6.56418450675609,-0.014049901,0.024129177,0.023518313,103.34742,-1.7542769,50.18242,SIT
2180558359000,0.004813,7.00752794200812,0.538097576230606,6.56719710714774,0.0030543262,0.014049901,0.021685716,103.36367,-1.790055,50.187027,SIT
2180563366000,0.00982,7.00535823109974,0.539544050001709,6.57033113793124,-0.01038471,0.008857546,0.02107485,103.37865,-1.8171401,50.189545,SIT
2180568365000,0.014819,7.00319198687545,0.54098821265035,6.5734601612759,-0.0125227375,0.0027488936,0.027794369,103.39107,-1.8476574,50.194904,SIT
2180573357000,0.019811,7.00102877599974,0.542430353066837,6.57658480311158,-0.0027488936,0.005192355,0.019242255,103.410164,-1.8808717,50.198673,SIT
2180578339000,0.024793,6.99886989847915,0.543869604580246,6.57970318564871,-0.0027488936,0.0061086523,0.013439035,103.42495,-1.9093451,50.204315,SIT
2180583363000,0.029817,6.99669282086706,0.545320989486581,6.58284785723975,-0.009468411,0.004581489,0.026267206,103.43488,-1.935622,50.20969,SIT
2180588359000,0.034813,6.9945278766493,0.546764285464299,6.58597500279484,-0.00061086525,-0.0018325958,0.015271631,103.45773,-1.9707152,50.215366,SIT
2180593345000,0.039799,6.99236726578667,0.548204692538939,6.58909588905139,-0.005497787,-0.013439035,0.0143553335,103.47025,-1.9965574,50.222923,SIT
2180598431000,0.044885,6.99016332137284,0.549673988644358,6.59227936829343,-0.0106901415,-0.013439035,0.0076358155,103.489784,-2.0271294,50.22829,SIT
2180603364000,0.049818,6.98802567729233,0.551099084532684,6.59536708026767,-0.0067195175,-0.0143553335,0.013439035,103.50401,-2.0553832,50.236904,SIT
2180608352000,0.054806,6.98586419975867,0.55254006938794,6.59848921838393,-0.004886922,-0.01985312,0.009773844,103.52511,-2.085316,50.24605,SIT
2180613437000,0.059891,6.98366068868036,0.554009076603051,6.60167207169611,-0.009773844,-0.021380283,0.0033597588,103.54438,-2.1135554,50.253864,SIT
2180618363000,0.064817,6.98152607794844,0.555432150259223,6.60475540216137,-0.008552114,-0.020463986,0.0033597588,103.56205,-2.1421063,50.262066,SIT
2180623492000,0.069946,6.97930350010759,0.556913868647877,6.60796579638717,-0.008552114,-0.02565634,0.0012217305,103.58322,-2.1708717,50.271782,SIT
2180630067000,0.076521,6.97645431911645,0.558813322421595,6.61208128518316,-0.011301007,-0.025350908,0.0012217305,103.602776,-2.1983473,50.27919,SIT
2180633364000,0.079818,6.97502561193352,0.559765793766377,6.61414497591477,-0.01160644,-0.028710667,-0.002443461,103.62464,-2.2270043,50.2885,SIT
2180638358000,0.084812,6.97286153438678,0.56120851196348,6.61727086961016,-0.0125227375,-0.03481932,-0.0027488936,103.64456,-2.2537732,50.29806,SIT
2180643346000,0.0898,6.97070005685312,0.562649496818735,6.62039300772642,-0.004581489,-0.028099801,0.0030543262,103.66256,-2.2810283,50.30443,SIT
2180648378000,0.094832,6.96851951255694,0.564103192847533,6.62354268675629,-0.013439035,-0.032986723,0.00061086525,103.68435,-2.3063989,50.315155,SIT
2180653362000,0.099816,6.96635976836533,0.565543022141557,6.62666232115313,-0.009162978,-0.032375857,-0.002443461,103.703026,-2.3339727,50.321995,SIT
2180658352000,0.104806,6.96419742416064,0.566984584777428,6.6297857111291,-0.01282817,-0.030848695,-0.0036651916,103.7216,-2.3581238,50.32946,SIT
2180663382000,0.109836,6.96201774653548,0.568437703025611,6.63293413829926,-0.022907447,-0.0290161,-0.0015271631,103.73951,-2.3813155,50.33618,SIT
2180668367000,0.114821,6.95985756900836,0.569877821209943,6.63605439862596,-0.015577064,-0.03023783,-0.007330383,103.76106,-2.4085438,50.342728,SIT
2180673371000,0.119825,6.95768915810651,0.571323428310123,6.63918655161989,-0.017715093,-0.025350908,-0.0012217305,103.775604,-2.4286647,50.346867,SIT
2180678345000,0.124799,6.95553374727001,0.572760368701069,6.64229992671818,-0.022602014,-0.018936822,0.002443461,103.79329,-2.450953,50.350353,SIT
2180683334000,0.129788,6.95337183640084,0.574201642446632,6.6454226907643,-0.027183503,-0.0125227375,-0.006414085,103.81327,-2.4738963,50.351974,SIT
2180688359000,0.134813,6.95466705896219,0.572876252940309,6.64543792149626,-0.016493361,-0.022296581,-0.0015271631,103.82538,-2.4945104,50.35647,SIT
2180693357000,0.139811,6.95729989946344,0.570482758053846,6.64424116718005,-0.028710667,-0.027183503,0.00030543262,103.842,-2.5123267,50.357315,SIT
2180698377000,0.144831,6.95994432909855,0.568078727575645,6.64303914503773,-0.025045475,-0.025350908,-0.008552114,103.89949,-2.5524285,50.364803,SIT
2180703367000,0.149821,6.96257295536931,0.56568906381345,6.64184430629466,-0.032375857,-0.02443461,-0.008857546,103.95131,-2.5852396,50.373684,SIT
2180708353000,0.154807,6.96519947452483,0.563301315613389,6.64065042533816,-0.023823744,-0.022296581,-0.0030543262,104.003006,-2.6214256,50.381184,SIT
2180713430000,0.159884,6.96787393055221,0.560869988374779,6.63943475473725,-0.027794369,-0.008552114,-0.0036651916,104.05603,-2.6547015,50.38455,SIT
2180718371000,0.164825,6.97047674466119,0.558503790248726,6.63825164887963,-0.034208454,-0.015271631,-0.003970624,104.10573,-2.686999,50.392864,SIT
2180723362000,0.169816,6.97310589771076,0.556113647595998,6.63705657068992,-0.022296581,0.00061086525,0.0027488936,104.150185,-2.7197783,50.39066,SIT
2180728347000,0.174801,6.97573189008746,0.55372637828647,6.63586292918006,-0.026572637,0.0015271631,-0.0015271631,104.199265,-2.7502398,50.394093,SIT
2180733369000,0.179823,6.97837737328019,0.551321390027203,6.63466042814445,-0.025350908,-0.0030543262,-0.0015271631,104.219787685943,-2.76428136989587,50.3951668750465,SIT
2180739103000,0.185557,6.98139792298691,0.548575431708079,6.63328744109982,-0.030543262,-0.009468411,-0.0036651916,104.24322,-2.7803137,50.396393,SIT
2180743346000,0.1898,6.98363304548528,0.546543499174413,6.63227146899824,-0.02443461,-0.002443461,0.0027488936,104.28352,-2.809833,50.39322,SIT
2180748384000,0.194838,6.986286957139,0.54413084866661,6.63106513681637,-0.029932396,0.0015271631,0.0015271631,104.32758,-2.8380144,50.393593,SIT
2180753360000,0.199814,6.98890820850639,0.541747889371884,6.62987365032628,-0.025045475,0.0036651916,0.0015271631,104.346348597231,-2.85105111057596,50.392720727072,SIT
2180758350000,0.204804,6.99153683477715,0.539358225609689,6.62867881158322,-0.035430185,0.0061086523,0.005497787,104.36517,-2.8641245,50.391846,SIT
2180763386000,0.20984,6.99418969287325,0.536946532882953,6.62747295829462,-0.036957346,0.009162978,0.00580322,104.403885,-2.8904364,50.389153,SIT
2180768378000,0.214832,6.99681937270163,0.534555911339691,6.62627764065827,-0.043982297,0.005192355,-0.0009162979,104.44312,-2.9148653,50.38699,SIT
2180773360000,0.219814,6.9994437847419,0.532170078701764,6.62508471748834,-0.05131268,0.007330383,0.0036651916,104.475914,-2.9358647,50.382416,SIT
2180778352000,0.224806,7.00207346457028,0.529779457158502,6.62388939985198,-0.03970624,0.013744468,0.0036651916,104.51278,-2.9609907,50.377403,SIT
2180783365000,0.229819,7.00471420675371,0.527378778914036,6.62268905383615,-0.03848451,0.01863139,0.004886922,104.54612,-2.9811192,50.372295,SIT
2180788365000,0.234819,7.00734810081259,0.524984326246506,6.62149182062667,-0.046731193,0.020158553,0.003970624,104.57944,-3.0016084,50.366245,SIT
2180793370000,0.239824,7.00998462876552,0.522587479126308,6.62029339018397,-0.03634648,0.023823744,0.010079277,104.60797,-3.023411,50.358425,SIT
2180798382000,0.244836,7.01262484417014,0.520187279772376,6.61909328361478,-0.039095376,0.02565634,0.005497787,104.640854,-3.043423,50.350456,SIT
2180803360000,0.249814,7.01524714909515,0.517803362696583,6.61790131823141,-0.044593163,0.02107485,0.008857546,104.66684,-3.0612886,50.343685,SIT
2180809107000,0.255561,7.01827454692643,0.515051178800524,6.61652521838043,-0.03604105,0.019242255,0.004276057,104.697495,-3.0835426,50.335403,SIT
2180813361000,0.259815,7.02051546399172,0.51301397847099,6.6155066123658,-0.026572637,0.019547688,0.009468411,104.721634,-3.1016448,50.32818,SIT
2180818375000,0.264829,7.02315673295396,0.51061282133599,6.61430602690332,-0.025045475,0.027794369,0.009468411,104.749146,-3.1215744,50.31901,SIT
2180823352000,0.269806,7.02577851110017,0.508229383150731,6.6131143009666,-0.029321533,0.021685716,0.01038471,104.773796,-3.1403975,50.314026,SIT
2180829983000,0.276437,7.02927158140105,0.505053860023053,6.61152653028418,-0.027488936,0.02076942,0.0125227375,104.79673,-3.1599183,50.305336,SIT
2180833347000,0.279801,7.03104366532386,0.503442872268338,6.61072103178084,-0.032986723,0.012217305,0.009773844,104.82134,-3.1777966,50.300507,SIT
2180838375000,0.284829,7.03369230918946,0.50103501066587,6.60951709406538,-0.028405234,0.02443461,0.007330383,104.84351,-3.1969314,50.2901,SIT
2180843357000,0.289811,7.03631672122973,0.498649178027943,6.60832417089544,-0.03726278,0.029932396,0.014049901,104.86276,-3.2108054,50.284187,SIT
2180848399000,0.294853,7.0389727399987,0.496234611958006,6.607116880927,-0.029932396,0.022296581,0.009468411,104.88757,-3.2311077,50.27825,SIT
2180853361000,0.299815,7.04158661646273,0.493858357130749,6.6059287466899,-0.021380283,0.012217305,0.012217305,104.90547,-3.2465994,50.271927,SIT
2180858358000,0.304812,7.04421893018517,0.491465341134819,6.60473223182034,-0.019547688,0.029626964,0.01740966,104.92297,-3.262312,50.25993,SIT
2180863362000,0.309816,7.04685493135929,0.489068972905155,6.60353404082429,-0.019242255,0.01985312,0.020463986,104.941154,-3.2788062,50.258533,SIT
2180868365000,0.314819,7.0494904057546,0.486673083566024,6.60233608927487,-0.018325957,0.018020526,0.011301007,104.96102,-3.2969704,50.24983,SIT
2180873357000,0.319811,7.05212008558299,0.484282462022762,6.60114077163852,-0.021380283,0.018325957,0.009162978,104.9763,-3.311936,50.243565,SIT
2180878956000,0.32541,7.05506952015012,0.481601153925662,6.59980010989054,-0.021380283,0.014049901,0.012217305,104.9931,-3.3281493,50.23904,SIT
2180883344000,0.329798,7.05738102557619,0.479499782264638,6.59874941802589,-0.021380283,0.00580322,0.004581489,105.01528,-3.3462799,50.23522,SIT
2180888360000,0.334814,7.05950311074078,0.480935404079193,6.59649923708776,-0.016493361,0.009162978,0.013439035,105.027954,-3.3606584,50.2298,SIT
2180893347000,0.339801,7.06141720704864,0.483806532051971,6.59386737433885,-0.013439035,0.009162978,0.009773844,105.04953,-3.378778,50.227062,SIT
2180898382000,0.344836,7.06334972658143,0.486705294703451,6.591210179845,-0.0143553335,0.0076358155,0.0030543262,105.07821,-3.3913007,50.245743,SIT
2180903365000,0.349819,7.06526228762054,0.489574119786337,6.58858042807482,-0.017715093,0.007941248,0.009468411,105.10187,-3.4014847,50.26348,SIT
2180908353000,0.354807,7.06717676774559,0.492445823481587,6.58594803758122,-0.0290161,0.01160644,0.009162978,105.13061,-3.412619,50.279667,SIT
2180913366000,0.35982,7.06910084330029,0.495331920238662,6.58330245347047,-0.027794369,-0.0021380284,0.008552114,105.15665,-3.4237394,50.300243,SIT
2180918367000,0.364821,7.07102031304875,0.498211108326061,6.58066320229594,-0.021380283,-0.002443461,0.012217305,105.17948,-3.4325702,50.315464,SIT
2180923358000,0.369812,7.07293594462535,0.50108453918873,6.57802922856828,-0.022602014,-0.004276057,0.00580322,105.20701,-3.4422758,50.334057,SIT
2180928350000,0.374804,7.07485196001914,0.503958545773872,6.57539472709593,-0.027794369,-0.002443461,0.009468411,105.22762,-3.4491012,50.351387,SIT
2180933372000,0.379826,7.07677948992851,0.506849824033204,6.572744393283,-0.023518313,-0.004276057,0.012217305,105.251,-3.4587207,50.36941,SIT
2180938360000,0.384814,7.07869397005355,0.509721527728455,6.5701120027894,-0.021991149,-0.00580322,0.0125227375,105.27312,-3.4663484,50.386223,SIT
2180943339000,0.389793,7.08060499582392,0.512588049921448,6.56748436199797,-0.022602014,-0.009773844,0.010079277,105.2948,-3.4740994,50.40361,SIT
2180948738000,0.395192,7.08267722481251,0.515696375553095,6.56463506843843,-0.020463986,-0.0070249503,0.009773844,105.31457,-3.4818163,50.418957,SIT
2180953364000,0.399818,7.08445276311613,0.518359667713125,6.56219372152114,-0.015577064,-0.009773844,0.009468411,105.33522,-3.4901938,50.436283,SIT
2180958351000,0.404805,7.08636685942398,0.521230795685902,6.55956185877222,-0.013439035,-0.008246681,0.004276057,105.3573,-3.4993396,50.450855,SIT
2180963437000,0.409891,7.08831895363328,0.524158920183505,6.5568777492994,-0.020158553,-0.007941248,0.00580322,105.3761,-3.5060678,50.466118,SIT
2180968361000,0.414815,7.0902088694584,0.526993777640484,6.55427913446569,-0.020158553,-0.013439035,0.003970624,105.39828,-3.5159936,50.481777,SIT
2180973365000,0.419819,7.09212949065842,0.529874692895302,6.55163830005711,-0.020463986,-0.018936822,0.00580322,105.41753,-3.5232215,50.496925,SIT
2180978346000,0.4248,7.09404128406316,0.532742366533242,6.54900960377631,-0.025961773,-0.014966198,0.00061086525,105.43996,-3.5311954,50.51011,SIT
2180983367000,0.429821,7.09596843015535,0.535633069070101,6.54635979770806,-0.019547688,-0.022907447,-0.0033597588,105.4612,-3.5403428,50.527718,SIT
2180988359000,0.434813,7.09788444554914,0.538507075655243,6.54372529623572,-0.020158553,-0.023823744,-0.0070249503,105.48351,-3.5480332,50.541496,SIT
2180993343000,0.439797,7.09979739040543,0.541376476460601,6.54109501672085,-0.021685716,-0.028710667,-0.004276057,105.50457,-3.5558755,50.558117,SIT
2180998401000,0.444855,7.10173873773351,0.544288480728961,6.53842568409923,-0.02076942,-0.02443461,-0.002443461,105.52663,-3.5647535,50.571655,SIT
2181003374000,0.449828,7.10364746060076,0.547151548587116,6.53580120977592,-0.028710667,-0.026267206,0.00030543262,105.54688,-3.5706525,50.587795,SIT
2181008352000,0.454806,7.10555810255394,0.550017495057637,6.53317409672917,-0.03145956,-0.030543262,0.00030543262,105.56683,-3.577587,50.602814,SIT
2181013448000,0.459902,7.1075140349351,0.552951376779969,6.53048470980948,-0.030543262,-0.03268129,-0.00061086525,105.58539,-3.5831163,50.61723,SIT
2181018352000,0.464806,7.1093962744165,0.555774719787489,6.5278966498695,-0.03176499,-0.03726278,0.009468411,105.598724,-3.585099,50.633278,SIT
2181023358000,0.469812,7.11131766325089,0.558656786487253,6.52525475997155,-0.03359759,-0.036651913,0.0012217305,105.62,-3.5911903,50.64733,SIT
2181030082000,0.476536,7.11389845001127,0.562527944395605,6.5217062047031,-0.040011674,-0.038789943,0.004276057,105.63158,-3.5913336,50.663464,SIT
2181033381000,0.479835,7.11516466290873,0.564427252833984,6.51996517498409,-0.031154128,-0.041233405,0.0061086523,105.64686,-3.5958164,50.67866,SIT
2181038357000,0.484811,7.11707453722754,0.567292047859558,6.51733911742672,-0.03726278,-0.037873644,0.004581489,105.66163,-3.5963469,50.692223,SIT
2181043364000,0.489818,7.11899630987912,0.570174690281795,6.51469669978408,-0.035430185,-0.03573562,0.0030543262,105.67528,-3.5993426,50.706284,SIT
2181048390000,0.494844,7.12092537505724,0.573068271431019,6.51204425499241,-0.036957346,-0.030543262,0.010995574,105.68463,-3.5987182,50.718204,SIT
2181053360000,0.499814,7.12283294647292,0.575929612121756,6.50942136390315,-0.028405234,-0.03145956,0.002443461,105.70182,-3.6040971,50.730247,SIT
2181058352000,0.504806,7.12474896186671,0.578803618706898,6.5067868624308,-0.022296581,-0.0290161,-0.0033597588,105.71346,-3.6062837,50.739708,SIT
2181063355000,0.509809,7.12666919924955,0.581683958239243,6.50414655576691,-0.030848695,-0.03145956,0.0027488936,105.72342,-3.60646,50.750477,SIT
2181068371000,0.514825,7.12859442625581,0.584571782163737,6.5014993884221,-0.027488936,-0.02443461,0.005192355,105.73666,-3.6117966,50.757164,SIT
2181073356000,0.51981,7.13050775492929,0.587441758691568,6.49886858116255,-0.028710667,-0.03359759,0.00030543262,105.75086,-3.6148815,50.76872,SIT
2181078345000,0.524799,7.13242261887152,0.590314038109292,6.49623566292426,-0.027794369,-0.027794369,0.0061086523,105.75783,-3.6159165,50.774036,SIT
2181083323000,0.529777,7.1343332608247,0.593179984579812,6.49360854987751,-0.03176499,-0.03390302,0.007941248,105.76933,-3.617663,50.784687,SIT
2181088355000,0.534809,7.13085539167754,0.605359760930629,6.49694086795503,-0.032070424,-0.03756821,0.009773844,105.77751,-3.6188302,50.792812,SIT
2181093358000,0.539812,7.1260453595121,0.619789852404377,6.50175084989459,-0.03359759,-0.03481932,0.008857546,105.78581,-3.619169,50.80043,SIT
2181098431000,0.544885,7.11745235924847,0.614800494060588,6.48342185011166,-0.029932396,-0.03848451,0.009162978,105.81636,-3.6337907,50.825336,SIT
2181103402000,0.549856,7.10820728389164,0.60555566486455,6.46030976505486,-0.019547688,-0.038789943,0.0125227375,105.844734,-3.6484332,50.84768,SIT
2181108352000,0.554806,7.08776227277148,0.599693214554295,6.45112211262156,-0.019242255,-0.034513887,0.014049901,105.8912,-3.6689675,50.87221,SIT
2181113387000,0.559841,7.06334007463533,0.594808774927066,6.44623772399716,-0.024129177,-0.034513887,0.016493361,105.93464,-3.688854,50.897205,SIT
2181118375000,0.564829,7.05985929985952,0.583244413873385,6.44869685463102,-0.018325957,-0.02443461,0.018020526,106.0009,-3.7157423,50.929684,SIT
2181123367000,0.569821,7.06209784580446,0.569812848351751,6.45317401664638,-0.023823744,-0.030543262,0.011911872,106.06861,-3.7401369,50.965435,SIT
2181128345000,0.574799,7.06433011377599,0.556418951483424,6.45763862251826,-0.027183503,-0.022602014,0.018325957,106.1417,-3.76523,50.992702,SIT
2181134157000,0.580611,7.06693636959168,0.540781079125304,6.46285121579416,-0.01282817,-0.018325957,0.023518313,106.21678,-3.7933817,51.021572,SIT
2181138360000,0.584814,7.07545266039425,0.549250554663825,6.48247355434204,-0.014966198,-0.012217305,0.029626964,106.296326,-3.8188019,51.053864,SIT
2181143376000,0.58983,7.09080830126798,0.574843132675546,6.51830308018114,-0.0290161,-0.01863139,0.025045475,106.37716,-3.845157,51.087357,SIT
2181148394000,0.594848,7.10069455648698,0.589893081158072,6.53708985754827,-0.022296581,-0.02687807,0.030848695,106.441666,-3.8654063,51.127136,SIT
2181153361000,0.599815,7.10736650843892,0.598788859956987,6.54598566189163,-0.02687807,-0.046120327,0.036957346,106.50779,-3.8815787,51.170742,SIT
2181158315000,0.604769,7.11402099806443,0.607661356065267,6.55485818347749,-0.032375857,-0.048563786,0.044898596,106.59114,-3.9054189,51.208668,CSO
2181163362000,0.609816,7.1208004104867,0.6167004129604,6.56389726632849,-0.034208454,-0.054367006,0.04428773,106.6754,-3.9290576,51.251842,CSO
2181168379000,0.614833,7.11608293520484,0.63155391342284,6.56787700596476,-0.021685716,-0.056199603,0.04428773,106.75855,-3.952768,51.293636,CSO
2181173391000,0.619845,7.09061094263426,0.657025677256421,6.5627826606453,-0.025045475,-0.059253927,0.04337143,106.841515,-3.973137,51.336285,CSO
2181178369000,0.624823,7.08059919173423,0.66815037217718,6.55677329664327,-0.029626964,-0.07544186,0.047647487,106.930595,-3.999038,51.38451,CSO
2181183387000,0.629841,7.08772639893217,0.663398900711885,6.54964606463813,-0.019242255,-0.09193522,0.053450707,107.018326,-4.0262547,51.432587,CSO
2181188381000,0.634835,7.09481951825193,0.658670154498715,6.54255292062982,-0.014049901,-0.10293079,0.05681047,107.11729,-4.05788,51.481842,CSO
2181193368000,0.639822,7.10190269527388,0.653948036484082,6.53546971895392,-0.012217305,-0.1328632,0.062002823,107.21338,-4.0883603,51.54016,CSO
2181198351000,0.644805,7.09206287068693,0.635305655378997,6.51347516472562,-0.011911872,-0.14996742,0.0711658,107.30948,-4.118604,51.599716,CSO
2181203710000,0.650164,7.05660556446901,0.594782845913936,6.46788716936439,-0.0030543262,-0.16829337,0.07147124,107.40778,-4.1508555,51.66648,CSO
2181208289000,0.654743,7.023115348625,0.5587707578125,6.418794945,-0.009162978,-0.1777618,0.08552113,107.49942,-4.1743135,51.74021,CSO
2181213395000,0.659849,6.980798735375,0.516454169110577,6.34826733807692,-0.015577064,-0.18417588,0.09468412,107.59293,-4.1996775,51.816303,CSO
2181218293000,0.664747,6.94961762632187,0.483177021731436,6.29315480352499,-0.02321288,-0.17195857,0.10354166,107.671104,-4.213063,51.89133,CSO
2181223356000,0.66981,6.93911040187807,0.465664962705865,6.26513553834152,-0.0290161,-0.15607607,0.10842858,107.746124,-4.224121,51.965466,CSO
2181230940000,0.677394,6.92825100326603,0.442040139578385,6.22673304245843,-0.028710667,-0.121256754,0.11301007,107.80587,-4.224927,52.03695,CSO
2181233343000,0.679797,6.96013762888955,0.453428240543349,6.24039872556413,-0.027794369,-0.105374254,0.116675265,107.86324,-4.223831,52.10776,CSO
2181238358000,0.684812,7.02668420712589,0.477194918171021,6.26891865930325,-0.02107485,-0.08307768,0.11209377,107.92472,-4.2222524,52.168144,CSO
2181243337000,0.689791,7.08938232170106,0.495119110894309,6.32036311494684,-0.017715093,-0.062308256,0.11484267,107.97953,-4.217708,52.223454,CSO
2181248419000,0.694873,7.15025717198249,0.508163678211382,6.39428240087555,-0.005192355,-0.058643065,0.11636983,108.03597,-4.217181,52.2759,CSO
2181253328000,0.699782,7.20548704705988,0.521985737323413,6.46817243918071,0.0125227375,-0.04734206,0.12736541,108.0919,-4.2197423,52.323597,CSO
2181258351000,0.704805,7.25291873718179,0.539233618910004,6.55009988347078,0.02107485,-0.063224554,0.12522738,108.15364,-4.225307,52.376423,CSO
2181263510000,0.709964,7.30203897660565,0.560869176638146,6.6388816391747,0.03940081,-0.09132435,0.13194689,108.20536,-4.232202,52.424583,CSO
2181268376000,0.71483,7.3525108804289,0.621435513928301,6.77010858911513,0.054367006,-0.129198,0.129198,108.263145,-4.242362,52.478508,CSO
2181273642000,0.720096,7.39949426785714,0.675335914285714,6.89722482366072,0.0729984,-0.17073683,0.129198,108.32127,-4.257109,52.53379,CSO
2181278347000,0.724801,7.42135900194099,0.692827701552795,6.97156496520769,0.07819075,-0.23182335,0.13591751,108.38006,-4.270812,52.60419,CSO
2181283338000,0.729792,7.43934238684512,0.705010499260368,7.03650418672185,0.08246681,-0.26847526,0.15088372,108.44157,-4.2946796,52.663708,CSO
2181288362000,0.734816,7.42663282143172,0.679591545381703,7.01955812899533,0.087964594,-0.31673363,0.15271631,108.50935,-4.320476,52.741993,CSO
2181293349000,0.739803,7.41401685751519,0.654359793193625,7.00273687304746,0.092240654,-0.33658674,0.15118915,108.563095,-4.344386,52.81292,CSO
2181298384000,0.744838,7.40357140430401,0.571329034972706,6.82754242274827,0.09773844,-0.34972036,0.15057829,108.61732,-4.3682356,52.893772,CSO
2181303706000,0.75016,7.39310577376159,0.47581279123888,6.61825704659612,0.09682214,-0.32742378,0.14874569,108.67116,-4.391734,52.968006,CSO
2181308321000,0.754775,7.38896701030059,0.409593911226707,6.42373909655398,0.12767084,-0.29871312,0.16279559,108.710945,-4.4120193,53.0443,CSO
2181313352000,0.759806,7.38445517520367,0.337406005410619,6.21168713411368,0.14782938,-0.25717425,0.16157386,103.52563,-4.4205894,53.136063,CSO
2181318360000,0.764814,7.36779415670308,0.273858637517378,6.03372509580933,0.15943582,-0.21838433,0.16768251,103.53128,-4.427761,53.21881,CSO
2181323308000,0.769762,7.34897161092354,0.212684995213505,5.8643211028004,0.15974127,-0.18570304,0.17165314,103.536285,-4.4368773,53.289303,CSO
2181328381000,0.774835,7.33753425069582,0.181421465635189,5.78895418353877,0.15485434,-0.15393804,0.16920967,103.544754,-4.435931,53.384167,CSO
2181333313000,0.779767,7.32814384035785,0.157945915340954,5.73730800524851,0.15790866,-0.14996742,0.17592919,103.54884,-4.4330783,53.475655,CSO
2181338384000,0.784838,7.34088991751709,0.131279630748994,5.75985456891677,0.16310102,-0.1572978,0.17531833,103.55286,-4.4222274,53.59165,CSO
2181343351000,0.789805,7.35870405999438,0.104558535151016,5.79993627323284,0.17348573,-0.17623462,0.17470746,103.5539,-4.4110227,53.707123,CSO
2181348364000,0.794818,7.40583593628961,0.0703702197392328,5.83534503292456,0.17531833,-0.20189096,0.17592919,103.556175,-4.395153,53.83195,CSO
2181353406000,0.79986,7.46741956634945,0.0324726373886,5.86850529690964,0.18173242,-0.19486602,0.16707164,103.558426,-4.38406,53.949257,CSO
2181358359000,0.804813,7.54232146252185,0.0624260882095717,5.89014541820367,0.17684549,-0.18753563,0.15271631,103.560196,-4.3650837,54.06574,CSO
2181363320000,0.809774,7.62538189401224,0.12991264732736,5.90571933719406,0.17012598,-0.16157386,0.15943582,103.558556,-4.3439584,54.17232,CSO
2181368324000,0.814778,7.73421999339075,0.208767866641298,5.96251462948127,0.17134771,-0.110872045,0.16646078,103.5556,-4.317624,54.27222,CSO
2181373271000,0.819725,7.84808273332666,0.289420770390547,6.02893451982776,0.17379116,-0.06414085,0.17837265,103.55127,-4.2878532,54.363567,CSO
2181378273000,0.824727,7.94232526740105,0.376648214697797,6.12423818483135,0.16707164,-0.029932396,0.17928895,103.55488,-4.270603,54.44804,CSO
2181383281000,0.829735,8.03115843877949,0.465481547183662,6.22709795476701,0.16310102,-0.014049901,0.17562376,103.5562,-4.252556,54.522457,CSO
2181388273000,0.834727,8.0916666072123,0.47902402435213,6.27557224522715,0.16615535,0.01282817,0.18325958,103.56008,-4.247224,54.584488,CSO
2181393261000,0.839715,8.14233223705144,0.466357652161923,6.30512704901008,0.17959438,0.022907447,0.18600847,103.564674,-4.244724,54.64463,CSO
2181398324000,0.844778,8.13582758548928,0.443092511605528,6.33965730829184,0.1572978,0.006414085,0.17562376,103.57696,-4.2546673,54.69971,CSO
2181403321000,0.849775,8.06774773848186,0.409052565252007,6.37856007801036,0.16462818,0.0015271631,0.17837265,103.57809,-4.2675166,54.747787,CSO
2181408327000,0.854781,7.99954527417945,0.374951310209836,6.4175329147546,0.16493362,-0.017104227,0.18600847,103.57744,-4.270193,54.80409,CSO
2181413364000,0.859818,7.93092046141652,0.340638880795651,6.45674709347627,0.14966199,-0.044898596,0.16920967,103.58334,-4.276333,54.862045,CSO
2181418335000,0.864789,7.83800698208277,0.31741249157395,6.40832972971411,0.12583824,-0.052839845,0.17073683,103.58695,-4.2753544,54.918148,CSO
2181423330000,0.869784,7.72445226363918,0.302601009697595,6.28983790563526,0.1160644,-0.060170226,0.16707164,103.59577,-4.2790394,54.979424,CSO
2181429836000,0.87629,7.52113373906321,0.276947841568895,6.09657246712142,0.09682214,-0.044898596,0.16371189,103.60014,-4.2620435,55.007675,CSO
2181433351000,0.879805,7.39866915698045,0.261639752824011,5.98329260081855,0.063224554,-0.038179077,0.1518,103.61165,-4.244267,55.03913,CSO
2181438334000,0.884788,7.25872228138528,0.242529516147186,5.85955461471861,0.058337633,-0.012217305,0.13316862,103.62524,-4.2307487,55.066788,CSO
2181443319000,0.889773,7.16572154951299,0.22702939237013,5.78722086201299,0.057726767,0.018325957,0.13255776,103.642494,-4.2112756,55.090687,CSO
2181448342000,0.894796,7.10940586256972,0.21502039869398,5.76877637141758,0.03970624,0.04917465,0.12095132,103.670395,-4.1941667,55.11161,CSO
2181453360000,0.899814,7.08167535603001,0.205777004293133,5.79188484535488,0.023823744,0.086132,0.10415252,103.69908,-4.1788683,55.121487,CSO
2181458987000,0.905441,7.04704430975828,0.224700103403959,5.81533851089227,0.029932396,0.1301143,0.09193522,103.72508,-4.1636877,55.120964,CSO
2181463491000,0.909945,7.01700984744852,0.259025332473888,5.83250102238138,0.02107485,0.15027285,0.07788532,103.76033,-4.14806,55.116142,CSO
2181468394000,0.914848,7.00527698592022,0.270780241324052,5.85574635120458,0.02107485,0.17837265,0.06078109,103.779805296495,-4.1399982079503,55.1001293636731,CSO
2181473390000,0.919844,7.01472508884281,0.256607924155806,5.88409105460111,-0.009468411,0.1966986,0.058643065,103.79965,-4.1317835,55.083813,CSO
2181478355000,0.924809,7.02629555461752,0.264155503224336,5.94045751426873,-0.01985312,0.24220806,0.04734206,103.83793,-4.118963,55.046535,CSO
2181483388000,0.929842,7.04062384532303,0.297587973740587,6.03120262395957,-0.028099801,0.25259277,0.03573562,103.87705,-4.1114407,54.99962,CSO
2181488346000,0.9348,7.06489882971199,0.330357611069749,6.1119642336011,-0.03359759,0.25809056,0.03176499,103.91655,-4.1002345,54.939228,CSO
2181493353000,0.939807,7.10247825803292,0.363239415877743,6.18242549615987,-0.047036625,0.2593123,0.024129177,103.96171,-4.0900965,54.878185,CSO
2181498340000,0.944794,7.12330633005464,0.390424947459016,6.24698260095628,-0.06291912,0.26542094,0.014966198,104.00871,-4.085393,54.80042,CSO
2181503361000,0.949815,7.11861418399688,0.409193551288056,6.30328825565964,-0.0888809,0.25717425,-0.0061086523,104.06362,-4.081458,54.72765,CSO
2181508293000,0.954747,7.10120098457781,0.430957263054531,6.33505713930814,-0.10445796,0.2501493,-0.013744468,104.118195,-4.0813584,54.647285,CSO
2181513427000,0.959881,7.05708691939986,0.460366494826039,6.32035258739906,-0.13500121,0.24709499,-0.025961773,104.18485,-4.080421,54.56926,CSO
2181518294000,0.964748,7.00891585594796,0.483224671596654,6.31550000786245,-0.14813483,0.23854288,-0.040011674,104.24987,-4.083529,54.482243,CSO
2181523352000,0.969806,6.94589063754647,0.49673009098513,6.32900538494424,-0.16432275,0.23457226,-0.04642576,104.32078,-4.082006,54.396904,CSO
2181528364000,0.974818,6.88074648536013,0.510139187546249,6.33813371415156,-0.19058995,0.22571471,-0.065973446,104.39951,-4.0888205,54.314445,CSO
2181533353000,0.979807,6.80447287870223,0.523599255622124,6.32916040102357,-0.2125811,0.204029,-0.06291912,104.47544,-4.0895996,54.239468,CSO
2181538515000,0.984969,6.72530592892715,0.538415717474954,6.32280701570859,-0.21960606,0.1966986,-0.070249505,104.56137,-4.098748,54.150223,CSO
2181543363000,0.989817,6.64853484751483,0.560995410687676,6.34538669005933,-0.21777347,0.18570304,-0.073303826,104.64645,-4.103708,54.070614,CSO
2181548642000,0.995096,6.56855494110157,0.583901649831211,6.3680093249926,-0.21471913,0.16646078,-0.06780604,104.73063,-4.1106954,53.988457,CSO
2181553366000,0.99982,6.55069256964762,0.579436049973349,6.35907820920936,-0.20799962,0.15363261,-0.06841691,104.81447,-4.1203856,53.90939,CSO
2181558723000,1.005177,6.53117059381898,0.575031217660044,6.35217130684327,-0.1994475,0.13316862,-0.061391957,104.88739,-4.1300917,53.822548,CSO
2181563417000,1.009871,6.52720123136424,0.582970042045033,6.40377351613245,-0.1872302,0.11026118,-0.044898596,104.95518,-4.13913,53.74251,CSO
2181568318000,1.014772,6.52305682459161,0.591258959452539,6.45765132348786,-0.16920967,0.10781772,-0.04153884,105.02833,-4.153268,53.661926,CSO
2181573356000,1.01981,6.55780397668075,0.613397627771802,6.56228148939685,-0.16310102,0.09101892,-0.04550946,105.098114,-4.165019,53.594055,CSO
2181578344000,1.024798,6.60827092420284,0.640924977913946,6.68615462731464,-0.14630222,0.074830994,-0.030848695,105.156715,-4.176206,53.52921,CSO
2181583366000,1.02982,6.68892746637711,0.675933686550843,6.8189830206745,-0.14080444,0.03970624,-0.025350908,105.217896,-4.190569,53.464844,CSO
2181588359000,1.034813,6.78666269867144,0.715027779468574,6.95581229485948,-0.1255328,-0.003970624,-0.021685716,105.27053,-4.2061377,53.409584,CSO
2181593348000,1.039802,6.89839569789464,0.748502677172934,7.09511592030891,-0.10354166,-0.06047566,-0.0106901415,105.3147,-4.223237,53.353638,CSO
2181599026000,1.04548,7.03337596202997,0.783497610542429,7.25509280033097,-0.08368854,-0.16401732,0.020463986,105.35038,-4.236668,53.32569,CSO
2181603357000,1.049811,7.150565771562,0.839804315692568,7.41115048086248,-0.01282817,-0.20586158,0.025961773,105.37992,-4.2714725,53.283787,CSO
2181608352000,1.054806,7.2979147972973,0.930115012567568,7.62029099189189,0.007330383,-0.32436943,0.047036625,105.40378,-4.2897463,53.295326,CSO
2181613374000,1.059828,7.32138998905385,0.982217055071929,7.57022989971413,0.06688975,-0.45998153,0.074830994,105.40624,-4.327649,53.316177,CSO
2181618365000,1.064819,7.21339971192826,0.993236468756916,7.24625893026097,0.116980694,-0.56505036,0.089491755,105.40487,-4.3647246,53.361942,CSO
2181623362000,1.069816,7.10527961279048,1.00426912958318,6.92189849460531,0.16829337,-0.6246097,0.09162979,105.39499,-4.4229603,53.413578,CSO
2181630079000,1.076533,6.95994387016322,1.01909930424198,6.48589108089727,0.21197024,-0.5708536,0.13439035,105.36552,-4.4742117,53.463364,CSO
2181633391000,1.079845,6.9089047803963,1.03852546539787,6.33967735993108,0.2556471,-0.54336464,0.16126843,105.330795,-4.5357018,53.535038,CSO
2181638360000,1.084814,6.93499417086466,1.12797501541353,6.46267053984962,0.2660318,-0.50885075,0.2171626,105.278755,-4.5809846,53.590584,CSO
2181643337000,1.089791,6.96112556477914,1.21756857758459,6.58586173656015,0.27916542,-0.5342017,0.28527406,105.216194,-4.6383862,53.733826,CSO
2181648403000,1.094857,6.97485222839682,1.27218390104909,6.72190112350784,0.2843578,-0.6093381,0.344528,105.143745,-4.683937,53.879498,CSO
2181653450000,1.099904,6.97977523813404,1.30172201087798,6.86466840588715,0.26939157,-0.70707655,0.40683624,105.0578,-4.7107415,54.037743,CSO
2181658355000,1.104809,7.02714434449602,1.30060952132437,6.88306861557408,0.27000242,-0.7516697,0.46273044,104.967545,-4.7498245,54.172806,CSO
2181663390000,1.109844,7.10023164323607,1.28233770856385,6.83282126165214,0.28985557,-0.75716746,0.49754974,104.86907,-4.779022,54.321926,CSO
2181668480000,1.114934,7.26215742745683,1.30141884118525,6.69829553525901,0.32528573,-0.74097955,0.54702985,104.74947,-4.7972875,54.45785,CSO
2181673360000,1.119814,7.49129829038584,1.35123213557877,6.49904235768493,0.37751472,-0.70066243,0.6065892,104.61579,-4.8105445,54.586563,CSO
2181678338000,1.124792,7.73406229081633,1.49300094928764,6.32310596798229,0.40683624,-0.6575964,0.636827,104.47568,-4.815781,54.7244,CSO
2181683369000,1.129823,7.98452138520408,1.68780245100116,6.16077131864652,0.42210788,-0.5815437,0.7098254,104.30868,-4.803276,54.841827,CSO
2181688357000,1.134811,8.27147597333795,1.72894517873961,6.09619447126039,0.44073927,-0.5183192,0.8026769,104.143684,-4.7970495,55.004196,CSO
2181693355000,1.139809,8.5887443950831,1.65317964231302,6.10566510768698,0.44837508,-0.4709771,0.9074403,103.96221,-4.771328,55.148052,CSO
2181698357000,1.144811,8.83187890903686,1.76007795839279,6.20011014967301,0.44898596,-0.46944994,0.93859446,103.809135,-4.7878222,55.335392,CSO
2181703363000,1.149817,9.01239550713436,2.0213525171522,6.3663758681629,0.4465425,-0.5170974,0.9431759,103.64177,-4.785725,55.519302,CSO
2181708354000,1.154808,9.12713796652645,2.00607751298666,6.49680276233778,0.41905355,-0.5693264,1.0002918,103.4728,-4.743788,55.73756,CSO
2181713435000,1.159889,9.18375475870402,1.7360600396044,6.59697058679853,0.38026363,-0.5525276,1.031446,103.3155,-4.7035985,55.93941,CSO
2181718335000,1.164789,9.18779022246094,1.47275763539062,6.72413805955078,0.34147367,-0.5112942,1.0024298,103.164345,-4.703935,56.139168,CSO
2181723357000,1.169811,9.0656747015625,1.195649364375,6.93079497796875,0.2773328,-0.47403142,0.9914343,103.01688,-4.680926,56.32862,CSO
2181728310000,1.174764,8.92260110655738,0.920707925655738,7.12816640901639,0.19242255,-0.44501534,0.9941832,102.851265,-4.5879445,56.50903,CSO
2181733372000,1.179826,8.70081969862753,0.634239821839497,7.30836405625238,0.11148291,-0.41416663,0.9764681,102.70815,-4.494239,56.670612,CSO
2181738346000,1.1848,8.47587298662924,0.377871013307956,7.46483006920442,0.00061086525,-0.4129449,0.9468411,102.54578,-4.325831,56.799328,CSO
2181743365000,1.189819,8.20599307441949,0.272663755538637,7.49684964613628,-0.0888809,-0.44165558,0.9251554,102.4021,-4.1541657,56.923313,CSO
2181748454000,1.194908,7.92586941770092,0.171788231998983,7.52707284994914,-0.1731803,-0.46120325,0.90316427,102.25227,-3.918215,57.003727,CSO
2181753362000,1.199816,7.55768763434385,0.162225066395727,7.52229116978637,-0.2406809,-0.5015204,0.88208944,102.127144,-3.6810517,57.09381,CSO
2181758357000,1.204811,7.20029081866084,0.162482725911602,7.51689748255958,-0.2846632,-0.55680364,0.8200866,102.01647,-3.4351614,57.165062,CSO
2181763402000,1.209856,7.05287963782469,0.285989343038674,7.50494540455183,-0.36560285,-0.64476824,0.79626286,101.928856,-3.174082,57.254074,CSO
2181768373000,1.214827,6.90763068243589,0.407684366574586,7.49316863948215,-0.42485678,-0.7302894,0.84238315,101.837425,-2.9122427,57.32558,CSO
2181773357000,1.219811,6.96833777906437,0.624649216416973,7.35665372298473,-0.48533243,-0.76083267,0.8735373,101.77701,-2.6514437,57.4014,CSO
2181778345000,1.224799,7.13917268105548,0.892444344269283,7.15349854803789,-0.52442783,-0.7837401,0.88453287,101.726,-2.3832223,57.495712,CSO
2181784066000,1.23052,7.46030702342,1.10870995354023,7.08902364957353,-0.5656612,-0.78954333,0.97249746,101.66636,-2.1110027,57.57792,CSO
2181788363000,1.234817,7.75633075798993,1.23134834713801,7.11439741028671,-0.64934975,-0.80756384,1.0479393,101.631584,-1.8309644,57.66556,CSO
2181793359000,1.239813,8.15594668265134,1.33452270825324,7.0347373770435,-0.7275405,-0.7819075,1.1093313,101.60123,-1.5815686,57.78599,CSO
2181798369000,1.244823,8.58853980610324,1.41533689224215,6.89212412578024,-0.83016586,-0.75228053,1.1572843,101.59087,-1.3051845,57.90653,CSO
2181803358000,1.249812,8.86377991043084,1.35588913038549,6.68943211337869,-0.9166033,-0.6618725,1.1743884,101.60056,-1.0415586,58.029224,CSO
2181808360000,1.254814,9.04324558498472,1.20948281448289,6.44857025455979,-0.9932669,-0.57848936,1.219287,101.62662,-0.7504286,58.141247,CSO
2181813363000,1.259817,9.30121291017016,1.10458820071231,6.20995860174119,-1.0503827,-0.4804455,1.2437216,101.67545,-0.4665787,58.29155,CSO
2181818407000,1.264861,9.61662209457855,1.02812534242184,5.97101212592006,-1.1102476,-0.36774087,1.2660183,101.74506,-0.16561866,58.40833,CSO
2181823386000,1.26984,9.81188854358093,0.947003904594246,5.78241135916702,-1.181108,-0.23304509,1.31672,101.846306,0.17881636,58.549507,CSO
2181830996000,1.27745,9.97878029826821,0.816619782510376,5.54771980871619,-1.2574661,-0.0070249503,1.3567317,101.97252,0.52980477,58.625484,CSO
2181833402000,1.279856,10.0315452866753,0.775397154687276,5.47351903731215,-1.3839152,0.059253927,1.3707817,102.12024,0.92001635,58.790924,CSO
2181838358000,1.284812,9.78821492933681,0.984776586465875,5.3469163272034,-1.4330899,0.13652839,1.4110987,102.27195,1.3190843,58.880386,CSO
2181843326000,1.28978,9.44374966434984,1.27872051904624,5.22750184588281,-1.4651603,0.16462818,1.4706581,102.460236,1.7350634,58.9574,CSO
2181848379000,1.294833,9.29794232718106,1.31486793070136,4.99644102390384,-1.4434745,0.3494149,1.5974126,102.65099,2.1920776,59.02761,CSO
2181853777000,1.300231,9.23743583559917,1.23109006674169,4.69856395826956,-1.4865406,0.634689,1.6991217,102.87893,2.6635084,59.050285,CSO
2181858358000,1.304812,9.42142281985784,1.09791966542203,4.62603259867837,-1.541213,0.8784242,1.752267,103.08024,3.095087,59.008648,CSO
2181863442000,1.309896,9.8648318638383,0.887029913605064,4.72877383568414,-1.5357152,0.9776898,1.7931949,103.28051,3.5379975,58.92158,CSO
2181868366000,1.31482,10.1012089037528,0.640096529997029,4.73391742533914,-1.4950926,0.9761627,1.8646661,103.50492,4.0107446,58.85728,CSO
2181873359000,1.319813,10.2527238841469,0.370211526107535,4.69603890272304,-1.4306464,0.9593639,1.8689423,103.73429,4.4640994,58.76743,CSO
2181878338000,1.324792,9.96137614031907,0.144391720290065,4.58376612465555,-1.4245378,0.96852684,1.8481728,103.966774,4.9639606,58.68284,CSO
2181883352000,1.329806,9.43470843455403,-0.0601814431327048,4.43142433372009,-1.4391985,1.0439687,1.8283197,104.20025,5.4490314,58.580032,CSO
2181888360000,1.334814,8.80059131030105,-0.399088582406463,4.36866900578051,-1.4877623,1.2599095,1.8255708,104.48215,5.9758053,58.452053,CSO
2181893360000,1.339814,8.03606808244686,-0.9010949207733,4.41472459874002,-1.5482379,1.5280794,1.7745636,104.78557,6.4797297,58.287785,CSO
2181898339000,1.344793,7.3710171483155,-1.43102095184304,4.56062483269917,-1.5900823,1.740966,1.6667458,105.119675,7.024197,58.019733,CSO
2181903355000,1.349809,6.86646411002774,-2.01649297491082,4.87954029357907,-1.6471981,1.8701639,1.5131133,105.48502,7.546253,57.710194,CSO
2181908303000,1.354757,6.39608467446531,-2.43371296875188,5.12973414864946,-1.7146988,1.8716911,1.3295482,105.8126,8.147474,57.24862,CSO
2181913438000,1.359892,5.96154632071493,-2.55222339605382,5.26305863072598,-1.8035797,1.8613064,1.1872166,106.14695,8.725195,56.770275,CSO
2181918294000,1.364748,5.70131232423367,-2.76254071732973,5.28783746872263,-1.8628336,1.8435913,1.0827587,106.55262,9.378808,56.172466,CSO
2181923403000,1.369857,5.71042979241591,-3.1682598164912,5.12372627830057,-1.8674151,1.8121318,0.93615097,107.074135,9.986543,55.603024,CSO
2181928332000,1.374786,5.75644370698286,-3.51018816483332,4.92302643464087,-1.851838,1.7660115,0.8240572,107.631325,10.60601,54.98323,CSO
2181933371000,1.379825,5.94421590287096,-3.67258598313177,4.5576313699653,-1.8075503,1.7449366,0.8023715,108.20851,11.203117,54.376534,CSO
2181938292000,1.384746,6.11931885916355,-3.88052787235634,4.32421639595376,-1.6975945,1.7470746,0.7687739,88.62137,11.839283,53.801456,CSO
2181943411000,1.389865,6.28184219206902,-4.21390879581775,4.37422355187861,-1.6157386,1.6887369,0.72601336,88.324745,12.4597025,53.257393,CSO
2181948744000,1.395198,6.4498491113391,-4.54368240297975,4.425609070488,-1.5503759,1.6505579,0.6973027,87.985695,13.090649,52.784306,CSO
2181953400000,1.399854,6.56521169854581,-4.41240804273352,4.45345518214827,-1.5033394,1.6490307,0.6731735,87.679886,13.695816,52.326885,CSO
2181958342000,1.404796,6.68766056151307,-4.2730700082969,4.48301177231689,-1.4330899,1.7208074,0.6743952,87.321976,14.347338,51.853428,CSO
2181963373000,1.409827,6.81032089722691,-4.31063998219974,4.54331629940041,-1.38025,1.8029687,0.6795876,86.99692,14.981101,51.385426,CSO
2181968339000,1.414793,6.93062031646993,-4.41757274761102,4.61460482518269,-1.3109168,1.815186,0.6450737,86.70858,15.583469,50.927803,CSO
2181973364000,1.419818,6.86104843582715,-4.52000258529507,4.65378444888746,-1.2672399,1.7858646,0.6395759,86.462654,16.144484,50.485462,CSO
2181978345000,1.424799,6.65594436979469,-4.61742683327959,4.66916756304418,-1.2373075,1.7953329,0.6249151,86.26004,16.678581,50.04286,CSO
2181983336000,1.42979,6.36027415830281,-4.79534318376068,4.68749048168498,-1.17897,1.7898352,0.59620446,86.055534,17.202312,49.62026,CSO
2181988365000,1.434819,6.02704268106431,-5.00606329843305,4.70709222191697,-1.1209377,1.8017471,0.5681047,85.87645,17.709663,49.200302,CSO
2181993543000,1.439997,5.73074048213287,-5.21431041016295,4.75581406162376,-1.0442741,1.8423696,0.5161811,85.733665,18.210152,48.746063,CSO
2181998462000,1.444916,5.46274410373156,-5.40962976118021,4.81032180844663,-1.0021244,1.8270979,0.45020768,85.61032,18.68959,48.316994,CSO
2182003455000,1.449909,5.14315336916667,-5.69143463742424,4.82352390797348,-0.9505063,1.8072448,0.37904188,85.503975,19.189602,47.827164,CSO
2182008351000,1.454805,4.81014172916667,-6.00224569924242,4.81908380160985,-0.9138544,1.8069394,0.35705075,85.41587,19.674356,47.347237,CSO
2182013348000,1.459802,4.8675221487468,-6.32282554605627,4.78087341386189,-0.82436264,1.7989981,0.28405234,85.35825,20.158674,46.833267,CSO
2182018368000,1.464822,5.22655203519182,-6.64742778462404,4.71693658828644,-0.74128497,1.7290541,0.22724187,85.29949,20.629818,46.344414,CSO
2182023355000,1.469809,5.31960623311253,-6.84796823785574,4.63958393719333,-0.6640105,1.6233743,0.18967366,85.210434,21.153372,45.805264,CSO
2182030119000,1.476573,5.2242517000736,-7.01748725404809,4.52303935426889,-0.5720753,1.5173893,0.06566802,85.16674,21.621109,45.312943,CSO
2182033343000,1.479797,5.16300875054079,-7.10151235474134,4.50687154494005,-0.42058071,1.4480561,0.06872234,85.02265,22.12312,44.8666,CSO
2182038357000,1.484811,4.99794267451161,-7.24644835792739,4.65583362995724,-0.3652974,1.4391985,-0.027794369,84.95623,22.568913,44.47257,CSO
2182043349000,1.489803,4.83360086128113,-7.39074842332523,4.80414211188899,-0.28008172,1.3674219,-0.10140363,84.831406,23.020073,44.098854,CSO
2182048365000,1.494819,4.51865329308686,-7.35408082727182,4.78344190969843,-0.20799962,1.314582,-0.17928895,84.75156,23.433826,43.745197,CSO
2182053297000,1.499751,4.16846498650436,-7.26890018164513,4.71719014270113,-0.11148291,1.2974777,-0.2846632,84.70466,23.798147,43.422558,CSO
2182058356000,1.50481,3.68060324837695,-7.26012222952002,4.71967780411542,-0.038179077,1.2382239,-0.35063666,84.66268,24.172173,43.06742,CSO
2182063356000,1.50981,3.16248325392583,-7.273407256802,4.7418196703875,0.02443461,1.2327261,-0.4810564,84.68942,24.48709,42.73759,CSO
2182068361000,1.514815,2.8026275468798,-7.32145751470438,5.18401709090071,0.0842994,1.2092078,-0.5748242,84.72991,24.78605,42.39431,CSO
2182073355000,1.519809,2.53798622963418,-7.39006818678143,5.87502488100215,0.16157386,1.1099422,-0.589485,84.77145,25.05464,42.084347,CSO
2182078341000,1.524795,2.26556338282127,-7.45253126102057,6.02026000785466,0.19547687,1.1142182,-0.700357,84.91002,25.311783,41.700962,CSO
2182083368000,1.529822,1.98688591423101,-7.51255406183988,5.90021445098406,0.26145032,1.0641272,-0.782213,85.011055,25.548212,41.35676,CSO
2182088356000,1.53481,1.70454915951848,-7.47218839308618,5.42124498651326,0.36163223,0.97005403,-0.8313876,85.20147,25.734327,40.926495,CSO
2182093367000,1.539821,1.41314667106637,-7.29836957747949,4.46012814004474,0.4529566,0.9294315,-0.9300423,85.43186,25.879154,40.52348,CSO
2182098358000,1.544812,1.33043441058999,-7.19472230228062,3.95588397191869,0.54550266,0.7861836,-0.9627236,85.5957,26.046766,40.129932,CSO
2182103359000,1.549813,1.41591635234507,-7.14723238973723,3.81816312636589,0.62858033,0.75869465,-1.0283916,85.81466,26.169086,39.745804,CSO
2182109207000,1.555661,1.38621787968229,-6.96638622292606,3.75741566122769,0.72509706,0.711658,-1.0864239,85.935684,26.316046,39.463257,CSO
2182113363000,1.559817,1.30425816087468,-6.77904965293195,3.76131850303981,0.83291477,0.6273586,-1.1129965,86.0519,26.43749,39.203865,CSO
2182118383000,1.564837,1.31172605452001,-6.55507121473736,3.94503400378726,0.9236283,0.6398814,-1.1982121,86.205956,26.51538,38.983192,CSO
2182123396000,1.56985,1.42635201820352,-6.33372423448872,4.30867502618146,0.9776898,0.6081163,-1.2363913,86.32445,26.584248,38.79084,CSO
2182128460000,1.574914,1.53449604171746,-6.10708562891669,4.65799324569565,1.0067059,0.45081854,-1.3069462,86.492424,26.578915,38.641533,CSO
2182133411000,1.579865,1.55984885736285,-5.85355800192493,4.81011008662175,1.0103711,0.3924809,-1.4056009,86.69136,26.557243,38.488117,CSO
2182138429000,1.584883,1.6114327491832,-5.58779668123298,4.9515927577888,0.9599747,0.35796702,-1.5222762,86.97689,26.429392,38.37411,CSO
2182143373000,1.589827,1.75876135315053,-5.29313937714897,5.04367302710035,0.89675015,0.27000242,-1.6157386,87.257774,26.292393,38.29799,CSO
2182148392000,1.594846,1.90311609610328,-5.00047337945711,5.12820728355244,0.86315256,0.26389378,-1.7046194,87.633026,26.080664,38.23079,CSO
2182153410000,1.599864,2.01674619781519,-4.74594208071503,5.16002390946751,0.82650065,0.15363261,-1.7754798,87.98743,25.872513,38.219116,CSO
2182158684000,1.605138,2.12331708534672,-4.48664727791971,5.19219184656934,0.8176431,0.18478674,-1.8347337,88.445145,25.57569,38.220177,CSO
2182163441000,1.609895,2.09422047817518,-4.3328512109489,5.20881842963504,0.816116,0.09682214,-1.8777997,88.86929,25.279823,38.280716,CSO
2182168329000,1.614783,2.0643225980292,-4.17481985182482,5.22590288160584,0.84574294,0.038789943,-1.887879,89.3571,24.913643,38.3605,CSO
2182173424000,1.619878,2.55228809037721,-4.11774090412149,5.84915693766688,0.84604836,0.06658431,-1.953547,89.871056,24.541023,38.450603,CSO
2182179121000,1.625575,3.21710614362512,-4.07863404388496,6.68506767672252,0.83016586,-0.12064589,-2.0357084,90.33705,24.166708,38.60543,CSO
2182183470000,1.629924,3.22714266421182,-3.81066746779678,6.8635178520844,0.8417723,-0.2049453,-2.0732768,90.867195,23.751799,38.72774,CSO
2182188331000,1.634785,3.01733766210181,-3.40536248587524,6.85874956110827,0.852157,-0.26083946,-2.1239784,91.39424,23.328598,38.896294,CSO
2182193385000,1.639839,2.80541961713804,-3.04826938651433,6.78380881653868,0.86315256,-0.35705075,-2.1468859,91.98796,22.79759,39.114513,CSO
2182198420000,1.644874,2.59769488760067,-2.72765093188799,6.67091485568459,0.8927795,-0.410196,-2.1859813,92.597946,22.25713,39.336468,CSO
2182203248000,1.649702,2.43265486371951,-2.42161828932927,6.59912046554878,0.92149025,-0.46303585,-2.189952,93.26568,21.64921,39.55697,CSO
2182208269000,1.654723,2.29551198672305,-2.10477082000393,6.56128801075925,0.9450085,-0.5357288,-2.1642957,93.921585,21.044735,39.786427,CSO
2182213289000,1.659743,2.21741009330822,-1.73830961409735,6.54757263701794,0.95325524,-0.573297,-2.1771238,94.64165,20.384546,40.0098,CSO
2182218284000,1.664738,2.20792538705264,-1.3162398886091,6.56179964688213,0.96883225,-0.63804877,-2.1734586,95.33021,19.73625,40.241116,CSO
2182223259000,1.669713,2.18847144712887,-0.994986483128481,6.6264659750048,0.9990701,-0.74464476,-2.1517727,96.0686,19.030537,40.477413,CSO
2182229634000,1.676088,2.14743393032456,-0.742898696255041,6.79061622586902,1.0088439,-0.829555,-2.1875083,96.81912,18.32542,40.71846,CSO
2182233245000,1.679699,2.17947523234051,-0.556373705437906,6.84134779397094,0.9795224,-0.8686504,-2.2385156,97.648834,17.533817,40.98072,CSO
2182238263000,1.684717,2.30329369710399,-0.234445723945172,6.85125331459342,0.91354895,-0.9266826,-2.28036,98.4747,16.753222,41.257286,CSO
2182243246000,1.6897,2.5003460576134,0.0287908056058724,6.86447418630717,0.8671232,-0.9147707,-2.3322835,99.38752,15.9186325,41.501823,CSO
2182248467000,1.694921,2.81561358272163,0.221715782540937,6.88329617137211,0.8188649,-0.92087936,-2.336865,100.28955,15.110562,41.74865,CSO
2182253239000,1.699693,3.11472125534811,0.403849946779463,6.94230037073123,0.7910705,-0.9324858,-2.3839016,101.29641,14.219479,42.0223,CSO
2182258241000,1.704695,3.45475754609101,0.60880327806301,7.10533147502917,0.7281514,-0.9578367,-2.3845124,102.28744,13.366275,42.277752,CSO
2182263323000,1.709777,3.78251739136417,0.826566873330511,7.33496960240237,0.659429,-0.981355,-2.38268,103.332466,12.46193,42.589386,CSO
2182268237000,1.714691,4.04648224415282,1.06562930694253,7.74834819016827,0.6200282,-1.0354166,-2.36863,104.368195,11.580707,42.89386,CSO
2182273244000,1.719698,4.22662177929123,1.31195050211839,8.02048931409622,0.5290093,-1.0613784,-2.4000895,105.47461,10.657987,43.231655,CSO
2182278287000,1.724741,4.23618341112651,1.56533389551574,8.00614681642249,0.44868052,-1.040609,-2.3985624,106.561775,9.76682,43.54405,CSO
2182283251000,1.729705,4.20328424238295,1.77113404553684,7.86985388562251,0.38606682,-0.97005403,-2.3539693,107.72638,8.829847,43.819263,CSO
2182288248000,1.734702,4.08216684645186,1.88759299028521,7.47855201221649,0.31123585,-0.8384125,-2.3420575,108.90196,7.925731,44.04918,CSO
2182293259000,1.739713,4.03197576394544,1.94334592243526,7.13066630600909,0.24007004,-0.6914995,-2.336865,110.126396,6.9946513,44.243435,CSO
2182298355000,1.744809,4.17667869353627,1.83240714069974,6.89914195107729,0.19058995,-0.6737844,-2.3625214,111.34624,6.0908175,44.414562,CSO
2182303297000,1.749751,4.4194649314193,1.74636667679821,6.70650175792838,0.15577064,-0.64965516,-2.3808472,112.5713,5.1980042,44.57168,CSO
2182308300000,1.754754,4.96387274373542,1.72206276566907,6.60442507740692,0.15088372,-0.6200282,-2.391232,113.791954,4.3227186,44.700325,CSO
2182313318000,1.759772,5.78647454884479,1.75088007776819,6.65944552940274,0.18051068,-0.6236934,-2.3848178,114.96193,3.4886148,44.88202,CSO
2182318278000,1.764732,7.28012973818426,1.91026397883233,7.10116674347618,0.2773328,-0.6569856,-2.4040601,116.13499,2.650155,45.042988,CSO
2182323275000,1.769729,8.67773834458259,2.01070790349319,7.5213691434774,0.38026363,-0.68966687,-2.3890939,117.25371,1.8259312,45.315235,CSO
2182328271000,1.774725,9.6267210017762,1.8596260830077,7.83769649867772,0.49418998,-0.7171558,-2.3362541,118.35321,1.0012047,45.570316,CSO
2182333236000,1.77969,10.487688820044,1.7303743226219,8.09743650764388,0.5839872,-0.73639804,-2.310598,119.43817,0.12609053,46.041805,CSO
2182338244000,1.784698,10.9189898096523,1.71120541199041,8.06868329181655,0.6267477,-0.72082096,-2.3057108,120.49724,-0.72826976,46.469765,CSO
2182343256000,1.78971,11.3067202275711,1.66985351652079,8.02386556838074,0.63407815,-0.6618725,-2.2021692,121.44581,-1.5081604,46.975098,CSO
2182348287000,1.794741,11.4648629622041,1.51171043160931,7.8944759444997,0.6236934,-0.5662721,-2.0775528,122.36837,-2.2594967,47.42206,CSO
2182353240000,1.799694,11.6002769561965,1.33552754097844,7.7817980296289,0.59437186,-0.4813618,-1.9581286,123.243866,-2.9671803,47.903633,CSO
2182358253000,1.804707,11.6191797016439,1.03780759776553,7.75344366473078,0.54244834,-0.43371433,-1.7931949,124.032326,-3.6082737,48.332035,CSO
2182363290000,1.809744,11.6090381511802,0.776911702527637,7.69813022557514,0.5354234,-0.3368922,-1.7446312,124.796,-4.2086515,48.74076,CSO
2182368242000,1.814696,11.3965001458022,0.786357821304651,7.45725372084454,0.52870387,-0.33078352,-1.7211128,125.49189,-4.7519073,49.133167,CSO
2182373245000,1.819699,11.193623299881,0.811225060493852,7.21860650099167,0.5131268,-0.26542094,-1.7324139,126.13434,-5.222117,49.46536,CSO
2182378278000,1.824732,11.0884663413328,0.964180460968862,7.0178524888933,0.49357912,-0.17654006,-1.7195857,126.74524,-5.668181,49.76709,CSO
2182383251000,1.829705,11.0020033562401,1.10481252650079,6.8073924328594,0.50823987,-0.10598512,-1.6749926,127.3774,-6.120975,50.04406,CSO
2182388248000,1.834702,11.0870539934834,1.14261294677133,6.47663918720379,0.56382865,-0.08582657,-1.5879441,127.97258,-6.5544734,50.29451,CSO
2182393304000,1.839758,11.1672888851123,1.18087877922878,6.14767648459551,0.59803706,-0.030848695,-1.5473217,128.61053,-7.01993,50.515053,CSO
2182398310000,1.844764,11.1768182951699,1.2189956234347,5.8903873881932,0.6197228,0.037873644,-1.4767667,129.18303,-7.456159,50.716244,CSO
2182403369000,1.849823,11.1842429073142,1.27803532084691,5.65435053360971,0.62796944,0.11209377,-1.3747523,129.7512,-7.892198,50.956326,CSO
2182408251000,1.854705,11.1657832514066,1.57339155016287,5.7051149487711,0.64599,0.20005837,-1.284955,130.27531,-8.309971,51.161217,CSO
2182413494000,1.859948,11.1506410961841,1.88042972606216,5.7668144645358,0.6478226,0.23762658,-1.1780536,130.76933,-8.709504,51.397038,CSO
2182418248000,1.864702,11.1909392879622,2.04162300747443,5.90561962265932,0.6603453,0.27672195,-1.0262536,131.18509,-9.073754,51.603565,CSO
2182423531000,1.869985,11.2230808348722,2.21434503058606,6.05838235461172,0.6453791,0.3173445,-1.024421,131.6897,-9.496498,51.76144,CSO
2182428768000,1.875222,11.0037284612693,2.25821545440762,6.18024493708815,0.6221663,0.38331795,-0.95447695,132.0791,-9.860229,51.906406,CSO
2182433252000,1.879706,10.8159155830499,2.29577798647099,6.28458555572942,0.5742133,0.48166725,-0.8854492,132.49463,-10.2382145,51.99386,CSO
2182438243000,1.884697,10.6190587836351,2.38798438514554,6.44419839253776,0.5488624,0.56505036,-0.8072584,132.85721,-10.588785,52.065693,CSO
2182443262000,1.889716,10.4219291116335,2.48414525218566,6.6076717460138,0.535118,0.5858198,-0.7153232,133.16841,-10.90592,52.1282,CSO
2182448280000,1.894734,10.1648733403141,2.45933025396548,6.72262305778554,0.54428095,0.5861252,-0.59528816,133.43488,-11.203753,52.12985,CSO
2182453245000,1.899699,9.90670633769633,2.42705939067287,6.83326625833818,0.54367006,0.58551437,-0.47861293,133.6508,-11.470599,52.13148,CSO
2182458262000,1.904716,9.54154040365297,2.3931240507864,7.09865673564688,0.53878313,0.5751296,-0.36346483,133.83145,-11.725586,52.093376,CSO
2182463248000,1.909702,9.16361071050228,2.35920736128869,7.38452650331811,0.52870387,0.5662721,-0.29626966,133.97508,-11.958314,52.060837,CSO
2182468532000,1.914986,8.79552694809689,2.16160798512111,7.40803279930796,0.5348125,0.56169057,-0.1966986,134.04518,-12.154161,51.998207,CSO
2182473246000,1.9197,8.47008695963091,1.97068301064975,7.40369359946174,0.52381694,0.5925393,-0.1020145,134.07945,-12.327068,51.935425,CSO
2182478281000,1.924735,8.09106768098035,1.9907576046587,7.50330499039903,0.49449542,0.6835582,-0.035430185,134.05287,-12.476525,51.787487,CSO
2182483248000,1.929702,7.71048501377355,2.05820256297347,7.62374261717642,0.47219884,0.73945236,0.045814894,133.97734,-12.597546,51.654163,CSO
2182488278000,1.934732,7.34108649365933,2.19704696351831,7.63814815248047,0.43371433,0.73914695,0.12522738,133.82858,-12.667588,51.491184,CSO
2182493241000,1.939695,6.97944204372527,2.34652666277772,7.63332613249467,0.40133846,0.74097955,0.18967366,133.64305,-12.718836,51.322598,CSO
2182498299000,1.944753,6.61075246362199,2.5038380709569,7.56143506979043,0.36865717,0.7113526,0.25167647,133.43764,-12.765062,51.112774,CSO
2182503241000,1.949695,6.25050137742191,2.65823140757216,7.48189896342428,0.34330627,0.6533204,0.30390546,133.21562,-12.79428,50.919132,CSO
2182508258000,1.954712,5.94349911416617,2.61221861159594,7.37209177585176,0.35124752,0.60048056,0.3200934,133.02675,-12.856669,50.691135,CSO
2182513281000,1.959735,5.64638150846782,2.5307507857641,7.25707868669058,0.36713,0.5491679,0.33933565,132.82584,-12.903394,50.48714,CSO
2182518261000,1.964715,5.46821949358525,2.31534775449534,7.21566377629548,0.3839288,0.4905248,0.35460728,132.6671,-12.989457,50.263824,CSO
2182523238000,1.969692,5.31056652109853,2.07647954029267,7.1869996584344,0.40622538,0.45875978,0.35918877,132.51013,-13.077004,50.050926,CSO
2182528276000,1.97473,5.19991644599136,1.98089554387902,7.17474340465674,0.44684792,0.40683624,0.3585779,132.35457,-13.165252,49.845844,CSO
2182533301000,1.979755,5.09826327724436,1.91158668142103,7.16550222942871,0.44806966,0.3567453,0.3894266,132.19026,-13.242201,49.654755,CSO
2182538437000,1.984891,5.10330062239738,1.91591718573037,7.17133547782782,0.47158796,0.35063666,0.44593164,131.9737,-13.286647,49.466022,CSO
2182543259000,1.989713,5.1363905299826,1.93955288336575,7.18078973713788,0.50426924,0.35705075,0.48258355,131.76057,-13.3307295,49.29011,CSO
2182548268000,1.994722,5.22559651401329,1.99304941987865,7.19013728084369,0.5522222,0.31245756,0.5021312,131.53566,-13.36587,49.12758,CSO
2182553375000,1.999829,5.32922685495522,2.05428541417702,7.19955825222961,0.6053675,0.28008172,0.539394,131.28818,-13.396285,48.96699,CSO
2182558355000,2.004809,5.38547635829979,2.08639107026603,7.16971753017571,0.62858033,0.26633725,0.5726862,131.04506,-13.43012,48.818176,CSO
2182563357000,2.009811,5.42779768764111,2.10990307266123,7.12739605352901,0.6404922,0.23762658,0.5907067,130.80254,-13.466942,48.68553,CSO
2182568365000,2.014819,5.60106634773969,1.99625286368604,7.05717429115748,0.6927212,0.18081611,0.6084218,130.56999,-13.51744,48.57878,CSO
2182573360000,2.019814,5.82444433581719,1.82990755235966,6.97637787088922,0.7089091,0.12522738,0.6200282,130.33902,-13.561091,48.481716,CSO
2182578342000,2.024796,5.86659013381369,1.74656708924344,6.86596424863613,0.6988298,0.084910266,0.65118235,130.11272,-13.606653,48.410824,CSO
2182583370000,2.029824,5.83354714256305,1.6970023004632,6.74205238450849,0.72021013,0.06078109,0.7122689,129.87749,-13.651572,48.355354,CSO
2182588361000,2.034815,5.79164466836293,1.58826507895193,6.66155271763751,0.7657196,0.038179077,0.7440339,129.6251,-13.662919,48.360584,CSO
2182593352000,2.039806,5.73471776331745,1.38125832836726,6.65120233687744,0.82650065,-0.01740966,0.72601336,129.37904,-13.678616,48.381866,CSO
2182598365000,2.044819,5.67207647613499,1.24249152302129,6.61060350276215,0.840856,-0.10323623,0.7101309,129.1308,-13.68216,48.438206,CSO
2182603361000,2.049815,5.60479627348333,1.16560009224588,6.54332335029128,0.9089675,-0.12186762,0.68294734,128.8945,-13.712844,48.48754,CSO
2182608791000,2.055245,5.70297749668731,1.21526784988696,6.61212366283299,0.9831876,-0.10048734,0.6227771,128.64511,-13.721786,48.545544,CSO
2182613348000,2.059802,5.89173468111668,1.33967592086897,6.7579814830925,1.0803152,-0.06261369,0.5888741,128.39798,-13.747168,48.60265,CSO
2182618358000,2.064812,6.12835615194122,1.49299926578374,6.98640910785559,1.219287,-0.05131268,0.55833083,128.1642,-13.794585,48.657818,CSO
2182623354000,2.069808,6.39310472414731,1.66226486970247,7.28153883463353,1.303281,-0.116675265,0.5381723,127.947365,-13.853889,48.720016,CSO
2182629992000,2.076446,6.70698836390132,1.8186682172062,7.67597358603102,1.3460416,-0.21838433,0.50335294,127.77537,-13.955881,48.783554,CSO
2182633383000,2.079837,6.84558245541792,1.859232300229,7.878794001145,1.3820826,-0.2941316,0.45662177,127.62338,-14.076836,48.85319,CSO
2182638316000,2.08477,6.97371121563836,1.87645152797801,8.09599920647526,1.3942999,-0.31031954,0.40317106,127.51339,-14.225908,48.915592,CSO
2182643344000,2.089798,6.97861369480758,1.82252425711668,8.18424362675626,1.4202617,-0.3295618,0.32436943,127.445015,-14.396655,48.98954,CSO
2182648344000,2.094798,6.89416148175394,1.79276138866518,8.22466222659956,1.4443909,-0.36041048,0.23884831,127.38902,-14.573457,49.047546,CSO
2182653362000,2.099816,6.68018465530926,1.79741305669345,8.19675260700803,1.4636332,-0.36071593,0.15424347,127.3617,-14.76779,49.092644,CSO
2182658290000,2.104744,6.33837039125952,1.90787305773345,8.30751308056278,1.5176947,-0.34574974,0.12522738,127.32615,-14.961589,49.12863,CSO
2182663373000,2.109827,5.71915337488677,2.23624573203238,8.70156044646815,1.5399913,-0.37201694,0.067500606,127.34175,-15.174533,49.161865,CSO
2182668293000,2.114747,5.18658628766268,2.53353999134427,8.94783156070601,1.5925257,-0.41538838,-0.019547688,127.37935,-15.420981,49.161087,CSO
2182673356000,2.11981,4.83215895665894,2.77991009365306,8.80951841629524,1.6123788,-0.49754974,-0.12370021,127.45622,-15.678038,49.167934,CSO
2182678583000,2.125037,4.48645166468054,3.0366596594555,8.645846240077,1.5824465,-0.54183745,-0.22052236,127.58856,-16.0241,49.007164,CSO
2182683370000,2.129824,4.41921307389312,3.30141204675039,8.23821184187368,1.5464053,-0.55955255,-0.3277292,127.77102,-16.392485,48.84878,CSO
2182688292000,2.134746,4.35007826214135,3.57363081639014,7.8190815916216,1.4877623,-0.5726862,-0.4297437,128.06406,-16.840248,48.639305,CSO
2182693380000,2.139834,4.29623297179102,3.60091449633528,7.48762495089269,1.4468343,-0.5992588,-0.50732356,128.38663,-17.296295,48.42838,CSO
2182698350000,2.144804,4.24703520238677,3.57855183142266,7.18349224106371,1.4395039,-0.6719518,-0.59712076,128.75563,-17.766281,48.218826,CSO
2182703358000,2.149812,4.34234718839618,3.63900350663834,6.88065577883696,1.4306464,-0.73761976,-0.6899723,129.2679,-18.320055,48.031025,CSO
2182708355000,2.154809,4.49483331040892,3.7321895511772,6.57991886604709,1.4242324,-0.7693848,-0.7535023,129.79808,-18.87796,47.842445,CSO
2182713369000,2.159823,4.74361068562577,3.89419426009913,6.44145867744734,1.4150693,-0.75319684,-0.8151997,130.3856,-19.45741,47.67867,CSO
2182718370000,2.164824,5.10464281152416,4.13653092509294,6.49586071635688,1.3625349,-0.784351,-0.86132,130.99371,-20.030018,47.523357,CSO
2182723355000,2.169809,5.55707287474246,4.37322835001908,6.57643076928653,1.3158038,-0.82711154,-0.906524,131.66496,-20.632198,47.42404,CSO
2182728341000,2.174795,6.09451031446013,4.60551065263258,6.6811856115414,1.2415836,-0.9098838,-0.9416488,132.34952,-21.2185,47.329952,CSO
2182733370000,2.179824,6.77028477953284,4.8816045793024,6.86819353970881,1.1585059,-1.0073168,-0.9462303,133.08824,-21.815168,47.2742,CSO
2182738359000,2.184813,7.62106281134388,5.21190653173772,7.1634635357704,1.1157454,-1.104139,-0.9456194,133.83841,-22.40082,47.225307,CSO
2182743350000,2.189804,8.43843154688576,5.41124634310735,7.42307693023714,1.0784826,-1.1863003,-0.9086621,134.6252,-22.965899,47.25469,CSO
2182748415000,2.194869,9.23549848135393,5.48761197057955,7.65217401200433,1.0299188,-1.2647965,-0.8713993,135.41335,-23.507116,47.295193,CSO
2182753355000,2.199809,9.95541576783626,5.71446372274854,7.81170612859649,0.98837996,-1.287093,-0.80878556,136.20476,-24.014605,47.412533,CSO
2182758355000,2.204809,10.6228051440546,6.10649681241715,7.90504721046784,0.9660834,-1.3213016,-0.7602218,136.98735,-24.495045,47.540085,CSO
2182763372000,2.209826,11.0521858540965,6.71193617281145,7.85370699492144,0.93737274,-1.3200798,-0.6383542,137.69644,-24.875496,47.762333,CSO
2182768368000,2.214822,11.1640584990647,7.59349312915264,7.6120620350636,0.8970556,-1.3029755,-0.50640726,138.369,-25.221275,47.98222,CSO
2182773338000,2.219792,10.9117419633257,8.3475463764365,7.4150497247127,0.816116,-1.276403,-0.4089743,139.03973,-25.541803,48.277203,CSO
2182778351000,2.224805,9.75554588757869,8.8033085789947,7.32389728420106,0.7180721,-1.1276573,-0.38423425,139.63112,-25.824926,48.52976,CSO
2182783296000,2.22975,8.52607370106689,8.94533497956504,7.31240093106278,0.5693264,-0.9443977,-0.4801401,140.40585,-26.251884,48.734207,CSO
2182788357000,2.234811,7.0344376636746,8.28404305923266,7.50631355102585,0.37293324,-0.8072584,-0.6750061,141.13858,-26.65297,48.876507,CSO
2182793337000,2.239791,5.94108594126306,7.63894496248813,7.63144099995252,0.1518,-0.80481493,-0.8356637,141.90747,-27.173616,48.785454,CSO
2182798405000,2.244859,5.57618825674264,6.99365187568851,7.62760005275404,0.004886922,-0.93462384,-0.9624182,142.68813,-27.694508,48.657013,CSO
2182803298000,2.249752,5.22389063038936,6.37064100873694,7.62389173494777,-0.09285152,-1.153619,-1.0326678,143.37534,-28.186426,48.383263,CSO
2182808356000,2.25481,5.04945272595698,5.6587860685381,7.20101858724025,-0.11942416,-1.2452488,-1.0757337,144.07062,-28.679064,48.09249,CSO
2182813344000,2.259798,4.92319449876048,4.94042087313161,6.68292468319358,-0.1133155,-1.2391402,-1.1756102,144.81697,-29.180967,47.8017,CSO
2182818366000,2.26482,5.54989847274223,4.64862654920798,6.11681728685456,-0.115453534,-1.2027937,-1.273654,145.47551,-29.589542,47.534164,CSO
2182823355000,2.269809,6.63600115559556,4.62405395378523,5.5270783836042,-0.13836098,-1.1548407,-1.3148874,146.12436,-29.99835,47.254974,CSO
2182830110000,2.276564,8.22416355054255,4.59266665316962,4.750429692747,-0.14966199,-1.0855075,-1.3014483,146.72353,-30.327143,47.0607,CSO
2182833366000,2.27982,9.0077224608795,4.57782653285742,4.37942634403198,-0.124311075,-0.93218035,-1.2357804,147.26501,-30.649506,46.843216,CSO
2182838348000,2.284802,9.92467142738589,4.60596715975104,4.37497127759336,-0.057726767,-0.7012733,-1.1578951,147.77496,-30.898998,46.815937,CSO
2182843346000,2.2898,10.6339909253112,4.67217046431535,4.79110548838174,0.0143553335,-0.54519725,-1.0800097,148.22813,-31.131746,46.785343,CSO
2182848362000,2.294816,10.8621471246414,4.741262225413,5.23766919801167,0.0693332,-0.50610185,-1.0442741,148.65428,-31.27672,47.025715,CSO
2182853365000,2.299819,10.6915210196854,4.8123563945692,5.70689106087645,0.03023783,-0.49754974,-1.0454959,149.02255,-31.404617,47.233997,CSO
2182858357000,2.304811,10.2775941545858,4.90883426355399,5.97235555508506,0.0033597588,-0.48808134,-1.0928379,149.35277,-31.485876,47.470806,CSO
2182864049000,2.310503,9.55689307026627,5.04491058570636,6.06811287731139,-0.08368854,-0.5140431,-1.2547172,149.71742,-31.58073,47.66894,CSO
2182868358000,2.314812,9.08162426584806,5.21052098318858,6.02478840606968,-0.25625798,-0.49754974,-1.3023647,150.03577,-31.65852,47.74922,CSO
2182873353000,2.319807,8.64227918498553,5.50182637132874,5.79078928612359,-0.30665436,-0.41538838,-1.35551,150.37628,-31.781216,47.779877,CSO
2182878338000,2.324792,8.37845487517046,5.6241765746145,5.54764949956992,-0.37873647,-0.37384954,-1.4498887,150.76239,-31.97029,47.6773,CSO
2182883369000,2.329823,8.42899602779817,5.44222821405643,5.28483508370922,-0.38728857,-0.30573806,-1.4834863,151.10025,-32.1553,47.55829,CSO
2182888358000,2.334812,8.30668475249501,5.43710975221557,5.240333829501,-0.38453966,-0.22693644,-1.4804319,151.49963,-32.433212,47.357952,CSO
2182893348000,2.339802,7.97760371457086,5.64218919053892,5.45495183708583,-0.3811799,-0.20830505,-1.5015068,151.89809,-32.718212,47.14603,CSO
2182898419000,2.344873,7.66645709937704,5.80816147760308,5.67432747149214,-0.36957347,-0.23304509,-1.5555683,152.29463,-32.990185,46.976868,CSO
2182903436000,2.34989,7.38614818620587,5.92218524216355,5.89287335923069,-0.36163223,-0.26511553,-1.5781704,152.67232,-33.254013,46.809795,CSO
2182908319000,2.354773,7.16910402671697,6.0583990370618,6.11974040089789,-0.35002577,-0.26206118,-1.5488489,153.0392,-33.562923,46.55252,CSO
2182913352000,2.359806,7.02177351625752,6.23335407832649,6.37296462560894,-0.3640757,-0.27091873,-1.5848899,153.42967,-33.88452,46.286495,CSO
2182918303000,2.364757,6.86300651769412,6.36976454352941,6.5685654672,-0.3912592,-0.30482176,-1.6438384,153.80923,-34.229156,45.958202,CSO
2182923359000,2.369813,6.67160372654118,6.43356531529412,6.6551525008,-0.42730024,-0.3359759,-1.6756034,154.18114,-34.56525,45.634304,CSO
2182928308000,2.374762,6.49945193226598,6.48544178213811,6.71028394147315,-0.44837508,-0.3231477,-1.7046194,154.56284,-34.939262,45.238785,CSO
2182933889000,2.380343,6.37369170512532,6.49637751612276,6.63920181330946,-0.46273044,-0.3203988,-1.720502,154.95094,-35.305023,44.852516,CSO
2182938309000,2.384763,6.2931918525046,6.4919196532202,6.55668397497444,-0.47219884,-0.31490102,-1.7510452,155.33347,-35.693367,44.419624,CSO
2182943339000,2.389793,6.25872046342261,6.44759929582907,6.38432708098548,-0.47647488,-0.30695978,-1.7947221,155.71,-36.078186,43.98652,CSO
2182948431000,2.394885,6.24125648114813,6.40700338074973,6.25377463842811,-0.4801401,-0.27947086,-1.840537,156.08362,-36.474663,43.538757,CSO
2182953361000,2.399815,6.2626316737414,6.37707809326331,6.22384921702282,-0.48166725,-0.2602286,-1.8597792,156.45012,-36.86545,43.094685,CSO
2182958342000,2.404796,6.28928852252374,6.34459075144166,6.19653916833446,-0.48441613,-0.22999077,-1.9147571,156.82227,-37.2711,42.646023,CSO
2182963384000,2.409838,6.37118510597015,6.28726322854478,6.20063408302239,-0.49021935,-0.20830505,-1.9538525,157.18033,-37.66749,42.202274,CSO
2182968300000,2.414754,6.45103508697422,6.23136832522049,6.20462666545115,-0.49968776,-0.1685988,-1.9691241,157.52144,-38.05637,41.75822,CSO
2182973356000,2.41981,6.51378483510097,6.16628496343284,6.20883748981563,-0.50671273,-0.13316862,-1.9953914,157.85703,-38.447353,41.307384,CSO
2182978357000,2.424811,6.56844826779631,6.09900658507463,6.2130424570676,-0.5161811,-0.10903945,-2.0082195,158.17374,-38.827454,40.859585,CSO
2182983355000,2.429809,6.54959422869029,5.98000299676425,6.20203192234206,-0.50915617,-0.086437434,-2.0360138,158.47105,-39.19097,40.42463,CSO
2182988359000,2.434813,6.4412951779661,5.7978638220339,6.17249572881356,-0.52687126,-0.08002335,-2.0638082,158.75975,-39.543198,39.99345,CSO
2182993340000,2.439794,6.27086468640436,5.64466963303467,6.22566883307363,-0.5476407,-0.09743301,-2.0888536,159.04225,-39.876324,39.57663,CSO
2182998382000,2.444836,6.03573503311258,5.51769942384106,6.36204393377483,-0.56199604,-0.14080444,-2.1303926,159.33186,-40.20947,39.160515,CSO
2183003561000,2.450015,5.79126072573427,5.42332459208791,6.46619759755245,-0.5644395,-0.15057829,-2.1587977,159.61142,-40.523727,38.744778,CSO
2183008356000,2.45481,5.56188603272727,5.37286222285714,6.52583499090909,-0.589485,-0.20189096,-2.1972823,159.91988,-40.83562,38.33823,CSO
2183013383000,2.459837,5.35985614553706,5.35701941803328,6.52720945491679,-0.59650993,-0.26297748,-2.2162192,160.22235,-41.139297,37.901978,CSO
2183018368000,2.464822,5.20577716116994,5.3859091898941,6.45498502526475,-0.5873469,-0.30573806,-2.2467623,160.53824,-41.44393,37.467525,CSO
2183023357000,2.469811,4.95609238412424,5.43982451164797,6.3471504986195,-0.5751296,-0.40775254,-2.2815816,160.88914,-41.75518,37.016502,CSO
2183030002000,2.476456,4.47839669292494,5.54963958671268,6.14948313416739,-0.573297,-0.44257188,-2.307238,161.23018,-42.06114,36.56513,CSO
2183033427000,2.479881,4.27284608301887,5.59220448679245,6.0567338154717,-0.57451874,-0.44318274,-2.329229,161.59758,-42.38778,36.103077,CSO
2183038361000,2.484815,4.16586041291405,5.58824197794549,5.96559805662893,-0.5656612,-0.4578435,-2.356718,161.97748,-42.713474,35.649593,CSO
2183043343000,2.489797,4.05783394180293,5.58424092016771,5.8735756912956,-0.56413406,-0.4633413,-2.3909266,162.38115,-43.10086,35.132484,CSO
2183048368000,2.494822,4.02086192768294,5.59425167231706,5.81485034691025,-0.54733527,-0.4605924,-2.4211645,162.78172,-43.4866,34.619022,CSO
2183053296000,2.49975,4.00672751650195,5.60838608349805,5.76773597094939,-0.54092115,-0.45845437,-2.439185,163.17894,-43.864456,34.10967,CSO
2183058356000,2.50481,4.00647046682092,5.60527780692272,5.6681606197131,-0.52503866,-0.44593164,-2.4556782,163.56985,-44.259575,33.58751,CSO
2183063365000,2.509819,4.01091018852383,5.59639854894956,5.55273017334567,-0.5329799,-0.44501534,-2.4810293,163.95876,-44.646057,33.06886,CSO
2183068362000,2.514816,3.97987937116743,5.61372952471957,5.5185921663897,-0.5500842,-0.41783184,-2.506991,164.32993,-45.031666,32.548588,CSO
2183073358000,2.519812,3.92521561744911,5.64851575737432,5.5384697912339,-0.552833,-0.37720928,-2.5375342,164.69293,-45.41357,32.027477,CSO
2183078350000,2.524804,3.81151574690504,5.6289827455594,5.71497678617839,-0.56321776,-0.33964106,-2.581822,165.04483,-45.79513,31.513567,CSO
2183083369000,2.529823,3.66829720221069,5.58278305317186,5.96907417772972,-0.5821546,-0.30543262,-2.6230555,165.38174,-46.169167,30.995924,CSO
2183088353000,2.534807,3.46157874521217,5.52424674006759,6.11689034672362,-0.61850107,-0.28130344,-2.6789496,165.71674,-46.5457,30.453775,CSO
2183093345000,2.539799,3.21024419861059,5.4569250367255,6.19318851150019,-0.6768387,-0.2657264,-2.7281241,166.04189,-46.909416,29.908808,CSO
2183098381000,2.544835,2.98074909741848,5.37610485540343,6.18079292616012,-0.72112644,-0.22999077,-2.770274,166.36986,-47.25073,29.306704,CSO
2183103362000,2.549816,2.78132569375,5.28137886490385,6.06612429855769,-0.73273283,-0.14385876,-2.8179214,166.68294,-47.583828,28.692238,CSO
2183108356000,2.55481,2.67389196307908,5.20413194922789,5.93319242887225,-0.7440339,-0.061086524,-2.8457158,167.00214,-47.908703,28.025583,CSO
2183113384000,2.559838,2.64234633343004,5.14104054875994,5.78447727061301,-0.7290677,0.022296581,-2.8744264,167.30157,-48.22945,27.34565,CSO
2183118360000,2.564814,2.65668548270691,5.0717975972444,5.64443932956183,-0.7150178,0.09437868,-2.878397,167.59209,-48.54852,26.639019,CSO
2183123354000,2.569808,2.73585307437196,4.99262995695229,5.51404555191821,-0.69027776,0.15027285,-2.8732047,167.86394,-48.858986,25.929325,CSO
2183128335000,2.574789,2.83401969516029,4.91193332601861,5.36016938825233,-0.6123924,0.17165314,-2.8710666,168.1242,-49.17807,25.230913,CSO
2183133373000,2.579827,2.96873477317477,4.82711278694933,5.16059144086867,-0.5177083,0.17531833,-2.8573222,168.36739,-49.486603,24.542343,CSO
2183138355000,2.584809,3.05977713410978,4.72961770852745,4.97931480532712,-0.42210788,0.160963,-2.844494,168.59598,-49.79344,23.896097,CSO
2183143351000,2.589805,3.09369660431436,4.61332247607859,4.81940925916548,-0.32925636,0.15241088,-2.826168,168.81398,-50.10308,23.26371,CSO
2183148336000,2.59479,3.05977343405107,4.46792320786014,4.73296919321646,-0.24740042,0.13988814,-2.8179214,169.01317,-50.416553,22.691301,CSO
2183153369000,2.599823,2.94037538708079,4.28423390851753,4.73756142210366,-0.20097467,0.11759156,-2.7977629,169.20633,-50.726177,22.138435,CSO
2183158304000,2.604758,2.82489470350176,4.11808321640499,4.72200556470644,-0.10720685,0.06688975,-2.798679,169.39478,-51.057648,21.623663,CSO
2183163397000,2.609851,2.70886396046246,3.97420526368827,4.66631066071938,-0.01038471,0.034513887,-2.8026497,169.57549,-51.38759,21.121872,CSO
2183168291000,2.614745,2.6039961367231,3.87020934933221,4.62795618634977,0.09040806,0.025045475,-2.8127291,169.78197,-51.711487,20.605026,CSO
2183173354000,2.619808,2.51731133649174,3.87530844896414,4.63815433236933,0.16768251,0.017104227,-2.8215866,169.9907,-52.042492,20.100382,CSO
2183178300000,2.624754,2.44066605442049,3.91025795594343,4.67798481371638,0.24220806,0.01038471,-2.835331,170.21518,-52.384613,19.57998,CSO
2183183363000,2.629817,2.3783307208663,4.00615849606408,4.77868068376187,0.30757064,-0.0106901415,-2.8496864,170.44054,-52.733383,19.06851,CSO
2183188888000,2.635342,2.35289418532485,4.22844406798649,5.04131794363265,0.38912117,-0.050396383,-2.8447995,170.67293,-53.095505,18.548851,CSO
2183193344000,2.639798,2.38641938039123,4.55699129469715,5.44697301397596,0.4596761,-0.10262536,-2.8307495,170.90807,-53.460148,18.04081,CSO
2183198347000,2.644801,2.42405998876581,4.92586961050357,5.90242461113206,0.50762904,-0.18112154,-2.7861564,171.15636,-53.825565,17.533417,CSO
2183203363000,2.649817,2.472770825009,5.10596960020698,6.15899500533657,0.54305923,-0.2855795,-2.7250698,171.41273,-54.189106,17.052849,CSO
2183208303000,2.654757,2.52386083670806,5.22943736928546,6.35484044288157,0.5653558,-0.40958515,-2.654515,171.67859,-54.542374,16.607355,CSO
2183213387000,2.659841,2.56405022623221,5.26423791322953,6.58091837858321,0.6221663,-0.6081163,-2.5644124,171.9835,-54.85251,16.17511,CSO
2183218367000,2.664821,2.59355690595999,5.22489575917715,6.82188891168282,0.7031059,-0.81214535,-2.4620924,172.3023,-55.15253,15.790068,CSO
2183223378000,2.669832,2.70332381930733,5.21698538622755,6.90004977768247,0.8045095,-1.0564915,-2.3603833,172.66283,-55.42899,15.467012,CSO
2183230111000,2.676565,2.91725048357339,5.23263860329341,6.86874345251659,0.8790351,-1.2168436,-2.2366831,173.02835,-55.694393,15.197863,CSO
2183233367000,2.679821,3.05189091566328,5.24648488118123,6.84467427345858,0.9108001,-1.2971723,-2.1019874,173.42526,-55.90247,14.979783,CSO
2183238360000,2.684814,3.42414280236662,5.30108173473116,6.76029718604941,0.9462303,-1.2910637,-1.9654589,173.81558,-56.10824,14.807164,CSO
2183243353000,2.689807,3.74956591427159,5.38683172142716,6.6686085036272,0.9502009,-1.2880094,-1.8283197,174.18321,-56.277073,14.731313,CSO
2183248364000,2.694818,3.90608393963234,5.58603645396323,6.55003416845226,0.94989544,-1.2999213,-1.7595973,174.53734,-56.441376,14.67478,CSO
2183253361000,2.699815,3.96043203389675,5.7451858519631,6.36854452247549,0.9691377,-1.3411547,-1.6288722,174.82379,-56.569366,14.763567,CSO
2183258985000,2.705439,3.54686493218235,5.73998380813252,5.86914271980007,0.9868528,-1.4450017,-1.5036448,175.11597,-56.68629,14.876799,CSO
2183263806000,2.71026,3.19234732952142,5.73552451700391,5.44104597536582,1.029308,-1.4883732,-1.4966198,175.36475,-56.8344,15.027972,CSO
2183268375000,2.714829,2.85636082743517,5.73129831887767,5.03532640985657,1.0464121,-1.5586227,-1.4920384,175.6265,-56.961353,15.222631,CSO
2183273462000,2.719916,2.46028287393641,5.73663605951635,4.61226374339454,1.0876455,-1.5558738,-1.5589281,175.89137,-57.10923,15.389355,CSO
2183278349000,2.724803,1.80635640223018,5.8665828558352,4.56196169700851,1.1346822,-1.5653422,-1.6032158,176.1707,-57.256023,15.568755,CSO
2183283380000,2.729834,1.13316137887147,6.0003586553605,4.51017745404389,1.178359,-1.6187929,-1.6423112,176.40065,-57.62253,15.631838,CSO
2183288363000,2.734817,0.694871293496427,6.32249035398571,4.66303345175921,1.180497,-1.6261233,-1.6707164,176.62424,-57.984367,15.675546,CSO
2183293324000,2.739778,0.307438839347627,6.68380388405717,4.85892635962983,1.180497,-1.5986344,-1.6542231,176.84953,-58.34476,15.717832,CSO
2183298362000,2.744816,0.0328826659197578,7.32105566133611,5.12260926160106,1.1395692,-1.6194037,-1.5986344,177.16556,-58.794262,15.568436,CSO
2183303352000,2.749806,-0.170606361029523,8.10787992846329,5.42105975450416,1.1221595,-1.6362026,-1.4935656,177.45735,-59.228622,15.430695,CSO
2183308337000,2.754791,-0.12277855195484,8.96270187560109,5.59267996506377,1.1026118,-1.7073684,-1.3692545,177.79817,-59.694458,15.18636,CSO
2183313371000,2.759825,0.159443927744094,9.89000403826051,5.64811679797198,1.0937542,-1.7889189,-1.2140946,178.12024,-60.12672,14.982185,CSO
2183318323000,2.764777,0.276927316562912,10.3817594407888,5.23648525105951,1.110553,-1.840537,-1.1685852,178.42331,-60.603554,14.703871,CSO
2183323333000,2.769787,0.291521193091351,10.6055324140221,4.5165205672919,1.1215485,-1.856114,-1.181108,178.71799,-61.04869,14.459982,CSO
2183328618000,2.775072,0.193211308123215,10.6845750943154,3.95051777730908,1.1603385,-1.8817704,-1.2043208,178.89072,-61.50917,14.30157,CSO
2183333358000,2.779812,0.0505714142782327,10.680252811893,3.53556535015235,1.1713341,-1.8851302,-1.2406673,179.0613,-61.95333,14.135398,CSO
2183338356000,2.78481,-0.153552291492148,10.4673184106538,3.30901141960382,1.1899655,-1.892766,-1.2687671,178.89867,-62.418858,14.112837,CSO
2183343356000,2.78981,-0.404202566561429,10.0741412578261,3.26477889368778,1.2174544,-1.922393,-1.2834278,178.77032,-62.875233,14.06619,CSO
2183348330000,2.794784,-0.548650489574781,9.61074355268585,3.19176443297653,1.2385293,-1.9065105,-1.3075571,178.66684,-63.401188,13.957691,CSO
2183353262000,2.799716,-0.618226494005696,9.10051960414416,3.09899648196013,1.2965615,-1.9135354,-1.2983941,178.59079,-63.921593,13.8440485,CSO
2183358276000,2.80473,-0.669428542639594,8.67648943781726,3.00298517817259,1.3622295,-1.964848,-1.2586879,178.53052,-64.43286,13.693869,CSO
2183363313000,2.809767,-0.703709597583756,8.33367863269036,2.90503930690355,1.450805,-2.006387,-1.2165382,178.4785,-64.94658,13.535635,CSO
2183368277000,2.814731,-0.615417092336,8.1286286473,2.79039234412,1.4975362,-2.005776,-1.1688906,178.52951,-65.45166,13.356389,CSO
2183373272000,2.819726,-0.433639731656,8.02338924205,2.66123473102,1.5289958,-2.0216584,-1.105666,178.59142,-65.94959,13.192806,CSO
2183378265000,2.824719,-0.292893451172797,8.06831665648855,2.54344310791117,1.5293012,-2.064419,-1.0170907,178.69228,-66.43368,13.041089,CSO
2183383278000,2.829732,-0.183426189818578,8.230137608506,2.43397587637553,1.5128077,-2.117259,-0.9450085,178.7945,-66.899,12.899838,CSO
2183388276000,2.83473,-0.06721047739898,8.57055031188701,2.19174568234602,1.4926492,-2.1493294,-0.8863655,178.93875,-67.338455,12.801109,CSO
2183393259000,2.839713,0.0544795923675951,9.057310630051,1.84071659546881,1.4706581,-2.2091942,-0.8362745,179.09659,-67.74939,12.722539,CSO
2183398279000,2.844733,0.09640645989887,9.32453770002849,1.68487960729275,1.4382823,-2.346028,-0.8359691,179.32646,-68.16803,12.650001,CSO
2183403351000,2.849805,0.0595069721374039,9.37527503855284,1.72177906952806,1.416902,-2.3133466,-0.763887,179.5098,-68.5497,12.596891,CSO
2183408285000,2.854739,0.0475801391522385,9.41926157175726,1.72257838795897,1.3881912,-2.2922719,-0.72143185,179.84938,-69.03025,12.506156,CSO
2183413397000,2.859851,0.0710470336682006,9.45680838107564,1.67095120659572,1.3759739,-2.3393085,-0.6927212,180.18411,-69.48269,12.4319105,CSO
2183418292000,2.864746,0.0790814900987999,9.46397557884454,1.6106167781468,1.3616186,-2.3854287,-0.66950834,180.54483,-69.9299,12.339084,CSO
2183423357000,2.869811,0.056518216571495,9.40982380681924,1.52487635071169,1.3662001,-2.4086416,-0.6383542,180.89905,-70.35628,12.257154,CSO
2183429952000,2.876406,0.0362043055762022,9.36716892706052,1.3894325761934,1.3607023,-2.4397957,-0.6178902,181.32477,-70.7956,12.162658,CSO
2183433392000,2.879846,0.0333187652100815,9.36861165106858,1.29853805609179,1.3600914,-2.479502,-0.6151413,181.74725,-71.21924,12.073796,CSO
2183438375000,2.884829,0.0291389257785758,9.3707015038977,1.16687311607252,1.3775011,-2.4987442,-0.6078109,182.22314,-71.66813,11.968903,CSO
2183443345000,2.889799,0.0249699910054305,9.37278590457213,1.0355516727862,1.3884968,-2.5192082,-0.6020077,182.69925,-72.100105,11.867189,CSO
2183448376000,2.89483,0.020749888219979,9.37489588843392,0.902618437137602,1.3863586,-2.538145,-0.59895337,183.16888,-72.517296,11.767878,CSO
2183453362000,2.899816,-0.0537345051456514,9.36167706380554,0.793464638710596,1.4068227,-2.542421,-0.6017023,183.67899,-72.94893,11.653271,CSO
2183458358000,2.904812,-0.171849666758261,9.33896262552222,0.698063950484239,1.4129313,-2.511267,-0.61575216,184.1737,-73.36426,11.535878,CSO
2183463336000,2.90979,-0.265434206562237,9.31255673833053,0.661391705719092,1.4150693,-2.4556782,-0.625526,184.7309,-73.84895,11.388084,CSO
2183468368000,2.914822,-0.336362182760723,9.28215895111438,0.68165682666106,1.4016303,-2.3918428,-0.64873886,185.26823,-74.32246,11.230422,CSO
2183473356000,2.91981,-0.375195550057265,9.30136049034262,0.740276108201495,1.3884968,-2.3090706,-0.6704246,185.80402,-74.82895,11.033034,CSO
2183478420000,2.924874,-0.394023829401145,9.35313832980685,0.82500337016403,1.3720033,-2.193617,-0.6933321,186.30373,-75.322845,10.82475,CSO
2183483363000,2.929817,-0.380866698606061,9.44644632121212,0.924655206060606,1.3359623,-2.0983222,-0.70829827,186.76953,-75.80232,10.601597,CSO
2183488360000,2.934814,-0.341870779926662,9.5756203618029,1.03920573674561,1.2895365,-2.0204368,-0.71593404,187.19865,-76.26675,10.371495,CSO
2183493347000,2.939801,-0.302952899907818,9.70453589921059,1.15352702882608,1.2452488,-1.9394971,-0.7141015,187.62996,-76.732506,10.119085,CSO
2183498408000,2.944862,-0.263457533800866,9.83536436017316,1.26954468658009,1.174083,-1.8451185,-0.70188415,188.02638,-77.171715,9.866959,CSO
2183503413000,2.949867,-0.213259684388845,9.92495830597211,1.38945337484872,1.1071932,-1.752267,-0.6844745,188.39154,-77.59042,9.617223,CSO
2183508359000,2.954813,-0.157182078223625,9.99038187555906,1.51095483817416,1.0311406,-1.6859881,-0.6637051,188.72888,-77.98032,9.373112,CSO
2183513926000,2.96038,-0.094063591866614,10.0640197671665,1.64771153981847,0.98532563,-1.6282613,-0.6258314,189.06143,-78.33109,9.139289,CSO
2183518372000,2.964826,-0.143251451331876,10.0206374929753,1.63336728523259,0.9309586,-1.591304,-0.5888741,189.37337,-78.65282,8.9142275,CSO
2183523390000,2.969844,-0.258278782811531,9.91061174607139,1.54334585877823,0.9053023,-1.5610662,-0.5665775,189.66335,-78.95754,8.698463,CSO
2183528345000,2.974799,-0.402192770543656,9.7683763154356,1.48605528395927,0.87598073,-1.5418239,-0.54611355,189.95741,-79.213425,8.505516,CSO
2183533363000,2.979817,-0.563750203814235,9.60681898338296,1.4445120182019,0.8332202,-1.5222762,-0.548557,190.2368,-79.455246,8.315804,CSO
2183538358000,2.984812,-0.741366016579968,9.47083980383997,1.4035235485671,0.79229224,-1.5115861,-0.55741453,190.5395,-79.72076,8.104536,CSO
2183543354000,2.989808,-0.93142753616003,9.35318218462121,1.36279606017214,0.7641924,-1.496009,-0.5873469,190.83029,-79.97896,7.890335,CSO
2183548668000,2.995122,-1.14208697444869,9.30665105321964,1.34565262716848,0.7272351,-1.4899004,-0.6267477,191.1335,-80.26072,7.640942,CSO
2183553358000,2.999812,-1.3357819519063,9.3374667848672,1.35445693805743,0.70921457,-1.4590516,-0.6792821,191.42079,-80.54263,7.38304,CSO
2183558310000,3.004764,-1.51649126171429,9.38884971138015,1.33329930801937,0.7287622,-1.428203,-0.71868294,191.7224,-80.86522,7.07938,CSO
2183563363000,3.009817,-1.66647007657143,9.46852561113801,1.26768357040194,0.7464773,-1.4089607,-0.75594574,192.01443,-81.18606,6.7666135,CSO
2183568293000,3.014747,-1.78193768439172,9.55565572539122,1.13340665099445,0.7629707,-1.4248432,-0.7706065,192.31775,-81.54394,6.40816,CSO
2183573359000,3.019813,-1.84071540596668,9.66341499242807,0.859110651075215,0.7883216,-1.4404203,-0.7510588,192.61021,-81.89583,6.0550623,CSO
2183578301000,3.024755,-1.8736781124647,9.72497191294186,0.601754358866491,0.79504114,-1.434617,-0.729984,192.91707,-82.28426,5.664911,CSO
2183583311000,3.029765,-1.86433352818191,9.71095474379199,0.358794986999708,0.78984874,-1.3961325,-0.72051555,193.21379,-82.66034,5.2838407,CSO
2183588331000,3.034785,-1.80057466809869,9.7271016939417,0.155707488877691,0.77671516,-1.3408492,-0.72021013,193.52867,-83.08352,4.8863564,CSO
2183593343000,3.039797,-1.61768665441989,9.80940152209945,0.0414024925027624,0.745561,-1.2858714,-0.7131852,193.82787,-83.48534,4.4996166,CSO
2183598372000,3.044826,-1.4515011840289,9.90005762648541,-0.0701968343701873,0.70096785,-1.244027,-0.70432764,194.13402,-83.91378,4.1106114,CSO
2183603365000,3.049819,-1.34694840957315,10.0182475232912,-0.170203856124537,0.68111473,-1.183246,-0.6740898,194.41454,-84.32235,3.7345607,CSO
2183608347000,3.054801,-1.24302947469103,10.1336401865955,-0.270105998921517,0.68325275,-1.1010846,-0.64599,194.69745,-84.714806,3.3935995,CSO
2183613393000,3.059847,-1.14093893274533,10.2306268437203,-0.372196572847787,0.68233645,-0.9975429,-0.6133087,194.95277,-85.08439,3.0668225,CSO
2183618364000,3.064818,-1.0690211371716,10.3001482532141,-0.427626649172722,0.6948592,-0.90408057,-0.573297,195.19965,-85.45055,2.7688508,CSO
2183623357000,3.069811,-1.09574945600894,10.2801015954444,-0.327395380270402,0.7150178,-0.8396343,-0.53023106,195.42174,-85.80193,2.485084,CSO
2183631891000,3.078345,-1.14269319715555,10.234630967643,-0.155681596361954,0.7272351,-0.8051204,-0.51251596,195.63593,-86.15176,2.2226543,CSO
2183633801000,3.080255,-1.16010097795284,10.1630656488316,-0.115063458604737,0.75991637,-0.80573124,-0.50518554,195.83878,-86.49674,1.9736967,CSO
2183638356000,3.08481,-1.20161534524691,9.99239547752987,-0.0181966431680237,0.77671516,-0.8005389,-0.49846604,196.03374,-86.81037,1.7263645,CSO
2183643351000,3.089805,-1.29443685467266,9.79908029894801,0.109199659682463,0.79290307,-0.8011498,-0.4972443,196.2284,-87.1216,1.4842381,CSO
2183648452000,3.094906,-1.44411903362271,9.59451514237565,0.263871301732612,0.8005389,-0.8179486,-0.4990769,196.42403,-87.423965,1.2477727,CSO
2183653332000,3.099786,-1.56609659124976,9.40348101065246,0.411176029659502,0.79137594,-0.8677341,-0.50793445,196.63777,-87.702095,1.0051554,CSO
2183658356000,3.10481,-1.67134857892334,9.21128123435419,0.562189738223321,0.77182823,-0.9053023,-0.5143485,196.85085,-87.9647,0.76703686,CSO
2183663354000,3.109808,-1.7630829088289,9.11577449157702,0.692776164095799,0.7360926,-0.90377516,-0.52442783,197.06987,-88.18397,0.5024522,CSO
2183668372000,3.114826,-1.8362355613355,9.15966595067993,0.79518985723564,0.70157874,-0.8775079,-0.5513059,197.29065,-88.367966,0.23602208,CSO
2183673356000,3.11981,-1.62186151573638,9.37504917484869,0.779997737646268,0.6554584,-0.85062987,-0.57360244,197.51344,-88.465614,-0.048268948,CSO
2183678346000,3.1248,-1.03879787311942,9.81119933624748,0.614719838770295,0.6554584,-0.82711154,-0.57848936,197.72765,-88.51003,-0.3305224,CSO
2183683444000,3.129898,-0.478590864308045,10.127420826386,0.498274375824302,0.6750061,-0.8335256,-0.54367006,197.9495,-88.46715,-0.6172629,CSO
2183688359000,3.134813,0.00211575266777819,10.2157136077532,0.473748541190079,0.66156703,-0.8900307,-0.49174652,198.17682,-88.366936,-0.8948748,CSO
2183693374000,3.139828,0.419828044103795,10.2177228113392,0.319455829928908,0.6600399,-0.9786061,-0.4352415,198.43828,-88.34311,-1.0415279,CSO
2183698450000,3.144904,0.748140683826535,10.1054057673509,-0.00453690960721581,0.63041294,-1.0525209,-0.3912592,198.70927,-88.30326,-1.1732769,CSO
2183703397000,3.149851,1.07684358299783,10.005460136866,-0.32893882463884,0.5858198,-1.1029172,-0.3494149,199.0158,-88.32679,-1.1962596,CSO
2183708357000,3.154811,1.44245191771265,9.94452516153543,-0.689859890831853,0.52687126,-1.1139128,-0.2938262,199.32933,-88.35217,-1.2013339,CSO
2183713417000,3.159871,1.79038808863636,9.88163143876501,-1.03241918616638,0.50823987,-1.0900891,-0.24648413,199.65814,-88.47801,-1.132285,CSO
2183718409000,3.164863,2.01179463409091,9.81602987993139,-1.24562549395369,0.50701815,-1.03786,-0.1966986,199.97957,-88.60658,-1.0472579,CSO
2183723310000,3.169764,2.22916512272727,9.75162418284734,-1.45494522842196,0.5015204,-0.9410379,-0.14508049,200.29462,-88.83652,-0.8830324,CSO
2183728346000,3.1748,2.39769443992926,9.88699657201808,-1.43580401025742,0.5012149,-0.77396625,-0.10873401,200.57323,-89.071526,-0.7117249,CSO
2183733302000,3.179756,2.55158213539006,10.0642001098448,-1.36585516844174,0.51343226,-0.70829827,-0.10629055,200.8521,-89.308365,-0.5379167,CSO
2183738371000,3.184825,2.64094775986842,10.2171985616029,-1.19119555287081,0.5296202,-0.6044512,-0.12034045,201.0843,-89.61152,-0.31541288,CSO
2183743340000,3.189794,2.71006776409774,10.3595049646275,-0.991967013192071,0.5439755,-0.52442783,-0.13500121,201.30449,-89.90229,-0.09594626,CSO
2183748372000,3.194826,2.72558430744816,10.5443320939484,-0.750198716148963,0.52931476,-0.47433686,-0.15302174,201.51369,-90.22101,0.14524494,CSO
2183753349000,3.199803,2.6751571665256,10.7762965209479,-0.462763823330512,0.47891834,-0.42730024,-0.17898351,201.70097,-90.50848,0.3756213,CSO
2183758360000,3.204814,2.61902177024673,10.8922341933237,-0.291048750165457,0.464563,-0.36987892,-0.21533,201.87482,-90.7726,0.61254126,CSO
2183763359000,3.209813,2.55880232162554,10.9153955011127,-0.21230024563909,0.45631635,-0.28619036,-0.24007004,202.02762,-91.02404,0.8407444,CSO
2183768359000,3.214813,2.52607395565299,10.9051057865672,-0.126119039585821,0.46609017,-0.22082779,-0.2489276,202.18886,-91.228096,1.0487548,CSO
2183773357000,3.219811,2.52160890470149,10.8604557432836,-0.0323538834179104,0.4990769,-0.14172074,-0.23823744,202.3218,-91.43208,1.2508769,CSO
2183778340000,3.224794,2.48954871601866,10.7267658750648,-0.0758717443276309,0.552833,-0.07666359,-0.2180789,202.44162,-91.619995,1.4367074,CSO
2183783372000,3.229826,2.40460965163297,10.4219842348367,-0.38065349933437,0.61422503,-0.008246681,-0.17684549,202.5377,-91.818375,1.6276178,CSO
2183788376000,3.23483,2.25090446081397,10.1380757981325,-0.720145174789404,0.6444628,0.113926366,-0.160963,202.61842,-92.00289,1.8114741,CSO
2183793354000,3.239808,2.00414293443621,9.88163781376231,-1.10722198579113,0.63041294,0.25961772,-0.1563815,202.67273,-92.19382,1.9998758,CSO
2183798419000,3.244873,1.78873233703117,9.72648880524493,-1.39596960093023,0.5751296,0.37598756,-0.16707164,202.70142,-92.38972,2.165377,CSO
2183803494000,3.249948,1.61558212599703,9.69763036140525,-1.55950026372093,0.49938235,0.52198434,-0.18692477,202.68088,-92.57661,2.3273573,CSO
2183808339000,3.254793,1.4805226111677,9.71091762874929,-1.47653452995756,0.43127087,0.61361414,-0.2144137,202.63109,-92.74437,2.432346,CSO
2183813369000,3.259823,1.38056329330315,9.77907170911149,-1.0721534016893,0.3717115,0.6093381,-0.22113322,202.56877,-92.90365,2.5366378,CSO
2183818313000,3.264767,1.21596039170762,9.79603821375921,-0.675811966031941,0.3036,0.5503896,-0.21899518,202.49513,-93.03492,2.5992658,CSO
2183823355000,3.269809,0.89198336548006,9.69565085976186,-0.274263025559063,0.2489276,0.4560109,-0.24953845,202.43442,-93.150764,2.6498532,CSO
2183828388000,3.274842,0.508965817227194,9.55818753087162,0.0557114170841543,0.18509217,0.40958515,-0.2593123,202.3837,-93.19731,2.6879036,CSO
2183833375000,3.279829,-0.112407380645258,9.27084714469429,0.095220697868241,0.09590584,0.3463606,-0.25411993,202.36583,-93.226974,2.7201276,CSO
2183838999000,3.285453,-0.81314988412123,8.94680416657893,0.139776582193427,0.061086524,0.30757064,-0.26236662,202.36314,-93.15166,2.680234,CSO
2183843354000,3.289808,-1.17061287237637,8.93494268639296,0.10372896735538,0.0125227375,0.22479841,-0.3005457,202.39107,-93.057,2.6327665,CSO
2183848405000,3.294859,-1.44796081557285,9.09838005559537,0.00962877529743012,0.012217305,0.13072516,-0.32559118,202.43333,-92.96821,2.5868483,CSO
2183853360000,3.299814,-1.6563002931662,9.20878173221913,-0.108560265303621,0.0018325958,0.01740966,-0.3368922,202.46606,-92.733246,2.377101,CSO
2183858354000,3.304808,-1.82060702005571,9.28427413370473,-0.24622264356546,0.009773844,-0.11026118,-0.32711834,202.52922,-92.50293,2.1683693,CSO
2183863317000,3.309771,-1.95667892431206,9.30616746769898,-0.364961444566525,0.040317107,-0.25411993,-0.31887165,202.61423,-92.240005,1.9049088,CSO
2183868367000,3.314821,-2.05684863039748,9.25369757421836,-0.460361119583785,0.07269296,-0.4334089,-0.3295618,202.74487,-91.98294,1.6419785,CSO
2183873326000,3.31978,-2.09708337408106,9.23480460989632,-0.550641096086711,0.09590584,-0.6001751,-0.3408628,202.91159,-91.72888,1.3482628,CSO
2183878343000,3.324797,-2.04727038020735,9.26650344392083,-0.636681634175306,0.105068825,-0.7315111,-0.31887165,203.11804,-91.50157,1.0652746,CSO
2183883295000,3.329749,-1.95860002106659,9.2792524264301,-0.769573139706332,0.124311075,-0.86651236,-0.2950479,203.37112,-91.309235,0.7630938,CSO
2183888356000,3.33481,-1.75596954333639,9.23971500887122,-1.04139451101254,0.14905111,-0.9379836,-0.24404067,203.6419,-91.17488,0.47986642,CSO
2183893349000,3.339803,-1.52568184109548,9.2231988793163,-1.31862976563363,0.13683382,-0.958753,-0.16737708,203.93517,-91.115944,0.2255249,CSO
2183898437000,3.344891,-1.2228219572557,9.25684977986878,-1.62148967143474,0.11942416,-0.93401295,-0.121256754,204.23372,-91.11745,-0.018397968,CSO
2183903632000,3.350086,-0.914548248645235,9.2962665991345,-1.93587333648326,0.098043874,-0.88239485,-0.08674286,204.5394,-91.20526,-0.20270336,CSO
2183908956000,3.35541,-0.617353460998852,9.43585855956902,-2.35915066143248,0.07238753,-0.80848014,-0.024740042,204.83017,-91.30231,-0.36240625,CSO
2183913692000,3.360146,-0.352981839230769,9.56003352662722,-2.73567985207101,0.051923547,-0.70341134,0.08399397,205.11208,-91.44006,-0.42851377,CSO
2183918362000,3.364816,-0.133224978983135,9.76744990724206,-2.89915009002976,0.044593163,-0.52106804,0.23487769,205.35031,-91.56333,-0.46206987,CSO
2183923345000,3.369799,0.089284721531746,10.0136303753968,-3.01277212976191,0.008857546,-0.37415496,0.3417791,205.56831,-91.66581,-0.47540787,CSO
2183928346000,3.3748,0.337947328778618,10.4034362014346,-2.88757426159969,-0.058643065,-0.29932398,0.4288274,205.76575,-91.81557,-0.38671026,CSO
2183933366000,3.37982,0.597764213695588,10.8522109818218,-2.66554898931905,-0.08735373,-0.1469131,0.46792278,205.90062,-91.9698,-0.28040683,CSO
2183938356000,3.38481,0.778588062119205,11.2715844092715,-2.11138786013245,-0.17256944,-0.0018325958,0.50793445,206.02922,-92.10788,-0.104074195,CSO
2183943371000,3.389825,0.923988806395459,11.680524210123,-1.39801540218543,-0.30115658,0.04917465,0.5002986,206.14314,-92.238205,0.06761974,CSO
2183948399000,3.394853,0.87105177402319,11.8480385127156,-0.788602421136607,-0.3903429,0.03268129,0.41996986,206.2726,-92.31233,0.2793541,CSO
2183953360000,3.399814,0.671991733615902,11.834150323005,-0.265491149922245,-0.47525316,-0.014049901,0.2874121,206.39717,-92.36432,0.4696738,CSO
2183958356000,3.40481,0.299984031082437,11.6056409082437,-0.00453782754623656,-0.550695,-0.027488936,0.13316862,206.5405,-92.2519,0.65831405,CSO
2183963365000,3.409819,-0.235474693677419,11.1733439465438,0.00528710358801843,-0.60231316,0.004276057,0.13316862,206.605586049432,-92.1904181941399,0.721849800453458,CSO
2183968390000,3.414844,-0.671928228548972,10.7654999111245,-0.102710380842201,-0.59712076,0.04184427,-0.087964594,206.67088,-92.12874,0.7855885,CSO
2183973353000,3.419807,-1.02634152965135,10.3823502098952,-0.299074479947501,-0.5458081,0.07849618,-0.16065755,206.82457,-91.911674,0.8683381,CSO
2183978814000,3.425268,-1.38384629381282,10.0499893586416,-0.461064309132429,-0.4801401,0.11301007,-0.21563543,206.92204,-91.638824,0.7905008,CSO
2183983369000,3.429823,-1.66481391418952,9.82010699453499,-0.567491446279887,-0.41783184,0.13713925,-0.27458394,207.01039,-91.37502,0.6925535,CSO
2183988357000,3.434811,-1.97841980450379,9.62087377859705,-0.589817161335193,-0.3866777,0.15149458,-0.3387248,207.06717,-91.12379,0.50969845,CSO
2183993348000,3.439802,-2.29751657473097,9.46846974442009,-0.527902861446792,-0.35735616,0.13469578,-0.39858958,207.12527,-90.893105,0.31446776,CSO
2183998472000,3.444926,-2.60607143316165,9.438597006042,-0.400201626560024,-0.321926,0.064751714,-0.46975538,207.1709,-90.71413,0.03860423,CSO
2184003449000,3.449903,-2.88933470641838,9.51885458181458,-0.22080155514065,-0.29993483,-0.025045475,-0.5183192,207.22652,-90.64446,-0.24345939,CSO
2184008357000,3.454811,-3.15710594226459,9.82850450656193,-0.0881682761203181,-0.2864958,-0.106595986,-0.5626069,207.2894,-90.76898,-0.603016,CSO
2184013403000,3.459857,-3.42097229848645,10.3747541876617,0.00441639314302135,-0.30268374,-0.17806722,-0.5830709,207.37437,-91.02778,-0.96389776,CSO
2184018359000,3.464813,-3.5683637002584,10.8126302254761,0.0669239984457843,-0.310625,-0.22388211,-0.58184916,207.47003,-91.3972,-1.3817179,CSO
2184023355000,3.469809,-3.55920565788114,11.1148428029477,0.0898188844482726,-0.31306845,-0.25228736,-0.56291234,207.58046,-91.79371,-1.7928175,CSO
2184029962000,3.476416,-3.5372297713409,11.3544700088984,0.0643547345375882,-0.3286455,-0.31306845,-0.5308419,207.70316,-87.75719,-2.239638,CSO
2184033363000,3.479817,-3.52057297641403,11.391115027309,0.02104703502915,-0.33841935,-0.3390302,-0.50671273,207.82347,-87.3111,-2.6730616,CSO
2184038339000,3.484793,-3.4908308850497,11.330523801619,-0.0120134513058715,-0.33169982,-0.36926803,-0.46181414,207.96472,-86.88964,-3.0751255,CSO
2184043347000,3.489801,-3.45151487775387,11.0700549453837,0.00764456671072856,-0.33567044,-0.37568212,-0.42577308,208.10573,-86.47794,-3.4625084,CSO
2184048653000,3.495107,-3.41544768348639,10.7497851999016,0.0583010484099705,-0.35643986,-0.38698313,-0.37598756,208.25613,-86.09673,-3.818051,CSO
2184053369000,3.499823,-3.38952534419482,10.416497096589,0.136068234878977,-0.38789943,-0.4352415,-0.31703907,208.4177,-85.734665,-4.151302,CSO
2184058693000,3.505147,-3.36165386855545,10.0410542059646,0.2229905404548,-0.39187005,-0.5109888,-0.2565634,208.60558,-85.39448,-4.4597216,CSO
2184063405000,3.509859,-3.36585940540541,9.72563564864865,0.28186871945946,-0.36682457,-0.6056729,-0.21777347,208.81123,-85.07055,-4.749677,CSO
2184068303000,3.514757,-3.37023095028891,9.39776635880708,0.34307103710904,-0.31031954,-0.69058317,-0.16249016,209.04044,-84.76792,-5.0119042,CSO
2184073393000,3.519847,-3.38293737637982,9.21837282195846,0.382111754789317,-0.24984388,-0.754724,-0.1328632,209.28888,-84.4757,-5.2640867,CSO
2184078321000,3.524775,-3.39694167026706,9.07832939564787,0.414788460023739,-0.19394971,-0.8014552,-0.10048734,209.55424,-84.208336,-5.49372,CSO
2184083370000,3.529824,-3.38091501995146,9.00860879854369,0.459082354582524,-0.16982053,-0.84665924,-0.0870483,209.83798,-83.93828,-5.7221384,CSO
2184088292000,3.534746,-3.35803302424272,8.95826820728155,0.504846460687379,-0.14905111,-0.90041536,-0.080634214,210.1352,-83.68377,-5.938317,CSO
2184093344000,3.539798,-3.33509733787366,8.90781015510434,0.520504572425268,-0.13439035,-0.9431759,-0.07422013,210.44055,-83.43039,-6.151508,CSO
2184098370000,3.544824,-3.31247405419252,8.85803962079338,0.525029229161497,-0.12858713,-0.98990715,-0.067500606,210.76013,-83.18368,-6.357924,CSO
2184103360000,3.549814,-3.32349154998596,8.81154544024333,0.518370117533926,-0.12064589,-1.0189233,-0.06566802,211.08978,-82.942375,-6.5553713,CSO
2184108357000,3.554811,-3.35484277942911,8.76675810322882,0.504933893046327,-0.11148291,-1.040609,-0.06780604,211.42818,-82.7061,-6.7474976,CSO
2184113374000,3.559828,-3.38070007821044,8.73637678997515,0.543898359341342,-0.09590584,-1.0558805,-0.06994407,211.77637,-82.47784,-6.930825,CSO
2184118372000,3.564826,-3.40052810074565,8.72150546251036,0.638081544024441,-0.09773844,-1.0943651,-0.086437434,212.13509,-82.247826,-7.114299,CSO
2184123355000,3.569809,-3.39392691463415,8.69690846341463,0.757034914634146,-0.0983493,-1.1093313,-0.10170906,212.48604,-82.01679,-7.30235,CSO
2184128345000,3.574799,-3.36606481250607,8.66440291196191,0.896345764697308,-0.0983493,-1.153619,-0.11362094,212.85403,-81.785934,-7.48908,CSO
2184133363000,3.579817,-3.31120795393258,8.62300031460674,0.980815666292135,-0.0983493,-1.1939361,-0.13958271,213.23163,-81.53944,-7.6835775,CSO
2184138359000,3.584813,-3.22920229123976,8.57288570596077,1.00815085547515,-0.09285152,-1.2583824,-0.17379116,213.6265,-81.29235,-7.8782973,CSO
2184143341000,3.589795,-3.11784228708814,8.53673168492587,0.991962705086491,-0.08277224,-1.2803736,-0.20219639,214.02298,-81.03684,-8.068073,CSO
2184148385000,3.594839,-2.95868107955107,8.52181054406919,0.907408344419275,-0.07086037,-1.2834278,-0.22815818,214.42995,-80.77821,-8.261394,CSO
2184153359000,3.599813,-2.78380294524883,8.53038451606098,0.820406071473775,-0.06078109,-1.2834278,-0.25503623,214.85117,-80.528015,-8.441817,CSO
2184158359000,3.604813,-2.5863714081887,8.5671157462844,0.728577468539649,-0.05955936,-1.2727377,-0.2968805,215.26776,-80.27191,-8.629506,CSO
2184164023000,3.610477,-2.30651084203822,8.61829788694268,0.601890121985138,-0.080634214,-1.271516,-0.33505958,215.69144,-80.04663,-8.789026,CSO
2184168366000,3.61482,-2.03717789898089,8.66686618152866,0.482677160174098,-0.100792766,-1.2611313,-0.3680463,216.10703,-79.816315,-8.955245,CSO
2184173356000,3.61981,-1.7006291257244,8.75969496538204,0.363285811498518,-0.11636983,-1.2501358,-0.4184427,216.54315,-79.620155,-9.089618,CSO
2184178352000,3.624806,-1.33459126381371,8.89238350817634,0.262625398278665,-0.14721853,-1.2406673,-0.44593164,216.97375,-79.42045,-9.223173,CSO
2184183309000,3.629763,-0.927577201673034,9.03946774984919,0.142446572688518,-0.16523905,-1.1826351,-0.4392121,217.40439,-79.28671,-9.295746,CSO
2184188362000,3.634816,-0.441033814726523,9.21462359858235,-0.0132473107279308,-0.15760323,-1.1163563,-0.42149702,217.82701,-79.15147,-9.370335,CSO
2184193345000,3.639799,-0.000680401362284366,9.36854196579417,-0.118327731474462,-0.12217305,-1.0430524,-0.38545597,218.25867,-79.11072,-9.350139,CSO
2184198598000,3.645052,0.401193879417014,9.50107474955384,-0.152529797068922,-0.106901415,-0.95447695,-0.35246924,218.66307,-79.07357,-9.326524,CSO
2184203486000,3.64994,0.776677008889109,9.62594069784957,-0.188944296389852,-0.092240654,-0.8491027,-0.3145956,219.07867,-79.1604,-9.179705,CSO
2184208356000,3.65481,1.16953393902487,9.76921792210881,-0.281381215733822,-0.06872234,-0.7110472,-0.27763826,219.45528,-79.257744,-9.028471,CSO
2184213438000,3.659892,1.5707718678646,9.91657263081949,-0.373097404423269,-0.05131268,-0.5742133,-0.24709499,219.83977,-79.45105,-8.762562,CSO
2184218366000,3.66482,1.78063941737,10.0150816468827,-0.364531387470732,-0.035430185,-0.49235737,-0.24251351,220.19714,-79.64575,-8.500255,CSO
2184223292000,3.669746,1.99042179335693,10.1135506836374,-0.355968846986115,-0.028405234,-0.32162055,-0.24312437,220.52628,-79.92795,-8.139908,CSO
2184229967000,3.676421,1.76115271762821,10.044182269765,-0.256476305560897,-0.029932396,-0.07880162,-0.25411993,220.80884,-80.20117,-7.793168,CSO
2184234046000,3.6805,1.56986809978632,9.98158022400285,-0.186918264690171,0.0021380284,0.024129177,-0.25289822,221.08026,-80.47545,-7.451315,CSO
2184238357000,3.684811,1.2790216284544,9.88868433863008,-0.102564088382945,0.034513887,0.076052725,-0.25381452,221.37039,-80.773125,-7.0590396,CSO
2184243353000,3.689807,0.89179804894394,9.76590611004738,0.00132517345992893,0.065973446,0.19517145,-0.26206118,221.60945,-81.06314,-6.6830416,CSO
2184248352000,3.694806,0.469508590514962,9.68293236692397,0.0786286511477213,0.101098195,0.31123585,-0.28008172,221.81071,-81.29198,-6.3890796,CSO
2184253352000,3.699806,0.0188710733319234,9.6322989736703,0.134325424966057,0.13133603,0.40683624,-0.312763,221.98268,-81.51334,-6.111286,CSO
2184258363000,3.704817,-0.378754436568828,9.57973891231655,0.22692744644622,0.16829337,0.5006041,-0.3268129,222.08553,-81.66225,-5.939383,CSO
2184263361000,3.709815,-0.747766604514211,9.52638807096415,0.338075691816831,0.19822577,0.5696318,-0.35338554,222.16876,-81.80306,-5.7858324,CSO
2184268398000,3.714852,-1.06878313811543,9.50470359436543,0.440011842188184,0.22082779,0.636827,-0.37843102,222.18726,-81.87601,-5.741918,CSO
2184273355000,3.719809,-1.33713452270241,9.51335981436907,0.530905071830781,0.2406809,0.66645396,-0.40622538,222.19788,-81.94706,-5.7079563,CSO
2184278348000,3.724802,-1.58594480267904,9.5240885392891,0.617474251148613,0.24740042,0.68966687,-0.4260785,222.15334,-81.94045,-5.7704005,CSO
2184283350000,3.729804,-1.78804670593819,9.53924648275498,0.693262417388461,0.2406809,0.69027776,-0.4447099,222.10841,-81.92888,-5.8392177,CSO
2184288342000,3.734796,-1.9356354856,9.5580272952,0.751344525748,0.24617869,0.6606508,-0.45142943,222.04807,-81.86103,-5.974303,CSO
2184293345000,3.739799,-2.0075045812,9.5819836604,0.784883467046,0.25167647,0.62858033,-0.46089783,221.98997,-81.786865,-6.112681,CSO
2184298348000,3.744802,-2.04155115898854,9.58807539431055,0.794594946384828,0.26297748,0.57360244,-0.462425,221.93947,-81.67606,-6.2885184,CSO
2184303830000,3.750284,-2.02080836262347,9.56733216475701,0.768666418439352,0.28955013,0.49327368,-0.45937067,221.90668,-81.56801,-6.4606385,CSO
2184308344000,3.754798,-1.97219276410967,9.57063194961892,0.726901694837177,0.3115413,0.40683624,-0.45142943,221.88492,-81.447426,-6.641579,CSO
2184313379000,3.759833,-1.87196476732654,9.60404146461447,0.650537514880729,0.32253686,0.31948254,-0.43096542,221.88687,-81.333435,-6.8121967,CSO
2184318327000,3.764781,-1.79088750816932,9.65773191820789,0.582470852378598,0.34116822,0.28344148,-0.4120286,221.904,-81.23142,-6.9742403,CSO
2184323379000,3.769833,-1.73825152411235,9.74864843170804,0.525049788400752,0.35124752,0.20463985,-0.39645153,221.95839,-81.13405,-7.12462,CSO
2184328326000,3.77478,-1.69001448802525,9.8489927528112,0.447702966697574,0.364992,0.10995574,-0.35430184,222.03319,-81.07779,-7.2359,CSO
2184333369000,3.779823,-1.64713988495759,9.97285267301243,0.328606895703295,0.3827071,0.041233405,-0.32436943,222.123,-81.02469,-7.342278,CSO
2184338335000,3.784789,-1.62750341705924,10.076700948965,0.22079973448965,0.40653083,-0.013744468,-0.28191432,222.24342,-81.00498,-7.417694,CSO
2184343320000,3.789774,-1.65570419357356,10.1425027894607,0.132672324446331,0.41691554,-0.046120327,-0.24007004,222.37578,-80.99257,-7.481719,CSO
2184368270000,3.814724,-1.79684950431219,10.4718419911393,-0.308406688709296,0.41905355,0.105374254,-0.20463985,223.05647,-81.2102,-7.6299076,CSO
2184373289000,3.819743,-1.82524262313372,10.5380926305471,-0.397135168349701,0.39675698,0.13561209,-0.22510384,223.16266,-81.26261,-7.6587696,CSO
2184378261000,3.824715,-1.87117640225332,10.5752484409404,-0.461352973244161,0.35216382,0.17104226,-0.24556783,223.25395,-81.3088,-7.6936884,CSO
2184383280000,3.829734,-1.99976128186027,10.4812825256714,-0.416842845253627,0.3051272,0.19333886,-0.26358834,223.34085,-81.34372,-7.7329516,CSO
2184388278000,3.834732,-2.1172930458378,10.3844688237757,-0.375305266367442,0.2669481,0.23732115,-0.28863382,223.4058,-81.34933,-7.796347,CSO
2184393269000,3.839723,-2.20105899455749,10.2774342023172,-0.342729581308539,0.22571471,0.28099802,-0.30298916,223.46475,-81.344635,-7.8605394,CSO
2184398301000,3.844755,-2.27852164727273,10.1659120521994,-0.31338906226393,0.20189096,0.33444872,-0.3136793,223.49919,-81.30162,-7.9579144,CSO
2184403313000,3.849767,-2.32544156121212,10.0392289753666,-0.299313122377322,0.17654006,0.39492437,-0.321926,223.51949,-81.249794,-8.057181,CSO
2184408300000,3.854754,-2.3675110719321,9.91687128227658,-0.289343873351972,0.16218472,0.44348818,-0.31948254,223.52654,-81.17235,-8.179054,CSO
2184413359000,3.859813,-2.38202401188218,9.8152806015976,-0.303856823404893,0.15118915,0.49877146,-0.31642818,223.5147,-81.09065,-8.3013525,CSO
2184418357000,3.864811,-2.3949137488992,9.71437309448119,-0.305355379077895,0.13530666,0.5186246,-0.31429017,223.48938,-80.993484,-8.435293,CSO
2184423312000,3.869766,-2.39959861848159,9.61130576799289,-0.235082286423141,0.13194689,0.54305923,-0.3145956,223.44743,-80.89719,-8.5671015,CSO
2184429780000,3.876234,-2.37430668968512,9.45385277098472,-0.128174675043849,0.12705997,0.5122105,-0.31031954,223.41068,-80.795975,-8.701171,CSO
2184433321000,3.879775,-2.32332474809989,9.3405594031571,-0.0517017981558507,0.1423316,0.48930305,-0.30298916,223.36531,-80.69777,-8.832094,CSO
2184438320000,3.884774,-2.25135108925081,9.18061770709095,0.0562586400150338,0.13836098,0.4437936,-0.28252518,223.3359,-80.59435,-8.958673,CSO
2184443301000,3.889755,-2.20846980403349,9.06749468569254,0.128768511859779,0.14385876,0.3885103,-0.2556471,223.31644,-80.49807,-9.078225,CSO
2184448354000,3.894808,-2.1762455847793,8.97082241248097,0.188613533736682,0.16523905,0.30848694,-0.23793201,223.31766,-80.40703,-9.191108,CSO
2184453351000,3.899805,-2.134440983448,8.90225184804068,0.240607125940772,0.17012598,0.20647246,-0.22235495,223.35443,-80.32507,-9.282996,CSO
2184458358000,3.904812,-2.08662850190448,8.84965812832785,0.288419542581514,0.17592919,0.089186326,-0.21288654,223.41862,-80.24942,-9.368471,CSO
2184463336000,3.90979,-2.06719043018832,8.85361199910097,0.296659425471752,0.17501289,-0.006414085,-0.20250183,223.50882,-80.17919,-9.442647,CSO
2184468410000,3.914864,-2.0648911643986,8.89269937347402,0.28056455534021,0.1695151,-0.12522738,-0.19058995,223.63881,-80.11346,-9.5102415,CSO
2184473388000,3.919842,-2.06263540068137,8.93104721534021,0.264774199897795,0.16310102,-0.2406809,-0.18753563,223.80359,-80.05447,-9.565909,CSO
2184478343000,3.924797,-2.06039005933567,8.9692178775433,0.24905680109965,0.16279559,-0.33505958,-0.18784106,223.99487,-79.99921,-9.616494,CSO
2184483352000,3.929806,-2.06949188986344,9.10159714577551,0.180740838088154,0.14813483,-0.42455134,-0.17898351,224.21596,-79.947075,-9.660742,CSO
2184488357000,3.934811,-2.09610013023204,9.37832246774731,0.0317352032485844,0.13133603,-0.50610185,-0.1872302,224.45998,-79.89137,-9.707416,CSO
2184493347000,3.939801,-2.15557860034358,9.59609144426417,-0.0692979485264364,0.12614368,-0.550695,-0.1908954,224.72858,-79.845055,-9.745641,CSO
2184498402000,3.944856,-2.23874266142394,9.77628014678374,-0.138601381004008,0.13622294,-0.5705481,-0.19700404,225.01057,-79.79722,-9.784746,CSO
2184503357000,3.949811,-2.31630629404729,9.89024716876655,-0.215942871021638,0.15302174,-0.55680364,-0.1994475,225.29225,-79.7619,-9.820439,CSO
2184508357000,3.954811,-2.39062643464804,9.94270836661189,-0.303378340755957,0.15790866,-0.52015173,-0.20341812,225.56999,-79.72578,-9.8570385,CSO
2184513348000,3.959802,-2.44514108387063,9.97597713208138,-0.391417137168492,0.18142697,-0.48624873,-0.20861048,225.8316,-79.686584,-9.905507,CSO
2184518392000,3.964846,-2.45522045355243,9.96589781502347,-0.482131537978091,0.1957823,-0.42271876,-0.2144137,226.07138,-79.64706,-9.954742,CSO
2184523345000,3.969799,-2.43541670054574,9.95250115846398,-0.57687955956539,0.22449298,-0.3640757,-0.22296582,226.29294,-79.6004,-10.020603,CSO
2184528347000,3.974801,-2.36887128969041,9.93348829738043,-0.68145089111927,0.24281894,-0.31245756,-0.23335053,226.49622,-79.55279,-10.087679,CSO
2184533318000,3.979772,-2.27588609308126,9.90388997586484,-0.768209347425583,0.24953845,-0.2489276,-0.23732115,226.67783,-79.50756,-10.158363,CSO
2184538363000,3.984817,-2.13498356562751,9.85530293242156,-0.826513850291633,0.26542094,-0.1826487,-0.23762658,226.84216,-79.462685,-10.229792,CSO
2184543351000,3.989805,-1.99253737119883,9.80034903330084,-0.845441764026966,0.2666427,-0.13530666,-0.2284636,226.99406,-79.43592,-10.285894,CSO
2184548439000,3.994893,-1.84214605891813,9.73306858105913,-0.801907419387589,0.27885997,-0.09987647,-0.23304509,227.12933,-79.40633,-10.345089,CSO
2184553940000,4.000394,-1.68163507175153,9.6580932581872,-0.755137149059793,0.27152961,-0.042455133,-0.226631,227.25102,-79.408554,-10.37123,CSO
2184558830000,4.005284,-1.58763745227129,9.53935965687725,-0.720506485210226,0.25442538,0.0012217305,-0.22937989,227.36586,-79.40586,-10.400486,CSO
2184563575000,4.010029,-1.5021763814433,9.43108166494845,-0.695058977835052,0.25381452,0.052534413,-0.21655174,227.48457,-79.441055,-10.387237,CSO
2184568370000,4.014824,-1.48431185858782,9.40428478739545,-0.76651711589185,0.24037547,0.092240654,-0.21502456,227.59332,-79.46955,-10.3779955,CSO
2184573693000,4.020147,-1.4643162626822,9.3776577903203,-0.843694137806029,0.2275473,0.15454891,-0.18906279,227.6834,-79.51994,-10.344496,CSO
2184578350000,4.024804,-1.44327793181754,9.42183832907213,-0.864732479654701,0.22143865,0.23548855,-0.17501289,227.7561,-79.565926,-10.314431,CSO
2184583310000,4.029764,-1.42087077676306,9.4688934014812,-0.887139646407849,0.22266038,0.3036,-0.160963,227.8222,-79.62208,-10.275183,CSO
2184588363000,4.034817,-1.3980434875513,9.51683075649795,-0.90996694753762,0.22052236,0.33505958,-0.15577064,227.87549,-79.677666,-10.234962,CSO
2184593459000,4.039913,-1.37502194276145,9.56517604863437,-0.932988504346903,0.22143865,0.36010507,-0.13988814,227.91107,-79.738686,-10.18836,CSO
2184598380000,4.044834,-1.33248953899449,9.59362237540392,-0.921711678107774,0.21288654,0.36285394,-0.119729586,227.9459,-79.80003,-10.13967,CSO
2184603298000,4.049752,-1.28325116053032,9.61600343527846,-0.899330622907242,0.21899518,0.355829,-0.103847094,227.97688,-79.86335,-10.088154,CSO
2184608365000,4.054819,-1.25789306181724,9.64342737976252,-0.86253855557047,0.23335053,0.3454443,-0.08979719,228.01776,-79.945244,-10.017257,CSO
2184613354000,4.059808,-1.24802653518844,9.67302706267424,-0.818139134228188,0.24220806,0.3359759,-0.07238753,228.06087,-80.03022,-9.941755,CSO
2184618391000,4.064845,-1.34629134988344,9.71022480301595,-0.762952731676623,0.23640485,0.2996294,-0.064446285,228.1215,-80.12635,-9.853071,CSO
2184623351000,4.069805,-1.48989809221607,9.75001934515918,-0.704125872435711,0.24556783,0.2648101,-0.059864793,228.18474,-80.22426,-9.761752,CSO
2184628399000,4.074853,-1.63605269610621,9.79051991950171,-0.644255310853427,0.25259277,0.24801129,-0.05375614,228.25616,-80.32526,-9.6654825,CSO
2184633366000,4.07982,-1.77986210924455,9.83037062329715,-0.585345429835361,0.24648413,0.2302962,-0.052839845,228.33781,-80.42349,-9.570892,CSO
2184638372000,4.084826,-1.92480068830043,9.87053422772638,-0.525972998916005,0.26358834,0.23945917,-0.051618114,228.41626,-80.521255,-9.476073,CSO
2184643325000,4.089779,-2.07008391646914,9.90864064169906,-0.479729293510003,0.24495697,0.2574797,-0.055588737,228.49693,-80.61499,-9.384022,CSO
2184648388000,4.094842,-2.22639106834171,9.94082167839196,-0.484326557035176,0.23182335,0.29229903,-0.05681047,228.56972,-80.70752,-9.292391,CSO
2184653274000,4.099728,-2.38035097339367,9.96909307608912,-0.486239650114382,0.21777347,0.33567044,-0.06505715,228.59659,-99.28918,-9.289146,CSO
2184658294000,4.104748,-2.57640204540481,9.9643112439825,-0.457549231673961,0.18020524,0.3848451,-0.06872234,228.6116,-99.28517,-9.284812,CSO
2184663372000,4.109826,-2.7634878626413,9.96869710945743,-0.427122330001884,0.14385876,0.44073927,-0.06169739,228.60013,-99.3135,-9.312469,CSO
2184668276000,4.11473,-2.82542322074228,10.0704477183497,-0.382882826776564,0.11728613,0.4728097,-0.064446285,228.58167,-99.34497,-9.343091,CSO
2184673251000,4.119705,-2.88825527754333,10.1736714702336,-0.338002825033911,0.1001819,0.49418998,-0.07147124,228.5278,-99.41693,-9.4141445,CSO
2184678274000,4.124728,-2.87897415907981,10.2506604371398,-0.277894854595096,0.0720821,0.48655418,-0.06994407,228.47388,-99.48546,-9.48192,CSO
2184683250000,4.129704,-2.86500888894207,10.3251424611703,-0.21737864025105,0.04520403,0.464563,-0.0720821,228.41872,-99.55539,-9.551163,CSO
2184688298000,4.134752,-2.75195708554361,10.2947756754281,-0.184957087881322,0.028405234,0.42180246,-0.07086037,228.37057,-99.631165,-9.626732,CSO
2184693266000,4.13972,-2.62879727909199,10.2521430732776,-0.156535597128634,0.011911872,0.39400807,-0.06719518,228.32501,-99.704926,-9.700529,CSO
2184698329000,4.144783,-2.51923111954243,10.1606037861318,-0.148899944786333,-0.0143553335,0.3594942,-0.05100725,228.30116,-99.769264,-9.765509,CSO
2184703225000,4.149679,-2.41526651853457,10.0660905573473,-0.144174278412618,-0.02107485,0.31673363,-0.034208454,228.28783,-99.83093,-9.827781,CSO
2184708323000,4.154777,-2.35291427421329,10.0174989437646,-0.202993702768065,-0.036651913,0.29932398,-0.022907447,228.27983,-99.86482,-9.86257,CSO
2184713302000,4.159756,-2.29733966853147,9.97581819502719,-0.267830621833722,-0.040927973,0.24923302,-0.015577064,228.29341,-99.894585,-9.893098,CSO
2184718289000,4.164743,-2.248748613871,9.9413801428713,-0.337889633894779,-0.04550946,0.2098322,-0.0009162979,228.31454,-99.90075,-9.899942,CSO
2184723244000,4.169698,-2.20173286587734,9.90846888853661,-0.408413378618845,-0.042760566,0.17379116,0.00580322,228.34854,-99.90719,-9.90686,CSO
2184728296000,4.17475,-2.20853176292835,9.87925347498053,-0.487012148884346,-0.05681047,0.13958271,0.013744468,228.39224,-99.89995,-9.899864,CSO
2184733251000,4.179705,-2.22701036261682,9.85153547897196,-0.565546265093458,-0.0580322,0.09621128,0.026267206,228.44818,-99.889755,-9.8897505,CSO
