timestamp,rel_time,acc_x,acc_y,acc_z,gyro_x,gyro_y,gyro_z,azimuth,pitch,roll,label
8208507115000,0,-7.18478699799969,-0.842152584622216,-6.66485126335582,-0.025961773,0.006414085,0.010079277,286.31223,171.03214,-26.925,SIT
8208512138000,0.005023,-7.18358420490676,-0.841430907761703,-6.66412958498817,-0.03756821,0.007941248,0.0106901415,286.31345,171.06364,-27.173292,SIT
8208517127000,0.010012,-7.18238955335577,-0.840714115833154,-6.66341279156269,-0.044898596,0.008857546,0.009773844,286.31537,171.08847,-27.414064,SIT
8208522119000,0.015004,-7.18119418343343,-0.839996892881197,-6.6626955671129,-0.039095376,0.0009162979,0.009468411,286.31845,171.11249,-27.65229,SIT
8208527167000,0.020052,-7.17998540391261,-0.839271624158945,-6.66197029687602,-0.0290161,0.01282817,0.01038471,286.3239,171.1367,-27.880075,SIT
8208532131000,0.025016,-7.17879673878951,-0.838558424092134,-6.66125709531977,-0.041233405,0.006414085,0.012217305,286.32922,171.16458,-28.110758,SIT
8208537132000,0.030017,-7.17759921375313,-0.837839908069951,-6.66053857779706,-0.032375857,0.0015271631,0.0106901415,286.33557,171.18375,-28.333118,SIT
8208542148000,0.035033,-7.17639809686001,-0.837119236930724,-6.6598179051528,-0.028710667,0.0067195175,0.015882496,286.3459,171.20789,-28.550516,SIT
8208547133000,0.040018,-7.17520440313749,-0.836403019700053,-6.6591016864264,-0.03390302,0.0125227375,0.01038471,286.3531,171.2298,-28.764202,SIT
8208552132000,0.045017,-7.17400735701534,-0.835684791026809,-6.65838345625322,-0.032070424,0.014049901,0.0125227375,286.36548,171.25032,-28.974062,SIT
8208557168000,0.050053,-7.1728014509799,-0.834961246398192,-6.65765991011357,-0.03940081,0.009468411,0.008552114,286.37503,171.27226,-29.179346,SIT
8208562153000,0.055038,-7.17160775725737,-0.834245029167521,-6.65694369138716,-0.031154128,0.004276057,0.013744468,286.38916,171.29097,-29.38092,SIT
8208567131000,0.060016,-7.17041573973466,-0.833529817658137,-6.65622847838415,-0.035124753,0.013133603,0.01160644,286.4011,171.31241,-29.575302,SIT
8208572112000,0.064997,-7.1692230038406,-0.832814175125344,-6.65551283435683,-0.035124753,0.007330383,0.016187929,286.41663,171.33203,-29.77196,SIT
8208577157000,0.070042,-7.16801494269112,-0.832089337426501,-6.65478799514425,-0.029321533,0.011301007,0.016798794,286.43204,171.34984,-29.95926,SIT
8208582988000,0.075873,-7.16661866824858,-0.831251571594597,-6.65395022756277,-0.03176499,0.013744468,0.015882496,286.44882,171.36961,-30.145023,SIT
8208587133000,0.080018,-7.16562611850337,-0.830656040918342,-6.65335469564282,-0.028405234,0.005497787,0.010079277,286.4646,171.38544,-30.328794,SIT
8208592176000,0.085061,-7.16441853626812,-0.829931490568438,-6.65263014377979,-0.0290161,0.0061086523,0.008857546,286.483,171.40292,-30.505976,SIT
8208597174000,0.090059,-7.16322172960309,-0.829213405569663,-6.65191205728138,-0.028710667,0.01038471,0.016493361,286.5029,171.41937,-30.68105,SIT
8208602164000,0.095049,-7.16202683859498,-0.828496469966645,-6.65119512018113,-0.035430185,0.011911872,0.013744468,286.51962,171.43556,-30.85265,SIT
8208607170000,0.100055,-7.16082811627302,-0.827777235572114,-6.65047588428456,-0.031154128,0.014966198,0.013744468,286.54077,171.45007,-31.019722,SIT
8208612173000,0.105058,-7.15963011232241,-0.827058432200991,-6.64975707941231,-0.03726278,0.013439035,0.016187929,286.56232,171.46829,-31.184315,SIT
8208617166000,0.110051,-7.15843450294296,-0.826341065574564,-6.64903971128775,-0.032070424,0.01282817,0.017104227,286.58423,171.48206,-31.34445,SIT
8208622158000,0.115043,-7.15723913302062,-0.825623842622606,-6.64832248683796,-0.028405234,0.008246681,0.013133603,286.60562,171.49686,-31.502815,SIT
8208627177000,0.120062,-7.15603729775615,-0.824902740459971,-6.64760138316939,-0.03940081,0.004581489,0.01038471,286.62836,171.51385,-31.658054,SIT
8208632146000,0.125031,-7.15484743534748,-0.824188822020813,-6.6468874632393,-0.030543262,0.009773844,0.011911872,286.65204,171.52478,-31.80899,SIT
8208637170000,0.130055,-7.15502638533911,-0.823375083124541,-6.64556711242116,-0.03176499,0.007330383,0.016798794,286.67584,171.54053,-31.960075,SIT
8208642183000,0.135068,-7.16102004546885,-0.822176352099957,-6.64173116493131,-0.027488936,0.002443461,0.0106901415,286.69727,171.55095,-32.10693,SIT
8208647157000,0.140042,-7.16696707628579,-0.820986946930141,-6.6379250602406,-0.02687807,0.011911872,0.013744468,286.72974,171.57242,-32.258278,SIT
8208652173000,0.145058,-7.17296432328574,-0.819787498532113,-6.63408681715082,-0.03604105,0.009773844,0.0125227375,286.7583,171.59314,-32.410755,SIT
8208657176000,0.150061,-7.17894602718143,-0.818591158752341,-6.63025852166075,-0.032070424,0.004276057,0.009773844,286.78827,171.61028,-32.55869,SIT
8208662173000,0.155058,-7.18492055733669,-0.817396253719456,-6.62643481737055,-0.027488936,0.008857546,0.015271631,286.8215,171.63007,-32.701862,SIT
8208667168000,0.160053,-7.19089269624514,-0.816201826935535,-6.6226126434803,-0.027794369,0.0125227375,0.007330383,286.8494,171.64713,-32.843193,SIT
8208672147000,0.165032,-7.1968457051791,-0.815011226143313,-6.61880271278971,-0.024740042,0.016187929,0.014049901,286.8849,171.66501,-32.98151,SIT
8208677139000,0.170024,-7.20281425721734,-0.813817516732835,-6.61498283449939,-0.032070424,0.011911872,0.0143553335,286.91568,171.68271,-33.11759,SIT
8208682160000,0.175045,-7.20881748233432,-0.8126168727124,-6.61114076540972,-0.03573562,0.016798794,0.011301007,286.9489,171.69897,-33.247627,SIT
8208687170000,0.180055,-7.21480755559384,-0.811418859061259,-6.6073071135198,-0.034208454,0.011301007,0.013133603,286.9834,171.71611,-33.379448,SIT
8208692135000,0.18502,-7.22074382580014,-0.810231606011775,-6.6035078956289,-0.030543262,0.02321288,0.020158553,287.02032,171.73349,-33.502544,SIT
8208697145000,0.19003,-7.22673389905966,-0.809033592360635,-6.59967424373898,-0.036651913,0.015577064,0.018325957,287.05377,171.75127,-33.62984,SIT
8208702163000,0.195048,-7.23273353730643,-0.807833665713644,-6.59583447024924,-0.035124753,0.015271631,0.022907447,287.09323,171.76804,-33.749958,SIT
8208707163000,0.200048,-7.2387116543319,-0.806638043307315,-6.59200847035911,-0.03390302,0.018936822,0.018936822,287.1293,171.7842,-33.868176,SIT
8208712175000,0.20506,-7.24470411883823,-0.805439551407212,-6.58817328806923,-0.03970624,0.01740966,0.016798794,287.16754,171.80222,-33.985893,SIT
8208717165000,0.21005,-7.25067027962966,-0.804246320245697,-6.58435494017888,-0.035124753,0.0067195175,0.017715093,287.20547,171.81691,-34.102806,SIT
8208722160000,0.215045,-7.25664241853811,-0.803051893461775,-6.58053276628863,-0.036957346,0.018020526,0.016493361,287.24344,171.83333,-34.21147,SIT
8208727250000,0.220135,-7.26272814167004,-0.801834749852133,-6.57663789840048,-0.03573562,0.0106901415,0.010079277,287.27853,171.84682,-34.325897,SIT
8208732137000,0.225022,-7.26857115325074,-0.800666148512187,-6.57289836610786,-0.02565634,0.014660766,0.012217305,287.3178,171.85944,-34.43215,SIT
8208737161000,0.230046,-7.27457796523793,-0.799464787118309,-6.56905400141825,-0.029321533,0.014660766,0.015577064,287.35492,171.87375,-34.53914,SIT
8208742852000,0.235737,-7.28138225803633,-0.798103929695426,-6.5646992483433,-0.0290161,0.00580322,0.0143553335,287.3913,171.88403,-34.64529,SIT
8208747137000,0.240022,-7.28650550432716,-0.797079281293203,-6.56142036643745,-0.03023783,-0.0012217305,0.008246681,287.42755,171.89488,-34.748768,SIT
8208752130000,0.245015,-7.29247525198879,-0.795885332758244,-6.55759972294716,-0.025961773,-0.0009162979,0.010079277,287.4663,171.90514,-34.85092,SIT
8208757152000,0.250037,-7.29847967272918,-0.794684449613328,-6.55375688865751,-0.02687807,0.003970624,0.0125227375,287.50342,171.91565,-34.951416,SIT
8208762169000,0.255054,-7.30447811535254,-0.793484762090818,-6.54991788036775,-0.03604105,0.004886922,0.017715093,287.54218,171.92752,-35.051113,SIT
8208767156000,0.260041,-7.31044068927375,-0.792292248302746,-6.54610182807732,-0.036651913,-0.0015271631,0.004276057,287.5755,171.93459,-35.14873,SIT
8208772154000,0.265039,-7.31641641505241,-0.79109710414538,-6.54227735858714,-0.03176499,-0.011911872,0.010079277,287.61737,171.9462,-35.246468,SIT
8208777240000,0.270125,-7.32249735569072,-0.789880917033663,-6.5383855514989,-0.03726278,-0.00030543262,0.019242255,287.65695,171.95837,-35.337383,SIT
8208783006000,0.275891,-7.3293913202445,-0.788502125274686,-6.5339734084256,-0.02107485,-0.008857546,0.0106901415,287.6909,171.96204,-35.43437,SIT
8208787157000,0.280042,-7.33435435299905,-0.787509519552952,-6.5307970633168,-0.03390302,-0.012217305,0.006414085,287.7307,171.9756,-35.52541,SIT
8208792176000,0.285061,-7.34035518686922,-0.78630935378148,-6.52695652462709,-0.03145956,-0.018325957,0.005192355,287.76828,171.98068,-35.617504,SIT
8208797174000,0.290059,-7.34633091264788,-0.785114209624114,-6.52313205513691,-0.028099801,-0.028710667,0.0021380284,287.80353,171.98718,-35.709614,SIT
8208802149000,0.295034,-7.35227913908823,-0.783924565329818,-6.51932518524622,-0.037873644,-0.029321533,0.0021380284,287.83997,171.99619,-35.798927,SIT
8208807158000,0.300043,-7.35826801672435,-0.782726790803158,-6.51549229855628,-0.035124753,-0.048563786,-0.0015271631,287.87262,172.00012,-35.894234,SIT
8208812655000,0.30554,-7.36484035858215,-0.781412323529641,-6.51128599427707,-0.038789943,-0.07666359,-0.0033597588,287.90564,172.00783,-35.990467,SIT
8208817135000,0.31002,-7.37019675143698,-0.780341045853571,-6.50785789837551,-0.03940081,-0.0888809,-0.0070249503,287.93686,172.013,-36.085476,SIT
8208822166000,0.315051,-7.37621193278801,-0.779138010588323,-6.50400817728605,-0.03359759,-0.119729586,-0.018936822,287.96204,172.01556,-36.191147,SIT
8208827223000,0.320108,-7.38225820034757,-0.777928758086563,-6.50013856099717,-0.049480084,-0.15760323,-0.013133603,287.99133,172.02539,-36.30089,SIT
8208832128000,0.325013,-7.38812273314956,-0.776755852505955,-6.49638525510495,-0.080634214,-0.2134974,-0.014049901,288.0116,172.03404,-36.421318,SIT
8208837145000,0.33003,-7.39468558080171,-0.775026109599143,-6.49237970959914,-0.09621128,-0.26083946,-0.015271631,288.03235,172.04343,-36.54794,SIT
8208842201000,0.335086,-7.4048603659442,-0.769938717027898,-6.4872923170279,-0.11942416,-0.29565877,-0.02107485,288.04892,172.06038,-36.683884,SIT
8208847155000,0.34004,-7.41482988445605,-0.764953957771974,-6.48230755777197,-0.15363261,-0.30848694,-0.03481932,288.07513,172.09135,-36.86208,SIT
8208852131000,0.345016,-7.42484367616274,-0.759947061918628,-6.47730066191863,-0.18051068,-0.3100141,-0.043066,288.1002,172.12515,-37.043144,SIT
8208857160000,0.350045,-7.43496412602065,-0.754886836989673,-6.47224043698967,-0.21410827,-0.30757064,-0.053145275,288.11954,172.16472,-37.222195,SIT
8208862171000,0.355056,-7.44504835235551,-0.749844723822246,-6.46719832382225,-0.21899518,-0.2648101,-0.063224554,288.13858,172.20154,-37.38621,SIT
8208867144000,0.360029,-7.45505610680836,-0.744840846595821,-6.46219444659582,-0.19456059,-0.1872302,-0.08032878,288.15402,172.23535,-37.535286,SIT
8208872354000,0.365239,-7.46554080431476,-0.739598497842619,-6.45695209784262,-0.14996742,-0.101098195,-0.09743301,288.16913,172.26302,-37.666107,SIT
8208877256000,0.370141,-7.47540567709334,-0.73466606145333,-6.45201966145333,-0.1001819,-0.055588737,-0.11759156,288.1795,172.27971,-37.78276,SIT
8208882747000,0.375632,-7.48645586404299,-0.729140967978506,-6.44649456797851,-0.048563786,-0.071776666,-0.116675265,288.19305,172.28615,-37.89053,SIT
8208887174000,0.380059,-7.49536483829651,-0.724686480851745,-6.44204008085175,-0.014049901,-0.14874569,-0.1160644,288.19876,172.28142,-37.999767,SIT
8208892284000,0.385169,-7.50564829400817,-0.719544752995917,-6.43689835299592,-0.00061086525,-0.21013765,-0.11209377,288.2066,172.2706,-38.10749,SIT
8208897230000,0.390115,-7.51560171317643,-0.714568043411783,-6.43192164341178,-0.00061086525,-0.23182335,-0.10629055,288.209850328582,172.26555448994,-38.1670435203721,SIT
8208902175000,0.39506,-7.52555311992675,-0.709592340036624,-6.42694594003662,-0.022602014,-0.24251351,-0.106595986,288.2131,172.26051,-38.226585,SIT
8208907175000,0.40006,-7.53561520966418,-0.704561295167907,-6.42191489516791,-0.03481932,-0.21655174,-0.10629055,288.2199,172.2452,-38.3439,SIT
8208912187000,0.405072,-7.54570144841699,-0.699518175791507,-6.41687177579151,-0.059253927,-0.1518,-0.0870483,288.23682,172.24199,-38.457882,SIT
8208917141000,0.410026,-7.55567096692883,-0.694533416535583,-6.41188701653558,-0.06627888,-0.07880162,-0.06811147,288.2567,172.23769,-38.559692,SIT
8208922156000,0.415041,-7.56576324293548,-0.689487278532261,-6.40684087853226,-0.07086037,-0.019547688,-0.065973446,288.28128,172.23857,-38.6451,SIT
8208927209000,0.420094,-7.57593199082413,-0.684402904587936,-6.40175650458794,-0.09285152,0.046731193,-0.08002335,288.3122,172.24513,-38.706383,SIT
8208932160000,0.425045,-7.58589547208213,-0.679421163958934,-6.39677476395893,-0.081855945,0.009773844,-0.07727446,288.3474,172.24852,-38.779667,SIT
8208937137000,0.430022,-7.59591127620677,-0.674413261896614,-6.39176686189661,-0.07696902,-0.025045475,-0.080634214,288.37982,172.2542,-38.831745,SIT
8208942170000,0.435055,-7.60603977573647,-0.669349012131764,-6.38670261213176,-0.062308256,-0.046120327,-0.089186326,288.41003,172.25456,-38.889137,SIT
8208947194000,0.440079,-7.61615016350464,-0.664293818247679,-6.38164741824768,-0.054367006,-0.0852157,-0.09437868,288.4371,172.2551,-38.96015,SIT
8208952223000,0.445108,-7.62627061336255,-0.659233593318724,-6.37658719331872,-0.052534413,-0.092240654,-0.09315695,288.4645,172.25322,-39.0266,SIT
8208957120000,0.450005,-7.63612542405139,-0.654306187974304,-6.3716597879743,-0.05131268,-0.10323623,-0.09468412,288.48676,172.24818,-39.10326,SIT
8208962140000,0.455025,-7.64622776214777,-0.649255018926113,-6.36660861892611,-0.0693332,-0.07544186,-0.10140363,288.51007,172.24623,-39.169186,SIT
8208967136000,0.460021,-7.65628180221342,-0.644227998893292,-6.36158159889329,-0.083383106,-0.12767084,-0.10262536,288.52945,172.24376,-39.25941,SIT
8208972112000,0.464997,-7.66629559392011,-0.639221103039946,-6.35657470303995,-0.09682214,-0.15210545,-0.102319926,288.55096,172.24408,-39.33229,SIT
8208977157000,0.470042,-7.67644824246518,-0.634144778767411,-6.35149837876741,-0.10995574,-0.1704314,-0.10354166,288.56897,172.24678,-39.416374,SIT
8208982980000,0.475865,-7.68816655217339,-0.628285623913305,-6.3456392239133,-0.09437868,-0.13072516,-0.10262536,288.59042,172.24637,-39.489323,SIT
8208987129000,0.480014,-7.69651607423751,-0.624110862881244,-6.34146446288124,-0.086437434,-0.1414153,-0.10048734,288.60785,172.25027,-39.579803,SIT
8208992195000,0.48508,-7.70671098355948,-0.619013408220261,-6.33636700822026,-0.077579886,-0.14508049,-0.09437868,288.63043,172.2513,-39.655758,SIT
8208997159000,0.490044,-7.7167006262508,-0.6140185868746,-6.3313721868746,-0.07269296,-0.1337795,-0.100792766,288.64996,172.24937,-39.728363,SIT
8209002174000,0.495059,-7.72679290225745,-0.608972448871278,-6.32632604887128,-0.076358154,-0.10140363,-0.10567969,288.67383,172.24864,-39.79484,SIT
8209007163000,0.500048,-7.73683285539745,-0.603952472301273,-6.32130607230127,-0.0720821,-0.082161374,-0.12950343,288.68872,172.24033,-39.859047,SIT
8209012172000,0.505057,-7.74691305689641,-0.598912371551793,-6.31626597155179,-0.062002823,-0.058337633,-0.14110987,288.70914,172.23282,-39.91192,SIT
8209017183000,0.510068,-7.75699728323127,-0.593870258384366,-6.31122385838437,-0.07360926,-0.03573562,-0.15668693,288.72104,172.22397,-39.957176,SIT
8209022169000,0.515054,-7.76703119911743,-0.588853300441282,-6.30620690044128,-0.070554934,-0.034208454,-0.17898351,288.72693,172.20642,-39.999775,SIT
8209027183000,0.520068,-7.77712146270613,-0.583808168646934,-6.30116176864693,-0.09560041,-0.050396383,-0.19883664,288.7288,172.19519,-40.039528,SIT
8209032143000,0.525028,-7.78710305572566,-0.578817372137168,-6.29617097213717,-0.110872045,-0.06994407,-0.21655174,288.7238,172.17763,-40.078014,SIT
8209037112000,0.529997,-7.79330683668987,-0.583464999294048,-6.29712835279929,-0.12308934,-0.083383106,-0.2406809,288.70905,172.16016,-40.117188,SIT
8209042199000,0.535084,-7.77897674921071,-0.640785000068634,-6.33056504070007,-0.14019357,-0.10598512,-0.25900686,288.68872,172.14505,-40.16293,SIT
8209047122000,0.540007,-7.75268878409629,-0.704195764872731,-6.35617938153118,-0.1572978,-0.10873401,-0.2770274,288.67346,172.14958,-40.250805,SIT
8209052132000,0.545017,-7.63434859033149,-0.827269434910221,-6.33251138232044,-0.15790866,-0.09896017,-0.28405234,288.6554,172.15259,-40.339153,SIT
8209057131000,0.550016,-7.52237734597156,-0.94805846943128,-6.30884632085308,-0.17562376,-0.09315695,-0.29016098,288.64148,172.15823,-40.43908,SIT
8209062147000,0.555032,-7.46909404255319,-1.04978102234043,-6.28462673404255,-0.18417588,-0.07422013,-0.28863382,288.62988,172.1619,-40.53048,SIT
8209067864000,0.560749,-7.41244825,-1.161187825,-6.2452752375,-0.18325958,-0.05681047,-0.28008172,288.6089,172.13895,-40.60019,SIT
8209072144000,0.565029,-7.38057539618974,-1.23290220369362,-6.18551311658243,-0.19975294,-0.05131268,-0.29016098,288.58286,172.11868,-40.665565,SIT
8209077261000,0.570146,-7.35028892773893,-1.32121563092298,-6.11789078323662,-0.17837265,-0.04062254,-0.29626966,288.55646,172.07019,-40.716053,SIT
8209082236000,0.575121,-7.41172611888112,-1.43700127356048,-6.09662402147002,-0.16279559,-0.053145275,-0.31429017,288.52173,172.02298,-40.769234,SIT
8209087287000,0.580172,-7.47410184801865,-1.55455570189456,-6.07503238052869,-0.160963,-0.07147124,-0.32925636,288.48184,171.95374,-40.82071,SIT
8209092149000,0.585034,-7.53414358135198,-1.66771143948321,-6.0542486627982,-0.16035213,-0.06261369,-0.35460728,288.43402,171.8772,-40.8654,SIT
8209097390000,0.590275,-7.5983655128029,-1.78656330214654,-6.03107923245564,-0.16920967,-0.056505036,-0.37995818,288.42493,171.8208,-40.951603,SIT
8209102136000,0.595021,-7.65039945785156,-1.85594169934173,-6.00072629404694,-0.20250183,-0.03573562,-0.39278635,288.41382,171.76796,-41.02875,SIT
8209107121000,0.600006,-7.70505373852318,-1.92881386748712,-5.96884483640527,-0.23273966,-0.0009162979,-0.42485678,288.37967,171.66039,-41.113865,SIT
8209112145000,0.60503,-7.78039978909018,-1.90786363270944,-5.97079248681814,-0.27916542,0.0070249503,-0.45265114,288.34335,171.56348,-41.19808,SIT
8209117117000,0.610002,-7.85665377703934,-1.87926833746372,-5.97555836106496,-0.30665436,0.028710667,-0.48441613,288.2987,171.46376,-41.26473,SIT
8209122119000,0.615004,-7.86876184464294,-1.84190122543142,-6.04002974767806,-0.34208453,0.039095376,-0.48991394,288.3034,171.37468,-41.361828,SIT
8209127108000,0.619993,-7.87546511198616,-1.80391602048824,-6.10929693688444,-0.3820962,0.059864793,-0.5222898,288.2893,171.2827,-41.44422,SIT
8209132132000,0.625017,-7.8822154056587,-1.76566433284852,-6.17905006548193,-0.41416663,0.093462385,-0.5458081,288.2912,171.20996,-41.537514,SIT
8209137844000,0.630729,-7.88989010260487,-1.72217435677407,-6.25835537411028,-0.44165558,0.12156218,-0.5739079,288.28073,171.13864,-41.621883,SIT
8209142148000,0.635033,-7.88186885474277,-1.71110841824759,-6.29478840669212,-0.4560109,0.160963,-0.60048056,288.2659,171.0681,-41.690174,SIT
8209147128000,0.640013,-7.86749210715434,-1.70631616905145,-6.32833405098473,-0.49571714,0.19150625,-0.6169739,288.24634,171.00618,-41.750076,SIT
8209152134000,0.645019,-7.8535387724243,-1.69865851494953,-6.33082640381832,-0.54550266,0.22540927,-0.6267477,288.2271,170.96796,-41.780167,SIT
8209157121000,0.650006,-7.83989579920015,-1.68956319946677,-6.31718347808037,-0.6010914,0.23365596,-0.64812803,288.19824,170.93445,-41.806145,SIT
8209162184000,0.655069,-7.841759106928,-1.67494316315738,-6.29260975622938,-0.6404922,0.23823744,-0.66675943,288.24847,170.93396,-41.85566,SIT
8209167129000,0.660014,-7.85554445798564,-1.65656264709878,-6.26044388911314,-0.68752885,0.21624629,-0.6994407,288.28168,170.93948,-41.906605,SIT
8209172131000,0.665016,-7.80292672682112,-1.66708793304112,-6.3186175266124,-0.75411314,0.20341812,-0.72265357,288.29785,170.95522,-41.95188,SIT
8209177182000,0.670067,-7.68176840774369,-1.7074740569714,-6.47006529367564,-0.8032878,0.22113322,-0.7464773,288.30072,170.9702,-41.99126,SIT
8209182938000,0.675823,-7.48561719679469,-1.740929591568,-6.62716680710367,-0.8176431,0.2837469,-0.768163,288.295,170.98987,-42.025677,SIT
8209187137000,0.680022,-7.31917589373376,-1.76028322675907,-6.73554740668014,-0.80573124,0.3567453,-0.78038037,288.2848,171.01076,-42.049923,SIT
8209192140000,0.685025,-7.17550028419789,-1.73134287669346,-6.88026554123787,-0.79198676,0.3866777,-0.786489,288.2735,171.02531,-42.028393,SIT
8209197136000,0.690021,-7.0856114449953,-1.65144186590126,-7.04006735424277,-0.79901177,0.4538729,-0.78801614,288.26712,171.04012,-41.97596,SIT
8209202131000,0.695016,-7.0351545375476,-1.54625493482483,-7.10331538750952,-0.81122905,0.5122105,-0.77579886,288.26556,171.05229,-41.873325,SIT
8209207694000,0.700579,-7.00979479916222,-1.40931229458302,-7.09824343983244,-0.8445212,0.50732356,-0.754724,288.26578,171.0722,-41.77227,SIT
8209212110000,0.704995,-7.11247224265506,-1.31426306800871,-7.02794836158868,-0.8594874,0.4822781,-0.7492262,288.2602,171.1087,-41.632515,SIT
8209217167000,0.710052,-7.3472199935503,-1.21844765029182,-6.88422536007518,-0.872621,0.40561453,-0.76083267,288.24976,171.1526,-41.512054,SIT
8209222139000,0.715024,-7.5419818329215,-1.11325606078217,-6.78367226992017,-0.90377516,0.33169982,-0.79168135,288.24728,171.22787,-41.39986,SIT
8209227153000,0.720038,-7.69714421345752,-0.994602648056453,-6.72890916368561,-0.9596693,0.2779437,-0.7993172,288.24255,171.31271,-41.306694,SIT
8209232127000,0.725012,-7.83296104744866,-0.858756100803775,-6.67101073734702,-1.0137309,0.21380283,-0.8249735,288.16458,171.40633,-41.290703,SIT
8209237126000,0.730011,-7.9372300152458,-0.689939316050612,-6.60646302926779,-1.0793989,0.14080444,-0.8371908,288.08344,171.51375,-41.29299,SIT
8209242187000,0.735072,-7.99068304642022,-0.567976806049602,-6.45266403740758,-1.1404854,0.06872234,-0.8564331,287.96637,171.64572,-41.342274,SIT
8209247105000,0.73999,-7.97745921871783,-0.510673696890969,-6.19259614701919,-1.1936307,0.01282817,-0.86834496,287.84317,171.78624,-41.406147,SIT
8209252073000,0.744958,-7.95935763941944,-0.494899702869163,-5.99326386110644,-1.2534955,-0.012217305,-0.8729264,287.70538,171.96594,-41.50255,SIT
8209257110000,0.749995,-7.92891705862432,-0.586221805494321,-5.95267633175221,-1.2910637,-0.05497787,-0.8689558,287.56104,172.14755,-41.61729,SIT
8209262081000,0.754966,-7.86717297267631,-0.683112536087341,-5.93705785618176,-1.3338243,-0.115453534,-0.88331115,287.39703,172.33717,-41.772766,SIT
8209267094000,0.759979,-7.75384505252287,-0.791718463676601,-5.96066781900266,-1.350623,-0.14049901,-0.8848383,287.2388,172.52826,-41.92843,SIT
8209272076000,0.764961,-7.59896469974555,-0.835789606870229,-5.97429471399491,-1.3729197,-0.1554652,-0.88422745,287.0516,172.70248,-42.09484,SIT
8209277330000,0.770215,-7.35274965179096,-0.757000740105696,-5.96937041303582,-1.4138476,-0.16340645,-0.86834496,286.8689,172.88289,-42.26389,SIT
8209282082000,0.774967,-7.16262375220101,-0.66520012833119,-6.03157597263824,-1.4587462,-0.17867808,-0.8335256,286.69055,173.04568,-42.415005,SIT
8209287116000,0.780001,-7.03386111336433,-0.522130651350282,-6.24618023790682,-1.4660766,-0.19242255,-0.784351,286.524,173.2116,-42.56652,SIT
8209292098000,0.784983,-6.93054676615462,-0.397251990470028,-6.4237323358741,-1.4407257,-0.19364429,-0.7318166,286.375040828108,173.394332837663,-42.6843455148801,SIT
8209297163000,0.790048,-6.88600072967106,-0.312209655209551,-6.51687382940391,-1.4135422,-0.19547687,-0.7144069,286.2236,173.58011,-42.804134,SIT
8209302084000,0.794969,-6.84272115503423,-0.229585107960427,-6.60736727257472,-1.3402383,-0.17989981,-0.68203104,286.12137,173.79242,-42.87557,SIT
8209307068000,0.799953,-6.94515963638873,-0.186119372592294,-6.69562414839563,-1.2583824,-0.12767084,-0.659429,286.0242,173.99486,-42.936,SIT
8209312077000,0.804962,-7.05777748758819,-0.161155647436873,-6.74900396152989,-1.180497,-0.06780604,-0.65026605,285.93567,174.18285,-42.989265,SIT
8209317048000,0.809933,-7.11964996295952,-0.214189041513182,-6.60316205744523,-1.0870347,-0.028099801,-0.65148777,285.86063,174.37112,-43.01056,SIT
8209322339000,0.815224,-7.18307300195976,-0.270722948813666,-6.44541369987424,-1.0048733,-0.016187929,-0.66339964,285.78772,174.55125,-43.028183,SIT
8209327057000,0.819942,-7.1925434648187,-0.322810252259484,-6.25600523380843,-0.9410379,0.020158553,-0.659429,285.72318,174.71555,-43.02796,SIT
8209332038000,0.824923,-7.20648723254455,-0.38040598123868,-6.06296622345895,-0.92179567,0.050701816,-0.643852,285.62933,174.85202,-43.054165,SIT
8209337047000,0.829932,-7.26721471155906,-0.469161880942643,-5.95085354552537,-0.9315695,0.07666359,-0.61575216,285.54358,174.98239,-43.07146,SIT
8209342292000,0.835177,-7.33738370858393,-0.564290699398578,-5.83203434007654,-0.9615019,0.10842858,-0.6001751,285.4421,175.09589,-43.10404,SIT
8209347061000,0.839946,-7.47888577054857,-0.6766597773501,-5.70717988627665,-0.9993755,0.12797627,-0.5839872,285.3525,175.21687,-43.133076,SIT
8209352096000,0.844981,-7.62828037780208,-0.795296453275014,-5.57536143903773,-1.0482447,0.1133155,-0.5919284,285.24847,175.32225,-43.185604,SIT
8209357113000,0.849998,-7.9015810173324,-0.975133393098914,-5.52232697786632,-1.1142182,0.08002335,-0.61544675,285.14453,175.43732,-43.23716,SIT
8209362074000,0.854959,-8.1950015095129,-1.16443729575257,-5.48446613210479,-1.196685,-0.0021380284,-0.657291,285.02728,175.55869,-43.305172,SIT
8209367127000,0.860012,-8.47556387257797,-1.31577620604355,-5.5483969948699,-1.2767084,-0.08155051,-0.70402217,284.87323,175.65561,-43.420296,SIT
8209372134000,0.865019,-8.74987383207234,-1.45735525235283,-5.63245971097989,-1.3610078,-0.16646078,-0.7696902,284.69196,175.75624,-43.556202,SIT
8209377134000,0.870019,-8.88832710322581,-1.5953106183871,-5.75164492258065,-1.4358387,-0.22876903,-0.82741696,284.4749,175.82256,-43.7495,SIT
8209382074000,0.874959,-8.96014364212524,-1.72996747246679,-5.88630163605313,-1.491733,-0.24007004,-0.88514376,284.23114,175.88712,-43.945854,SIT
8209387130000,0.880015,-8.96768031192322,-1.82577988935031,-6.00705475555556,-1.5332718,-0.23579398,-0.95722586,283.9376,175.9167,-44.171978,SIT
8209393051000,0.885936,-8.91535082428941,-1.89904122667959,-6.13264574444444,-1.5781704,-0.22876903,-1.0183123,283.6262,175.94739,-44.39288,SIT
8209397130000,0.890015,-8.83371460456942,-1.9137961039836,-6.26246316807264,-1.6016886,-0.23335053,-1.0488557,283.29312,175.94507,-44.595932,SIT
8209402133000,0.895018,-8.67466052987698,-1.88572767177309,-6.47765405833822,-1.6096299,-0.24465153,-1.1230757,282.92062,175.92711,-44.789677,SIT
8209407128000,0.900013,-8.44360010593507,-1.83100819013007,-6.70874608419499,-1.5793921,-0.2406809,-1.1841623,282.53802,175.88759,-44.944923,SIT
8209412127000,0.905012,-8.07730743749044,-1.72635314980872,-6.97038371231829,-1.5183055,-0.20066923,-1.2021828,282.14825,175.83775,-45.0868,SIT
8209417085000,0.90997,-7.74433620102183,-1.61242199098932,-7.13497888564793,-1.4492778,-0.15149458,-1.2165382,281.74738,175.77623,-45.164417,SIT
8209422164000,0.915049,-7.43256646870413,-1.48590667233628,-7.21179186047376,-1.3897184,-0.1001819,-1.2177598,281.3527,175.70517,-45.226543,SIT
8209427188000,0.920073,-7.11418869547944,-1.33562088069247,-7.27432489687181,-1.3432927,-0.08857546,-1.2299771,280.97156,175.63824,-45.201122,SIT
8209432182000,0.925067,-6.78122722367029,-1.14472306351991,-7.3142803272626,-1.352761,-0.03145956,-1.2189816,280.61105,175.57814,-45.148945,SIT
8209437089000,0.929974,-6.43412962268908,-0.96938964336337,-7.2931995860079,-1.378112,-0.015271631,-1.2055426,280.27966,175.53694,-45.042385,SIT
8209442293000,0.935178,-5.98505066134454,-0.833152116259998,-7.02577025685937,-1.4059063,-0.0842994,-1.1389582,279.9793,175.51428,-44.948555,SIT
8209447104000,0.939989,-5.58174952448201,-0.73513564887125,-6.77176488157922,-1.4214834,-0.11484267,-1.0164797,279.7314,175.54787,-44.78719,SIT
8209452057000,0.944942,-5.20525081110195,-0.725356473446036,-6.48816864107824,-1.4089607,-0.13622294,-0.89766645,279.51022,175.59616,-44.64874,SIT
8209457050000,0.949935,-4.8776696234524,-0.765848122457885,-6.26470992738989,-1.4089607,-0.1731803,-0.79412484,279.3308,175.68834,-44.499065,SIT
8209462544000,0.955429,-4.66409134914755,-0.952729035812868,-6.19529713459509,-1.41904,-0.2406809,-0.698219,279.19498,175.80307,-44.371105,SIT
8209467047000,0.959932,-4.57963603040427,-1.13373039242859,-6.24546691485618,-1.4208726,-0.28955013,-0.6243043,279.08557,175.9258,-44.2343,SIT
8209472058000,0.964943,-4.67924843984383,-1.39461953617673,-6.53007323998221,-1.3939945,-0.3023783,-0.573297,279.0037,176.05904,-44.111046,SIT
8209477063000,0.969948,-4.84434009187138,-1.64431126783648,-6.82019438505169,-1.3640621,-0.29138273,-0.5534439,278.91223,176.16005,-43.970524,SIT
8209482073000,0.974958,-5.17200240781561,-1.86730378751778,-7.12510237679977,-1.3267993,-0.24862215,-0.55680364,278.83228,176.25934,-43.827744,SIT
8209487065000,0.97995,-5.50867231086142,-2.06647399700375,-7.38041796629213,-1.2819008,-0.21960606,-0.56779927,278.71576,176.30252,-43.67343,SIT
8209492106000,0.984991,-5.89540836980857,-2.16190235066583,-7.41557595193508,-1.2379184,-0.19486602,-0.57543504,278.602,176.33899,-43.511208,SIT
8209497066000,0.989951,-6.34008300118946,-2.18658317377771,-7.38492458883911,-1.2330315,-0.14813483,-0.6059783,278.438,176.32108,-43.330322,SIT
8209502071000,0.994956,-6.97315299184367,-2.01258147071909,-7.16649687133699,-1.2052372,-0.08277224,-0.6053675,278.2885,176.29652,-43.142212,SIT
8209507076000,0.999961,-7.60622298249788,-1.83857976766046,-6.94806915383487,-1.181108,-0.052839845,-0.6151413,278.1062,176.24539,-42.98312,SIT
8209512075000,1.00496,-8.04696534683742,-1.6740748851559,-6.84041026570156,-1.1636983,-0.011301007,-0.6423248,277.92587,176.19005,-42.806606,SIT
8209517020000,1.009905,-8.38975219616927,-1.51586555737194,-6.78767387817372,-1.1572843,0.015577064,-0.677755,277.7447,176.13193,-42.63029,SIT
8209522065000,1.01495,-8.34198424266746,-1.2415411147503,-6.75968745259612,-1.1316279,0.048258353,-0.73823065,277.5082,176.10936,-42.631145,SIT
8209527073000,1.019958,-8.23268012693223,-0.951648211349584,-6.73592575303211,-1.1249083,0.098043874,-0.7706065,277.27478,176.08928,-42.618607,SIT
8209532081000,1.024966,-8.00527882746263,-0.708935665156892,-6.81857848184599,-1.1074986,0.10170906,-0.7593055,277.0086,176.08687,-42.663246,SIT
8209537111000,1.029996,-7.75686470894153,-0.473152513684118,-6.91962828457303,-1.0925325,0.06169739,-0.7538077,276.73254,176.07715,-42.703598,SIT
8209542159000,1.035044,-7.45200795041921,-0.286599396197081,-6.9826141341062,-1.0497719,0.022296581,-0.73731434,276.47314,176.11926,-42.732708,SIT
8209547141000,1.040026,-7.11124554487113,-0.138441904798675,-7.01718419136735,-1.0247264,0.090713486,-0.7370089,276.2153,176.15968,-42.741222,SIT
8209552133000,1.045018,-6.82393278052967,-0.140890369352624,-7.0840752648357,-1.0140363,0.106901415,-0.7199047,275.98856,176.25226,-42.719612,SIT
8209557126000,1.050011,-6.5659695212359,-0.225314682489456,-7.16849981794998,-1.0137309,0.12889257,-0.677755,275.77634,176.34616,-42.67847,SIT
8209562106000,1.054991,-6.43544335977564,-0.388629000597957,-7.3491548755008,-1.0042624,0.10170906,-0.6786713,275.55576,176.45491,-42.59511,SIT
8209567134000,1.060019,-6.38721404246795,-0.605661094672476,-7.59512449449119,-0.98654735,0.08460484,-0.6921103,275.34882,176.56699,-42.505985,SIT
8209572108000,1.064993,-6.34987854633293,-0.676174370994755,-7.59668598063863,-0.95142263,0.064446285,-0.7031059,275.13672,176.65187,-42.36838,SIT
8209577174000,1.070059,-6.31862686923714,-0.653851664580841,-7.44042717559584,-0.9297369,0.05009095,-0.72295904,274.91776,176.73186,-42.237232,SIT
8209582925000,1.07581,-6.41452764273392,-0.705383192388878,-7.31153049487518,-0.9120218,-0.03359759,-0.70066243,274.68387,176.76459,-42.079124,SIT
8209587130000,1.080015,-6.57390947523848,-0.795290905906231,-7.25022988197686,-0.9410379,-0.10140363,-0.68752885,274.44348,176.79909,-41.925232,CSO
8209592129000,1.085014,-6.76745228088387,-0.859267135375699,-7.17898934761954,-0.960891,-0.1908954,-0.675617,274.1956,176.83444,-41.82222,CSO
8209597139000,1.090024,-6.96608509179259,-0.874164600082799,-7.10946758638998,-0.97127575,-0.2593123,-0.66981375,273.9534,176.87648,-41.735756,CSO
8209602089000,1.094974,-7.24597954501405,-0.927424496598508,-7.14557756749685,-0.9773844,-0.2843578,-0.6621779,273.70673,176.90474,-41.70574,CSO
8209607124000,1.100009,-7.60578984746584,-1.01620883413121,-7.27641779280938,-1.0005972,-0.23487769,-0.66431594,273.463,176.93883,-41.674374,CSO
8209612132000,1.105017,-7.90995322622722,-1.05853805436623,-7.32297327183113,-1.001819,-0.14049901,-0.6621779,273.1908,176.96576,-41.674095,CSO
8209617132000,1.110017,-8.15311562790003,-1.04900225828936,-7.27529429144678,-1.0048733,-0.07788532,-0.6637051,272.92133,176.9975,-41.66829,CSO
8209622123000,1.115008,-8.27955007455704,-1.01974311985367,-7.21235287397969,-0.9746355,-0.0033597588,-0.64996064,272.65704,177.01167,-41.670624,CSO
8209627156000,1.120041,-8.26995450925742,-0.966965782271551,-7.13078781345809,-0.929126,0.082161374,-0.6203337,272.40472,177.02684,-41.65195,CSO
8209632132000,1.125017,-8.18245050768462,-0.914693659333467,-7.02617019356451,-0.89644474,0.1731803,-0.59986967,272.14996,177.04207,-41.64875,CSO
8209637122000,1.130007,-8.0009822538623,-0.86216335039972,-6.89245669351454,-0.8564331,0.2660318,-0.56138515,271.91983,177.05595,-41.621292,CSO
8209642141000,1.135026,-7.87270490648832,-0.861342870892394,-6.78186105949291,-0.80573124,0.33322698,-0.5174029,271.707,177.07646,-41.586582,CSO
8209647135000,1.14002,-7.81064201884608,-0.923405708684368,-6.70070207895788,-0.7593055,0.38423425,-0.49266282,271.50684,177.09363,-41.531197,CSO
8209652113000,1.144998,-7.74982974027844,-0.994424737445991,-6.66812898406145,-0.729984,0.39736784,-0.45142943,271.31024,177.12033,-41.456238,CSO
8209657121000,1.150006,-7.68996550753721,-1.07731398948632,-6.6957586706289,-0.6963864,0.4202753,-0.42730024,271.12128,177.13838,-41.366074,CSO
8209662089000,1.154974,-7.6623041308861,-1.15789031255226,-6.76899587062302,-0.67103547,0.46975538,-0.39461896,270.95117,177.14827,-41.268368,CSO
8209667131000,1.160016,-7.6918459219741,-1.23666869631896,-6.92655248391965,-0.64904433,0.5039638,-0.364992,270.79218,177.15642,-41.170956,CSO
8209672144000,1.165029,-7.72205710861795,-1.25783690682137,-7.03979956325442,-0.6188065,0.5439755,-0.34147367,270.6444,177.14508,-41.045937,CSO
8209677203000,1.170088,-7.75379119737999,-1.19436853994573,-7.08966789716478,-0.61575216,0.5555819,-0.30543262,270.5157,177.14377,-40.92295,CSO
8209682182000,1.175067,-7.7879464521028,-1.09646604474299,-7.09683918457944,-0.60139686,0.57696223,-0.27183503,270.34674,177.11739,-40.766136,CSO
8209687131000,1.180016,-7.8294730524338,-0.907289604332165,-6.99532975992991,-0.5885687,0.57940567,-0.23793201,270.19525,177.09894,-40.61578,CSO
8209692131000,1.185016,-7.87871588505587,-0.72425266978352,-6.92354308666201,-0.5870415,0.58551437,-0.23304509,270.04166,177.09496,-40.456795,CSO
8209697149000,1.190034,-7.95542190209497,-0.570840350364126,-6.96669022750399,-0.57940567,0.6239988,-0.20769419,269.9123,177.098,-40.292767,CSO
8209702143000,1.195028,-8.00995724936893,-0.43942202611165,-7.00356048038835,-0.5729916,0.6591236,-0.20555615,269.7723,177.13794,-40.15645,CSO
8209707119000,1.200004,-7.98219759468932,-0.388529193816505,-7.0174403318835,-0.5861252,0.68508536,-0.20952678,269.64172,177.1842,-40.01549,CSO
8209712122000,1.205007,-7.93653290699114,-0.352029512841223,-7.03201761043909,-0.57848936,0.7122689,-0.20005837,269.5089,177.25856,-39.869144,CSO
8209717132000,1.210017,-7.78572503547957,-0.402298862198305,-7.05029726278693,-0.5494733,0.7556403,-0.19181168,269.3758,177.32985,-39.714317,CSO
8209722357000,1.215242,-7.62315868008475,-0.467376586970339,-7.07748301737288,-0.5381723,0.79412484,-0.2012801,269.22754,177.41052,-39.5452,CSO
8209727241000,1.220126,-7.42001273559322,-0.650703440542373,-7.18153363661017,-0.51343226,0.8597928,-0.1994475,269.0888,177.48523,-39.360584,CSO
8209732211000,1.225096,-7.19197759094041,-0.842655076755081,-7.30267481370996,-0.5161811,0.9120218,-0.20861048,268.92712,177.54509,-39.140945,CSO
8209737125000,1.23001,-6.86775811712022,-1.05745038400276,-7.49315367523252,-0.50640726,0.9401216,-0.2180789,268.76862,177.59744,-38.915188,CSO
8209742133000,1.235018,-6.53733664278333,-1.27635451479159,-7.68727621054082,-0.48533243,0.9266826,-0.21868975,268.58908,177.60614,-38.639366,CSO
8209747132000,1.240017,-6.49169984449506,-1.45145367807749,-7.73736050193991,-0.46578476,0.94042706,-0.23273966,268.40625,177.61028,-38.35487,CSO
8209752436000,1.245321,-6.50209969704151,-1.62825081843681,-7.76076010908533,-0.46670106,0.9370673,-0.2415972,268.22827,177.61647,-38.086346,CSO
8209757115000,1.25,-6.51127407676716,-1.78421496243026,-7.78140240958182,-0.46395215,0.958753,-0.25411993,268.03937,177.55608,-37.715996,CSO
8209762092000,1.254977,-6.52103276193377,-1.95011227909096,-7.80335939388852,-0.45051312,0.94714653,-0.2706133,267.8326,177.49171,-37.361496,CSO
8209767135000,1.26002,-6.66165829272912,-2.10721153792498,-7.83800413599409,-0.47739118,0.9370673,-0.28924468,267.62848,177.43611,-37.00992,CSO
8209772134000,1.265019,-6.81204011906874,-2.26201616762749,-7.87338804079823,-0.48747048,0.9456194,-0.30695978,267.42612,177.37373,-36.665466,CSO
8209777157000,1.270042,-6.93040207939934,-2.34338386266542,-7.94049311295167,-0.5143485,0.9786061,-0.344528,267.19977,177.2433,-36.312935,CSO
8209782509000,1.275394,-7.04585207808541,-2.40591943349601,-8.02227021628343,-0.548557,0.9923506,-0.37568212,266.97894,177.119,-35.972095,CSO
8209787781000,1.280666,-7.1755808352649,-2.52881607036424,-7.98401245869205,-0.58551437,0.98624194,-0.36926803,266.77158,176.97035,-35.65612,CSO
8209792165000,1.28505,-7.28853642798013,-2.65046054784768,-7.9145014259106,-0.5833763,1.0320568,-0.3463606,266.57037,176.82268,-35.329098,CSO
8209797141000,1.290026,-7.29836848756219,-2.70154091036484,-7.76578969320066,-0.5696318,1.0118983,-0.3717115,266.32233,176.66199,-35.02639,CSO
8209802139000,1.295024,-7.25867976741293,-2.71642420632255,-7.5871893128524,-0.57604593,0.95233893,-0.41905355,266.0847,176.51062,-34.729694,CSO
8209807120000,1.300005,-7.052480439375,-2.730766503125,-7.31650075875,-0.59131753,0.91874135,-0.45142943,265.8511,176.33151,-34.461906,CSO
8209812150000,1.305035,-6.79441963272818,-2.74510325064484,-7.01543000894841,-0.602924,0.8472701,-0.45142943,265.61942,176.1561,-34.22737,CSO
8209817135000,1.31002,-6.45997732823046,-2.69899482489484,-6.72729415940526,-0.6423248,0.7846564,-0.46273044,265.37592,175.98315,-34.012676,CSO
8209822170000,1.315055,-6.09678834256089,-2.63296052654798,-6.43957304177834,-0.700357,0.7153232,-0.49113566,265.13254,175.81961,-33.82406,CSO
8209827193000,1.320078,-5.84242471256923,-2.58198819987797,-6.28754359504365,-0.7339546,0.65179324,-0.4978552,264.901,175.65543,-33.64697,CSO
8209832137000,1.325022,-5.63353108260584,-2.53754269337276,-6.18976363852436,-0.77671516,0.57971114,-0.5158757,264.66055,175.50465,-33.494312,CSO
8209837169000,1.330054,-5.40827917555664,-2.45582185618862,-6.1264392407195,-0.7687739,0.5513059,-0.52381694,264.42737,175.3598,-33.324017,CSO
8209842156000,1.335041,-5.17609861407876,-2.3490187901507,-6.08929023645114,-0.7816021,0.5174029,-0.50243664,264.2018,175.23445,-33.179058,CSO
8209847131000,1.340016,-5.01802262713874,-2.2048901372637,-6.14653005158603,-0.7874053,0.4746423,-0.5012149,263.97073,175.10945,-33.021782,CSO
8209852134000,1.345019,-4.92591233696465,-2.02578663792588,-6.28981296861049,-0.8151997,0.43890667,-0.5030475,263.7509,174.99786,-32.875633,CSO
8209857599000,1.350484,-4.8798272227446,-1.76835071817027,-6.2632801296061,-0.84665924,0.45112398,-0.5131268,263.531,174.91049,-32.69609,CSO
8209862146000,1.355031,-4.86280217210439,-1.53000049808425,-6.16964241774998,-0.8573494,0.44348818,-0.535118,263.31012,174.82439,-32.535213,CSO
8209867130000,1.360015,-4.8956436085842,-1.22593122709389,-6.0458792900149,-0.850019,0.40775254,-0.5311473,263.02005,174.77867,-32.317234,CSO
8209872145000,1.36503,-4.96244814206657,-0.891908509855936,-5.90749867352211,-0.8417723,0.36926803,-0.52778757,262.729,174.73392,-32.106552,CSO
8209877135000,1.37002,-5.05369566353428,-0.63937069106383,-5.826315428487,-0.8356637,0.33505958,-0.5317582,262.40988,174.75043,-31.918087,CSO
8209882141000,1.375026,-5.1623102321119,-0.441031195886525,-5.7838142320725,-0.84207773,0.32589662,-0.53023106,262.09866,174.77069,-31.738182,CSO
8209887127000,1.380012,-5.19683687650981,-0.162739091755725,-5.70827494849744,-0.8246681,0.31215215,-0.52534413,261.7613,174.86568,-31.599081,CSO
8209892140000,1.385025,-5.17364212416659,0.18054349480916,-5.60621784442941,-0.80878556,0.2968805,-0.49418998,261.43652,174.96724,-31.467827,CSO
8209897132000,1.390017,-5.14320436114149,0.600877276046535,-5.60712660316198,-0.80481493,0.26389378,-0.45753807,261.1059,175.1214,-31.37668,CSO
8209902132000,1.395017,-5.10511422491797,1.10319067467436,-5.71425497146266,-0.7797695,0.25809056,-0.42302418,260.78802,175.27061,-31.286327,CSO
8209907119000,1.400004,-5.06712312304862,1.60419805846575,-5.82110480600577,-0.75228053,0.27916542,-0.40866885,260.41617,175.50424,-31.191177,CSO
8209912141000,1.405026,-5.02886539022571,2.10872163604753,-5.92870453912698,-0.71868294,0.36377025,-0.40591997,260.05573,175.73276,-31.084072,CSO
8209917132000,1.410017,-5.10140300968914,2.56277599895034,-5.9900275827614,-0.6771441,0.45081854,-0.4260785,259.69498,175.95038,-30.973957,CSO
8209922137000,1.415022,-5.29974861374647,2.9643049022608,-5.99970302366774,-0.6337727,0.5109888,-0.44837508,259.33804,176.1587,-30.851784,CSO
8209927485000,1.42037,-5.5540907798568,3.3226947798568,-6.01738867279236,-0.59650993,0.5384777,-0.4709771,258.6664,176.59888,-30.539999,CSO
8209932139000,1.425024,-5.80938696063007,3.57799096063007,-6.0386633397136,-0.5925393,0.5861252,-0.47128254,258.01044,177.03748,-30.22543,CSO
8209937077000,1.429962,-6.00597368488259,3.85587921562197,-6.09495995414322,-0.6053675,0.59437186,-0.47219884,257.31967,177.57468,-29.961952,CSO
8209942137000,1.435022,-6.08590754477004,4.15210421406947,-6.2078076754706,-0.6010914,0.5867361,-0.47952923,256.64014,178.1027,-29.708275,CSO
8209947065000,1.43995,-6.09804901993896,4.42923904547304,-6.33850170447609,-0.59406644,0.58184916,-0.47555858,255.95078,178.71083,-29.520079,CSO
8209952138000,1.445023,-5.96775112849348,4.68983478144826,-6.51822299229631,-0.569021,0.60048056,-0.46761733,255.27312,179.3052,-29.342709,CSO
8209957139000,1.450024,-5.81993597283312,4.93553678848642,-6.68156357322122,-0.5488624,0.6236934,-0.4373795,254.50409,179.9637,-29.157982,CSO
8209962138000,1.455023,-5.57696666418549,5.12610096676286,-6.77684553799383,-0.52106804,0.6554584,-0.4166101,253.7521,-179.39813,-28.98161,CSO
8209967128000,1.460013,-5.32965094751354,5.29602146085672,-6.86069522043328,-0.48197266,0.6792821,-0.39614612,253.03743,-178.7159,-28.806826,CSO
8209972150000,1.465035,-5.05495936689316,5.35759029069424,-6.88437552058099,-0.44043383,0.68477994,-0.3652974,252.3494,-178.05464,-28.640905,CSO
8209977172000,1.470057,-4.78921873385099,5.40518605272263,-6.91439425008846,-0.41141775,0.6936375,-0.34574974,251.73277,-177.37552,-28.467197,CSO
8209982954000,1.475839,-4.54974385421663,5.35620249907608,-6.99603325989778,-0.38637227,0.7128797,-0.3295618,251.13858,-176.72214,-28.297548,CSO
8209987118000,1.480003,-4.38910553488692,5.3176647221683,-7.05830723010713,-0.37232238,0.72356987,-0.3231477,250.61676,-176.08017,-28.11743,CSO
8209992141000,1.485026,-4.31422493586668,5.23837928192473,-7.16842614496841,-0.37048978,0.7467828,-0.31520647,250.11105,-175.4579,-27.934868,CSO
8209997208000,1.490093,-4.23868840486219,5.15839932458566,-7.27950966907792,-0.36193767,0.7602218,-0.2938262,249.65044,-174.8712,-27.727308,CSO
8210002132000,1.495017,-4.22064285737473,4.94722122217609,-7.66943802274229,-0.3494149,0.7644979,-0.27947086,249.19873,-174.30255,-27.52261,CSO
8210007086000,1.499971,-4.20721156621685,4.72336778760026,-8.08580543068793,-0.3313944,0.786489,-0.25778514,248.7635,-173.74977,-27.31499,CSO
8210012143000,1.505028,-4.28354557294981,4.54727952879322,-8.40215154709972,-0.30940324,0.80848014,-0.21594086,248.28294,-173.2458,-27.058844,CSO
8210017122000,1.510007,-4.38346209056101,4.38832124289932,-8.68373465006191,-0.27763826,0.8405506,-0.19975294,247.80862,-172.76413,-26.802912,CSO
8210022139000,1.515024,-4.49649596181974,4.19394565242663,-8.95122106752778,-0.24281894,0.88606006,-0.18325958,247.31906,-172.37674,-26.482168,CSO
8210027155000,1.52004,-4.61511776370026,3.98407628865039,-9.21127677614208,-0.20250183,0.9370673,-0.1853976,246.8374,-172.01176,-26.164003,CSO
8210032133000,1.525018,-4.70424660812345,3.78249862811726,-9.39891668615813,-0.16676621,0.9425651,-0.1881465,246.32242,-171.72151,-25.828964,CSO
8210037128000,1.530013,-4.7733739949422,3.58499174971098,-9.537171408237,-0.1255328,0.9468411,-0.18936823,245.81882,-171.45296,-25.49602,CSO
8210042139000,1.535024,-4.80102409385568,3.44467994673614,-9.69596178657098,-0.084910266,0.9245446,-0.19394971,245.18575,-171.28159,-25.118702,CSO
8210047139000,1.540024,-4.80573147686787,3.33640890859221,-9.86542944288242,-0.03481932,0.90194255,-0.19822577,244.57645,-171.12877,-24.761547,CSO
8210052134000,1.545019,-4.75049568855527,3.13750292014038,-10.0880673606941,0.012217305,0.86193085,-0.2180789,243.9743,-171.0406,-24.425406,CSO
8210057116000,1.550001,-4.65747230713589,2.88168882764671,-10.3438812589199,0.058643065,0.8188649,-0.24556783,243.39291,-170.96872,-24.115202,CSO
8210062140000,1.555025,-4.48983276550209,2.60584716389825,-10.5703449374808,0.0852157,0.77854776,-0.27305678,242.79416,-170.94705,-23.808634,CSO
8210067140000,1.560025,-4.26481861696803,2.31724189267545,-10.7709011740729,0.086437434,0.7489208,-0.30604348,242.21027,-170.934,-23.52858,CSO
8210072119000,1.565004,-4.05340282503218,2.00676164887613,-10.9300190888207,0.0842994,0.72112644,-0.33353242,241.63531,-170.99486,-23.223639,CSO
8210077151000,1.570036,-3.84821491573423,1.6775069120507,-11.0636294264779,0.07971791,0.711658,-0.34972036,241.0773,-171.05399,-22.937962,CSO
8210082132000,1.575017,-3.7198661172028,1.3422464670979,-11.1576221688811,0.07544186,0.7058548,-0.35643986,240.54092,-171.1775,-22.614143,CSO
8210087122000,1.580007,-3.64467484307692,0.999708135192308,-11.2244589442308,0.07696902,0.6768387,-0.36010507,240.02487,-171.29674,-22.315136,CSO
8210092147000,1.585032,-3.54527850949827,0.650236149250196,-11.2020714037323,0.08032878,0.6435465,-0.3753767,239.52127,-171.48175,-21.973799,CSO
8210097134000,1.590019,-3.39050970347525,0.292666733478601,-10.9672499630126,0.09315695,0.6395759,-0.35735616,239.04868,-171.65834,-21.645748,CSO
8210102129000,1.595014,-3.28846654478969,-0.0266002286282683,-10.7911740981432,0.11728613,0.61666846,-0.34330627,238.59454,-171.90932,-21.31196,CSO
8210107116000,1.600001,-3.23869811782872,-0.307112851175635,-10.6735397632626,0.13958271,0.5696318,-0.33169982,238.16751,-172.15114,-20.99894,CSO
8210112812000,1.605697,-3.09928550414019,-0.605942566693995,-10.3628841475712,0.16829337,0.5644395,-0.3136793,237.75772,-172.43993,-20.662508,CSO
8210117131000,1.610016,-2.92125577530232,-0.813643843236319,-9.97291447612216,0.1957823,0.59803706,-0.29840767,237.37112,-172.72243,-20.339619,CSO
8210122125000,1.61501,-2.7592485986025,-1.00460037337807,-9.73409616094401,0.22876903,0.5662721,-0.2929099,237.0193,-173.04736,-20.033133,CSO
8210127145000,1.62003,-2.65246351169829,-1.13363246953725,-9.76524199713096,0.20677789,0.5390886,-0.2660318,236.69579,-173.34988,-19.724957,CSO
8210132119000,1.625004,-2.54352787685731,-1.23757926905464,-9.77444371619497,0.1863139,0.6386596,-0.23457226,236.39783,-173.67874,-19.383495,CSO
8210137137000,1.630022,-2.42546478116156,-1.28008201506486,-9.72721849764151,0.16768251,0.73914695,-0.1908954,236.1288,-173.98877,-19.056242,CSO
8210142124000,1.635009,-2.3207727643095,-1.33483433124388,-9.69971303447601,0.12095132,0.79534656,-0.1469131,235.88757,-174.29616,-18.689184,CSO
8210147133000,1.640018,-2.25499571449559,-1.42880140509305,-9.73260121596474,0.0842994,0.87995136,-0.08827003,235.6752,-174.5876,-18.293638,CSO
8210152151000,1.645036,-2.18985485651957,-1.52622374571172,-9.77453306414982,0.035124753,0.9245446,-0.004886922,235.48804,-174.85844,-17.876978,CSO
8210157113000,1.649998,-2.12831864243451,-1.6350954330511,-9.85026992021118,0.02107485,0.9682214,0.07849618,235.33105,-175.11758,-17.446508,CSO
8210162155000,1.65504,-2.07532274454915,-1.69253836034124,-9.90725457424859,-0.00030543262,0.9981538,0.15821409,235.21202,-175.36838,-16.999344,CSO
8210167128000,1.660013,-2.06114991653606,-1.53663710420593,-9.88363319422676,-0.008857546,1.0186177,0.2489276,235.13324,-175.60635,-16.552288,CSO
8210172153000,1.665038,-2.06799865655821,-1.38403106977631,-9.87524822928317,0.018936822,1.0112875,0.35338554,235.10028,-175.8602,-16.098629,CSO
8210177155000,1.67004,-2.16947123240976,-1.25414618455347,-9.93613174936451,0.04428773,1.01312,0.43066,235.09671,-176.10245,-15.647698,CSO
8210182444000,1.675329,-2.2767660052364,-1.11680888788341,-10.0005085861718,0.09010262,0.9954049,0.4981606,235.1026,-176.31729,-15.20087,CSO
8210187162000,1.680047,-2.42937059054505,-1.00472956214905,-9.97263475661847,0.14110987,0.9975429,0.5161811,235.12566,-176.53638,-14.759945,CSO
8210192450000,1.685335,-2.6119692458226,-0.899525485726905,-9.943362312477,0.14721853,0.97341377,0.49693888,235.16681,-176.75117,-14.343032,CSO
8210197137000,1.690022,-2.79782604646669,-0.998649127112624,-10.0796570638572,0.12889257,0.89675015,0.49021935,235.21173,-176.93399,-13.962567,CSO
8210202114000,1.694999,-2.99518241446448,-1.10390587197644,-10.2243848167096,0.100792766,0.8570439,0.4905248,235.25177,-177.09,-13.619096,CSO
8210207124000,1.700009,-3.19864393983756,-1.21268594948494,-10.2712355368463,0.058643065,0.82863873,0.49266282,235.29573,-177.23541,-13.303417,CSO
8210212071000,1.704956,-3.40042563128962,-1.32061571079636,-10.2993916891838,0.017104227,0.7690793,0.4810564,235.3406,-177.37225,-13.016664,CSO
8210217129000,1.710014,-3.5284578801429,-1.41541820710529,-10.1867521573881,-0.04795292,0.66431594,0.46761733,235.39551,-177.49794,-12.775213,CSO
8210222106000,1.714991,-3.63724689157487,-1.50528730886176,-10.0448530817704,-0.105374254,0.5488624,0.42943826,235.44241,-177.61444,-12.560867,CSO
8210227197000,1.720082,-3.76666107092226,-1.45307740634423,-9.8780703318974,-0.16065755,0.4260785,0.3930918,235.49777,-177.71848,-12.407506,CSO
8210232076000,1.724961,-3.89475063205404,-1.37073417846094,-9.71338378059526,-0.21013765,0.31215215,0.36102137,235.54477,-177.80824,-12.28894,CSO
8210237163000,1.730048,-3.98811091799727,-1.256087133008,-9.62182906500098,-0.2657264,0.22204952,0.34269542,235.59279,-177.88875,-12.221749,CSO
8210242100000,1.734985,-4.06655819044505,-1.13610878155378,-9.55722548555534,-0.3109304,0.17898351,0.32406402,235.6315,-177.95856,-12.175619,CSO
8210247125000,1.74001,-4.13899670467848,-1.0450058972757,-9.47885977040816,-0.36957347,0.16737708,0.31978795,235.65292,-177.98477,-12.171317,CSO
8210252574000,1.745459,-4.21434937721409,-0.959606539194263,-9.38843695153061,-0.43463063,0.18417588,0.32895094,235.6719,-177.9962,-12.171511,CSO
8210257153000,1.750038,-4.28010863839204,-0.925951123448381,-9.34096527921023,-0.47800204,0.23793201,0.34055737,235.67683,-177.97142,-12.182505,CSO
8210262163000,1.755048,-4.3531667052888,-0.906468936675464,-9.30200033605725,-0.514654,0.25961772,0.35521814,235.68416,-177.93027,-12.197751,CSO
8210267139000,1.760024,-4.47290238010148,-0.893799734585613,-9.2349313060392,-0.548557,0.28802297,0.37598756,235.6846,-177.85526,-12.204663,CSO
8210272182000,1.765067,-4.61705476144662,-0.884189555759626,-9.15324534295095,-0.53023106,0.3118467,0.39767328,235.68793,-177.7854,-12.206948,CSO
8210277151000,1.770036,-4.79858404065999,-1.12536787913966,-9.20813090394814,-0.5006041,0.32162055,0.41996986,235.69147,-177.70403,-12.219357,CSO
8210282153000,1.775038,-5.00088571074445,-1.49233394492241,-9.33045294225103,-0.4596761,0.4175264,0.4456262,235.69943,-177.6314,-12.200492,CSO
8210287167000,1.780052,-5.15848097377561,-1.85568430440976,-9.45846763551219,-0.43401974,0.5549711,0.47586402,235.70602,-177.55621,-12.194749,CSO
8210292159000,1.785044,-5.28907695363902,-2.21482305422439,-9.58906371278049,-0.42088616,0.6609562,0.4859433,235.71187,-177.49031,-12.171086,CSO
8210297134000,1.790019,-5.44060011348427,-2.3184824689441,-9.45588904488078,-0.45204028,0.77213365,0.52473325,235.74612,-177.47856,-12.120882,CSO
8210302176000,1.795061,-5.60990685690242,-2.2362477621118,-9.12694981346424,-0.48838675,0.8741482,0.5757405,235.78477,-177.46803,-12.044368,CSO
8210307156000,1.800041,-5.97452561741362,-2.08944466998026,-9.169356205923,-0.47555858,0.9578367,0.61300325,235.8515,-177.52594,-11.950165,CSO
8210312141000,1.805026,-6.47879227328727,-1.8962210013228,-9.47097380315893,-0.40653083,0.88422745,0.72601336,235.95564,-177.58157,-11.872818,CSO
8210317152000,1.810037,-6.92332055106046,-1.64601107938553,-9.69018501248761,-0.376293,0.90010995,0.7779369,236.03256,-177.607,-11.79187,CSO
8210322354000,1.815239,-7.33312606832507,-1.33989116620416,-9.84818248681863,-0.3399465,0.9804387,0.81000733,236.13608,-177.64818,-11.714264,CSO
8210327169000,1.820054,-7.6017496360607,-1.10283348994149,-9.81404067569176,-0.2779437,1.054048,0.840856,236.20921,-177.65051,-11.704146,CSO
8210332137000,1.825022,-7.79049343088367,-0.895215369834375,-9.63473445492413,-0.2003638,1.026559,0.8338311,236.27992,-177.66785,-11.700342,CSO
8210337164000,1.830049,-7.92444542131596,-0.932571975907675,-9.42462426045502,-0.15302174,0.8723156,0.80848014,236.31303,-177.6241,-11.776764,CSO
8210342257000,1.835142,-8.00732482526196,-1.19962865949023,-9.18519364259416,-0.13897185,0.72356987,0.7452556,236.33267,-177.5958,-11.858258,CSO
8210347134000,1.840019,-8.03117382038235,-1.6635732719307,-9.45118658926615,-0.16249016,0.57360244,0.6462954,236.30225,-177.52083,-12.016702,CSO
8210352170000,1.845055,-7.97354724796376,-2.45113898568157,-10.4596552420591,-0.26908615,0.54244834,0.57940567,236.26239,-177.42917,-12.17965,CSO
8210357115000,1.85,-7.95065184911486,-3.02232523042404,-11.5012464489502,-0.43401974,0.6356053,0.54183745,236.21927,-177.36261,-12.359872,CSO
8210362142000,1.855027,-7.980381721655,-3.28493931148621,-12.6408925977769,-0.573297,0.6963864,0.49266282,236.1529,-177.27835,-12.554535,CSO
8210367117000,1.860002,-7.93916985520407,-3.52426966725876,-13.5384268091009,-0.7357872,0.850019,0.44593164,236.15259,-177.313,-12.62407,CSO
8210372127000,1.865012,-7.80989600678575,-3.73972636459435,-14.1560691681469,-0.8170323,1.0363328,0.45356745,236.15155,-177.3281,-12.663437,CSO
8210377102000,1.869987,-7.59973834145409,-3.88350911149326,-14.5915001599312,-0.8191703,1.0958922,0.4578435,236.16985,-177.38383,-12.645876,CSO
8210382968000,1.875853,-7.22940751122576,-3.94791439529951,-14.8383866328461,-0.81397796,1.0919216,0.48472157,236.19492,-177.41217,-12.591949,CSO
8210387077000,1.879962,-6.88903515782084,-3.84889155508206,-14.9060342064465,-0.88117313,1.1420126,0.49968776,236.2509,-177.46796,-12.453332,CSO
8210392163000,1.885048,-6.32557927358117,-3.47325424863555,-14.8049015554677,-0.8885035,1.3026701,0.52626044,236.31654,-177.53229,-12.284989,CSO
8210397063000,1.889948,-5.77518702803825,-3.16173329625847,-14.5208018386408,-0.86620694,1.4520267,0.59803706,236.43121,-177.5969,-12.040616,CSO
8210402131000,1.895016,-5.18939341867979,-2.94994637088478,-13.8178493944852,-0.80939645,1.5803084,0.6954701,236.55908,-177.66016,-11.761094,CSO
8210407085000,1.89997,-4.6555535439647,-2.7541182194138,-13.1198482193508,-0.766025,1.6001616,0.7861836,236.71414,-177.66312,-11.398318,CSO
8210412139000,1.905024,-4.30979442620023,-2.61174678987289,-12.3520596604685,-0.73456544,1.5882497,0.84971356,236.8877,-177.6732,-11.01699,CSO
8210417065000,1.90995,-3.99031669547972,-2.44326458560836,-11.6822755277827,-0.7333437,1.5109752,0.8720101,237.08913,-177.65184,-10.589024,CSO
8210422123000,1.915008,-3.71337126892978,-2.18362828210649,-11.2235844221905,-0.75991637,1.4330899,0.8762862,237.30273,-177.631,-10.174625,CSO
8210427278000,1.920163,-3.42397493167431,-1.91525894996726,-10.729819602052,-0.8191703,1.3778065,0.8491027,237.51324,-177.58217,-9.761659,CSO
8210432133000,1.925018,-3.04336433988212,-1.60569562907662,-9.86710221119843,-0.8872818,1.38025,0.77640975,237.71066,-177.52896,-9.363623,CSO
8210437198000,1.930083,-2.67665537062937,-1.3097647012987,-9.08950876623377,-0.9233228,1.2479976,0.6979135,237.89087,-177.42184,-8.999187,CSO
8210442139000,1.935024,-2.43084234825175,-1.12067776480519,-8.78224273506494,-1.0772609,1.153619,0.61178154,238.04553,-177.27106,-8.632199,CSO
8210447133000,1.940018,-2.22863776959064,-0.948869287670565,-8.49799735721248,-1.2284501,1.0454959,0.52534413,238.16635,-177.06345,-8.283362,CSO
8210452132000,1.945017,-2.21463940023392,-0.855546776569201,-8.32068438635478,-1.35551,0.9550878,0.44348818,238.26259,-176.82898,-7.963927,CSO
8210457118000,1.950003,-2.2567143551936,-0.770084411333268,-8.13055185214084,-1.4563028,0.8518516,0.36346483,238.32574,-176.53375,-7.6495123,CSO
8210462171000,1.955056,-2.64137401715595,-0.729966518751585,-7.8568063040671,-1.5555683,0.7464773,0.30451632,238.37073,-176.21303,-7.3682594,CSO
8210467130000,1.960015,-3.0188779284307,-0.690594931711694,-7.5881531924705,-1.6511687,0.66920286,0.22724187,238.37808,-175.85233,-7.1176105,CSO
8210472707000,1.965592,-3.44342709422608,-0.64631678270555,-7.28602001977958,-1.7437148,0.6301075,0.160963,238.37062,-175.4742,-6.8919086,CSO
8210477174000,1.970059,-3.77807033571429,-0.601407376071429,-7.04685969579832,-1.8252654,0.60231316,0.09773844,238.34467,-175.07892,-6.6854444,CSO
8210482134000,1.975019,-4.05249827857143,-0.381865110357143,-6.83230718487395,-1.8515326,0.5112942,0.06841691,238.30981,-174.6828,-6.5132923,CSO
8210487113000,1.979998,-4.27243364719101,-0.14630634210362,-6.62542871598002,-1.9434677,0.4550946,0.019242255,238.17271,-174.19112,-6.5091915,CSO
8210492133000,1.985018,-4.13953337752809,0.18808767150437,-6.47109303736401,-2.014939,0.40866885,-0.025045475,238.0274,-173.70647,-6.5323324,CSO
8210497073000,1.989958,-4.00875104044944,0.51715269684769,-6.31921689147494,-2.072971,0.3680463,-0.04428773,237.82616,-173.14195,-6.626627,CSO
8210502130000,1.995015,-3.62666305288462,0.968178381346154,-6.05849057884615,-2.125811,0.32620203,-0.04062254,237.61635,-172.56805,-6.7384787,CSO
8210507380000,2.000265,-3.19966223266274,1.44238461296261,-5.79295380755361,-2.2104158,0.30757064,-0.015882496,237.40367,-171.9776,-6.858274,CSO
8210512144000,2.005029,-2.84464604127918,1.76276505961283,-5.77996560106282,-2.2751677,0.30207285,0.014966198,237.16676,-171.30518,-6.9710608,CSO
8210517063000,2.009948,-2.47807915517176,2.0935693033308,-5.76655481438603,-2.3606887,0.29260445,0.058643065,236.91757,-170.52376,-7.014746,CSO
8210522129000,2.015014,-2.21595197944731,2.39741163890398,-5.93792200543326,-2.4141395,0.30298916,0.098043874,236.67044,-169.74487,-7.058279,CSO
8210527170000,2.020055,-1.96721968939578,2.69589035863232,-6.12786310763466,-2.4507914,0.3005457,0.13500121,236.43106,-168.95836,-7.1111107,CSO
8210532136000,2.025021,-1.86661617188516,3.01403277941495,-6.55336338678223,-2.5066855,0.29138273,0.17837265,236.18712,-168.09825,-7.0492005,CSO
8210537079000,2.029964,-1.80507143048754,3.33714271191766,-7.04059216554713,-2.5375342,0.2782491,0.204029,235.94284,-167.25209,-6.9968114,CSO
8210542882000,2.035767,-1.85116787789915,3.73684792239345,-7.35626550814396,-2.538145,0.22113322,0.2134974,235.69974,-166.35678,-6.852407,CSO
8210547068000,2.039953,-1.89026715108749,4.02618262564128,-7.57131191895055,-2.5250115,0.14569137,0.20616703,235.45432,-165.4806,-6.7308855,CSO
8210552132000,2.045017,-1.89196369775821,4.39268722489992,-7.74403689671737,-2.4944682,0.106595986,0.19364429,235.20203,-164.60272,-6.613935,CSO
8210557081000,2.049966,-1.8872203447558,4.75318244931946,-7.90056734767814,-2.441323,0.105374254,0.17959438,234.94556,-163.76129,-6.5200934,CSO
8210562145000,2.05503,-1.69643899654796,5.11496671748834,-8.22009987947624,-2.3835962,0.1301143,0.19639318,234.7258,-162.86183,-6.447828,CSO
8210567065000,2.05995,-1.48611214444996,5.46551137337566,-8.55194926743379,-2.3160956,0.16187929,0.21960606,234.49881,-162.00832,-6.383586,CSO
8210572131000,2.065016,-1.24708725602694,5.72482794397306,-9.10539595892256,-2.2455406,0.18295415,0.25167647,234.28888,-161.11903,-6.3419585,CSO
8210577131000,2.070016,-1.00755195059163,5.96436324940837,-9.68580817633478,-2.1542163,0.21013765,0.26633725,234.07364,-160.28308,-6.296294,CSO
8210582064000,2.074949,-0.878129742881281,6.16670717357937,-10.03204439004,-2.101682,0.22693644,0.3005457,233.9111,-159.4336,-6.2108335,CSO
8210587091000,2.079976,-0.775379829871054,6.36364451429969,-10.3231691584704,-1.971873,0.23396139,0.34605515,233.75089,-158.65964,-6.1245484,CSO
8210592113000,2.084998,-0.787590497399162,6.58281025948865,-10.4208830718536,-1.8558086,0.20616703,0.4016439,233.6784,-157.91289,-5.9841323,CSO
8210597165000,2.09005,-0.899561251575931,6.82274757793696,-10.3515681174785,-1.7406605,0.19608775,0.4175264,233.60062,-157.22948,-5.844259,CSO
8210602133000,2.095018,-1.10858028318434,7.07213253802352,-10.0825706925469,-1.6566665,0.14752395,0.4392121,233.58759,-156.5661,-5.7050242,CSO
8210607121000,2.100006,-1.35459747305898,7.32743341327373,-9.7390748425809,-1.5922203,0.0015271631,0.47891834,233.5917,-155.95313,-5.5966144,CSO
8210612468000,2.105353,-1.55418802379798,7.6049944660202,-9.56050917656566,-1.5726726,-0.15027285,0.52290064,233.61885,-155.30527,-5.5505424,CSO
8210617130000,2.110015,-1.7030115899798,7.84852397220202,-9.47933292565656,-1.5500705,-0.18142697,0.55680364,233.65363,-154.69955,-5.5080194,CSO
8210622122000,2.115007,-1.60293943302735,8.27657828621123,-9.29314260324669,-1.4398094,-0.14172074,0.57818395,233.69646,-154.0377,-5.5661216,CSO
8210627160000,2.120045,-1.38382133732728,8.78474594840081,-9.0600378628853,-1.3017539,-0.05100725,0.60231316,233.74411,-153.4145,-5.6085005,CSO
8210632131000,2.125016,-1.19502358280328,8.95085264102076,-9.06110188878309,-1.2049317,0.053145275,0.6536258,233.80396,-152.75769,-5.6808963,CSO
8210637130000,2.130015,-1.02179659449153,8.91438355084746,-9.20241860169491,-1.1236867,0.15668693,0.70096785,233.85608,-152.1584,-5.7204533,CSO
8210642116000,2.135001,-0.853245246462599,8.80123423662766,-9.32203490555788,-1.0626001,0.28710666,0.7440339,233.91496,-151.49362,-5.7100267,CSO
8210647138000,2.140023,-0.687436025647723,8.61532737264939,-9.42252527246135,-1.0204504,0.3811799,0.78893244,233.97891,-150.8657,-5.6702137,CSO
8210652120000,2.145005,-0.577353187556019,8.4296636974987,-9.41674562662845,-0.9746355,0.4538729,0.82833326,234.0838,-150.28316,-5.5616407,CSO
8210657119000,2.150004,-0.50251037728157,8.24255634618725,-9.34190259927045,-0.9636399,0.5516113,0.8594874,234.17923,-149.7191,-5.417376,CSO
8210662137000,2.155022,-0.432999557325059,8.0602239907982,-9.24905930301733,-0.9108001,0.63041294,0.893085,234.31569,-149.22699,-5.2337513,CSO
8210667126000,2.160011,-0.376765269264926,7.89152148427135,-9.11614190166916,-0.8552113,0.6908886,0.91782504,234.44217,-148.75285,-5.0301003,CSO
8210672129000,2.165014,-0.324020084696697,7.74365851967968,-8.98449379159159,-0.8002335,0.7125743,0.9425651,234.59656,-148.3226,-4.8046627,CSO
8210677148000,2.170033,-0.275905976255255,7.62337303505505,-8.8545860951952,-0.77304995,0.7846564,0.9660834,234.73564,-147.91154,-4.5534463,CSO
8210682147000,2.175032,-0.20874132575783,7.52351255991234,-8.76276265875262,-0.7461719,0.8717047,0.9941832,234.90323,-147.52621,-4.295415,CSO
8210687126000,2.180011,-0.117302980556296,7.44949118409278,-8.7192206194868,-0.7266242,0.95294976,1.0268645,235.06268,-147.15643,-4.0227447,CSO
8210692147000,2.185032,-0.0227696354740179,7.38872872554029,-8.60967919484199,-0.7244862,1.0329732,1.0647382,235.23561,-146.79352,-3.7288277,CSO
8210697134000,2.190019,0.0781534068104889,7.37037899892422,-8.3023224476035,-0.7165449,1.1157454,1.1120802,235.40042,-146.44681,-3.4152043,CSO
8210702119000,2.195004,0.165891846613762,7.34958688124561,-8.03371607054746,-0.6954701,1.1343768,1.1652255,235.59076,-146.11314,-3.084173,CSO
8210707114000,2.199999,0.185112797281768,7.31595023513812,-7.96644282850829,-0.7171558,1.1591167,1.2116512,235.77133,-145.77843,-2.733955,CSO
8210712136000,2.205021,0.206633650060525,7.29149901701377,-7.91004806386122,-0.763887,1.1954633,1.2513574,235.95486,-145.41812,-2.3597293,CSO
8210717134000,2.210019,0.238569424230091,7.31202909460039,-7.9077669388362,-0.7816021,1.2260065,1.2980887,236.14261,-145.06842,-1.9809444,CSO
8210722489000,2.215374,0.272786325126054,7.33402560630034,-7.90532287630939,-0.77091193,1.2873985,1.3494014,236.34076,-144.71016,-1.5876089,CSO
8210727150000,2.220035,0.302568766783587,7.35317140294524,-7.9031955606348,-0.75655663,1.350623,1.3912456,236.5365,-144.35739,-1.1893662,CSO
8210732459000,2.225344,0.342799935688312,7.37160377802198,-7.8914973615984,-0.73273283,1.3863586,1.430341,236.74728,-144.0127,-0.7927327,CSO
8210737126000,2.230011,0.516936130675325,7.31355860659341,-7.67717594679321,-0.72295904,1.3991868,1.4636332,236.95398,-143.67798,-0.39004183,CSO
8210742579000,2.235464,0.719706220671361,7.25457411754606,-7.44291939050834,-0.7360926,1.3374895,1.4456125,237.17566,-143.33772,-0.0011611321,CSO
8210747135000,2.24002,0.879638081113147,7.32612243455194,-7.46817168081412,-0.7791586,1.3081679,1.3875804,237.38266,-143.0016,0.3873199,CSO
8210752069000,2.244954,1.05283909064339,7.40360693764831,-7.49551909090383,-0.88147855,1.2663237,1.3521502,237.59456,-142.63936,0.7983723,CSO
8210757120000,2.250005,1.21734720134707,7.51887863502377,-7.70298527250396,-0.94042706,1.2281445,1.3313808,237.79605,-142.2864,1.1871241,CSO
8210762205000,2.25509,1.38134615741878,7.63946636788827,-7.93451329048138,-0.93828905,1.2379184,1.3307699,237.98798,-141.93129,1.5662165,CSO
8210767127000,2.260012,1.47316822763367,7.70709850884914,-7.97410618321004,-0.906524,1.2486086,1.3161092,238.18225,-141.56789,1.9562688,CSO
8210772121000,2.265006,1.55826095575428,7.76979825133439,-7.99202042207135,-0.86620694,1.2486086,1.3060299,238.37274,-141.21767,2.338324,CSO
8210777152000,2.270037,1.63100718433336,7.73849895842389,-8.00341133780591,-0.8509353,1.2165382,1.2904528,238.57288,-140.88443,2.7350686,CSO
8210783000000,2.275885,1.71038708424832,7.664411213928,-8.01399526183502,-0.852157,1.1527027,1.2321151,238.76306,-140.56682,3.1063457,CSO
8210787131000,2.280016,1.78437552052124,7.60725275717767,-8.02216084405127,-0.8866709,1.1316279,1.2134838,238.96057,-140.24193,3.4916763,CSO
8210792157000,2.285042,1.88126374431614,7.53586108687361,-8.03235980622947,-0.9007208,1.0906999,1.1823297,239.15417,-139.93045,3.837638,CSO
8210797714000,2.290599,1.95548074047835,7.40597677041074,-7.96453796134827,-0.9098838,1.0299188,1.1490375,239.35922,-139.62544,4.180125,CSO
8210802133000,2.295018,2.00673097263094,7.29066383725906,-7.89193328741548,-0.9300423,0.9434814,1.1053606,239.56433,-139.32118,4.493012,CSO
8210807118000,2.300003,2.05425302568807,7.19212587856547,-7.74130258298582,-0.96577793,0.86070913,1.0650436,239.78012,-139.02441,4.8064804,CSO
8210812144000,2.305029,2.09885787910296,7.10291607858401,-7.56734392480771,-0.9947941,0.7635816,1.0256428,240.0028,-138.7309,5.083715,CSO
8210817130000,2.310015,2.14377646789107,6.97970973348111,-7.39853204940891,-1.0219775,0.6719518,0.99296147,240.23547,-138.44092,5.3537145,CSO
8210822120000,2.315005,2.1891737750475,6.83342962687355,-7.23207530917247,-1.0754282,0.5907067,0.95325524,240.47215,-138.14146,5.5911083,CSO
8210827142000,2.320027,2.26839534549352,6.75190201476983,-7.18952424909666,-1.1441506,0.52503866,0.9117164,240.71547,-137.82211,5.8202877,CSO
8210832226000,2.325111,2.36282033167296,6.69723502948862,-7.19946376229458,-1.2205088,0.47128254,0.87872964,240.96304,-137.49216,6.0246954,CSO
8210837129000,2.330014,2.43122600175439,6.71567862248804,-7.24145606220096,-1.287704,0.42546764,0.8527679,241.21823,-137.14565,6.226535,CSO
8210842159000,2.335044,2.49408549191919,6.75758493305785,-7.29500291735537,-1.3738359,0.36865717,0.829555,241.47723,-136.77911,6.405709,CSO
8210847147000,2.340032,2.55642011158958,6.79914133010004,-7.348102661592,-1.4538593,0.30848694,0.82344633,241.74469,-136.41301,6.5968995,CSO
8210852134000,2.345019,2.61874223434343,6.84068939586777,-7.40119176033058,-1.563815,0.22937989,0.83169305,242.02307,-136.0224,6.7680306,CSO
8210857116000,2.350001,2.57903823153587,6.94068127896004,-7.4359729152624,-1.6566665,0.1328632,0.84207773,242.32242,-135.61467,6.9218903,CSO
8210862142000,2.355027,2.47243640856042,7.07972715395282,-7.45914720356283,-1.7308867,0.020463986,0.8549059,242.64075,-135.19135,7.056997,CSO
8210867759000,2.360644,2.27932469583954,7.21297975521795,-7.46054343650084,-1.7873917,-0.084910266,0.8533788,242.97845,-134.76006,7.201326,CSO
8210872124000,2.365009,2.08838765070996,7.3042974102671,-7.44809120236322,-1.8414533,-0.14752395,0.8533788,243.33084,-134.31975,7.333724,CSO
8210877140000,2.370025,1.76172963074645,7.46041854988152,-7.36762259478673,-1.8726074,-0.26542094,0.8546005,243.71848,-133.85094,7.403535,CSO
8210882140000,2.375025,1.33621985586493,7.66371772049763,-7.22578610189574,-1.9104811,-0.40042216,0.8567385,244.1201,-133.37654,7.4590015,CSO
8210887125000,2.38001,1.02622071652956,7.80494552913717,-7.11347531088578,-1.9352211,-0.54367006,0.8491027,244.55035,-132.87376,7.4291153,CSO
8210892158000,2.385043,0.83257206962885,7.88332706585039,-7.03048280667687,-1.969735,-0.677755,0.83077675,245.0018,-132.36917,7.3772116,CSO
8210897128000,2.390013,0.698122374807306,7.90762714866597,-6.95403093583246,-1.9874501,-0.79412484,0.7974846,245.502,-131.77217,7.1844583,CSO
8210902134000,2.395019,0.647691431978579,7.85261160600555,-6.88526150750693,-1.9416351,-0.8671232,0.75777835,246.01053,-131.19734,6.9792314,CSO
8210907141000,2.400026,0.647011020851285,7.76663083906754,-6.83164087574149,-1.8603901,-0.8961393,0.7076874,246.53003,-130.59778,6.6995773,CSO
8210912138000,2.405023,0.756576691664065,7.61224262428973,-6.81171996003746,-1.7198911,-0.8695667,0.6597345,247.03816,-130.0423,6.421509,CSO
8210917085000,2.40997,0.884998578435754,7.44014865502793,-6.83925795670391,-1.5436565,-0.7867944,0.61269784,247.5263,-129.52502,6.1361914,CSO
8210922122000,2.415007,1.04861637804469,7.23322031342777,-6.94512811909417,-1.353372,-0.63438356,0.5714644,247.97726,-129.06387,5.8710814,CSO
8210927111000,2.419996,1.19293259023355,7.00981566878981,-7.05568685690021,-1.1652255,-0.4251622,0.5366451,248.41068,-128.66008,5.6860776,CSO
8210932136000,2.425021,1.30903821704304,6.75438330920672,-7.17643680189153,-1.0012082,-0.16737708,0.49510628,248.78375,-128.31253,5.533793,CSO
8210937483000,2.430368,1.37646463578043,6.48362594094511,-7.22096352553699,-0.8933904,0.09162979,0.46822822,249.10852,-128.05795,5.476451,CSO
8210942164000,2.435049,1.34650730827685,6.24824680506921,-7.12681174606205,-0.8145888,0.28955013,0.44929138,249.3789,-127.84693,5.4484515,CSO
8210947154000,2.440039,1.2838478566078,6.04948076664079,-7.0148593437027,-0.763887,0.4343252,0.4166101,249.60223,-127.717896,5.4938884,CSO
8210952132000,2.445017,1.11269377372404,6.03560342031826,-6.86220858245682,-0.7296785,0.5290093,0.38545597,249.78703,-127.60957,5.5597935,CSO
8210957114000,2.449999,0.932350457334141,6.02308407051399,-6.70049717224073,-0.72509706,0.5739079,0.35185838,249.95166,-127.51834,5.6392365,CSO
8210962145000,2.45503,0.69881677162678,6.01821878920529,-6.48642459144704,-0.7247916,0.56230146,0.30543262,250.0989,-127.43655,5.7129216,CSO
8210967125000,2.46001,0.472303596983538,5.98210221091445,-6.28133455222191,-0.7449502,0.54153204,0.26175576,250.24193,-127.3091,5.745012,CSO
8210972120000,2.465005,0.267467109347226,5.79547339233038,-6.10836149041774,-0.7431176,0.4804455,0.2406809,250.39156,-127.19049,5.7615404,CSO
8210977166000,2.470051,0.0594741861108229,5.62664957466016,-5.92966717652796,-0.7351763,0.4111123,0.18112154,250.54842,-127.007675,5.6975746,CSO
8210983494000,2.476379,-0.217218709814465,5.70839982274567,-5.6466857404794,-0.7079928,0.30848694,0.11575896,250.72043,-126.83473,5.6122756,CSO
8210987114000,2.479999,-0.364933192322077,5.75952943658315,-5.49912824879267,-0.66889745,0.26328292,0.08124508,250.9148,-126.636185,5.4719944,CSO
8210992160000,2.485045,-0.509696345404866,5.85603821751997,-5.37629905364016,-0.66828656,0.19394971,0.014660766,251.1189,-126.43637,5.2914767,CSO
8210997073000,2.489958,-0.650643902102397,5.95000326721133,-5.25670733033769,-0.66950834,0.11789699,-0.06047566,251.34811,-126.17726,5.0334587,CSO
8211002133000,2.495018,-0.766760010752351,6.02299890201803,-5.14654484237853,-0.66859204,0.054367006,-0.13775012,251.57465,-125.92499,4.757202,CSO
8211007240000,2.500125,-0.881749238761755,6.09486706946513,-5.03634665876763,-0.6762278,0.00061086525,-0.22602014,251.79822,-125.67555,4.457728,CSO
8211012147000,2.505032,-0.919306750932007,6.18163975452736,-4.96094149273632,-0.689056,-0.031154128,-0.30909783,252.04308,-125.36519,4.096767,CSO
8211017112000,2.509997,-0.948483270322817,6.27689085634629,-4.89336888165811,-0.7031059,-0.053145275,-0.39584067,252.27782,-125.0614,3.7186716,CSO
8211022122000,2.515007,-0.952883492122157,6.43529796814013,-4.88896868283199,-0.7150178,-0.063224554,-0.48747048,252.51868,-124.71396,3.2974837,CSO
8211027165000,2.52005,-0.957312697418379,6.59474848007153,-4.88453950066031,-0.73914695,-0.05131268,-0.5864306,252.72415,-124.35399,2.8754737,CSO
8211032138000,2.525023,-0.895102372376429,6.66194340797091,-4.85611914390678,-0.743423,-0.010079277,-0.6805039,252.90689,-124.00867,2.4492512,CSO
8211037099000,2.529984,-0.826931295665727,6.72071165795854,-4.82555969318688,-0.7476991,0.051923547,-0.77732605,253.06189,-123.66884,2.0173151,CSO
8211042164000,2.535049,-0.757331113537183,6.78071189706101,-4.79435960895057,-0.73426,0.11209377,-0.8561276,253.193,-123.31911,1.594425,CSO
8211047068000,2.539953,-0.689943296526644,6.83880492224531,-4.76415127467716,-0.7058548,0.16126843,-0.93645644,253.29442,-122.98569,1.1685556,CSO
8211052133000,2.545018,-0.61475398973026,6.81889227782246,-4.67817378769985,-0.70005155,0.22052236,-1.0027353,253.37054,-122.66015,0.75344276,CSO
8211057088000,2.549973,-0.540281287474252,6.78631044324669,-4.5850828248259,-0.6948592,0.26297748,-1.078788,253.42413,-122.35565,0.3332331,CSO
8211062111000,2.554996,-0.471532671529318,6.73307214650884,-4.5287140720907,-0.6948592,0.30634892,-1.1539245,253.43071,-122.05417,-0.052216794,CSO
8211067089000,2.559974,-0.40486331352712,6.67592703365298,-4.48109314471082,-0.70005155,0.33383787,-1.1838568,253.42693,-121.76465,-0.4315252,CSO
8211072108000,2.564993,-0.343966298189089,6.63924375484148,-4.54352045141388,-0.70188415,0.38331795,-1.2534955,253.37692,-121.48297,-0.8008776,CSO
8211077188000,2.570073,-0.283749952535466,6.60681939608683,-4.63152894841474,-0.713796,0.45173484,-1.3035865,253.31577,-121.207855,-1.1579684,CSO
8211082136000,2.575021,-0.225641629831958,6.58425005437417,-4.81727899867604,-0.72356987,0.5335908,-1.3524556,253.2128,-120.95444,-1.5022604,CSO
8211087108000,2.579993,-0.167449284106324,6.56485262098992,-5.04034958386801,-0.6939429,0.63285637,-1.3967434,253.08444,-120.718956,-1.8383943,CSO
8211092147000,2.585032,-0.119959971043706,6.52684358420309,-5.34992299656808,-0.6469063,0.7470882,-1.4318681,252.91989,-120.5225,-2.148256,CSO
8211097140000,2.590025,-0.0765206896083577,6.48340433300696,-5.68295765892803,-0.61117065,0.8555168,-1.4627168,252.72922,-120.33967,-2.4488082,CSO
8211102135000,2.59502,-0.0564962329357324,6.43878327124871,-5.99108593939679,-0.5516113,0.958753,-1.4715744,252.50592,-120.232635,-2.7157705,CSO
8211107108000,2.599993,-0.0430717855450531,6.3940351491027,-6.29089854467725,-0.4709771,1.0525209,-1.5085317,252.25255,-120.14824,-2.9782293,CSO
8211112172000,2.605057,-0.041485685721831,6.37497484293763,-6.5625869,-0.38912117,1.1377366,-1.5503759,251.98228,-120.15007,-3.2129877,CSO
8211117156000,2.610041,-0.0462875766795775,6.37017295448692,-6.8122853,-0.2996294,1.1737776,-1.5931365,251.69835,-120.17999,-3.4460242,CSO
8211122856000,2.615741,-0.0365016625757962,6.44066479452229,-6.8990950811465,-0.21930063,1.1459832,-1.6468927,251.3949,-120.30655,-3.679013,CSO
8211127211000,2.620096,-0.0242409109452229,6.51831617286624,-6.90318195312102,-0.12980886,1.0537425,-1.7030923,251.0943,-120.46159,-3.9220467,CSO
8211132133000,2.625018,0.00466177610178625,6.61602810095799,-6.74114688411336,-0.044898596,0.87872964,-1.7553213,250.8133,-120.688416,-4.1872907,CSO
8211137146000,2.630031,0.0429881165769883,6.72142566307754,-6.47765327896418,0.03970624,0.64843345,-1.8038851,250.56241,-120.93965,-4.480468,CSO
8211142197000,2.635082,0.0455936416766725,6.8709973339023,-6.29804964176967,0.11362094,0.42546764,-1.8457294,250.3374,-121.209015,-4.8019266,CSO
8211147147000,2.640032,0.0269924283453012,7.04305863466745,-6.17249134277026,0.17440203,0.2687807,-1.8692477,250.14857,-121.496925,-5.1468606,CSO
8211152150000,2.645035,-0.00308363598189055,7.19895729963184,-6.06954555183085,0.2321288,0.17806722,-1.8616118,249.97803,-121.7561,-5.507716,CSO
8211157292000,2.650177,-0.0422827924463682,7.34595398160199,-5.98134756311443,0.30848694,0.10751228,-1.8573358,249.83702,-122.03708,-5.886597,CSO
8211162173000,2.655058,-0.0729719391593499,7.38736056562675,-5.81018222417336,0.38240165,-0.013439035,-1.8839084,249.71225,-122.301956,-6.2901726,CSO
8211167155000,2.66004,-0.0997111419316271,7.36062147453764,-5.57398581823277,0.41874814,-0.07666359,-1.9016235,249.59265,-122.57495,-6.6835423,CSO
8211172163000,2.665048,-0.101619596498775,7.3409768826536,-5.34651143401129,0.43676865,-0.18142697,-1.9199494,249.49747,-122.842384,-7.1086817,CSO
8211177203000,2.670088,-0.0707812796422106,7.33069723618358,-5.13064325895006,0.46395215,-0.2751948,-1.9199494,249.41524,-123.120544,-7.532134,CSO
8211182967000,2.675852,0.00197659229628409,7.19606075125649,-4.78549887657576,0.4841107,-0.37568212,-1.9022343,249.3437,-123.37442,-7.976952,CSO
8211187172000,2.680057,0.0716544297108017,7.04343314435198,-4.49019777119552,0.5122105,-0.33078352,-1.9123137,249.25552,-123.638885,-8.410746,CSO
8211192836000,2.685721,0.129197852272337,6.87669010145895,-4.18988305406694,0.50793445,-0.2510656,-1.922393,249.1693,-123.87731,-8.8424015,CSO
8211197182000,2.690067,0.0815722566510918,6.84692412491656,-4.20575815867264,0.48991394,-0.2724459,-1.9123137,249.09886,-124.11786,-9.271066,CSO
8211202087000,2.694972,0.0278208653666444,6.81332952874988,-4.22367518308382,0.45478916,-0.31490102,-1.9113973,248.9859,-124.32301,-9.684741,CSO
8211207170000,2.700055,-0.0278811370592162,6.77851580146849,-4.24224240736149,0.39950588,-0.28893927,-1.9422461,248.85913,-124.51904,-10.088191,CSO
8211212132000,2.705017,-0.0822571622484981,6.74453080938305,-4.26036764184228,0.33444872,-0.2171626,-1.9905044,248.73001,-124.70407,-10.486994,CSO
8211217155000,2.71004,-0.258568504414224,6.76259308573004,-4.30682547431774,0.27000242,-0.1160644,-2.031127,248.57008,-124.88609,-10.877993,CSO
8211222168000,2.715053,-0.443844474879169,6.78464973297804,-4.35535019038868,0.19639318,-0.026572637,-2.0607538,248.39082,-125.05135,-11.260642,CSO
8211227267000,2.720152,-0.621993019790008,6.83819173452428,-4.40041786574443,0.124311075,0.030848695,-2.1111503,248.17686,-125.23217,-11.664942,CSO
8211232155000,2.72504,-0.789709138858479,6.89875589336186,-4.44234676781449,0.06566802,0.064446285,-2.1560488,247.94452,-125.3994,-12.056936,CSO
8211237148000,2.730033,-0.948390586615791,6.98078652295274,-4.54049420780746,0.0067195175,0.09254608,-2.1978931,247.68561,-125.57472,-12.481844,CSO
8211242129000,2.735014,-1.1024037303982,7.06946065240192,-4.65717100171216,-0.042455133,0.1459968,-2.230269,247.4083,-125.74164,-12.897582,CSO
8211247124000,2.740009,-1.27358298328292,7.18716739048195,-4.76658288349466,-0.07849618,0.2284636,-2.2595906,247.10097,-125.91953,-13.336967,CSO
8211252122000,2.745007,-1.45214724184311,7.3174711666465,-4.87275611610204,-0.10476339,0.32925636,-2.289523,246.77258,-126.09206,-13.764109,CSO
8211257158000,2.750043,-1.6451158125,7.44058045625,-4.96258145,-0.12492194,0.42485678,-2.3112087,246.41177,-126.286224,-14.2028885,CSO
8211262635000,2.75552,-1.86065900206422,7.57090908390673,-5.0528087440367,-0.13713925,0.5308419,-2.3362541,246.02032,-126.48021,-14.6230135,CSO
8211267139000,2.760024,-2.0221306363748,7.6619453443126,-5.06045466104746,-0.14630222,0.5858198,-2.3435845,245.60712,-126.69154,-15.057095,CSO
8211272151000,2.765036,-2.1939763051964,7.7552328349018,-5.03590529443535,-0.13988814,0.68661255,-2.371379,245.15149,-126.90918,-15.468728,CSO
8211277152000,2.770037,-2.37967902484659,7.82145455475304,-5.05042102575194,-0.13897185,0.7663304,-2.400395,244.67514,-127.144104,-15.900512,CSO
8211282152000,2.775037,-2.5723519953727,7.8744395663213,-5.08413876038628,-0.13897185,0.86529064,-2.42147,244.16864,-127.382065,-16.308365,CSO
8211287132000,2.780017,-2.70145331643618,7.94942981273505,-5.10293615471097,-0.14813483,0.9850202,-2.4394903,243.61823,-127.63127,-16.728395,CSO
8211292160000,2.785045,-2.80205976453089,8.0356637395881,-5.11491310983982,-0.15241088,1.1114693,-2.4572055,243.04146,-127.88307,-17.126808,CSO
8211297138000,2.790023,-2.90166575073127,8.12104012938016,-5.1267709623918,-0.1572978,1.2180653,-2.4578164,242.42664,-128.15219,-17.53256,CSO
8211302167000,2.795052,-3.00229220806387,8.20729120697443,-5.13875029957218,-0.17256944,1.3289373,-2.4541512,241.78119,-128.4169,-17.910833,CSO
8211307074000,2.799959,-3.00335157225549,8.28479753093812,-5.1362457744511,-0.18478674,1.425454,-2.4346035,241.10608,-128.69235,-18.29127,CSO
8211312063000,2.804948,-2.95315863686312,8.36008745813636,-5.12620718737262,-0.19181168,1.4859297,-2.4120014,240.41824,-128.96109,-18.648827,CSO
8211317124000,2.810009,-2.79982678597693,8.36550307142153,-5.13424360570288,-0.18967366,1.5552629,-2.3906212,239.69489,-129.22765,-18.981625,CSO
8211322047000,2.814932,-2.6162412779377,8.34691200059148,-5.1481869209582,-0.18112154,1.5845845,-2.3658812,238.97603,-129.4866,-19.296995,CSO
8211327080000,2.819965,-2.42855371710864,8.32790552903194,-5.16244178703174,-0.17287487,1.5867225,-2.3365595,238.23466,-129.74014,-19.585165,CSO
8211332061000,2.824946,-2.24280530850749,8.30909542872634,-5.17654937453667,-0.16982053,1.600467,-2.2898283,237.49591,-129.9841,-19.849916,CSO
8211337050000,2.829935,-1.98287601452431,8.3257439039666,-5.14869184789741,-0.16249016,1.6041322,-2.2250767,236.75388,-130.23187,-20.1018,CSO
8211342086000,2.834971,-1.685611282881,8.35930672372999,-5.10074561336117,-0.1469131,1.5760323,-2.1526892,236.03131,-130.46979,-20.337921,CSO
8211347054000,2.839939,-1.45656411006436,8.27816824505397,-5.07735631274384,-0.12980886,1.5457945,-2.068695,235.30554,-130.68773,-20.493208,CSO
8211352063000,2.844948,-1.25706422316615,8.14041811630855,-5.0654813768987,-0.12003502,1.5106697,-1.9898936,234.6051,-130.89268,-20.634253,CSO
8211357050000,2.849935,-1.05844055857016,8.00327299910882,-5.05365859689078,-0.10842858,1.4865406,-1.9110919,233.91512,-131.06384,-20.708956,CSO
8211362073000,2.854958,-0.858383075661452,7.86513786301614,-5.04175047096742,-0.07941248,1.4498887,-1.8668042,233.24951,-131.23064,-20.77892,CSO
8211367070000,2.859955,-0.697251836166032,7.69019501331462,-5.0070394520754,-0.0711658,1.4187346,-1.7803668,232.60109,-131.38045,-20.823177,CSO
8211372055000,2.86494,-0.558443811446762,7.49394904790455,-4.95917470558452,-0.03604105,1.3994923,-1.704925,231.9694,-131.53458,-20.861797,CSO
8211377074000,2.869959,-0.410909346956522,7.30421894102767,-4.87517763565217,-0.0143553335,1.3979651,-1.6200147,231.34192,-131.67853,-20.827662,CSO
8211382574000,2.875459,-0.244356194782609,7.10123231059289,-4.76067241826087,0.002443461,1.402852,-1.5366315,230.73552,-131.8142,-20.777275,CSO
8211387064000,2.879949,-0.178061604056205,6.93615444069962,-4.58975320904982,0.026267206,1.3991868,-1.4532484,230.13544,-131.9536,-20.695406,CSO
8211392135000,2.88502,-0.139886122485015,6.75004913932397,-4.35592828788445,0.018325957,1.3622295,-1.3866642,229.55905,-132.07513,-20.60236,CSO
8211397069000,2.889954,-0.13272425914999,6.62567980493362,-4.1300667279572,0.01038471,1.3096951,-1.3154984,228.99396,-132.1908,-20.478546,CSO
8211402115000,2.895,-0.147086622863087,6.53950548268278,-3.90026896853576,-0.014049901,1.2373075,-1.2583824,228.45668,-132.289,-20.35227,CSO
8211407087000,2.899972,-0.195685207040173,6.47346304444663,-3.71973327270579,-0.04734206,1.1710287,-1.2131784,227.93738,-132.3672,-20.229738,CSO
8211412115000,2.905,-0.271545285760142,6.42130932727452,-3.57275427766837,-0.09896017,1.0998629,-1.1792754,227.449,-132.42519,-20.110214,CSO
8211417126000,2.910011,-0.361827282788703,6.40212170682263,-3.51955544615528,-0.15210545,1.0302242,-1.1505647,226.98155,-132.45383,-20.006338,CSO
8211422123000,2.915008,-0.464415790595582,6.41104239276727,-3.54631773686271,-0.21838433,0.9779953,-1.1255192,226.53586,-132.45999,-19.90519,CSO
8211427150000,2.920035,-0.568744212964128,6.43046707646318,-3.59058539471366,-0.30268374,0.9502009,-1.0931433,226.1034,-132.43945,-19.823923,CSO
8211432111000,2.924996,-0.673392953985735,6.46534992075729,-3.66035118737151,-0.38087448,0.9257663,-1.0684034,225.68869,-132.40027,-19.747633,CSO
8211437127000,2.930012,-0.743720994312543,6.50618896818137,-3.74883667420453,-0.44990227,0.9104946,-1.0458013,225.275,-132.35239,-19.684994,CSO
8211442193000,2.935078,-0.776766906175927,6.55339736440595,-3.85741608411015,-0.51893,0.8781188,-1.0180069,224.87952,-132.28052,-19.623644,CSO
8211447086000,2.939971,-0.776987810055877,6.59715324918145,-3.94871334887756,-0.57757306,0.84665924,-0.97433007,224.48427,-132.20483,-19.569162,CSO
8211452212000,2.945097,-0.733676718004117,6.64046455730811,-4.02571073307519,-0.63041294,0.8072584,-0.9285152,224.10677,-132.10965,-19.516027,CSO
8211457119000,2.950004,-0.65318402722224,6.64874811422451,-4.10236831858234,-0.68386364,0.795652,-0.8903361,223.72357,-132.01135,-19.453758,CSO
8211462176000,2.955061,-0.509181028126739,6.60539235472392,-4.185982968747,-0.73884153,0.75869465,-0.84635377,223.36786,-131.89331,-19.392569,CSO
8211467058000,2.959943,-0.370161324432011,6.56353694284298,-4.2667040923586,-0.75625116,0.7266242,-0.8176431,223.00888,-131.77435,-19.313345,CSO
8211472206000,2.965091,-0.223567011728107,6.51940100258017,-4.35182337633085,-0.81031275,0.68600166,-0.7644979,222.67578,-131.62459,-19.228386,CSO
8211477137000,2.970022,-0.0831519853211625,6.47712549336573,-4.43335468737731,-0.86406887,0.65209866,-0.7101309,222.34831,-131.47058,-19.140497,CSO
8211482234000,2.975119,0.0619900527230872,6.43342679726636,-4.51763071503981,-0.9062186,0.6133087,-0.64660084,222.04523,-131.29941,-19.048265,CSO
8211487092000,2.979977,0.188218363858547,6.39042205471679,-4.58541259775053,-0.94225967,0.58062744,-0.57360244,221.75336,-131.11249,-18.945684,CSO
8211492186000,2.985071,0.237650175448374,6.33604699848009,-4.57058311672915,-0.9975429,0.5549711,-0.50335294,221.4819,-130.90459,-18.836874,CSO
8211497104000,2.989989,0.273930215384925,6.28740539812821,-4.54792788402939,-1.0387764,0.52626044,-0.4361578,221.2144,-130.70758,-18.628782,CSO
8211502166000,2.995051,0.24953764111905,6.25813443534266,-4.47962868219785,-1.0852021,0.50823987,-0.35124752,220.96872,-130.48615,-18.406143,CSO
8211507144000,3.000029,0.223173096666992,6.22449596799883,-4.40280636702169,-1.1346822,0.47525316,-0.2724459,220.7372,-130.25224,-18.17102,CSO
8211512173000,3.005058,0.185524663107289,6.16802310881376,-4.28044908694548,-1.1841623,0.43860126,-0.19822577,220.52737,-129.9993,-17.92448,CSO
8211517148000,3.010033,0.144143268426658,6.11776217931298,-4.15549957757152,-1.2382239,0.40469822,-0.121256754,220.3352,-129.72348,-17.673927,CSO
8211522166000,3.015051,0.0751693661346283,6.10396745676012,-4.00375690927184,-1.2974777,0.38331795,-0.049480084,220.16258,-129.42899,-17.415009,CSO
8211527175000,3.02006,0.00642162425856419,6.09129973771224,-3.85179060947274,-1.3591752,0.36713,0.018325957,220.00777,-129.1078,-17.159952,CSO
8211532243000,3.025128,-0.0610486969802403,6.10093829773607,-3.68793403229074,-1.42973,0.32711834,0.0852157,219.87714,-128.76517,-16.899475,CSO
8211537384000,3.030269,-0.132560168337888,6.11455911599649,-3.52297585971111,-1.5070046,0.2938262,0.16187929,219.76212,-128.38437,-16.64467,CSO
8211542181000,3.035066,-0.235685157636151,6.17284734782354,-3.38398130993558,-1.5925257,0.27763826,0.23609942,219.66367,-127.981155,-16.381945,CSO
8211547464000,3.040349,-0.350535884553571,6.24064455185082,-3.23286516219308,-1.7027869,0.26175576,0.31978795,219.59018,-127.524826,-16.124907,CSO
8211552256000,3.045141,-0.482851133839286,6.3814961483538,-3.13896402357701,-1.8090774,0.22937989,0.38912117,219.53369,-127.04709,-15.862336,CSO
8211557152000,3.050037,-0.618037999553572,6.52540462424665,-3.04302496375558,-1.9388863,0.21105394,0.4801401,219.49571,-126.504745,-15.601233,CSO
8211562161000,3.055046,-0.790116471313294,6.70301892525721,-2.89786398890458,-2.074193,0.18570304,0.5222898,219.4685,-125.939804,-15.34481,CSO
8211567100000,3.059985,-0.966644073098648,6.88431758908614,-2.74519144824491,-2.133447,0.15271631,0.6010914,219.46585,-125.35391,-15.065288,CSO
8211572174000,3.065059,-1.11435626207931,7.04045956275429,-2.57089811431518,-2.238821,0.09132435,0.66920286,219.48143,-124.70012,-14.815795,CSO
8211577174000,3.070059,-1.25351492899597,7.18859624598294,-2.3958277102653,-2.3225098,0.018020526,0.73548174,219.5165,-124.03764,-14.557547,CSO
8211582982000,3.075867,-1.38493126211357,7.39460041437268,-2.23424183546086,-2.4123068,-0.08735373,0.8210029,219.59384,-123.309204,-14.329848,CSO
8211587659000,3.080544,-1.4829228870351,7.56928127052221,-2.11494750543137,-2.5680776,-0.119729586,0.8549059,219.66803,-122.55332,-14.100935,CSO
8211592194000,3.085079,-1.56077207675143,7.76009360472409,-2.05434869271284,-2.612976,-0.16554448,0.91629785,219.78723,-121.759,-13.890325,CSO
8211597156000,3.090041,-1.63719405865916,7.97980641618253,-2.01613775163333,-2.6902506,-0.1957823,0.9761627,219.9084,-120.92734,-13.675266,CSO
8211602165000,3.09505,-1.68151818035152,8.16368614020116,-1.94093744694707,-2.7479773,-0.24312437,1.0418307,220.05432,-120.05609,-13.47045,CSO
8211607154000,3.100039,-1.70578855279894,8.32387090246876,-1.8438559064716,-2.7757716,-0.2947425,1.1111639,220.2099,-119.181076,-13.254859,CSO
8211612179000,3.105064,-1.6847384622093,8.45643181976744,-1.78640854360465,-2.7809641,-0.33108896,1.1768318,220.37654,-118.28024,-13.034619,CSO
8211617169000,3.110054,-1.63992574474869,8.57294485708927,-1.75055836027757,-2.7837129,-0.36071593,1.2345587,220.55394,-117.38284,-12.804939,CSO
8211622163000,3.115048,-1.54052169060808,8.59751972990421,-1.80356477830071,-2.77455,-0.34422258,1.3084733,220.73625,-116.46013,-12.552956,CSO
8211627204000,3.120089,-1.38971994465848,8.53719936745106,-1.93928640739275,-2.7605,-0.3032946,1.368949,220.91528,-115.55055,-12.29126,CSO
8211632143000,3.125028,-1.23172178096896,8.41432727553006,-2.13238200090136,-2.719572,-0.1881465,1.4208726,221.07243,-114.63377,-11.9869585,CSO
8211637162000,3.130047,-1.06433018837448,8.24693516885179,-2.36869947988323,-2.6914723,-0.029321533,1.4498887,221.20044,-113.7306,-11.666968,CSO
8211642189000,3.135074,-0.888708429789536,8.10821527576711,-2.68537504042093,-2.6502388,0.20005837,1.4874569,221.26924,-112.86489,-11.280166,CSO
8211647158000,3.140043,-0.710864997423289,7.98653302761605,-3.04106190515342,-2.6022859,0.5045747,1.5250251,221.2676,-112.020424,-10.869141,CSO
8211652167000,3.145052,-0.565460375223881,7.90107993656716,-3.41391724701493,-2.5833492,0.8359691,1.5745052,221.18369,-111.23175,-10.392806,CSO
8211657394000,3.150279,-0.435957201010945,7.83632843267662,-3.81238862029851,-2.540894,1.2018774,1.642922,221.00523,-110.46794,-9.880068,CSO
8211662174000,3.155059,-0.378179834506677,7.80020516659358,-4.02956607462627,-2.4904976,1.3991868,1.6823229,220.7595,-109.79366,-9.311644,CSO
8211667168000,3.160053,-0.354347574614311,7.77637292660953,-4.1677932656169,-2.4764478,1.774869,1.7702875,220.37224,-109.12108,-8.677194,CSO
8211672179000,3.165064,-0.427504658270833,7.73255339958333,-4.24049058958333,-2.4446826,2.1270328,1.8649716,219.92781,-108.55615,-7.9980707,CSO
8211677193000,3.170078,-0.565651992939484,7.67538912382936,-4.26907287668651,-2.404671,2.461787,1.9321668,219.39319,-108.008865,-7.287906,CSO
8211682140000,3.175025,-0.718232052727543,7.61904389868278,-4.23980156622759,-2.372906,2.795014,1.9782871,218.76253,-107.51605,-6.5369725,CSO
8211687170000,3.180055,-0.885212046597009,7.56179346191938,-4.16823842063979,-2.3945918,3.0857859,1.9990565,218.06258,-107.03822,-5.7681556,CSO
8211692179000,3.185064,-1.08525539298701,7.69316077662338,-4.19445879350649,-2.395508,3.3643403,2.0158553,217.2703,-106.62235,-5.012681,CSO
8211697178000,3.190063,-1.31092626709957,7.96949222366522,-4.29578051645022,-2.3671029,3.6355646,2.0366247,216.41243,-106.230415,-4.2453647,CSO
8211702152000,3.195037,-1.51946043108298,8.40991980168776,-4.45195098973277,-2.3054054,3.8997638,2.0631974,215.47812,-105.87204,-3.509501,CSO
8211707180000,3.200065,-1.71295922770745,9.03395400421941,-4.66963722433193,-2.1734586,4.11601,2.1010711,214.49675,-105.56276,-2.7647262,CSO
8211712171000,3.205056,-1.82656973876388,9.555061759976,-4.84503963036304,-2.0069978,4.3154573,2.1465805,213.44667,-105.31655,-2.0579462,CSO
8211717173000,3.210058,-1.86010529983998,9.97665147054705,-4.97918182464246,-1.7971655,4.510629,2.207056,212.35634,-105.1389,-1.336914,CSO
8211722153000,3.215038,-1.95146094927221,10.3966660411922,-4.85630953827112,-1.565953,4.670065,2.2406538,211.22624,-105.03964,-0.6482687,CSO
8211727225000,3.22011,-2.10537267011585,10.8247329975245,-4.46191093880582,-1.351234,4.6706758,2.2406538,210.10443,-105.010345,0.035380386,CSO
8211732187000,3.225072,-2.24927284367622,11.1894531781569,-4.06212878345402,-1.2027937,4.5497246,2.2046127,208.98325,-105.03968,0.70704764,CSO
8211737164000,3.230049,-2.38638709544688,11.496778608273,-3.6460578040869,-1.1420126,4.3246207,2.1190915,207.9041,-105.11344,1.3438503,CSO
8211742188000,3.235073,-2.39071039205582,11.8378505927581,-3.3846630699927,-1.1139128,4.0787473,2.0143282,206.84056,-105.090004,1.9082158,CSO
8211747148000,3.240033,-2.23907476856074,12.2104409612368,-3.31101141293324,-1.1227703,3.7782016,1.9071213,205.85887,-105.076744,2.415481,CSO
8211752099000,3.244984,-2.04963174311168,12.5645753903913,-3.22809374355711,-1.14018,3.5732563,1.7873917,204.87996,-104.94148,2.8366604,CSO
8211757158000,3.250043,-1.74133347166189,12.872873393573,-3.11505108873688,-1.1450669,3.0427198,1.6560557,204.07286,-104.80756,3.1702342,CSO
8211762148000,3.255033,-1.41777993291063,12.9869015150966,-2.96775563073672,-1.1404854,2.366492,1.568091,203.35237,-104.63885,3.4874737,CSO
8211767169000,3.260054,-1.05965786591184,12.783643491244,-2.75965776917271,-1.0595458,1.6151277,1.3344351,202.78609,-104.47838,3.6794946,CSO
8211772092000,3.264977,-0.386378383512129,12.6065397691118,-2.43678606276215,-0.947452,0.9138544,1.0601566,202.3825,-104.304016,3.8500721,CSO
8211777226000,3.270111,0.858604658490384,12.4592326217261,-1.8998276664927,-0.86467975,0.312763,0.79717916,202.1486,-104.13271,3.9129407,CSO
8211782627000,3.275512,1.94507162257053,12.6404819099459,-1.6719647384725,-0.87017757,-0.17195857,0.6123924,202.06459,-103.95168,3.9620893,CSO
8211787171000,3.280056,2.55688110052247,13.2481571982521,-1.93653099104208,-0.8738427,-0.44593164,0.5335908,202.08038,-103.78593,3.94351,CSO
8211792217000,3.285102,3.19139415042591,14.0101330151643,-2.23139334245998,-0.86376345,-0.50610185,0.5149594,202.17723,-103.60682,4.126631,CSO
8211797180000,3.290065,3.66299808031452,15.0556702881213,-2.52503360673968,-0.73426,-0.35308012,0.44929138,202.28247,-103.4564,4.267708,CSO
8211802121000,3.295006,4.16518558838069,16.0827010757104,-2.8746169606267,-0.44684792,-0.022296581,0.18906279,202.36401,-103.41592,4.483145,CSO
8211807184000,3.300069,5.11360546118139,16.9509065427209,-3.9929029469346,0.032375857,0.46670106,-0.2874121,202.33858,-103.43727,4.6307793,CSO
8211812433000,3.305318,6.14991699443893,17.8182527537239,-5.03757137636544,0.6435465,1.3029755,-0.88422745,202.10066,-103.56961,4.779589,CSO
8211817154000,3.310039,7.67644259301887,18.2313130622641,-4.69185831283019,1.287704,2.5014932,-1.3967434,201.59567,-103.79121,4.8633785,CSO
8211822500000,3.315385,9.30119953763541,18.6806381602629,-4.19557958595315,1.8689423,3.522249,-1.46852,200.93394,-104.32857,5.09362,CSO
8211827197000,3.320082,9.55940755642996,18.8680467642811,-2.57969975551893,2.0912971,4.0979896,-0.97035944,200.05861,-104.91982,5.377856,CSO
8211832107000,3.324992,9.82932481686881,19.0639539913897,-0.890542853787612,1.9208658,4.1444154,-0.3417791,199.0493,-105.55159,5.9313555,CSO
8211837168000,3.330053,9.18882178789625,17.2881069682997,0.50243740804611,1.5671748,3.77698,0.07269296,198.00694,-106.19396,6.5450993,CSO
8211842694000,3.335579,8.29917188472623,14.939432221902,1.95129517567723,1.1606439,3.1624494,0.29993483,197.04755,-106.80177,7.234712,CSO
8211847149000,3.340034,7.34635300184771,13.072188621414,2.43352036615774,0.75319684,2.4749205,0.37812558,196.18243,-107.12601,7.9615703,CSO
8211852167000,3.345052,6.2294144228338,10.9738389425265,2.84945151862297,0.37995818,2.1398609,0.376293,195.39442,-107.38026,8.6772785,CSO
8211857180000,3.350065,5.25744289014378,9.40129736033713,2.86362849720377,0.07513642,1.5357152,0.3640757,194.86363,-107.461494,9.280264,CSO
8211862171000,3.355056,4.34745897598413,8.04580065265245,2.716704097412,-0.044898596,1.0836749,0.33292156,194.37695,-107.51101,9.848532,CSO
8211867170000,3.360055,3.67319476220327,7.16799543019087,2.33307104103285,-0.25900686,0.7333437,0.31673363,194.02335,-107.43528,10.284061,CSO
8211872176000,3.365061,3.10185451590931,6.49910924086813,1.84534147139812,-0.3930918,0.571159,0.32528573,193.74004,-107.364876,10.69474,CSO
8211877247000,3.370132,2.63043930621793,5.98255007177784,1.47004709652883,-0.45631635,0.55863625,0.35460728,193.51297,-107.26818,11.006837,CSO
8211882262000,3.375147,2.22453073639199,5.56214462495221,1.16561565654492,-0.43371433,0.6453791,0.3885103,193.30214,-107.17468,11.317088,CSO
8211887149000,3.380034,1.83282163296966,5.21243259036271,1.16558051967652,-0.36102137,0.7742717,0.41538838,193.09,-107.1214,11.575436,CSO
8211892248000,3.385133,1.426237601225,4.88062276579577,1.32914871968609,-0.23243423,0.90408057,0.44073927,192.8535,-107.09824,11.847183,CSO
8211897170000,3.390055,1.00174590533057,4.59212764222798,1.69224947716062,-0.10140363,1.0002918,0.43127087,192.59595,-107.1049,12.076184,CSO
8211902173000,3.395058,0.544960993546114,4.3240147984456,2.22351021863212,0.03481932,1.0790935,0.4089743,192.30643,-107.14444,12.31386,CSO
8211907164000,3.400049,0.242651115812422,4.20346079935121,2.90079839095506,0.15088372,1.1517864,0.35033122,191.98358,-107.14562,12.489843,CSO
8211912812000,3.405697,0.00525668729605955,4.16733537009827,3.76780411254651,0.20708331,1.2721269,0.30787608,191.62328,-107.160965,12.669359,CSO
8211917166000,3.410051,-0.0338565286137813,4.37328751571385,4.42235185899019,0.15332718,1.4288138,0.29443705,191.20268,-107.07345,12.788817,CSO
8211922116000,3.415001,0.0284997928979055,4.78100198146312,5.15623776711525,-0.013744468,1.5925257,0.3051272,190.74266,-106.971375,12.907007,CSO
8211927125000,3.42001,0.132966583780096,5.44162275547753,5.46063603190209,-0.21288654,1.7644843,0.3399465,190.2029,-106.747826,12.997718,CSO
8211932143000,3.425028,0.272777588314607,6.31423639325843,5.39314121348315,-0.3371976,1.9150625,0.3549127,189.61885,-106.50967,13.087205,CSO
8211937134000,3.430019,0.379421451220968,7.06500278472157,5.21065314709449,-0.3472769,2.032654,0.31948254,188.96144,-106.17592,13.164379,CSO
8211942180000,3.435065,0.46055586918571,7.7276003353232,4.93119012573454,-0.2556471,2.0744984,0.26450464,188.27928,-105.85031,13.2343445,CSO
8211947135000,3.44002,0.571027417712061,8.41450957882551,4.53384615628289,-0.13652839,2.0857995,0.20158553,187.56032,-105.51857,13.277426,CSO
8211952132000,3.445017,0.727153965485161,9.15988822500526,3.95466693075142,-0.045814894,2.101682,0.13713925,186.8249,-105.19884,13.297029,CSO
8211957104000,3.449989,0.917651432369874,9.88267196076498,3.38491780676262,-0.004886922,2.117259,0.10934488,186.09085,-104.90415,13.288644,CSO
8211962179000,3.455064,1.14763075073541,10.6013572993888,2.80996948583399,0.04550946,2.1499403,0.053145275,185.34563,-104.6131,13.247765,CSO
8211967167000,3.460052,1.35306948037632,11.3257285535908,2.23366489244409,0.046120327,2.2284365,0.021380283,184.59912,-104.37324,13.20325,CSO
8211972151000,3.465036,1.53645053382918,12.0686570662496,1.64590507678061,0.0033597588,2.3658812,-0.010995574,183.82733,-104.1301,13.139956,CSO
8211977157000,3.470042,1.66914993259749,12.7181010800836,0.918194450409414,-0.13530666,2.601675,-0.043982297,183.0223,-103.9325,13.085149,CSO
8211983623000,3.476508,1.75947912886317,13.4046022045609,-0.238018494649421,-0.36254853,3.213762,-0.09712757,182.06955,-103.71751,13.022548,CSO
8211987090000,3.479975,1.7491812303889,13.6006563050616,-0.872084551076803,-0.8732319,3.4978144,-0.12705997,181.16417,-103.51626,12.958807,CSO
8211992206000,3.485091,1.66300677449678,13.6820433967168,-1.82479061018956,-1.0885619,4.1129556,-0.17348573,179.98682,-103.31436,12.88827,CSO
8211997064000,3.489949,1.57069271336938,13.6155692425881,-2.46996078761887,-1.5506815,4.6755624,-0.24495697,178.77615,-103.09859,12.796414,CSO
8212002151000,3.495036,1.45260141835726,13.2522110834421,-2.61530400385046,-2.0100522,5.075985,-0.32803464,177.44023,-102.87045,12.685115,CSO
8212007078000,3.499963,1.37322004214331,12.8614394031469,-2.69705733493515,-2.3930645,5.2317553,-0.43279803,176.04732,-102.64205,12.537121,CSO
8212012152000,3.505037,1.44554595802679,12.2879981050393,-2.52140857418669,-2.6661212,5.1098876,-0.5476407,174.6294,-102.390205,12.351186,CSO
8212017066000,3.509951,1.69821756738254,11.7153932819094,-2.36156987151833,-2.6984973,4.5527787,-0.6386596,173.30305,-102.13523,12.129648,CSO
8212022148000,3.515033,2.38286543666885,11.0832349947482,-2.22007596772953,-2.4022276,3.6025777,-0.67256266,172.14001,-78.11796,11.880672,CSO
8212027227000,3.520112,3.06710914546563,10.4514498824909,-2.07866559044828,-1.831374,2.4657576,-0.643852,171.19313,-78.32956,11.653648,CSO
8212032184000,3.525069,3.73491699435431,9.8348405496577,-1.94065195780737,-1.1554517,1.4059063,-0.55833083,170.5097,-78.53238,11.432869,CSO
8212037260000,3.530145,4.36481945787445,9.23891255759185,-1.77946782181211,-0.5497787,0.5748242,-0.464563,170.08565,-78.72606,11.233165,CSO
8212042152000,3.535037,4.33673450975422,9.08243935899632,-1.39029039031429,-0.17104226,-0.03756821,-0.4297437,169.90752,-78.91995,11.047554,CSO
8212047115000,3.54,4.30824195098056,8.92369518797636,-0.995464635505695,0.00030543262,-0.45356745,-0.38973203,169.9334,-78.78019,11.202295,CSO
8212052137000,3.545022,4.14688461211618,8.89550251618257,-0.567741702154357,0.022296581,-0.5928447,-0.36071593,170.05478,-78.63408,11.361225,CSO
8212057100000,3.549985,3.93487451912863,8.92015482863071,-0.133860708067324,0.022296581,-0.7828238,-0.310625,170.19808110311,-90.0085821032103,11.4551125115512,CSO
8212062136000,3.555021,3.70223892300859,8.90006205020759,0.0564880882757555,-0.0720821,-0.90133166,-0.25320363,170.34349,-101.55039,11.550381,CSO
8212067120000,3.560005,3.46720258769914,8.86780199497924,0.176310520772424,-0.16310102,-0.94225967,-0.19425514,170.56808,-101.73131,11.728554,CSO
8212072151000,3.565036,3.27612537361072,8.83251646759128,0.200928617589395,-0.22540927,-0.91782504,-0.13133603,170.83574,-101.90234,11.895785,CSO
8212077262000,3.570147,3.10063820730258,8.79557202434192,0.187074369394282,-0.22999077,-0.82833326,-0.054061573,171.09412,-102.09298,12.08164,CSO
8212082225000,3.57511,2.95462091270425,8.8029906000817,0.218060138664216,-0.19547687,-0.70402217,0.037873644,171.31708,-102.262764,12.247429,CSO
8212087143000,3.580028,2.82475311689134,8.83665971425654,0.275779181905637,-0.10842858,-0.59803706,0.10629055,171.51773,-102.44713,12.426798,CSO
8212092193000,3.585078,2.68414241502663,8.87225205578918,0.416205831527895,-0.035124753,-0.4783075,0.16829337,171.6638,-102.628395,12.60271,CSO
8212097162000,3.590047,2.54183895692926,8.90782816409681,0.598532088748715,0.03268129,-0.38240165,0.21074851,171.78499,-102.82322,12.7904625,CSO
8212102134000,3.595019,2.39915497694473,8.93454159069156,0.792543000928967,0.087659165,-0.29718593,0.24648413,171.86208,-103.0101,12.969946,CSO
8212107125000,3.60001,2.25563143554471,8.9524819338463,0.998858164868162,0.10842858,-0.24801129,0.267559,171.92114,-103.20351,13.154973,CSO
8212112111000,3.604996,2.06940522934673,8.97551794941374,1.172695239933,0.07727446,-0.23548855,0.28955013,171.95207,-103.371735,13.318299,CSO
8212117135000,3.61002,1.80613551115578,9.00775514249023,1.29089798199888,0.030848695,-0.2507602,0.29810223,171.97632,-103.539925,13.481513,CSO
8212122110000,3.614995,1.57008859371115,9.08135488921389,1.2857502514808,-0.049480084,-0.26450464,0.29260445,171.98375,-103.67209,13.614658,CSO
8212127237000,3.620122,1.34568144397623,9.18907015987203,1.18701107372943,-0.12705997,-0.26236662,0.29749137,171.99066,-103.80666,13.751336,CSO
8212132217000,3.625102,1.1392288302952,9.3243694495577,1.02992983340523,-0.20250183,-0.22327125,0.29565877,171.98007,-103.887314,13.83791,CSO
8212137130000,3.630015,0.95216648958354,9.50207882705496,0.786748800246496,-0.27550024,-0.14874569,0.29443705,171.95808,-103.96716,13.925119,CSO
8212142105000,3.63499,0.806738779757463,9.70105512873134,0.547780826035448,-0.32742378,-0.06383542,0.29626966,171.91434,-104.0002,13.9648485,CSO
8212147140000,3.640025,0.734769795475746,9.93495436287314,0.318379683353545,-0.35735616,-0.017715093,0.29626966,171.86006,-104.031555,14.003288,CSO
8212152113000,3.644998,0.682511609483568,10.1719491181221,0.116534000240376,-0.36285394,0.08032878,0.2919936,171.76225,-104.02537,14.001672,CSO
8212157120000,3.650005,0.693767721596244,10.4308396967136,-0.00278087277934273,-0.3640757,0.21013765,0.28588495,171.64177,-104.018585,13.999644,CSO
8212162110000,3.654995,0.704985616431925,10.6888512779343,-0.121690642375587,-0.37232238,0.3323107,0.27122417,171.49272,-103.99029,13.973853,CSO
8212167700000,3.660585,0.717552356338028,10.9778862957746,-0.254898179859155,-0.36713,0.44043383,0.2443461,171.31018,-103.95729,13.943337,CSO
8212172475000,3.66536,0.726947097360104,11.2187129875442,-0.362138253604759,-0.36468655,0.516792,0.2284636,171.10188,-103.92349,13.912152,CSO
8212177235000,3.67012,0.705760274530582,11.320410091095,-0.319764581398029,-0.36102137,0.5717699,0.20433442,170.86609,-103.88146,13.87263,CSO
8212182304000,3.675189,0.68319808862242,11.4287089604016,-0.274640181310653,-0.34697145,0.59650993,0.16249016,170.61728,-103.81689,13.808656,CSO
8212187127000,3.680012,0.643640024308604,11.3280814389182,-0.166473415930351,-0.3371976,0.6038403,0.10903945,170.35858,-103.74312,13.735538,CSO
8212194020000,3.686905,0.57971210509192,11.1265459380077,0.00680694373663959,-0.29138273,0.54061574,-0.015271631,170.11444,-103.638794,13.63124,CSO
8212197135000,3.69002,0.506376235414707,10.9416122900812,0.118404994997862,-0.21899518,0.50976706,-0.06291912,169.8582,-103.53234,13.524854,CSO
8212202191000,3.695076,0.387343761229158,10.6414439035913,0.299541350431809,-0.19639318,0.41141775,-0.14569137,169.63861,-103.37776,13.3708725,CSO
8212207126000,3.700011,0.307562062031266,10.4020305930499,0.530557771255601,-0.1459968,0.30573806,-0.21380283,169.43124,-103.217514,13.210192,CSO
8212212145000,3.70503,0.235771766293936,10.1723012728766,0.779430785816987,-0.12064589,0.19150625,-0.27672195,169.25594,-103.038345,13.030322,CSO
8212217138000,3.710023,0.234892738999805,10.0276144356808,1.01966616511037,-0.082161374,0.06963864,-0.31673363,169.111,-102.837845,12.829312,CSO
8212222121000,3.715006,0.253537481846064,9.90642381646806,1.25738670697402,-0.041233405,-0.032375857,-0.32253686,168.99417,-102.633316,12.623704,CSO
8212227187000,3.720072,0.542430089850482,10.034890317529,1.57041170611843,-0.010995574,-0.119729586,-0.27855456,168.90295,-102.42755,12.418125,CSO
8212232246000,3.725131,0.928459423754672,10.2541168025772,1.9087830654338,0.019242255,-0.20830505,-0.2049453,168.8425,-102.23298,12.22302,CSO
8212237731000,3.730616,1.20863823517958,10.1695530786389,2.14622036642722,0.043676864,-0.2764165,-0.09132435,168.79865,-102.07071,12.0616045,CSO
8212242128000,3.735013,1.39570186753308,10.0143298355388,2.30144344328923,0.08246681,-0.36132678,0.012217305,168.78621,-101.93023,11.921224,CSO
8212247113000,3.739998,1.62970552945485,9.82739074238778,2.43607440173695,0.115453534,-0.40133846,0.03481932,168.77678,-101.86313,11.856269,CSO
8212252103000,3.744988,1.87972264737888,9.63237765773778,2.54108155576018,0.1301143,-0.50488013,0.015577064,168.81116,-101.81536,11.809908,CSO
8212257118000,3.750003,2.15752887221615,9.54175034647859,2.55068124693553,0.14844026,-0.6151413,-0.049480084,168.85863,-101.809586,11.805961,CSO
8212262115000,3.755,2.44750333776696,9.50372112645277,2.51265172908513,0.14996742,-0.71959925,-0.119729586,168.93452,-101.797585,11.795286,CSO
8212267099000,3.759984,2.67399390814229,9.49370297371541,2.41619991804348,0.13622294,-0.7877107,-0.16768251,169.03333,-101.82504,11.823976,CSO
8212272109000,3.764994,2.86837854173913,9.49844415652174,2.28819060608696,0.13133603,-0.8145888,-0.18417588,169.15009,-101.842224,11.841857,CSO
8212277101000,3.769986,3.02404367144451,9.45821104350251,2.09263643680982,0.094989546,-0.81214535,-0.17837265,169.27913,-101.91086,11.910834,CSO
8212282103000,3.774988,3.15762757257855,9.39141913943112,1.85663818977505,0.050701816,-0.7486154,-0.1591304,169.39738,-78.021286,11.978611,CSO
8212287165000,3.78005,3.24934630899636,9.29797440613624,1.63701141939678,-0.00580322,-0.6383542,-0.11636983,169.5031,-77.90644,12.093033,CSO
8212292114000,3.784999,3.29371037516901,9.17966988653146,1.44230244657826,-0.08368854,-0.45540005,-0.062002823,169.56818,-77.78343,12.214901,CSO
8212297096000,3.789981,3.33837026154446,9.06057651076443,1.24629515165367,-0.15241088,-0.25411993,-0.0012217305,169.59909,-77.614944,12.382285,CSO
8212302050000,3.794935,3.38277914895996,8.9421524674987,1.05138946336453,-0.22693644,-0.05009095,0.04642576,169.57558,-77.436356,12.558581,CSO
8212307095000,3.79998,3.3459022124194,8.84598148427735,0.949902209334391,-0.2611449,0.10781772,0.10323623,169.50908,-77.215225,12.777823,CSO
8212312056000,3.804941,3.26107039191548,8.76586288443607,0.907486304003571,-0.27305678,0.24404067,0.13988814,169.39038,-76.98931,13.000629,CSO
8212317050000,3.809935,3.16102743472803,8.75424324686193,0.902183301338912,-0.2666427,0.34483343,0.18295415,169.2383,-76.74318,13.243958,CSO
8212322038000,3.814923,3.05157437627017,8.7875547188683,0.921218593600319,-0.2452624,0.4034765,0.21746802,169.06079,-76.493355,13.490489,CSO
8212327068000,3.819953,2.93289751551895,8.88672314407621,0.954641708126612,-0.20463985,0.42424592,0.24465153,168.86679,-76.25026,13.730641,CSO
8212332052000,3.824937,2.80975789972217,9.02880720202421,0.997266950238142,-0.17867808,0.419359,0.2782491,168.66553,-76.00002,13.977781,CSO
8212337048000,3.829933,2.65350588106638,9.19300385013354,0.984858375552478,-0.12767084,0.3753767,0.29229903,168.4715,-75.77628,14.199171,CSO
8212342093000,3.834978,2.47188862589771,9.37462185389257,0.932284954066673,-0.06627888,0.34697145,0.29443705,168.2765,-75.55127,14.422381,CSO
8212347051000,3.839936,2.26777650605215,9.54519259472722,0.8736751620687,-0.003970624,0.30695978,0.28313604,168.09918,-75.36309,14.609313,CSO
8212352127000,3.845012,2.03858550888098,9.71357728288271,0.808192046533244,0.029932396,0.26236662,0.27030787,167.93326,-75.179054,14.792816,CSO
8212357109000,3.849994,1.84617374246902,9.90284241372736,0.746466032745472,0.09865474,0.24709499,0.24648413,167.77126,-75.05065,14.922972,CSO
8212362150000,3.855035,1.68509803033365,10.1191440829361,0.686637916587226,0.15515977,0.23854288,0.21410827,167.62172,-74.931366,15.04441,CSO
8212367125000,3.86001,1.53106287187853,10.3234762734175,0.643397953384631,0.20372356,0.23518312,0.18478674,167.4744,-74.87455,15.104777,CSO
8212372114000,3.864999,1.38400632577203,10.5146501262953,0.623790390017441,0.23823744,0.226631,0.15882497,167.33205,-74.827614,15.155524,CSO
8212377313000,3.870198,1.25841385761613,10.6479367544112,0.625496195592366,0.24740042,0.21563543,0.13591751,167.19263,-74.832794,15.154507,CSO
8212382478000,3.875363,1.16490029576882,10.7058258586604,0.652214357448686,0.26206118,0.21227567,0.10567969,167.05406,-74.8473,15.143902,CSO
8212387144000,3.880029,1.08397506782562,10.7364981877207,0.661697635612005,0.23548855,0.19272798,0.06811147,166.9232,-74.90608,15.088166,CSO
8212392124000,3.885009,1.00913393689192,10.6990778542566,0.624277077471557,0.20586158,0.17440203,0.03390302,166.7933,-74.97082,15.025866,CSO
8212397153000,3.890038,0.949952009210526,10.642688877193,0.586369412807017,0.17165314,0.16554448,0.010079277,166.66492,-75.06346,14.93476,CSO
8212402132000,3.895017,0.959458191761364,10.5096028674242,0.548344732234848,0.13652839,0.12583824,-0.014660766,166.55136,-75.16355,14.835668,CSO
8212407124000,3.900009,0.982012173251399,10.3717714480416,0.516279618577138,0.08552113,0.10629055,-0.040011674,166.43515,-75.28059,14.719175,CSO
8212412126000,3.905011,1.06338248813949,10.2138166047162,0.511493132406075,0.040927973,0.07513642,-0.06261369,166.33423,-75.40119,14.598795,CSO
8212417134000,3.910019,1.15777957167288,10.0645796034749,0.498067984706632,0.005497787,0.0143553335,-0.09101892,166.24948,-104.480286,14.480231,CSO
8212422123000,3.915008,1.30989945976531,9.95592260538525,0.445912598393523,-0.03176499,-0.053145275,-0.10567969,166.17589,-104.36159,14.361307,CSO
8212427128000,3.920013,1.46250720478486,9.84691713826981,0.39358994686073,-0.04153884,-0.10293079,-0.11728613,166.11624,-104.260704,14.260023,CSO
8212432126000,3.925011,1.68197384123394,9.73143612921287,0.294607978711165,-0.05009095,-0.13133603,-0.11789699,166.06999,-104.160645,14.159473,CSO
8212437117000,3.930002,1.8925337000179,9.62546436501969,0.193082552378267,-0.051923547,-0.14874569,-0.106901415,166.03484,-104.06255,14.06075,STD
8212442140000,3.935025,2.05184800038489,9.56948884792338,0.0811319781327426,-0.05100725,-0.15485434,-0.09896017,166.00723,-104.003426,14.000637,STD
8212447113000,3.939998,2.20957645264948,9.51407052291443,-0.0297042165164698,-0.058337633,-0.13988814,-0.089491755,165.9835,-103.99323,13.988854,STD
8212452133000,3.945018,2.3859597109796,9.48163102684138,-0.136791579129557,-0.05955936,-0.11789699,-0.0729984,165.9592,-103.98774,13.9814005,STD
8212457350000,3.950235,2.56618400705907,9.45383844186047,-0.249743973245524,-0.08277224,-0.08368854,-0.04550946,165.92665,-103.98811,13.979861,STD
8212462142000,3.955027,2.6795210694999,9.4727278372093,-0.377248141370652,-0.09040806,-0.034208454,-0.02107485,165.88594,-104.03282,14.021369,STD
8212467098000,3.959983,2.79018292007029,9.49394820847207,-0.507620358166852,-0.10995574,0.016493361,0.009468411,165.83781,-104.122246,14.106792,STD
8212472125000,3.96501,2.83025725091565,9.53402239983352,-0.623390582699778,-0.103847094,0.084910266,0.03940081,165.7705,-104.217186,14.197251,STD
8212477677000,3.970562,2.87091934479832,9.57839898632188,-0.750174882802516,-0.098043874,0.13836098,0.063224554,165.69653,-104.3418,14.315866,STD
8212482208000,3.975093,2.81893150307508,9.61738974321086,-0.82815664538738,-0.087964594,0.2049453,0.08857546,165.59976,-104.473175,14.440909,STD
8212487130000,3.980015,2.76245740089856,9.65974518470447,-0.912867798652157,-0.053145275,0.25534168,0.1255328,165.4931,-104.623665,14.582405,STD
8212492747000,3.985632,2.65309614565176,9.68686710333016,-0.957564040252141,-0.0030543262,0.30848694,0.13622294,165.36758,-104.771645,14.720473,STD
8212497089000,3.989974,2.56605379440533,9.70664943710752,-0.989215794952426,0.03023783,0.3399465,0.1414153,165.23553,-104.92607,14.864069,STD
8212502134000,3.995019,2.43584633552107,9.75220943635982,-0.950527702742713,0.087659165,0.3387248,0.15393804,165.09792,-105.07509,14.998073,STD
8212507121000,4.000006,2.30064948706228,9.80228230446635,-0.895447526911302,0.13408493,0.31612277,0.14752395,164.95898,-105.21841,15.124684,STD
8212512133000,4.005018,2.18800038042217,9.84611540686274,-0.794171768331333,0.17440203,0.2761111,0.14110987,164.82616,-105.34483,15.230474,STD
8212517073000,4.009958,2.07914518734494,9.88871079901961,-0.690049377935174,0.21227567,0.22113322,0.12980886,164.70564,-105.46815,15.329761,STD
8212522147000,4.015032,1.97599152266858,9.89705011669058,-0.557891368397896,0.23273966,0.1572978,0.11575896,164.5969,-105.56008,15.395956,STD
8212527336000,4.020221,1.8714225266571,9.90180334988044,-0.420050375343855,0.26083946,0.09132435,0.10140363,164.50554,-105.65022,15.456219,STD
8212532142000,4.025027,1.78054067011104,9.89427511957639,-0.32893760936459,0.2687807,0.027794369,0.086437434,164.4277,-105.70929,15.486157,STD
8212537066000,4.029951,1.68841979892042,9.88457849485914,-0.241665192288711,0.26633725,-0.03573562,0.06566802,164.36914,-105.76385,15.508431,STD
8212542132000,4.035017,1.65513703645432,9.86662135634568,-0.125822686949827,0.25503623,-0.06505715,0.039095376,164.31474,-105.786476,15.50179,STD
8212547121000,4.040006,1.63154258955062,9.84774544404938,-0.00785061651397531,0.25167647,-0.090713486,0.03023783,164.27765,-105.80937,15.493251,STD
8212552134000,4.045019,1.65653729922504,9.82461403089916,0.0950173379754595,0.2321288,-0.112399206,0.013133603,164.24362,-105.80182,15.457371,STD
8212557124000,4.050009,1.68977307895678,9.8008742236463,0.194724599333631,0.22052236,-0.14844026,-0.004276057,164.22076,-105.79308,15.418654,STD
8212562780000,4.055665,1.85132950843441,9.69291667876469,0.419002732342788,0.20097467,-0.14935656,-0.010995574,164.1922,-105.77288,15.37439,STD
8212567111000,4.059996,1.99064441933196,9.60004020619519,0.604755980546744,0.18234327,-0.14446963,-0.01160644,164.17186,-105.74994,15.327186,STD
8212572123000,4.065008,2.10694353140908,9.52056303787282,0.690793269281903,0.17104226,-0.124311075,-0.017715093,164.14543,-105.72627,15.284614,STD
8212577156000,4.070041,2.20390861474679,9.45310904005948,0.720304354806263,0.14996742,-0.105374254,-0.019547688,164.11765,-105.7025,15.243896,STD
8212582955000,4.07584,2.31204617216073,9.35291895262342,0.764901040453841,0.12797627,-0.07971791,-0.013439035,164.08124,-105.70444,15.241766,STD
8212587132000,4.080017,2.38732173214523,9.26435952468453,0.804752810768209,0.098043874,-0.040317107,-0.009773844,164.03511,-105.70325,15.23915,STD
8212592116000,4.085001,2.45458502769953,9.17930195774648,0.803462588920188,0.071776666,-0.0009162979,0.0009162979,163.98396,-105.72633,15.264835,STD
8212597141000,4.090026,2.50746267453801,9.10719614414144,0.769813179120967,0.0421497,0.040317107,0.011911872,163.92099,-105.74794,15.292031,STD
8212602135000,4.09502,2.54669099846995,9.07355175555556,0.735523161712204,0.017104227,0.07727446,0.03023783,163.85022,-105.78983,15.343982,STD
8212607107000,4.099992,2.57704723202186,9.06487837777778,0.700830375118397,0.0125227375,0.14508049,0.032375857,163.75854,-105.82912,15.3948965,STD
8212612106000,4.104991,2.59734219341772,9.06776893132911,0.669815818091772,-0.013439035,0.19425514,0.05497787,163.66524,-105.890305,15.469697,STD
8212617134000,4.110019,2.60242153417722,9.08808618829114,0.644419077167722,-0.019242255,0.25259277,0.07086037,163.54985,-105.95041,15.543282,STD
