timestamp,rel_time,acc_x,acc_y,acc_z,gyro_x,gyro_y,gyro_z,azimuth,pitch,roll,label
2405775913000,0,-5.78794409443188,-0.698240389502809,7.51718644484159,-0.91507614,0.38789943,0.07269296,281.24628,12.33533,-34.217052,SIT
2405780786000,0.004873,-5.79749833282401,-0.69591008836991,7.51555523993708,-0.77457714,0.32650748,0.06627888,281.25873,12.398475,-34.34375,SIT
2405785781000,0.009868,-5.80729177028937,-0.69352144602252,7.51388319632986,-0.6569856,0.22052236,0.055283304,281.23425,12.446687,-34.425983,SIT
2405790751000,0.014838,-5.8170361915512,-0.691144758842034,7.51221952130927,-0.46792278,-0.018325957,0.00030543262,281.2087,12.452963,-34.44809,SIT
2405795736000,0.019823,-5.82681002253514,-0.688760898561406,7.51055082513669,-0.005192355,-0.048563786,-0.0067195175,281.1802,12.361475,-34.49955,SIT
2405801060000,0.025147,-5.83724851323896,-0.686214926217562,7.50876865092952,0.05497787,-0.008552114,0.002443461,281.1504,12.326582,-34.501595,SIT
2405805814000,0.029901,-5.84656943450228,-0.683941531679125,7.50717728049734,0.05497787,0.002443461,0.0076358155,281.136286257694,12.2721236327452,-34.4939041321297,SIT
2405810808000,0.034895,-5.8563609113195,-0.681553367538412,7.50550557163359,-0.00061086525,-0.0009162979,0.0061086523,281.12146,12.214916,-34.485825,SIT
2405815753000,0.03984,-5.8660563163778,-0.67918863552483,7.50385026519961,0.010995574,0.0076358155,0.014966198,281.0938,12.073483,-34.482613,SIT
2405820740000,0.044827,-5.87583406865803,-0.676803818830849,7.50218089954011,0.0125227375,0.008552114,0.013439035,281.0706,11.950617,-34.479023,SIT
2405825958000,0.050045,-5.88606473065888,-0.674308536394677,7.50043420814021,0.015271631,0.014966198,0.02321288,281.04398,11.823576,-34.480816,SIT
2405830757000,0.054844,-5.89547388108856,-0.672013622555814,7.49882777425212,0.014049901,0.023823744,0.013744468,281.02676,11.702674,-34.482098,SIT
2405835780000,0.059867,-5.90532221670187,-0.669611590421492,7.49714635782788,0.007330383,0.017715093,0.017715093,281.0031,11.580718,-34.48263,SIT
2405840744000,0.064831,-5.91505487407485,-0.667237772481063,7.49548469126807,0.013744468,0.025350908,0.02321288,280.98596,11.459354,-34.48883,SIT
2405845742000,0.069829,-5.92485419348463,-0.664847695513644,7.49381164343045,0.0125227375,0.032070424,0.027488936,280.96918,11.342901,-34.49326,SIT
2405850821000,0.074908,-5.93481232539385,-0.662418883805458,7.49211148137218,0.0125227375,0.022296581,0.030543262,280.95215,11.225996,-34.495453,SIT
2405855837000,0.079924,-5.94464693647018,-0.660020199117869,7.4904324081522,0.009773844,0.020158553,0.030543262,280.9377,11.111826,-34.50161,SIT
2405860763000,0.08485,-5.95430508921379,-0.657664553031134,7.48878346184406,0.0009162979,0.017104227,0.032375857,280.9226,11.000266,-34.505074,SIT
2405865746000,0.089833,-5.96407499890146,-0.655281649163858,7.48711543515842,-0.0033597588,0.014966198,0.03634648,280.90848,10.889867,-34.50832,SIT
2405870740000,0.094827,-5.97386647571867,-0.652893485023144,7.48544372629466,-0.013133603,0.010995574,0.0421497,280.8944,10.784106,-34.510437,SIT
2405875866000,0.099953,-5.98391675809053,-0.650442197601179,7.48372783129354,-0.013133603,0.008246681,0.0421497,280.88263,10.679203,-34.512188,SIT
2405880808000,0.104895,-5.9936062812044,-0.648078900207625,7.48207352908996,-0.022907447,-0.0012217305,0.05009095,280.867,10.57841,-34.511864,SIT
2405885764000,0.109851,-6.00332325339225,-0.645708907920605,7.48041454047787,-0.03268129,-0.0070249503,0.055588737,280.85394,10.479788,-34.511673,SIT
2405890743000,0.11483,-6.01308532048735,-0.643327916880034,7.47874785276609,-0.030543262,-0.008552114,0.05375614,280.8419,10.3823,-34.510174,SIT
2405895741000,0.119828,-6.02288463989714,-0.640937839912616,7.47707480492847,-0.034513887,-0.018936822,0.052839845,280.82816,10.289152,-34.505108,SIT
2405900805000,0.124892,-6.03281336208424,-0.638516201304572,7.47537966402217,-0.023518313,-0.018936822,0.05375614,280.81665,10.193652,-34.50266,SIT
2405905836000,0.129923,-6.04267738288268,-0.63611034351684,7.47369556965021,-0.02565634,-0.02565634,0.056505036,280.8051,10.103613,-34.49569,SIT
2405910798000,0.134885,-6.05240611895938,-0.633737481989764,7.47203457257734,-0.028099801,-0.014660766,0.054061573,280.79782,10.013391,-34.493637,SIT
2405915749000,0.139836,-6.06211328790652,-0.631369880736125,7.47037725768257,-0.02076942,-0.014660766,0.046120327,280.79166,9.923428,-34.48674,SIT
2405920740000,0.144827,-6.07189888277932,-0.62898315121544,7.46870655304921,-0.016798794,-0.008246681,0.03176499,280.79114,9.837826,-34.48436,SIT
2405926778000,0.150865,-6.08373727625596,-0.626095739304821,7.46668537200809,-0.009468411,-0.004581489,0.02687807,280.79123,9.750962,-34.481514,SIT
2405930777000,0.154864,-6.09157790817267,-0.624183390806881,7.46534673289192,-0.008857546,0.0015271631,0.022296581,280.79788,9.668486,-34.480507,SIT
2405935825000,0.159912,-6.10147525998951,-0.621769403505655,7.46365694788106,-0.01038471,0.013439035,0.028405234,280.80432,9.585238,-34.482655,SIT
2405940752000,0.164839,-6.11113537338127,-0.619413279212244,7.46200766682945,-0.010079277,0.017104227,0.023518313,280.8169,9.505335,-34.48344,SIT
2405945745000,0.169832,-6.12092488955035,-0.617025593278206,7.46033629270916,0.0018325958,0.02443461,0.007330383,280.8333,9.425282,-34.48834,SIT
2405950828000,0.174915,-6.13089086405213,-0.614594868743315,7.45863479167703,-0.01038471,0.013744468,0.01282817,280.84396,9.349362,-34.49018,SIT
2405955781000,0.179868,-6.14060195429556,-0.612226311076324,7.45697680729533,-0.0125227375,0.016187929,0.011911872,280.86447,9.2732525,-34.496487,SIT
2405960759000,0.184846,-6.15036206074252,-0.609845798242429,7.45531045432702,0.0009162979,0.0027488936,0.00061086525,280.88562,9.198374,-34.495132,SIT
2405965712000,0.189799,-6.16007315098594,-0.607477240575438,7.45365246994532,-0.0033597588,0.0009162979,0.0015271631,280.90457,9.127461,-34.498398,SIT
2405970742000,0.194829,-6.16993521113624,-0.605071860994382,7.45196871031683,-0.0067195175,0.00030543262,0.0061086523,280.926,9.0555935,-34.49798,SIT
2405975866000,0.199953,-6.17553230379037,-0.602548780977066,7.4512583629033,-0.0012217305,0.0021380284,0.0018325958,280.9508,8.98507,-34.49748,SIT
2405980838000,0.204925,-6.17053280462084,-0.599929998669047,7.4529248543401,-0.00061086525,-0.0027488936,0.0036651916,280.97214,8.915842,-34.495678,SIT
2405985760000,0.209847,-6.16558358199163,-0.597337551661792,7.45457458701345,0.0070249503,-0.004581489,-0.0015271631,280.97363,8.828904,-34.532623,SIT
2405990743000,0.21483,-6.16057302198323,-0.594712975587604,7.45624476537821,0.007941248,-0.010995574,-0.00580322,280.97473,8.744483,-34.56617,SIT
2405996349000,0.220436,-6.15493601628243,-0.591760261665892,7.45812375793547,0.0033597588,-0.008246681,0.009773844,280.97235,8.658665,-34.60172,SIT
2406001057000,0.225144,-6.1502019772458,-0.589280529745909,7.45970176310129,0.013744468,-0.006414085,0.0076358155,280.97803,8.5742035,-34.63329,SIT
2406005770000,0.229857,-6.14546291055513,-0.58679816429585,7.46128144414346,0.017104227,-0.0018325958,0.0061086523,280.97968,8.491287,-34.666473,SIT
2406010765000,0.234852,-6.14044028417705,-0.584167267749479,7.46295564461144,0.013439035,-0.009773844,0.0067195175,280.9817,8.409079,-34.695892,SIT
2406015741000,0.239828,-6.1354367628843,-0.581546378617398,7.46462347674931,0.009773844,-0.010079277,0.0061086523,280.98648,8.328005,-34.72786,SIT
2406020749000,0.244836,-6.13040106460574,-0.578908634892829,7.46630203449579,0.01740966,-0.014660766,0.0027488936,280.99225,8.246919,-34.755592,SIT
2406025851000,0.249938,-6.12527084643137,-0.576221380802822,7.46801209871754,0.014966198,-0.0076358155,0.0067195175,280.9974,8.169323,-34.78619,SIT
2406030798000,0.254885,-6.12029648553201,-0.573615766145185,7.46967021077262,0.026267206,-0.005192355,0.0012217305,281.00732,8.090209,-34.81297,SIT
2406035763000,0.25985,-6.11530402507812,-0.571000670779273,7.47133435598254,0.018020526,-0.0033597588,-0.002443461,281.0166,8.016626,-34.84121,SIT
2406040743000,0.26483,-6.11029648166214,-0.568377674823131,7.47300352882149,0.010995574,-0.005192355,-0.007330383,281.029,7.942566,-34.868156,SIT
2406045746000,0.269833,-6.10526581103761,-0.565742564628638,7.47468041069163,0.0125227375,-0.00580322,-0.00580322,281.04144,7.869244,-34.895485,SIT
2406050829000,0.274916,-6.10015469794857,-0.563065317952922,7.47638410658327,0.02076942,-0.00061086525,-0.005192355,281.05682,7.7981353,-34.923077,SIT
2406055817000,0.279904,-6.09513911028614,-0.560438108348658,7.47805596082437,0.02687807,0.008246681,-0.0067195175,281.0733,7.728446,-34.950954,SIT
2406060763000,0.28485,-6.09016575491758,-0.557833020397036,7.47971373770418,0.01740966,-0.00061086525,-0.005497787,281.08862,7.661098,-34.974873,SIT
2406065770000,0.289857,-6.08513106216982,-0.555195803378482,7.48139196027539,0.01160644,0.0027488936,-0.008246681,281.10773,7.593569,-35.003883,SIT
2406070748000,0.294835,-6.08012552981546,-0.552573860834371,7.4830604627638,0.016187929,0.009773844,-0.007330383,281.1255,7.5261383,-35.031113,SIT
2406075853000,0.29994,-6.07499229504867,-0.549885026626318,7.48477153251136,0.023823744,0.004276057,-0.0143553335,281.14706,7.462197,-35.05472,SIT
2406080793000,0.30488,-6.07002497286495,-0.547283098910788,7.48642729833956,0.022907447,0.010079277,-0.0018325958,281.16315,7.3968563,-35.083874,SIT
2406085803000,0.30989,-6.06498726352478,-0.544644301774188,7.48810652643657,0.013744468,0.002443461,-0.00580322,281.18683,7.336612,-35.106106,SIT
2406090750000,0.314837,-6.06001290262541,-0.542038687116551,7.48976463849165,0.027183503,0.0015271631,-0.005497787,281.206,7.269595,-35.132084,SIT
2406095746000,0.319833,-6.05498927071652,-0.539407263864165,7.49143917413491,0.014966198,0.003970624,0.004886922,281.2234,7.210698,-35.15666,SIT
2406100816000,0.324903,-6.04989122952797,-0.536736864366647,7.49313851274805,0.01863139,0.003970624,0.004886922,281.24457,7.1476717,-35.179394,SIT
2406105795000,0.329882,-6.04488469164279,-0.534114395116521,7.49480735041174,0.015271631,0.0015271631,0.009162978,281.2613,7.087719,-35.20229,SIT
2406111829000,0.335916,-6.03881731875684,-0.530936251020264,7.49682979798407,0.015882496,0.002443461,0.014049901,281.2785,7.0268946,-35.225708,SIT
2406115752000,0.339839,-6.03487262140325,-0.528869983322284,7.49814469056383,0.01038471,-0.0036651916,0.0067195175,281.29858,6.9705944,-35.24567,SIT
2406120743000,0.34483,-6.0298540171484,-0.526241193599974,7.49981755033074,0.009162978,0.008857546,0.004581489,281.3167,6.9124823,-35.271164,SIT
2406125848000,0.349935,-6.02472078238162,-0.523552359391921,7.5015286200783,0.0015271631,0.0030543262,0.005192355,281.33566,6.858837,-35.289165,SIT
2406130797000,0.354884,-6.01974441042063,-0.520945691322254,7.50318740248391,0.0009162979,0.0030543262,0.013439035,281.35413,6.803812,-35.31213,SIT
2406135801000,0.359888,-6.0147127342653,-0.518310054421745,7.50486461952932,0.008552114,0.008857546,0.01740966,281.3742,6.7500997,-35.334538,SIT
2406140745000,0.364832,-6.00974138995835,-0.515706019882154,7.50652172605859,-0.0009162979,-0.005192355,0.0106901415,281.39462,6.701787,-35.35082,SIT
2406145746000,0.369833,-6.00471273039544,-0.513071963099692,7.50819793757818,0.011911872,0.004581489,0.0143553335,281.41202,6.645007,-35.375652,SIT
2406150839000,0.374926,-5.99959156199833,-0.510389449363822,7.50990498522252,0.002443461,0.0061086523,0.01160644,281.43326,6.598621,-35.393303,SIT
2406155797000,0.379884,-5.99460614026009,-0.507778040940017,7.51156678420555,0.0027488936,-0.0015271631,0.009162978,281.45358,6.5471745,-35.41091,SIT
2406160757000,0.384844,-5.98961870746024,-0.505165579104181,7.51322925353913,0.011911872,0.009773844,0.015882496,281.47305,6.49559,-35.434193,SIT
2406165727000,0.389814,-5.98462121935232,-0.502547850208193,7.51489507462539,0.0027488936,0.010995574,0.010995574,281.4969,6.4513125,-35.45158,SIT
2406170743000,0.39483,-5.97957747682731,-0.499905892835501,7.51657631377402,-0.0021380284,0.004276057,0.015271631,281.51572,6.402076,-35.47015,SIT
2406175864000,0.399951,-5.97685487168425,-0.498636046967618,7.51822106568803,0.006414085,0.0021380284,0.017104227,281.53772,6.3538165,-35.48968,SIT
2406181878000,0.405965,-5.98059586075806,-0.501225967264906,7.51994768342635,0.0067195175,0.0018325958,0.008552114,281.56192,6.3103585,-35.507263,SIT
2406185764000,0.409851,-5.98301313437642,-0.502899467476954,7.52106335295264,-0.0070249503,0.0036651916,0.016798794,281.547,6.249593,-35.509594,SIT
2406191007000,0.415094,-5.98627452541633,-0.505157357752757,7.52256861680399,0.009773844,0.00580322,0.0070249503,281.54224,6.1872406,-35.510967,SIT
2406195738000,0.419825,-5.9892174285271,-0.507194755977976,7.5239268855968,-0.00580322,0.004581489,0.013439035,281.52982,6.132619,-35.512882,SIT
2406200863000,0.42495,-5.99240541805209,-0.509401829726496,7.52539827168075,-0.007941248,-0.006414085,0.004886922,281.52655,6.0762053,-35.511726,SIT
2406205819000,0.429906,-5.9954882816786,-0.511536123872381,7.52682113791139,0.002443461,0.004276057,0.004886922,281.523615952357,6.04934043249573,-35.5139038703387,SIT
2406210812000,0.434899,-5.99859416103436,-0.51368635201411,7.52825462683182,-0.009468411,0.0015271631,0.0021380284,281.52066,6.022275,-35.516098,SIT
2406215745000,0.439832,-6.00166271758593,-0.515810741243661,7.52967088976882,-0.01038471,-0.007941248,0.00030543262,281.5169,5.9709463,-35.51224,SIT
2406220744000,0.444831,-6.00477232922211,-0.517963553276607,7.53110610128758,-0.0021380284,-0.0036651916,-0.0067195175,281.51764,5.920108,-35.514328,SIT
2406225832000,0.449919,-6.00793730301784,-0.520154693029284,7.53256686468175,-0.011301007,-0.00580322,-0.0009162979,281.51447,5.872592,-35.512432,SIT
2406230829000,0.454916,-6.01104567056055,-0.522306643765158,7.53400150200107,-0.0033597588,-0.007330383,0.00061086525,281.51605,5.8219557,-35.51164,SIT
2406235759000,0.459846,-6.0141123609719,-0.5244297410491,7.5354169036389,0.0012217305,-0.01740966,0.0036651916,281.51526,5.773863,-35.508186,SIT
2406240747000,0.464834,-6.01721513009398,-0.526577815948147,7.5368489570607,0.0015271631,-0.01160644,0.005497787,281.5156,5.7257466,-35.508953,SIT
2406245738000,0.469825,-6.02031976535627,-0.528727182792803,7.53828187178168,0.0018325958,-0.011911872,0.002443461,281.51654,5.6777678,-35.505253,SIT
2406251911000,0.475998,-6.0241596598612,-0.531385576207362,7.54005413837606,-0.0076358155,-0.014660766,0.0036651916,281.5161,5.6318574,-35.502872,SIT
2406255795000,0.479882,-6.02657568938609,-0.533058215122338,7.5411692337029,0.007330383,-0.0106901415,0.00061086525,281.51913,5.58227,-35.502213,SIT
2406260832000,0.484919,-6.02970893879826,-0.535227391799663,7.54261535501117,0.005192355,-0.015271631,0.00061086525,281.52075,5.5389557,-35.498653,SIT
2406265758000,0.489845,-6.03277314102267,-0.53734876648946,7.5440296082501,-0.0009162979,-0.014966198,-0.007330383,281.52713,5.49576,-35.49738,SIT
2406270742000,0.494829,-6.0358734219578,-0.539495118794362,7.54546051327301,-0.0027488936,-0.014049901,-0.0012217305,281.529,5.450531,-35.49562,SIT
2406275828000,0.499915,-6.03903715166006,-0.541685397249966,7.54692070246774,0.005497787,-0.014966198,-0.002443461,281.53656,5.407659,-35.49309,SIT
2406280789000,0.504876,-6.04212312552025,-0.543821844638533,7.548345004197,0.0015271631,-0.005192355,0.005497787,281.5397,5.3662496,-35.494522,SIT
2406285812000,0.509899,-6.04524766627811,-0.545984992236351,7.54978710610913,0.0009162979,-0.008857546,0.00580322,281.54584,5.324366,-35.491726,SIT
2406290810000,0.514897,-6.04835665586755,-0.548137373620761,7.55122203052817,0.010079277,-0.008246681,0.0015271631,281.55185,5.28133,-35.493114,SIT
2406295763000,0.51985,-6.05143765335385,-0.550270375821038,7.55264403545965,0.0018325958,-0.016187929,0.0009162979,281.55646,5.2425675,-35.49125,SIT
2406300852000,0.524939,-6.05460324919632,-0.552461946222251,7.55410508595354,0.0070249503,-0.0033597588,0.0030543262,281.5629,5.199542,-35.49552,SIT
2406305791000,0.529878,-6.05767553802831,-0.55458891934302,7.55552307148889,0.0015271631,-0.0033597588,0.006414085,281.567810087808,5.18028049818329,-35.4934193796932,SIT
2406310760000,0.534847,-6.06076648826239,-0.556728811919877,7.55694967001594,0.013133603,-0.01160644,-0.0061086523,281.57275,5.160902,-35.491306,SIT
2406315743000,0.53983,-6.06386614715079,-0.558874733576243,7.55838028793912,0.012217305,-0.0106901415,-0.0018325958,281.57843,5.1208014,-35.4939,SIT
2406320756000,0.544843,-6.06698446744128,-0.561033574688698,7.55981951885402,0.006414085,-0.009468411,-0.0015271631,281.58878,5.0832877,-35.49395,SIT
2406325996000,0.550083,-6.07024399234098,-0.563290173018892,7.5613239214062,0.009773844,-0.011301007,-0.0033597588,281.59866,5.04418,-35.493557,SIT
2406330836000,0.554923,-6.07325469854604,-0.565374511934567,7.56271348406889,0.010079277,-0.016493361,-0.0061086523,281.60898,5.007873,-35.49264,SIT
2406335761000,0.559848,-6.07631827872371,-0.567495455975827,7.5641274502081,0.006414085,-0.025045475,-0.0061086523,281.612529459978,4.9889879838498,-35.4925654315131,SIT
2406340743000,0.56483,-6.07941731556537,-0.569640946983657,7.56555778103156,0.009773844,-0.01863139,0.0030543262,281.61612,4.9698844,-35.49249,SIT
2406345741000,0.569828,-6.08252630515481,-0.571793328368067,7.5669927054506,0.009162978,-0.017104227,-0.004276057,281.63025,4.9357266,-35.491463,SIT
2406350973000,0.57506,-6.08578085368062,-0.57404648150997,7.56849481120499,-0.0018325958,-0.02565634,0.00580322,281.63498,4.9002633,-35.487907,SIT
2406355781000,0.579868,-6.08877165439011,-0.576117039672484,7.56987518667653,0.0012217305,-0.020158553,0.004581489,281.64706,4.8653746,-35.488377,SIT
2406360759000,0.584846,-6.09186820304482,-0.578260808086168,7.57130436910109,0.004581489,-0.021991149,0.008246681,281.65366,4.831058,-35.484955,SIT
2406365728000,0.589815,-6.09495915327891,-0.580400700663026,7.57273096762815,0.008857546,-0.019547688,0.0067195175,281.66312,4.7974663,-35.484264,SIT
2406370749000,0.594836,-6.09808244994329,-0.582562986963771,7.57417249534083,-0.005192355,-0.015882496,0.009162978,281.67023,4.766685,-35.48379,SIT
2406375931000,0.600018,-6.10453204031837,-0.588225347441204,7.57339952591347,-0.0018325958,-0.00580322,0.018325957,281.67615,4.7305875,-35.48612,SIT
2406380803000,0.60489,-6.11867061984565,-0.602135879917206,7.56701436849329,0.0015271631,-0.003970624,0.02107485,281.68356,4.6989613,-35.487114,SIT
2406385757000,0.609844,-6.13304716397089,-0.616280538760826,7.56052174331685,-0.0030543262,-0.008246681,0.02107485,281.66318,4.668453,-35.490883,SIT
2406391141000,0.615228,-6.14867157123175,-0.631652933434635,7.55346556771129,0.0018325958,-0.015271631,0.030543262,281.63925,4.6336236,-35.4946,SIT
2406395734000,0.619821,-6.16200049072452,-0.644766865220817,7.54744606277883,0.005497787,-0.015271631,0.02443461,281.629658061297,4.62076469654821,-35.4975804693005,SIT
2406400962000,0.625049,-6.1771721848478,-0.659693848756232,7.54059433802663,-0.0125227375,-0.0076358155,0.033292156,281.61874,4.606128,-35.500973,CSO
2406405795000,0.629882,-6.19119758609069,-0.673493028447635,7.53426029331978,-0.003970624,-0.016798794,0.029321533,281.59726,4.572427,-35.500576,CSO
2406410771000,0.634858,-6.20563797437636,-0.687700501682567,7.52773883533069,-0.005497787,-0.0106901415,0.029321533,281.57495,4.543938,-35.506794,CSO
2406415821000,0.639908,-6.22029311120164,-0.702119259688276,7.52112039424449,-0.009468411,-0.012217305,0.03145956,281.55338,4.51499,-35.50814,CSO
2406420764000,0.644851,-6.23463773324666,-0.71623251133624,7.51464218547438,-0.023823744,-0.012217305,0.04337143,281.5294,4.487826,-35.51188,CSO
2406425950000,0.650037,-6.24968754306367,-0.731039576488241,7.50784550518269,-0.028710667,-0.017104227,0.053450707,281.50577,4.45994,-35.513744,CSO
2406430879000,0.654966,-6.26399153700661,-0.745112855341733,7.50138564456609,-0.033292156,-0.02107485,0.053145275,281.48236,4.435663,-35.51587,CSO
2406435826000,0.659913,-6.2783477670808,-0.759237527788118,7.4949021934664,-0.04886922,-0.026267206,0.06047566,281.4533,4.4127374,-35.5167,CSO
2406440824000,0.664911,-6.29285199952689,-0.773507815414361,7.48835190266466,-0.047036625,-0.03481932,0.062308256,281.42682,4.3883653,-35.515297,CSO
2406445764000,0.669851,-6.30718791555004,-0.78761250146351,7.48187762564173,-0.064751714,-0.050701816,0.06811147,281.39667,4.3708167,-35.510666,CSO
2406450966000,0.675053,-6.32228415748373,-0.802465249809192,7.47505997603175,-0.070554934,-0.05375614,0.081855945,281.364,4.3489738,-35.507626,CSO
2406455878000,0.679965,-6.33653881730269,-0.816489990269399,7.46862239531583,-0.09682214,-0.065973446,0.08124508,281.3343,4.337925,-35.497425,CSO
2406460783000,0.68487,-6.35077316307061,-0.830494744332369,7.46219398867666,-0.09865474,-0.07574729,0.08827003,281.29788,4.3194785,-35.487827,CSO
2406465832000,0.689919,-6.3654253978886,-0.844910647138472,7.45557685817286,-0.119729586,-0.09682214,0.08857546,281.26398,4.3132405,-35.47163,CSO
2406470772000,0.694859,-6.37976131391175,-0.859015333187621,7.44910258114993,-0.124005646,-0.10598512,0.09193522,281.22745,4.302242,-35.456665,CSO
2406475961000,0.700048,-6.39481982975064,-0.873830963938437,7.44230196911106,-0.13836098,-0.12308934,0.08674286,281.19354,4.30019,-35.433704,CSO
2406480866000,0.704953,-6.40905417551856,-0.887835718001408,7.4358735624719,-0.1328632,-0.14538592,0.071776666,281.16214,4.295879,-35.40704,CSO
2406485783000,0.70987,-6.42332334537399,-0.901874734459639,7.42942942884401,-0.14660765,-0.15943582,0.050701816,281.13504,4.301495,-35.37822,CSO
2406490805000,0.714892,-6.43789722599509,-0.916213546876405,7.42284768406483,-0.14752395,-0.16493362,0.023823744,281.1153,4.306461,-35.345768,CSO
2406495807000,0.719894,-6.45241306647035,-0.930495255301069,7.41629215093351,-0.15363261,-0.16523905,-0.007941248,281.10464,4.3201723,-35.311047,CSO
2406500869000,0.724956,-6.46710302738314,-0.944948275702039,7.40965798285859,-0.14721853,-0.15485434,-0.029932396,281.10022,4.333887,-35.278324,CSO
2406505823000,0.72991,-6.48147957150838,-0.959092934545659,7.40316535768216,-0.14813483,-0.1469131,-0.058337633,281.10883,4.356783,-35.244778,CSO
2406510757000,0.734844,-6.49579807548777,-0.973180489397177,7.39669894415358,-0.14446963,-0.124005646,-0.07696902,281.12216,4.378765,-35.219025,CSO
2406515748000,0.739835,-6.51028199388282,-0.987430790626185,7.39015782742859,-0.15088372,-0.112704635,-0.102319926,281.14706,4.4086337,-35.19211,CSO
2406520742000,0.744829,-6.52477461829974,-1.00168965745401,7.38361277895642,-0.13439035,-0.08368854,-0.11636983,281.17514,4.432933,-35.177216,CSO
2406526116000,0.750203,-6.54037000548767,-1.01703350013177,7.3765697091748,-0.122783914,-0.058948494,-0.1414153,281.21518,4.4651833,-35.1639,CSO
2406530802000,0.754889,-6.55396881165862,-1.03041296548122,7.37042832007976,-0.12583824,-0.03481932,-0.16890424,281.26096,4.499047,-35.158554,CSO
2406535878000,0.759965,-6.56869940067349,-1.04490595867666,7.36377580385134,-0.12644911,-0.023823744,-0.19822577,281.31537,4.5333314,-35.155933,CSO
2406540748000,0.764835,-6.58283217618619,-1.05881078075346,7.35739326759594,-0.119729586,-0.032375857,-0.22876903,281.37857,4.5704975,-35.153805,CSO
2406545734000,0.769821,-6.59730158454478,-1.07304680598444,7.35085870378292,-0.10415252,-0.03481932,-0.24190263,281.44498,4.6067195,-35.156147,CSO
2406550891000,0.774978,-6.61226723615032,-1.08777107034789,7.34410003038064,-0.09682214,-0.04642576,-0.28069258,281.52863,4.6515245,-35.151848,CSO
2406555798000,0.779885,-6.62650738593283,-1.10178153481007,7.33766900257668,-0.09896017,-0.05467244,-0.32803464,281.61807,4.697451,-35.14722,CSO
2406560813000,0.7849,-6.64106095250288,-1.1161003608296,7.33109643187425,-0.07666359,-0.06414085,-0.36682457,281.7156,4.739791,-35.138226,CSO
2406565755000,0.789842,-6.65540267254061,-1.13021075727796,7.32461953368654,-0.052534413,-0.06169739,-0.410196,281.829,4.7894354,-35.128986,CSO
2406570741000,0.794828,-6.6698720808992,-1.14444678250894,7.31808496987351,-0.011301007,-0.030848695,-0.43585235,281.94788,4.831947,-35.124863,CSO
2406577082000,0.801169,-6.68827370913863,-1.16255160320482,7.30977456691756,0.04153884,0.019547688,-0.48838675,282.08923,4.8762527,-35.12528,CSO
2406580768000,0.804855,-6.69087732049485,-1.1544010440298,7.30807257718747,0.10903945,0.03573562,-0.50518554,282.22418,4.9044485,-35.125202,CSO
2406585787000,0.809874,-6.68079461391939,-1.11185693024676,7.31102360661946,0.12858713,0.0729984,-0.5448918,282.385,4.9426694,-35.14305,CSO
2406590745000,0.814832,-6.6708344506994,-1.0698298897733,7.31393876978419,0.17379116,0.09315695,-0.5815437,282.54868,5.0149517,-35.217453,CSO
2406595740000,0.819827,-6.66079995790314,-1.02748921466944,7.31687568789792,0.23060162,0.10903945,-0.62980205,282.72858,5.0865884,-35.297493,CSO
2406600916000,0.825003,-6.6504018528554,-0.98361427286011,7.31991902887022,0.28893927,0.11362094,-0.68661255,282.92157,5.1530485,-35.37642,CSO
2406605796000,0.829883,-6.64059838441782,-0.942248408093976,7.3227883302506,0.36071593,0.11026118,-0.75319684,283.13205,5.2111087,-35.453552,CSO
2406610760000,0.834847,-6.63062616775303,-0.90017050795072,7.3257070212449,0.4251622,0.10629055,-0.81214535,283.35657,5.2638745,-35.52811,CSO
2406615736000,0.839823,-6.62062984419863,-0.857990888467875,7.32863276789833,0.4877759,0.11759156,-0.8567385,283.59634,5.3075504,-35.602467,CSO
2406620797000,0.844884,-6.61046276350957,-0.815090756996275,7.33160849213728,0.53786683,0.14721853,-0.9016371,283.85373,5.3475933,-35.67722,CSO
2406626062000,0.850149,-6.5998858656973,-0.770461396751665,7.33470416258148,0.5833763,0.2312125,-0.8863655,284.10458,5.370215,-35.769516,CSO
2406630839000,0.854926,-6.59028931472879,-0.729968622983669,7.33751290288764,0.64599,0.2507602,-0.9288206,284.38608,5.393168,-35.846718,CSO
2406635769000,0.859856,-6.58038540091786,-0.688178927635914,7.34041160284773,0.6792821,0.27916542,-0.9767735,284.66452,5.409922,-35.948387,CSO
2406640798000,0.864885,-6.57028260526774,-0.645550047736552,7.34336851199566,0.7098254,0.301462,-0.9914343,284.9431,5.413574,-36.051346,CSO
2406645798000,0.869885,-6.56023806793414,-0.603166989574529,7.34630836996736,0.72265357,0.33383787,-1.0051788,285.23608,5.420803,-36.16132,CSO
2406650822000,0.874909,-6.55014531682135,-0.560580492733328,7.34926233925732,0.7583892,0.37507126,-1.0351112,285.53748,5.420262,-36.27676,CSO
2406655828000,0.879915,-6.54008872604296,-0.518146574901511,7.35220572505858,0.77763146,0.4202753,-1.0784826,285.84628,5.4246063,-36.39906,CSO
2406660783000,0.88487,-6.53013458954537,-0.476144964262947,7.35511912430853,0.81000733,0.45540005,-1.1328496,286.16708,5.424167,-36.526157,CSO
2406665746000,0.889833,-6.52016438178804,-0.434075540731323,7.35803722733124,0.84299403,0.4841107,-1.17897,286.498,5.424649,-36.660168,CSO
2406670731000,0.894818,-6.51014997806645,-0.391819631743786,7.36096826572902,0.8713993,0.5140431,-1.217149,286.8427,5.426141,-36.7999,CSO
2406675853000,0.89994,-6.49986035402192,-0.34840242696261,7.36397985623523,0.90285885,0.5009095,-1.2479976,287.19623,5.4254084,-36.931133,CSO
2406680777000,0.904864,-6.4899684936558,-0.30666359128465,7.36687502836575,0.9309586,0.46822822,-1.2550226,287.55075,5.4208093,-37.06167,CSO
2406685790000,0.909877,-6.47989784052514,-0.264170337171406,7.36982252996818,0.96761054,0.4175264,-1.2599095,287.9095,5.4113746,-37.179443,CSO
2406690759000,0.914846,-6.46991557932301,-0.222050053969988,7.37274416082045,1.0143417,0.35094208,-1.2437216,288.2565,5.3901596,-37.281353,CSO
2406695822000,0.919909,-6.45974448081902,-0.179132969275124,7.37572106100259,1.0228939,0.28069258,-1.2250903,288.5974,5.3691163,-37.365646,CSO
2406701197000,0.925284,-6.4489466031854,-0.133571181750949,7.37888140832216,1.0381655,0.21991149,-1.2009611,288.9237,5.3317323,-37.433044,CSO
2406705873000,0.92996,-6.43955295187103,-0.0939345457578253,7.38163076349729,1.0283916,0.15363261,-1.1691961,289.2331,5.293092,-37.478886,CSO
2406710677000,0.934764,-6.42990216040091,-0.0532129034757538,7.3844553790365,0.999681,0.100792766,-1.1252137,289.52344,5.248652,-37.512077,CSO
2406715673000,0.93976,-6.41986565869719,-0.0108637517602607,7.38739288512182,0.9673051,0.05681047,-1.1065824,289.80527,5.205891,-37.52918,CSO
2406720668000,0.944755,-6.40983116590093,0.0314769233436,7.39032980323554,0.9266826,0.030848695,-1.0699304,290.05988,5.1604724,-37.53877,CSO
2406725830000,0.949917,-6.39946118555773,0.0752331925900723,7.39336491260552,0.8943067,0.02321288,-1.0375546,290.30487,5.117771,-37.542118,CSO
2406730757000,0.954844,-6.3895632984692,0.11699745810293,7.39626184865083,0.86620694,0.046120327,-1.0421361,290.54694,5.0831623,-37.54741,CSO
2406735643000,0.95973,-6.37974777658682,0.158414182538858,7.39913467786077,0.8533788,0.074830994,-1.0183123,290.76407,5.041603,-37.55482,CSO
2406740642000,0.964729,-6.36970524816069,0.200788764089249,7.40207394786088,0.84513205,0.11362094,-1.0005972,290.98328,5.007016,-37.571686,CSO
2406745641000,0.969728,-6.35966271973457,0.243163345639639,7.40501321786098,0.8472701,0.14874569,-0.97127575,291.18787,4.966637,-37.597004,CSO
2406751084000,0.975171,-6.34872823639322,0.289301542754817,7.40821354724897,0.8530733,0.19242255,-0.95356065,291.3894,4.9262066,-37.635876,CSO
2406755782000,0.979869,-6.33929038911457,0.329124664203854,7.41097583779917,0.87017757,0.20891592,-0.9315695,291.57672,4.876968,-37.677704,CSO
2406760760000,0.984847,-6.32929004774525,0.371321236909964,7.4139027603958,0.883922,0.22327125,-0.91965765,291.76062,4.826136,-37.730915,CSO
2406765792000,0.989879,-6.31918122537272,0.413975546644223,7.41686143345851,0.9095783,0.2125811,-0.88086766,291.9245,4.760588,-37.782444,CSO
2406770813000,0.9949,-6.30909450098233,0.456536613650527,7.41981363883369,0.91751957,0.19394971,-0.8512407,292.0857,4.6960077,-37.835,CSO
2406776011000,1.000098,-6.30052077443238,0.474569272711399,7.41917396557541,0.93615097,0.1563815,-0.83260936,292.2342,4.6191254,-37.879223,CSO
2406780771000,1.004858,-6.29714794652573,0.428698781484021,7.40973003804511,0.92057395,0.14752395,-0.7996226,292.36584,4.5413837,-37.92698,CSO
2406785854000,1.009941,-6.29354624815398,0.379715649780499,7.39964527257526,0.9056077,0.13439035,-0.7629707,292.36636,4.2786083,-37.935604,CSO
2406790811000,1.014898,-6.29003383052093,0.331946736962409,7.38981049342238,0.89736104,0.116675265,-0.75411314,292.36798,4.021503,-37.941505,CSO
2406795805000,1.019892,-6.28649519552811,0.283821267804945,7.37990230558912,0.9034697,0.122783914,-0.77732605,292.37195,3.7683716,-37.951614,CSO
2406800904000,1.024991,-6.2828821599197,0.23468394957629,7.36978579582505,0.89949906,0.16310102,-0.79443026,292.37445,3.5212872,-37.96792,CSO
2406805782000,1.029869,-6.27942571989267,0.187676332726049,7.36010775412488,0.9056077,0.1337795,-0.7458665,292.3629,3.2673814,-37.96799,CSO
2406810750000,1.034837,-6.27590550790942,0.139801416671928,7.35025115076973,0.8863655,0.12217305,-0.7174612,292.36932,3.0309474,-37.984463,CSO
2406815744000,1.039831,-6.27236687291659,0.0916759475144648,7.34034296293647,0.8738427,0.13683382,-0.68875057,292.36093,2.7873864,-38.00192,CSO
2406820744000,1.044831,-6.26882398646002,0.0434926584100763,7.33042287099288,0.89949906,0.15057829,-0.66675943,292.34753,2.5400865,-38.017044,CSO
2406825898000,1.049985,-6.26517197910059,-0.00617467599872734,7.32019724021743,0.9239337,0.16523905,-0.6383542,292.32486,2.294086,-38.037834,CSO
2406831711000,1.055798,-6.26105301930618,-0.0621925679114895,7.30866414132381,0.93645644,0.1957823,-0.5882632,292.29016,2.0418375,-38.06819,CSO
2406835764000,1.059851,-6.25818115554448,-0.101249942059507,7.30062291479434,0.9401216,0.19608775,-0.55955255,292.25598,1.7895068,-38.094467,CSO
2406840739000,1.064826,-6.2546559835202,-0.149192314718373,7.29075242331046,0.9502009,0.20830505,-0.54611355,292.21344,1.5317206,-38.133347,CSO
2406845742000,1.069829,-6.25111097133175,-0.197404513796225,7.28082637931171,0.9660834,0.21868975,-0.52015173,292.15958,1.2694981,-38.172142,CSO
2406850939000,1.075026,-6.24742849514879,-0.247486224491326,7.27051543574554,0.96883225,0.20799962,-0.49021935,292.103,1.009877,-38.208317,CSO
2406855825000,1.079912,-6.24396638650343,-0.294570934604135,7.26082152189826,0.9786061,0.21319197,-0.45540005,292.0392,0.74473184,-38.251907,CSO
2406860757000,1.084844,-6.24047168330267,-0.342098930976703,7.2510363432051,0.98471475,0.23487769,-0.4111123,291.96503,0.47796342,-38.29704,CSO
2406865743000,1.08983,-6.23693871692818,-0.3901473068716,7.24114402751895,0.9776898,0.23976462,-0.38362336,291.8883,0.21398178,-38.338516,CSO
2406870736000,1.094823,-6.23340079051265,-0.438263139371242,7.23123782370408,0.96577793,0.24190263,-0.37140608,291.8054,-0.050010648,-38.384895,CSO
2406876050000,1.100137,-6.2296354107866,-0.489472339031386,7.22069474998644,0.9285152,0.23609942,-0.36071593,291.71744,-0.3059717,-38.429764,CSO
2406880904000,1.104991,-6.22619597661456,-0.536248676093926,7.2110643247276,0.9007208,0.22999077,-0.33322698,291.62323,-0.56127965,-38.474407,CSO
2406885888000,1.109975,-6.22266442739465,-0.584277778673181,7.20117597707823,0.8671232,0.22815818,-0.30695978,291.52982,-0.8035724,-38.51787,CSO
2406890815000,1.114902,-6.21917326708035,-0.631757591756645,7.19140071847701,0.83108217,0.22571471,-0.2846632,291.43213,-1.0383327,-38.55864,CSO
2406895809000,1.119896,-6.21563463208752,-0.679883060914109,7.18149253064375,0.7910705,0.17684549,-0.26328292,291.3299,-1.2644012,-38.58476,CSO
2406901776000,1.125863,-6.21140655139025,-0.737384998131286,7.16965389291827,0.7458665,0.11942416,-0.23151793,291.22034,-1.4824104,-38.60679,CSO
2406905831000,1.129918,-6.20853327047397,-0.776461645594945,7.16160869835202,0.70249504,0.06963864,-0.19639318,291.10666,-1.6918273,-38.61643,CSO
2406910880000,1.134967,-6.20495566373013,-0.825117130932557,7.15159138950738,0.6560693,-0.0033597588,-0.1731803,290.99142,-1.8896837,-38.60286,CSO
2406915807000,1.139894,-6.20146450341582,-0.872596944016021,7.14181613090617,0.6026186,-0.064751714,-0.14966199,290.86862,-2.0783699,-38.578384,CSO
2406920810000,1.144897,-6.19791949122738,-0.920809143093872,7.13189008690741,0.5494733,-0.11942416,-0.12797627,290.744,-2.2565112,-38.53561,CSO
2406925797000,1.149884,-6.19438581627559,-0.968867155646589,7.12199578720287,0.51923543,-0.16371189,-0.10598512,290.6164,-2.4282098,-38.47928,CSO
2406930784000,1.154871,-6.19085214132381,-1.01692516819931,7.11210148749834,0.50518554,-0.17745635,-0.08827003,290.48773,-2.591053,-38.417515,CSO
2406935767000,1.159854,-6.18732130068119,-1.06494463412074,7.10221512386735,0.49174652,-0.17745635,-0.07727446,290.35892,-2.746383,-38.348797,CSO
2406940745000,1.164832,-6.18379400292503,-1.11291591675307,7.09233868032831,0.47769663,-0.18234327,-0.06627888,290.22882,-2.8980289,-38.276516,CSO
2406945743000,1.16983,-6.18025253362304,-1.16107993254182,7.0824225564215,0.45142943,-0.17684549,-0.06169739,290.10153,-3.0412514,-38.20914,CSO
2406951008000,1.175095,-6.17652187418427,-1.21181693596874,7.0719766996049,0.4361578,-0.17654006,-0.053450707,289.97372,-3.1829984,-38.140614,CSO
2406955788000,1.179875,-6.17313487473179,-1.25788016035253,7.06249309170683,0.40653083,-0.16982053,-0.06994407,289.8573,-3.3088107,-38.07781,CSO
2406960823000,1.18491,-6.16956718807002,-1.30640073248065,7.05250355911963,0.37782016,-0.1554652,-0.08857546,289.74274,-3.4293456,-38.019024,CSO
2406965761000,1.189848,-6.16606823340551,-1.35398654880015,7.04270647631614,0.36010507,-0.14263703,-0.105068825,289.63702,-3.5403142,-37.963818,CSO
2406971515000,1.195602,-6.16199107967129,-1.40943587790148,7.03129043450746,0.34697145,-0.12736541,-0.12370021,289.5418,-3.6396217,-37.915485,CSO
2406977601000,1.201688,-6.15603490621774,-1.46073514104985,7.02132341576598,0.34697145,-0.090713486,-0.15821409,289.46042,-3.7298489,-37.879143,CSO
2406980803000,1.20489,-6.13586346305179,-1.41154785819823,7.03792606638735,0.34025195,-0.07513642,-0.17012598,289.38055,-3.8141816,-37.842358,CSO
2406985765000,1.209852,-6.10460465574716,-1.33532446734572,7.06365447125407,0.34330627,-0.051618114,-0.20066923,289.39758,-3.693129,-37.841152,CSO
2406990748000,1.214835,-6.07321355602951,-1.2587784865682,7.08949176296122,0.35155296,-0.038789943,-0.21991149,289.4131,-3.5735815,-37.840694,CSO
2406995799000,1.219886,-6.04139408087923,-1.18118792889064,7.11568164062785,0.37507126,-0.011301007,-0.24495697,289.4389,-3.4538312,-37.851124,CSO
2407000840000,1.224927,-6.0096376021161,-1.10375098546309,7.14181966741808,0.4092797,-0.002443461,-0.2706133,289.4703,-3.3369706,-37.85941,CSO
2407005785000,1.229872,-5.97848588866962,-1.02778873883559,7.16745992579493,0.43127087,-0.00030543262,-0.28405234,289.504,-3.2225165,-37.87281,CSO
2407010759000,1.234846,-5.94715148570041,-0.951381010883073,7.19325055171332,0.46089783,-0.02687807,-0.30634892,289.5488,-3.1135077,-37.88015,CSO
2407015742000,1.239829,-5.91576038598275,-0.874835030105552,7.21908784342047,0.4792238,-0.043066,-0.30573806,289.58795,-3.010582,-37.88981,CSO
2407020754000,1.244841,-5.88418659674236,-0.797843568003016,7.24507550266916,0.49235737,-0.07452556,-0.31490102,289.63766,-2.9094765,-37.887287,CSO
2407025815000,1.249902,-5.85230412520493,-0.720099396075455,7.27131723121218,0.505491,-0.111177474,-0.3210097,289.6845,-2.814972,-37.8779,CSO
2407030794000,1.254881,-5.82093822404214,-0.643614860997936,7.29713378256877,0.52015173,-0.13408493,-0.32589662,289.73254,-2.724137,-37.86317,CSO
2407035760000,1.259847,-5.78965421818265,-0.567330024445423,7.32288292778604,0.54183745,-0.16890424,-0.32650748,289.7801,-2.639225,-37.83446,CSO
2407041232000,1.265319,-5.75518259513328,-0.483272306842654,7.35125572734886,0.5476407,-0.20066923,-0.32345316,289.8263,-2.5554178,-37.800163,CSO
2407045748000,1.269835,-5.72673342669561,-0.413900111540369,7.3746715831284,0.54550266,-0.2144137,-0.31703907,289.86963,-2.4766667,-37.76136,CSO
2407050769000,1.274856,-5.69510294070678,-0.336770396612828,7.40070590816585,0.535118,-0.23182335,-0.30818152,289.90958,-2.3997114,-37.71293,CSO
2407055791000,1.279878,-5.66346615507924,-0.259625320260287,7.42674541829093,0.5271767,-0.2519819,-0.3051272,289.94748,-2.3242588,-37.660473,CSO
2407060758000,1.284845,-5.63217584958103,-0.183325122282774,7.45249974859585,0.505491,-0.2843578,-0.312763,289.98456,-2.2443044,-37.600346,CSO
2407065755000,1.289842,-5.60069655492137,-0.106564081555245,7.47840963152994,0.47158796,-0.33475417,-0.31948254,290.0188,-2.1617503,-37.530174,CSO
2407070744000,1.294831,-5.56926765737142,-0.0299259322277208,7.50427803376293,0.45204028,-0.37018433,-0.32498032,290.0534,-2.0777512,-37.456257,CSO
2407075785000,1.299872,-5.53751117860829,0.04751101119983,7.53041606055316,0.419359,-0.38881573,-0.3210097,290.0852,-1.9850043,-37.374126,CSO
2407080784000,1.304871,-5.5060192846712,0.124302774777359,7.55633631366254,0.38728857,-0.40775254,-0.3203988,290.11816,-1.8879102,-37.28356,CSO
2407085759000,1.309846,-5.47467858206327,0.200725864154877,7.58213212466857,0.35246924,-0.41447207,-0.31673363,290.1461,-1.7855363,-37.19283,CSO
2407090754000,1.314841,-5.44321188668104,0.277456182032404,7.60803163742739,0.31887165,-0.42302418,-0.32620203,290.17615,-1.6756054,-37.09812,CSO
2407095737000,1.319824,-5.41182078696339,0.354002162809926,7.63386892913453,0.29046643,-0.42546764,-0.3378085,290.203,-1.5609099,-37.005047,CSO
2407101011000,1.325098,-5.37859649237962,0.435018318262594,7.66121508134475,0.26083946,-0.45173484,-0.34147367,290.22797,-1.439882,-36.904545,CSO
2407105773000,1.32986,-5.34859761281802,0.508169424115004,7.68590646868359,0.24281894,-0.4810564,-0.3481932,290.2553,-1.3144845,-36.80438,CSO
2407110835000,1.334922,-5.31670884164187,0.585928957467565,7.71215338231425,0.21960606,-0.50762904,-0.33169982,290.27283,-1.1865518,-36.69925,CSO
2407115810000,1.339897,-5.28536813903394,0.662352046845083,7.73794919332028,0.20830505,-0.52839845,-0.3313944,290.2957,-1.0554127,-36.58966,CSO
2407120811000,1.344898,-5.25386364581942,0.739174533272613,7.76387981660493,0.18173242,-0.537256,-0.31215215,290.30298,-0.9235669,-36.47789,CSO
2407126038000,1.350125,-5.22093543425527,0.819468701750258,7.7909822696961,0.15393804,-0.5299256,-0.2874121,290.30536,-0.79187286,-36.367176,CSO
2407130796000,1.354883,-5.19096175324853,0.892558361902666,7.81565291668438,0.1337795,-0.5305365,-0.2941316,290.30942,-0.65576535,-36.254078,CSO
2407135799000,1.359886,-5.15944466075657,0.969411571180197,7.84159391014431,0.11636983,-0.5549711,-0.28955013,290.2982,-0.52199924,-36.13839,CSO
2407140807000,1.364894,-5.12789607007104,1.04634158758273,7.86756082904244,0.093462385,-0.59986967,-0.2764165,290.28375,-0.38467914,-36.018894,CSO
2407145811000,1.369898,-5.09637267794037,1.12321015828526,7.89350700759002,0.047647487,-0.6435465,-0.25289822,290.26147,-0.24259025,-35.895107,CSO
2407150982000,1.375069,-5.06379724614427,1.20264408696288,7.92031909577337,0.008246681,-0.6921103,-0.22999077,290.23236,-0.100774355,-35.75972,CSO
2407155806000,1.379893,-5.03340778898233,1.27674760116532,7.94533195854585,-0.02107485,-0.73639804,-0.21135938,290.19397,0.044117898,-35.615967,CSO
2407160764000,1.384851,-5.00217418023256,1.35290954631783,7.97103962306202,-0.054367006,-0.7684685,-0.19730948,290.14673,0.19407679,-35.465034,CSO
2407165798000,1.389885,-4.97046179894043,1.43023895977038,7.99714135423877,-0.07696902,-0.818254,-0.17287487,290.0869,0.34164464,-35.29987,CSO
2407170808000,1.394895,-4.93890060897747,1.50719969902291,8.02311864331218,-0.11453723,-0.8707884,-0.13439035,290.0148,0.49393633,-35.128483,CSO
2407176110000,1.400197,-4.87222613145634,1.5678845880151,8.03367062374488,-0.14996742,-0.9080512,-0.099265605,289.93314,0.6457824,-34.951267,CSO
2407180885000,1.404972,-4.70692632524701,1.55686465207647,7.98959076492088,-0.18600847,-0.93554014,-0.063224554,289.83563,0.7984441,-34.76625,CSO
2407185745000,1.409832,-4.53868400939835,1.54564854973894,7.94472623845289,-0.19517145,-0.9578367,-0.023518313,289.62836,0.6257653,-34.462025,CSO
2407190760000,1.414847,-4.42596595786841,1.48277645263563,7.83940685494421,-0.21288654,-0.9761627,-0.023518313,289.522054161201,0.547085611935997,-34.3118566015703,CSO
2407195807000,1.419894,-4.34227853217584,1.39443967966526,7.7045772888611,-0.24281894,-0.97341377,0.024129177,289.41507,0.46790388,-34.16073,CSO
2407201019000,1.425106,-4.27134240090358,1.35035143359688,7.66142403337098,-0.2574797,-0.9599747,0.045814894,289.20636,0.30667695,-33.869987,CSO
2407205769000,1.429856,-4.21529181562789,1.33633876289147,7.6754365089845,-0.2648101,-0.9483683,0.069027774,289.01004,0.16440117,-33.56338,CSO
2407210749000,1.434836,-4.15195835655431,1.28544425805243,7.67145274531835,-0.27855456,-0.945314,0.08368854,288.8319,0.054035343,-33.274883,CSO
2407215907000,1.439994,-4.08379731330574,1.21241473589592,7.65684705440568,-0.29810223,-0.9450085,0.09162979,288.6539,-0.053135466,-32.996098,CSO
2407220743000,1.44483,-4.02024705841192,1.15781538404003,7.67945555561155,-0.3313944,-0.9306532,0.09285152,288.49014,-0.1464155,-32.715508,CSO
2407227268000,1.451355,-3.93477561791088,1.0948363809085,7.73793582701029,-0.34697145,-0.8915578,0.101098195,288.32617,-0.23917343,-32.449078,CSO
2407230808000,1.454895,-3.88840490536318,1.06066846196818,7.76966305471168,-0.3643811,-0.88178396,0.099265605,288.18478,-0.29750645,-32.182922,CSO
2407235762000,1.459849,-3.77736150011601,1.018402337529,7.8075194562645,-0.3662137,-0.8518516,0.10354166,288.04187,-0.3564263,-31.939938,CSO
2407240888000,1.464975,-3.65397029535963,0.975689982173241,7.84548604941995,-0.40653083,-0.8210029,0.10262536,287.90448,-0.3991586,-31.706074,CSO
2407245818000,1.469905,-3.5398787550794,0.927775835737517,7.88169551038837,-0.4334089,-0.7846564,0.108123146,287.78204,-0.42531294,-31.463146,CSO
2407250909000,1.474996,-3.42328336210063,0.876473856982973,7.91900600497417,-0.46181414,-0.7632761,0.11575896,287.6614,-0.44045165,-31.230576,CSO
2407255764000,1.479851,-3.30995151103604,0.825136790315315,7.91956624324324,-0.47708577,-0.7501425,0.13775012,287.54578,-0.44106555,-30.984787,CSO
2407260815000,1.484902,-3.19110031239763,0.770663296263309,7.90470984987715,-0.5006041,-0.74189585,0.16768251,287.44034,-0.41793787,-30.723541,CSO
2407265750000,1.489837,-3.06412733937967,0.692421759743377,7.90728012369611,-0.5329799,-0.7440339,0.19486602,287.32983,-0.39144543,-30.46881,CSO
2407270728000,1.494815,-2.93210474126281,0.604406740284316,7.91608152914243,-0.55863625,-0.72143185,0.24648413,287.2026,-0.36844423,-30.228994,CSO
2407276123000,1.50021,-2.84262970809944,0.473794660785886,7.98996730312751,-0.57604593,-0.6994407,0.2828306,287.0785,-0.32756144,-29.9724,CSO
2407280785000,1.504872,-2.79787525581395,0.339531210465116,8.09290259011628,-0.57879484,-0.7281514,0.30665436,286.94296,-0.2895082,-29.71316,CSO
2407285871000,1.509958,-2.74009516912138,0.211949473499238,8.2175032785678,-0.6035349,-0.732122,0.3454443,286.81342,-0.21986602,-29.445595,CSO
2407290812000,1.514899,-2.67761197069578,0.10140228477806,8.34727642275267,-0.61636305,-0.73853606,0.3817908,286.67813,-0.15563288,-29.174839,CSO
2407296675000,1.520762,-2.72871481077875,0.0068346645321583,8.63933423633591,-0.6062838,-0.70646566,0.42302418,286.5486,-0.056925364,-28.90439,CSO
2407301008000,1.525095,-2.81310697123125,-0.0494267405209728,8.90657580238963,-0.591623,-0.65240407,0.49357912,286.39862,0.03407753,-28.644444,CSO
2407305777000,1.529864,-2.92664593909627,-0.114959306357564,9.16846619449902,-0.5729916,-0.66920286,0.4886922,286.28787,0.16028339,-28.355532,CSO
2407310766000,1.534853,-3.109687938389,-0.194746896459136,9.34212162062869,-0.5882632,-0.6560693,0.50488013,286.14822,0.27790013,-28.096586,CSO
2407315782000,1.539869,-3.27927272549467,-0.254838524908676,9.50494458980213,-0.605062,-0.59528816,0.50426924,286.03662,0.41811547,-27.841156,CSO
2407320756000,1.544843,-3.39165370677321,-0.236712564826484,9.62095083729072,-0.61758476,-0.5311473,0.5018258,285.9209,0.5576135,-27.597029,CSO
2407325911000,1.549998,-3.50812414474886,-0.217927015123288,9.74117846210046,-0.60903263,-0.50701815,0.48502702,285.8498,0.7293745,-27.393404,CSO
2407330814000,1.554901,-3.58914155375734,-0.177323913624764,9.787497,-0.600786,-0.5006041,0.4813618,285.775,0.89985204,-27.208155,CSO
2407335777000,1.559864,-3.65064116078431,-0.120555094313725,9.787497,-0.59956425,-0.5018258,0.4654793,285.7091,1.0706791,-27.032198,CSO
2407340740000,1.564827,-3.65619170548926,-0.151686105465394,9.79282235680191,-0.61453044,-0.48716503,0.4560109,285.66925,1.2429557,-26.879519,CSO
2407345746000,1.569833,-3.6180521185362,-0.251802598875895,9.80235695485282,-0.6386596,-0.49632803,0.45540005,285.63022,1.4148587,-26.723845,CSO
2407351113000,1.5752,-3.65203539725453,-0.404877097296473,9.76686206148713,-0.65484756,-0.49571714,0.46517387,285.605,1.5775284,-26.59028,CSO
2407355792000,1.579879,-3.72892550684461,-0.567200786878932,9.70705873212583,-0.6627888,-0.49480084,0.46211955,285.58243,1.7427226,-26.457644,CSO
2407360765000,1.584852,-3.88328728883951,-0.733416477598222,9.59555725431775,-0.65209866,-0.47678033,0.46181414,285.5607,1.9245806,-26.319725,CSO
2407366393000,1.59048,-4.15547342123018,-0.913059213564287,9.4050272003838,-0.60048056,-0.4025602,0.49968776,285.52643,2.089642,-26.20239,CSO
2407370804000,1.594891,-4.32653355145388,-0.995442120246936,9.34979224228326,-0.5519168,-0.36193767,0.53878313,285.52917,2.3001237,-26.104752,CSO
2407376150000,1.600237,-4.4914357212311,-1.03666773443679,9.37727604885032,-0.5491679,-0.3726278,0.5002986,285.54163,2.5090265,-26.015352,CSO
2407380739000,1.604826,-4.66380717593926,-1.08763594534761,9.40862976132373,-0.5849035,-0.3472769,0.48991394,285.59174,2.7588065,-26.023382,CSO
2407385763000,1.60985,-4.95100396835499,-1.19322294366222,9.46775834278441,-0.55924714,-0.35124752,0.4859433,285.64514,2.9886236,-26.018274,CSO
2407391155000,1.615242,-5.26511302780933,-1.30565500113568,9.52306271383742,-0.49968776,-0.36010507,0.4801401,285.72977,3.2329648,-26.05142,CSO
2407395825000,1.619912,-5.67278553483264,-1.3825112539749,9.38271637343096,-0.45356745,-0.3399465,0.47555858,285.80734,3.4655807,-26.088474,CSO
2407400771000,1.624858,-6.10455174890915,-1.46390976072923,9.23407547414824,-0.40561453,-0.28496864,0.5305365,285.89087,3.6951723,-26.169838,CSO
2407405805000,1.629892,-6.4700362120919,-1.53540118521765,9.11823765689238,-0.3481932,-0.32803464,0.473726,286,3.915379,-26.221354,CSO
2407410846000,1.634933,-6.65489258762596,-1.57918296104393,9.08904973861346,-0.36010507,-0.30085114,0.453262,286.07526,4.1207385,-26.305166,CSO
2407415740000,1.639827,-6.80595833622585,-1.62094070183584,9.08428248265557,-0.32528573,-0.28985557,0.4392121,286.153,4.307987,-26.462376,CSO
2407420731000,1.644818,-6.89268725592913,-1.66175433931049,9.1352994629096,-0.28802297,-0.28619036,0.42180246,286.23196,4.491658,-26.615477,CSO
2407425801000,1.649888,-6.96555870835214,-1.67941606795564,9.1751738867406,-0.24984388,-0.27366763,0.42088616,286.28958,4.6532865,-26.774088,CSO
2407430771000,1.654858,-7.01694379638826,-1.66540192643046,9.19853078928256,-0.23823744,-0.28160888,0.41447207,286.34937,4.8080115,-26.91952,CSO
2407436012000,1.660099,-6.98586737960998,-1.60741729064853,9.21668559256236,-0.21105394,-0.2959642,0.41538838,286.37933,4.935823,-27.052576,CSO
2407440807000,1.664894,-6.84841754119728,-1.49912331382313,9.22501562748299,-0.17562376,-0.3042109,0.41508293,286.40875,5.0540996,-27.178596,CSO
2407445812000,1.669899,-6.72002948618421,-1.4069000873839,9.2356027248452,-0.14721853,-0.3576616,0.4654793,286.41074,5.146134,-27.273687,CSO
2407451140000,1.675227,-6.6509162125,-1.40196343970588,9.25534972794118,-0.13561209,-0.39492437,0.47800204,286.42328,5.2344356,-27.365263,CSO
2407455763000,1.67985,-6.58970144006498,-1.40257283502502,9.26259942549829,-0.1151481,-0.41905355,0.4908302,286.4079,5.2794776,-27.41812,CSO
2407460773000,1.68486,-6.51387074167179,-1.44048822821143,9.19519427228027,-0.08979719,-0.44104472,0.51159966,286.3841,5.315602,-27.45911,CSO
2407465735000,1.689822,-6.43876656493985,-1.47804036014575,9.1284349169374,-0.059864793,-0.45540005,0.52626044,286.34534,5.3358793,-27.466022,CSO
2407470810000,1.694897,-6.36908765632849,-1.46765509451421,9.09031994134171,-0.019547688,-0.44898596,0.5665775,286.29196,5.340071,-27.473318,CSO
2407475744000,1.699831,-6.30272262518176,-1.44813595571712,9.05908907468605,0.006414085,-0.44043383,0.59681535,286.23724,5.3391786,-27.476793,CSO
2407480848000,1.704935,-6.24144309285339,-1.42344772565852,9.01871624735019,0.010079277,-0.42302418,0.6301075,286.16125,5.335506,-27.478456,CSO
2407485763000,1.70985,-6.19204664653164,-1.39380974439081,8.96931969786966,0.0009162979,-0.4196644,0.65209866,286.08063,5.3261704,-27.478806,CSO
2407490849000,1.714936,-6.14931395262024,-1.41795267963286,8.89806604522613,-0.0012217305,-0.43554693,0.69058317,285.98624,5.3045535,-27.466084,CSO
2407495741000,1.719828,-6.11568136482412,-1.49002180825556,8.81158335175879,-0.007941248,-0.44593164,0.70952,285.89337,5.286679,-27.455956,CSO
2407500839000,1.724926,-6.04305545065733,-1.54357412617989,8.78017810318736,-0.004581489,-0.44990227,0.7272351,285.7672,5.2487073,-27.425539,CSO
2407505832000,1.729919,-5.94355921760144,-1.57975460461553,8.79374557599546,0.01282817,-0.45845437,0.7440339,285.63776,5.207923,-27.392147,CSO
2407510802000,1.734889,-5.824566273318,-1.62756693757873,8.85322096281116,0.016798794,-0.47403142,0.7648033,285.49823,5.181281,-27.357801,CSO
2407515970000,1.740057,-5.67613209637109,-1.69188846592022,8.9719687176847,0.022602014,-0.50671273,0.7984009,285.3515,5.1472297,-27.317785,CSO
2407520804000,1.744891,-5.56365980721171,-1.77035187183149,9.00572695323099,0.02687807,-0.52320606,0.8032878,285.1875,5.115127,-27.247957,CSO
2407526266000,1.750353,-5.47028515244556,-1.88240155505177,8.94503313513031,0.05131268,-0.5910121,0.816116,285.0113,5.073,-27.157286,CSO
2407530808000,1.754895,-5.38570577713514,-2.00242380546596,8.90480487852546,0.07452556,-0.59437186,0.81581056,284.8479,5.04769,-27.047493,CSO
2407535790000,1.759877,-5.26819857646778,-2.22985679575753,8.8972240216096,0.0711658,-0.6078109,0.818254,284.6806,5.023054,-26.919643,CSO
2407540714000,1.764801,-5.15205938415826,-2.45464203144514,8.88973142035433,0.07941248,-0.59650993,0.83016586,284.49408,5.0068398,-26.779346,CSO
2407545738000,1.769825,-5.08945003679245,-2.56624051125923,8.87164488228056,0.106901415,-0.6020077,0.8399397,284.30984,4.988611,-26.634565,CSO
2407551227000,1.775314,-5.04992060628931,-2.62733160281652,8.84648959228876,0.129198,-0.63285637,0.8231409,284.1333,4.973538,-26.489294,CSO
2407555799000,1.779886,-5.01699501761006,-2.67821673136451,8.82553678014766,0.18112154,-0.66706485,0.8206975,283.94675,4.997211,-26.308666,CSO
2407560808000,1.784895,-4.99457545961612,-2.65584644102368,8.71805392255539,0.21685717,-0.6771441,0.799928,283.77344,5.0251584,-26.130348,CSO
2407565721000,1.789808,-4.97660336594729,-2.61091632414057,8.58775667742552,0.23976462,-0.6591236,0.7788532,283.60315,5.044986,-25.955542,CSO
2407570745000,1.794832,-4.99191473454006,-2.57106857323442,8.57753398931751,0.27275133,-0.64660084,0.73853606,283.43582,5.07203,-25.763433,CSO
2407576144000,1.800231,-5.02698388296736,-2.53161563821111,8.63452124679949,0.29657507,-0.6713409,0.7357872,283.2647,5.094906,-25.57184,CSO
2407580776000,1.804863,-5.04406431828946,-2.47999645248067,8.61603791799589,0.2910773,-0.7247916,0.7254025,283.09265,5.1102214,-25.376322,CSO
2407585779000,1.809866,-5.03468713257657,-2.38622449743615,8.45193667844212,0.3036,-0.6740898,0.6924158,282.93353,5.119753,-25.207886,CSO
2407590725000,1.814812,-5.01167796563983,-2.2716346969296,8.35790224189476,0.3378085,-0.7180721,0.6759224,282.75873,5.1116886,-24.991322,CSO
2407595735000,1.819822,-4.94868059325321,-2.09233443261287,8.45966783526917,0.34269542,-0.77854776,0.64568454,282.60205,5.1155205,-24.788393,CSO
2407601015000,1.825102,-4.89050369321257,-1.92478140661283,8.53176940120762,0.3707952,-0.80878556,0.61941737,282.4363,5.0852146,-24.586414,CSO
2407605793000,1.82988,-4.85388671542994,-1.81493026470973,8.52844051236723,0.39767328,-0.8426886,0.63224554,282.26846,5.055344,-24.371977,CSO
2407610819000,1.834906,-4.81536914943256,-1.69937734733741,8.52493883900771,0.41538838,-0.8695667,0.63163465,282.11105,4.991319,-24.12874,CSO
2407615796000,1.839883,-4.75651483138803,-1.60574533963226,8.49225916238633,0.47678033,-0.8765916,0.61850107,281.95673,4.912009,-23.88809,CSO
2407621052000,1.845139,-4.6760338479964,-1.52526456633357,8.43189893694414,0.516792,-0.87689704,0.6096435,281.80414,4.836376,-23.64847,CSO
2407626246000,1.850333,-4.58157823241983,-1.43655198403273,8.44002345874964,0.56199604,-0.88208944,0.5842926,281.64868,4.713965,-23.390783,CSO
2407630884000,1.854971,-4.48859337172899,-1.35202025237416,8.48651599942906,0.6123924,-0.84971356,0.5665775,281.49933,4.583909,-23.1506,CSO
2407635730000,1.859817,-4.38373774094435,-1.25385734110628,8.48254648836615,0.6423248,-0.86376345,0.5549711,281.34915,4.4365506,-22.879583,CSO
2407640811000,1.864898,-4.26346727068951,-1.13773412396659,8.40789567246229,0.6960809,-0.93431836,0.5317582,281.21252,4.2774625,-22.607946,CSO
2407645767000,1.869854,-4.14320103557118,-1.02924396113337,8.3299497269605,0.73364913,-0.9728029,0.52015173,281.0758,4.0993595,-22.310387,CSO
2407651252000,1.875339,-3.97567938465942,-0.964812573497424,8.183904930166,0.7791586,-0.9896017,0.51007247,280.95013,3.912397,-22.007019,CSO
2407655874000,1.879961,-3.83451528793851,-0.910518704098454,8.0608385580996,0.82558435,-0.9969321,0.50732356,280.81363,3.6904275,-21.664452,CSO
2407660797000,1.884884,-3.68798418359498,-0.893517434435671,7.98416894123548,0.8698721,-0.98654735,0.5137377,280.6841,3.4628572,-21.331903,CSO
2407665811000,1.889898,-3.54078516042731,-0.897978008072457,7.93510272438458,0.93462384,-0.98654735,0.5213735,280.56134,3.2235224,-21.003866,CSO
2407670804000,1.894891,-3.39167809948013,-0.908567175258613,7.82279547974271,0.9960158,-0.9966267,0.5216789,280.42456,2.9624953,-20.647774,CSO
2407676262000,1.900349,-3.22587253335096,-0.926990000443211,7.6293555724381,1.0616838,-0.99112886,0.5195409,280.2941,2.6891098,-20.306137,CSO
2407680815000,1.904902,-3.11784513164596,-0.933494403595956,7.49479602126707,1.1285735,-0.977079,0.5204572,280.1575,2.4068167,-19.929003,CSO
2407685824000,1.909911,-3.09933668531523,-0.911284248672737,7.43556899300872,1.1872166,-0.9599747,0.5137377,280.03192,2.1172862,-19.565235,CSO
2407690745000,1.914832,-3.08115340234586,-0.889464290122695,7.37738248750675,1.2388347,-0.9621128,0.5039638,279.89343,1.8213172,-19.171404,CSO
2407695817000,1.919904,-3.07665731900025,-0.871057133026392,7.33997405179643,1.294118,-0.9593639,0.50885075,279.7609,1.5154601,-18.795029,CSO
2407701307000,1.925394,-3.08098007901011,-0.853766454082052,7.3140381236537,1.3515394,-0.958753,0.51343226,279.63916,1.2037266,-18.428207,CSO
2407705794000,1.929881,-3.08072273170732,-0.833731257966424,7.30204085137789,1.412015,-0.95417154,0.51159966,279.50867,0.87174344,-18.055845,CSO
2407710829000,1.934916,-3.065448875,-0.787910006818182,7.32495137727273,1.4899004,-0.9486737,0.5195409,279.38208,0.5263853,-17.694506,CSO
2407715723000,1.93981,-3.05060274695122,-0.743371932713019,7.34722031743744,1.5561792,-0.9486737,0.5158757,279.24454,0.16412966,-17.325563,CSO
2407720806000,1.944893,-3.08226031953125,-0.688370392890625,7.53390417083333,1.5891659,-0.94042706,0.51893,279.1113,-0.20256592,-16.97062,CSO
2407726291000,1.950378,-3.14210761518555,-0.624248359272461,7.82459060182292,1.6536123,-0.91324353,0.5109888,278.99097,-0.585646,-16.63091,CSO
2407730798000,1.954885,-3.21198149566617,-0.556575882411871,8.09066215042789,1.745242,-0.89675015,0.50488013,278.8713,-0.9916513,-16.28345,CSO
2407735831000,1.959918,-3.36335174658083,-0.427911163207192,8.48422481070896,1.7599027,-0.87689704,0.48716503,278.766,-1.3830756,-15.954632,CSO
2407740712000,1.964799,-3.51015051366099,-0.303132205440842,8.86590161278166,1.8044959,-0.86437434,0.4373795,278.66296,-1.8163393,-15.615159,CSO
2407745806000,1.969893,-3.70881225051672,-0.146282226287737,9.41741577711775,1.8374827,-0.82802784,0.3707952,278.5787,-2.2375276,-15.298759,CSO
2407751312000,1.975399,-3.94909805121654,0.0382230675587924,10.0996566248678,1.8332067,-0.8002335,0.28008172,278.5246,-2.645161,-14.994302,CSO
2407755808000,1.979895,-4.21545474876577,0.247452491832145,10.7197461508502,1.7996091,-0.75136423,0.16737708,278.50247,-3.0762744,-14.716279,CSO
2407761162000,1.985249,-4.80208884922812,0.721581304923595,11.700147840373,1.7238617,-0.69058317,0.026572637,278.52203,-3.475968,-14.460992,CSO
2407765718000,1.989805,-5.30128663811614,1.12504243164094,12.5344231667581,1.6203201,-0.634689,-0.13194689,278.58362,-3.8847482,-14.230488,CSO
2407770806000,1.994893,-5.56196359993433,1.45197104060089,12.7448735861927,1.5265522,-0.56169057,-0.31673363,278.69824,-4.2542415,-14.034406,CSO
2407776304000,2.000391,-5.67001920321786,1.73291541055656,12.5503742765556,1.45783,-0.42577308,-0.5170974,278.8652,-4.5825033,-13.88416,CSO
2407780807000,2.004894,-5.64628771538401,1.93276618446663,12.3733600295574,1.4462235,-0.36285394,-0.6808093,279.12164,-5.0042715,-13.820311,CSO
2407785826000,2.009913,-5.24199075369861,2.05367740985772,12.1164232120116,1.4538593,-0.37598756,-0.7858781,279.41882,-5.391823,-13.779143,CSO
2407790712000,2.014799,-4.84840737956135,2.17138457209339,11.8662950409559,1.5030339,-0.43066,-0.8155051,279.759,-5.852935,-13.780181,CSO
2407795808000,2.019895,-4.25511464410215,2.18056559092015,11.5418959319011,1.5537357,-0.5112942,-0.7425067,280.10034,-6.304357,-13.770165,CSO
2407801304000,2.025391,-3.51691397939197,2.12936096071342,11.1578612053506,1.5971072,-0.6059783,-0.63163465,280.441,-6.756573,-13.741033,CSO
2407806302000,2.030389,-2.76669639989878,1.99153148827377,10.6699432640349,1.6530013,-0.6753115,-0.50823987,280.74377,-7.2543406,-13.613096,CSO
2407810813000,2.0349,-1.93247997632173,1.68542784157907,9.95345891769836,1.7030923,-0.70921457,-0.3549127,281.0097,-7.7610574,-13.469544,CSO
2407815763000,2.03985,-1.01707955585922,1.34953490184536,9.16724798567313,1.6936239,-0.7144069,-0.28955013,281.23306,-8.245734,-13.165913,CSO
2407820804000,2.044891,-0.760137152378242,1.20077383632003,8.69227475306936,1.7085901,-0.7333437,-0.19242255,281.41046,-8.753068,-12.85572,CSO
2407826274000,2.050361,-0.8964347510448,1.15818082005854,8.37708640604927,1.7437148,-0.75686204,-0.14049901,281.5884,-9.254207,-12.555547,CSO
2407830791000,2.054878,-1.03398574672496,1.15063601911678,8.1542292891968,1.8976529,-0.75991637,-0.14202617,281.69327,-9.71285,-12.09586,CSO
2407835815000,2.059902,-1.29779924026378,1.26471752379964,8.07223322399229,1.9474384,-0.7415904,-0.1423316,281.78867,-10.146985,-11.650714,CSO
2407840718000,2.064805,-1.55525894544309,1.37605144447244,7.99221198440279,1.9941696,-0.6646214,-0.17531833,281.8843,-10.630257,-11.251259,CSO
2407845803000,2.06989,-1.84223982634024,1.6023181963188,8.18915539787348,2.0433443,-0.5561928,-0.16707164,281.972,-11.12075,-10.879333,CSO
2407851148000,2.075235,-2.16696739272695,1.96820837564332,8.71969607670658,2.1300871,-0.54702985,-0.20922135,282.09094,-11.620473,-10.520191,CSO
2407855850000,2.079937,-2.31684389102754,2.44311613153624,9.20755521779667,2.0967948,-0.51343226,-0.20952678,282.2177,-12.141747,-10.270321,CSO
2407860815000,2.084902,-2.09054444384801,3.37799231718811,9.78257849215885,2.0430388,-0.50823987,-0.19272798,282.35895,-12.6694565,-10.027053,CSO
2407865713000,2.0898,-1.8672987857845,4.30025285239916,10.3498421372396,1.9969184,-0.5412266,-0.15210545,282.52023,-13.244294,-9.842611,CSO
2407870805000,2.094892,-1.68446464682417,4.76548501293571,10.5592641597599,1.9101756,-0.6020077,-0.10903945,282.68295,-13.781429,-9.658443,CSO
2407876465000,2.100552,-1.5081208362897,5.0132062460883,10.584455982378,1.8374827,-0.6765333,-0.07452556,282.84503,-14.299586,-9.467065,CSO
2407880827000,2.104914,-1.3805111326115,5.19039743837546,10.5881173003542,1.7828102,-0.7290677,-0.021991149,283.06116,-14.983833,-9.20907,CSO
2407885798000,2.109885,-1.30386277058445,5.27854296866849,10.4616473289325,1.7189748,-0.7470882,0.027183503,283.27744,-15.627941,-8.950648,CSO
2407890788000,2.114875,-1.22692144559652,5.36702540603768,10.3346939679601,1.6777414,-0.7556403,0.0711658,283.49,-16.301075,-8.661387,CSO
2407895803000,2.11989,-1.13333416104772,5.44212973210581,10.2395780928423,1.6276505,-0.7425067,0.11148291,283.69522,-16.936922,-8.383252,CSO
2407901285000,2.125372,-1.01987448466459,5.51474395911134,10.1578873836445,1.6074919,-0.7467828,0.15577064,283.89465,-17.55387,-8.107166,CSO
2407905811000,2.129898,-0.890025492968244,5.54510771257291,10.0485995609203,1.5961909,-0.75686204,0.20372356,284.0879,-18.176098,-7.8329406,CSO
2407911792000,2.135879,-0.623986181162238,5.50798584597105,9.79493422618276,1.5943583,-0.73456544,0.24801129,284.27228,-18.779915,-7.574808,CSO
2407915780000,2.139867,-0.485985482434783,5.46197761843478,9.63578338956522,1.6041322,-0.72143185,0.2574797,284.4548,-19.388092,-7.309168,CSO
2407920808000,2.144895,-0.351066316521739,5.38288712985507,9.44503564347826,1.6062702,-0.68416905,0.26633725,284.6252,-19.97889,-7.0628033,CSO
2407926011000,2.150098,-0.213352818122112,5.2880457342642,9.20965222729965,1.6209309,-0.6386596,0.28252518,284.76465,-20.574314,-6.804747,CSO
2407930841000,2.154928,-0.0880933356468647,5.18235796071761,8.93956134128798,1.6325374,-0.602924,0.28863382,284.90536,-21.154303,-6.5632286,CSO
2407936042000,2.160129,0.035819843565793,5.07211451527667,8.66424624252052,1.6459764,-0.5390886,0.30970868,285.01373,-21.728533,-6.3225894,CSO
2407940806000,2.164893,-0.000418366466507808,5.0197704699497,8.623981592269,1.643533,-0.50976706,0.32436943,285.12567,-22.28753,-6.090074,CSO
2407945802000,2.169889,-0.0384213256019769,4.96487734432971,8.58175611102286,1.649947,-0.4804455,0.35033122,285.20898,-22.844027,-5.8603263,CSO
2407951284000,2.175371,-0.155515358095,4.94487778301225,8.57757338226347,1.6554449,-0.45998153,0.37048978,285.29108,-23.387226,-5.641207,CSO
2407955833000,2.17992,-0.271045066071913,4.93808195807659,8.58436938460338,1.6594155,-0.43096542,0.39858958,285.36322,-23.920345,-5.4341755,CSO
2407960757000,2.184844,-0.400904274185961,4.95711500202131,8.58178179106946,1.6551393,-0.4129449,0.4166101,285.41943,-24.441912,-5.2476773,CSO
2407965806000,2.189893,-0.556395400955531,5.09927840169055,8.53291309343991,1.642922,-0.3753767,0.43127087,285.467,-24.950962,-5.076109,CSO
2407971154000,2.195241,-0.717833264928161,5.24821757497845,8.48810085883621,1.6169603,-0.35430184,0.47647488,285.51657,-25.443151,-4.9366746,CSO
2407976168000,2.200255,-0.831669291106322,5.3689526418319,8.52604624892241,1.5986344,-0.35643986,0.51343226,285.56653,-25.92238,-4.8043656,CSO
2407980778000,2.204865,-0.936333048721264,5.47995955411638,8.56093421228448,1.5848899,-0.35918877,0.54550266,285.6252,-26.421034,-4.7129736,CSO
2407985759000,2.209846,-1.06220625010993,5.6507599731761,8.60601596562063,1.5800029,-0.35369098,0.559858,285.682,-26.905375,-4.623988,CSO
2407990804000,2.214891,-1.23603594524285,6.00807661074355,8.67844494223466,1.5460999,-0.36102137,0.5867361,285.73325,-27.366886,-4.528583,CSO
2407995721000,2.219808,-1.38159296906307,6.29103499218791,8.7228033911238,1.5109752,-0.4092797,0.62858033,285.8012,-27.843277,-4.4590034,CSO
2408000913000,2.225,-1.44181603666407,6.33405146904576,8.6668819262912,1.486846,-0.46028697,0.63804877,285.87595,-28.300955,-4.389956,CSO
2408005778000,2.229865,-1.4982461645298,6.37435870323557,8.61448247975603,1.4636332,-0.49877146,0.6227771,285.97064,-28.80108,-4.3478575,CSO
2408010803000,2.23489,-1.42480793271982,6.5181546690107,8.52642365859758,1.4416419,-0.5158757,0.63407815,286.06366,-29.282465,-4.295103,CSO
2408015773000,2.23986,-1.339108169991,6.67051000161048,8.43596264879464,1.4251486,-0.5290093,0.63591075,286.17065,-29.745771,-4.239135,CSO
2408020803000,2.24489,-1.34093885358019,6.68135708213994,8.41782748234069,1.4202617,-0.5543602,0.6612616,286.27927,-30.213335,-4.1878734,CSO
2408025996000,2.250083,-1.3520323896944,6.67765923676853,8.40673410067663,1.4065173,-0.6062838,0.66859204,286.4005,-30.66139,-4.1309175,CSO
2408030744000,2.254831,-1.35782927941176,6.67711180974265,8.37704800367647,1.389413,-0.61911196,0.65484756,286.5017,-31.143665,-4.0649896,CSO
2408035772000,2.259859,-1.34799428137255,6.68694675643382,8.27377990808824,1.3671165,-0.6224717,0.6429357,286.60983,-31.608486,-3.9900968,CSO
2408040718000,2.264805,-1.30721120571429,6.70164175224192,8.15923513267987,1.3448198,-0.6273586,0.6337727,286.71802,-32.062393,-3.918034,CSO
2408045734000,2.269821,-1.17196551428571,6.73169643169969,8.00395337184567,1.3292428,-0.65057147,0.6218608,286.8358,-32.50008,-3.845662,CSO
2408051054000,2.275141,-1.05101899995735,6.76384208239141,7.83312601131727,1.3106114,-0.6789767,0.63713247,286.941,-32.940502,-3.7760398,CSO
2408055795000,2.279882,-0.976782563574323,6.79289102893296,7.67174239827966,1.2944235,-0.6908886,0.6536258,287.05243,-33.366028,-3.7089725,CSO
2408060784000,2.284871,-0.898662845979953,6.82345951539063,7.50191686665245,1.2822062,-0.70952,0.66431594,287.14362,-33.8114,-3.607974,CSO
2408065738000,2.289825,-0.894211094464979,6.80554157780447,7.37588440030493,1.255328,-0.7257079,0.6731735,287.2358,-34.23757,-3.5060554,CSO
2408070744000,2.294831,-0.956231141757531,6.74352166928479,7.28728453759934,1.2247849,-0.7464773,0.6899723,287.33005,-34.64922,-3.3993888,CSO
2408075872000,2.299959,-1.01488283065707,6.68486999759791,7.17036906935228,1.1890492,-0.7877107,0.6994407,287.42303,-35.08314,-3.2639863,CSO
2408080788000,2.304875,-1.06328693649874,6.63646570796336,7.01635601366483,1.1798862,-0.8561276,0.713796,287.52173,-35.506317,-3.1183627,CSO
2408085774000,2.309861,-1.11272229777408,6.5984197,6.8774032226378,1.1841623,-0.8863655,0.7244862,287.6132,-35.92168,-2.9983048,CSO
2408090748000,2.314835,-1.16321370769231,6.5984197,6.7980596,1.1924089,-0.87109387,0.71868294,287.71164,-36.32615,-2.8780315,CSO
2408095744000,2.319831,-1.21392844109631,6.5984197,6.71836504055118,1.1902709,-0.8509353,0.7086037,287.80896,-36.738583,-2.7768502,CSO
2408101116000,2.325203,-1.27916091052355,6.67498718266246,6.67640768193458,1.2144,-0.8503244,0.6969972,287.91162,-37.151466,-2.6802335,CSO
2408105864000,2.329951,-1.3429626133386,6.78664025627466,6.66444491210208,1.2040154,-0.8567385,0.68600166,288.01688,-37.544598,-2.5922408,CSO
2408110730000,2.334817,-1.3714374352275,6.90813612359722,6.63438148791063,1.1887437,-0.8588765,0.68539083,288.1098,-37.960995,-2.52919,CSO
2408115741000,2.339828,-1.31268691097735,7.05011658702306,6.56094314088961,1.1823297,-0.8741482,0.67347896,288.21426,-38.36713,-2.4687932,CSO
2408120928000,2.345015,-1.2814950715625,7.17023052674419,6.4849993469186,1.171945,-0.88453287,0.66859204,288.31488,-38.79076,-2.4353626,CSO
2408125855000,2.349942,-1.302069915625,7.23881322093023,6.41298751802326,1.16492,-0.88331115,0.6630942,288.42166,-39.203465,-2.4054062,CSO
2408130833000,2.35492,-1.3228577325,7.30810582325581,6.3402302855814,1.1636983,-0.883922,0.64751714,288.52472,-39.648888,-2.3562546,CSO
2408135757000,2.359844,-1.3130555642113,7.3125361285148,6.31370435839403,1.146594,-0.8738427,0.61727935,288.63278,-40.0771,-2.316085,CSO
2408140739000,2.364826,-1.2822653160874,7.27294881755324,6.31810295870748,1.1346822,-0.9193522,0.61666846,288.75067,-40.49658,-2.2635345,CSO
2408145734000,2.369821,-1.2641385,7.25885438240508,6.31516565132009,1.1362094,-0.93859446,0.6032294,288.8732,-40.939007,-2.2386737,CSO
2408150854000,2.374941,-1.2641385,7.2817264861461,6.30144234130982,1.135904,-0.9279043,0.57604593,289.00378,-41.367096,-2.2153676,CSO
2408155757000,2.379844,-1.25765909990094,7.3091898931154,6.27381970678554,1.1475104,-0.9239337,0.5519168,289.12265,-41.79312,-2.1846137,CSO
2408160798000,2.384885,-1.2337479315998,7.35222989618623,6.20686853541357,1.1472049,-0.9443977,0.5305365,289.25165,-42.205338,-2.1576903,CSO
2408165769000,2.389856,-1.19590329102484,7.39389359784679,6.13626380144927,1.1328496,-0.9434814,0.5112942,289.36963,-42.62271,-2.1414366,CSO
2408170751000,2.394838,-1.11687778586957,7.43340632463768,6.05229905072464,1.1319333,-0.9673051,0.50579643,289.50027,-43.03365,-2.118936,CSO
2408175976000,2.400063,-1.07171574719841,7.45412515200113,5.96404476000567,1.1420126,-0.98532563,0.49663344,289.62646,-43.458843,-2.0991085,CSO
2408180822000,2.404909,-1.0947280167741,7.43768781658993,5.88185808294963,1.1542299,-0.98807454,0.49602258,289.7557,-43.87447,-2.0789099,CSO
2408185755000,2.409842,-1.11815342449529,7.42095538250336,5.79819591251682,1.153619,-0.99265605,0.48533243,289.88626,-44.306175,-2.0329423,CSO
2408190762000,2.414849,-1.04290030855671,7.42240986647242,5.72577660058273,1.1499538,-1.0164797,0.4859433,290.02127,-44.730553,-1.9834679,CSO
2408195809000,2.419896,-0.866865449367326,7.44252812228928,5.66542183313215,1.1594223,-1.02717,0.49296826,290.1575,-45.14858,-1.9395993,CSO
2408201019000,2.425106,-0.74708742959694,7.4507556,5.61544007695466,1.1707232,-1.0170907,0.49571714,290.28876,-45.579933,-1.9100559,CSO
2408205813000,2.4299,-0.6742668737507,7.4507556,5.57688796167195,1.1756102,-1.0051788,0.5036584,290.42172,-46.00231,-1.8790879,CSO
2408210779000,2.434866,-0.598090838448363,7.46137384181615,5.50145679091923,1.1701124,-1.0167851,0.49418998,290.55023,-46.4367,-1.7975738,CSO
2408215745000,2.439832,-0.5209716919925,7.48547356250127,5.38095818749367,1.1701124,-1.0015136,0.48716503,290.67096,-46.864388,-1.725956,CSO
2408220743000,2.44483,-0.413851380946636,7.5047323112761,5.32122066886311,1.2030991,-0.9611965,0.4990769,290.7775,-47.305256,-1.6385483,CSO
2408225857000,2.449944,-0.268401233139675,7.51836825239907,5.33485651506265,1.2220359,-0.9440922,0.5119051,290.8892,-47.732334,-1.5553038,CSO
2408230770000,2.454857,-0.117756298991976,7.54361024724173,5.32761799900702,1.2388347,-0.93737274,0.53878313,290.98737,-48.190083,-1.4475565,CSO
2408236499000,2.460586,0.0858569867301906,7.60414399899699,5.26708441963892,1.235475,-0.9211848,0.5671884,291.08005,-48.63736,-1.3466651,CSO
2408240715000,2.464802,0.22890605987234,7.65032007234043,5.24731600553192,1.2452488,-0.9285152,0.6038403,291.16357,-49.087887,-1.1941621,CSO
2408245733000,2.46982,0.384712072107396,7.70874748834853,5.2765296118541,1.2626585,-0.9166033,0.6432411,291.2366,-49.529778,-1.0473415,CSO
2408250989000,2.475076,0.523434629130316,7.73888258287895,5.3009767811614,1.2519683,-0.9282097,0.68386364,291.30807,-49.975758,-0.8423805,CSO
2408255796000,2.479883,0.611289024839831,7.71691886518539,5.31352736933615,1.2299771,-0.9334021,0.7067711,291.37457,-50.413265,-0.6428401,CSO
2408260805000,2.484892,0.702835242461832,7.6940321870229,5.32660535896947,1.1908818,-0.95630956,0.7287622,291.43396,-50.840656,-0.39302063,CSO
2408265739000,2.489826,0.776681623678112,7.67456491320834,5.33830418053507,1.1688906,-0.95630956,0.73884153,291.49045,-51.256298,-0.15164743,CSO
2408270806000,2.494893,0.82779358520118,7.65923155424479,5.34852656216558,1.1438452,-0.95325524,0.7483099,291.55017,-51.649918,0.090383925,CSO
2408276013000,2.5001,0.858947557889497,7.651869,5.3468232421105,1.1194105,-0.9407325,0.7556403,291.59326,-52.027462,0.3622466,CSO
2408280871000,2.504958,0.870526476356396,7.651869,5.3352443236436,1.087951,-0.94989544,0.75441855,291.64304,-52.38618,0.6293889,CSO
2408285779000,2.509866,0.88589161200754,7.65406236701225,5.32514327340245,1.0922271,-0.9773844,0.7583892,291.6903,-52.73719,0.90827215,CSO
2408290812000,2.514899,0.935863419896324,7.67677680358153,5.3296861607163,1.0925325,-1.0002918,0.75900006,291.7419,-53.068954,1.1785145,CSO
2408296125000,2.520212,0.9846629636717,7.699753,5.32999051735685,1.1068878,-1.0238101,0.7791586,291.78992,-53.40688,1.4564077,CSO
2408301025000,2.525112,0.946077972641651,7.699753,5.23528184640455,1.0958922,-1.0369438,0.81306165,291.8408,-53.728218,1.7311817,CSO
2408306892000,2.530979,0.89987835174914,7.699753,5.1218827091643,1.0806206,-1.0592403,0.84391034,291.8952,-54.047543,2.0231416,CSO
2408310724000,2.534811,0.876340488494382,7.68895133785051,5.0608551868002,1.0626001,-1.0720685,0.8524625,291.95093,-54.353527,2.3092682,CSO
2408315812000,2.539899,0.859677688674157,7.65086481185149,5.00848646832438,1.0607675,-1.0629056,0.8573494,292.00433,-54.650352,2.5925841,CSO
2408320736000,2.544823,0.843551975955056,7.61400591758671,4.95780573527113,1.0348058,-1.0458013,0.8533788,292.0606,-54.95934,2.858888,CSO
2408326127000,2.550214,0.825896874966292,7.57365126710308,4.90231836080117,1.0030408,-1.0348058,0.85062987,292.11774,-55.25675,3.11707,CSO
2408330826000,2.554913,0.82522540403497,7.51982347074375,4.87190835158538,0.98990715,-1.0424415,0.86834496,292.1749,-55.542763,3.3707476,CSO
2408335791000,2.559878,0.876939199973229,7.39650612957417,4.90373216146574,0.9728029,-1.0302242,0.8915578,292.22644,-55.810127,3.6118474,CSO
2408340741000,2.564828,0.928496760878441,7.27356134834769,4.93545982690538,0.95081174,-1.0076222,0.89980453,292.27148,-56.08599,3.8443034,CSO
2408345756000,2.569843,0.914898261047321,7.33065585977731,5.00239196245651,0.94134337,-0.9969321,0.890947,292.31793,-56.35196,4.069896,CSO
2408350959000,2.575046,0.884557543149791,7.43468101017745,5.08041084788622,0.9462303,-0.98746365,0.85918194,292.36386,-56.60835,4.280675,CSO
2408355722000,2.579809,0.963140315513393,7.58461500705357,5.20836115633928,0.97524637,-0.98715824,0.8393288,292.39734,-56.83886,4.5111256,CSO
2408360720000,2.584807,1.14477048035714,7.79295552142857,5.39533343571429,0.9896017,-0.9984592,0.82986045,292.43665,-57.060226,4.728926,CSO
2408365679000,2.589766,1.25775623621638,7.95070409981002,5.54018609229077,0.9896017,-1.0299188,0.8237518,292.47653,-57.288563,4.932896,CSO
2408370648000,2.594735,1.34340453563644,8.0886930459754,5.66865866563344,0.9773844,-1.108415,0.81214535,292.53525,-57.51044,5.1347485,CSO
2408375787000,2.599874,1.32338468600417,8.21302841456476,5.77033942499526,0.93401295,-1.1866057,0.7666359,292.59784,-57.709965,5.3693695,CSO
2408380661000,2.604748,1.26141967441684,8.32368060060687,5.85443464270814,0.8927795,-1.2568552,0.68661255,292.686,-57.902042,5.594666,CSO
2408385641000,2.609728,1.21198547386683,8.3935524732729,5.92779774835886,0.8454375,-1.3267993,0.6084218,292.78412,-58.078247,5.837399,CSO
2408390641000,2.614728,1.17206961474419,8.43346807189747,5.9926609868709,0.8164214,-1.3952162,0.54458636,292.90942,-58.24581,6.065328,CSO
2408395634000,2.619721,1.21258186471372,8.39861729693742,5.86702458548602,0.79137594,-1.4535538,0.49021935,293.04953,-58.411213,6.257189,CSO
2408400832000,2.624919,1.29654324608966,8.32349339227696,5.63723565586329,0.77457714,-1.5424347,0.44012842,293.22247,-58.569572,6.441405,CSO
2408405696000,2.629783,1.36062605095935,8.26627217853659,5.42791589320325,0.7858781,-1.5845845,0.4016439,293.39563,-58.734715,6.628385,CSO
2408410699000,2.634786,1.40737023241192,8.2247220601626,5.22016389127371,0.8038987,-1.6022996,0.3368922,293.59473,-58.897827,6.7980742,CSO
2408415686000,2.639773,1.49852472095427,8.27339743817097,5.01203200914513,0.8029824,-1.6059648,0.2846632,293.81195,-59.090763,6.98548,CSO
2408420670000,2.644757,1.62188461654076,8.38726846163022,4.80326929184891,0.7654142,-1.6084082,0.23609942,294.0409,-59.277843,7.1516724,CSO
2408425823000,2.64991,1.75171159204501,8.40910391354126,4.57427981774576,0.7510588,-1.5699236,0.23609942,294.26477,-59.50282,7.3276825,CSO
2408430792000,2.654879,1.87852300264509,8.36213676075799,4.3441406710225,0.7556403,-1.5457945,0.21899518,294.50104,-59.72203,7.481536,CSO
2408435662000,2.659749,1.95966961012956,8.35900733215548,4.27271107962309,0.7473936,-1.4724907,0.1572978,294.7462,-59.972633,7.647429,CSO
2408440656000,2.664743,2.00661360227719,8.39186832273263,4.32904377216333,0.72387534,-1.4468343,0.10323623,294.99738,-60.215202,7.8053236,CSO
2408445642000,2.669729,2.06187573120656,8.31155249527713,4.26477507349848,0.67073005,-1.491733,0.07849618,295.27133,-60.46871,7.9884386,CSO
2408450977000,2.675064,2.13016877050437,8.10212022919266,4.06444900871502,0.62888575,-1.4446963,-0.016187929,295.53116,-60.723137,8.1160965,CSO
2408455723000,2.67981,2.18035878147998,7.93064625424585,3.90780381465831,0.55680364,-1.4062119,-0.10415252,295.8004,-60.945984,8.262356,CSO
2408460749000,2.684836,2.20468803582693,7.78953668065103,3.80075499391427,0.47403142,-1.3997977,-0.18142697,296.07523,-61.156937,8.378042,CSO
2408465688000,2.689775,2.20164939957878,7.64849177574967,3.71462058808545,0.40530908,-1.4114041,-0.26206118,296.36658,-61.362724,8.499452,CSO
2408470756000,2.694843,2.12863472205396,7.49759488396349,3.67567948095477,0.3390302,-1.426065,-0.34788775,296.66553,-61.550846,8.593142,CSO
2408475855000,2.699942,2.09648836577764,7.35817909409649,3.65792406694636,0.25137106,-1.4385877,-0.45753807,296.9782,-61.728153,8.676977,CSO
2408480739000,2.704826,2.15255450014984,7.25071914144441,3.68595708534612,0.18906279,-1.4413365,-0.5684101,297.30048,-61.900417,8.73387,CSO
2408485710000,2.709797,2.22642818179934,7.15754944491452,3.68717310692454,0.13194689,-1.4294246,-0.66706485,297.62045,-62.065365,8.760539,CSO
2408490706000,2.714793,2.34209731476429,7.10384572324296,3.62107639789328,0.07391469,-1.4022411,-0.76174897,297.94733,-62.221844,8.754714,CSO
2408496069000,2.720156,2.46175776127235,7.04559165279002,3.55023007321414,0.015271631,-1.3503176,-0.8344419,298.26587,-62.346737,8.742977,CSO
2408500976000,2.725063,2.47348167585031,6.97915613684823,3.48770252879834,-0.059253927,-1.3292428,-0.8924741,298.5916,-62.45872,8.709291,CSO
2408505786000,2.729873,2.48497383585031,6.91403389684823,3.42641100879834,-0.110872045,-1.2831224,-0.9233228,298.9112,-62.555096,8.69027,CSO
2408510776000,2.734863,2.4899697,6.81418371919722,3.31446830990089,-0.20647246,-1.2476922,-0.98990715,299.23602,-62.62862,8.644716,CSO
2408515816000,2.739903,2.4899697,6.68980875705649,3.16617497630327,-0.26939157,-1.2159272,-1.0360274,299.54712,-62.69852,8.590488,CSO
2408520807000,2.744894,2.51041262433606,6.60492717439452,2.99385672832804,-0.30115658,-1.2189816,-1.1178834,299.8675,-62.769444,8.520277,CSO
2408525849000,2.749936,2.54670601324537,6.54847075421747,2.80029226819776,-0.2843578,-1.2321151,-1.1823297,300.18192,-62.83995,8.440298,CSO
2408530814000,2.754901,2.59728861691542,6.49472888201848,2.61282790348259,-0.2443461,-1.2525792,-1.2629639,300.5265,-62.922012,8.345041,CSO
2408535810000,2.759897,2.71819706423438,6.44938821920556,2.43902206224433,-0.20372356,-1.2281445,-1.3420709,300.86652,-63.01497,8.230447,CSO
2408540732000,2.764819,2.83731463383085,6.40471913546553,2.26779060696517,-0.17012598,-1.201572,-1.421178,301.24893,-63.142754,8.114547,CSO
2408545807000,2.769894,3.05254698271283,6.48518879650509,2.22265712123829,-0.13958271,-1.178359,-1.505172,301.63193,-63.28759,7.975301,CSO
2408551089000,2.775176,3.33277164855397,6.6459060500611,2.25562471885947,-0.11026118,-1.1902709,-1.566564,302.0197,-63.44503,7.8238926,CSO
2408555820000,2.779907,3.56536884843762,6.80206780097002,2.27784694461318,-0.09621128,-1.221425,-1.6313156,302.4461,-63.6174,7.6835394,CSO
2408561579000,2.785666,3.75831828919456,7.0520249311362,2.26907652381331,-0.08399397,-1.2721269,-1.6829338,302.88208,-63.799778,7.5358896,CSO
2408565720000,2.789807,3.89705828471019,7.2317562171265,2.26277016636718,-0.093462385,-1.3509285,-1.6902641,303.33908,-63.959053,7.4464355,CSO
2408570808000,2.794895,4.02463809713279,7.4382244653532,2.28583639570719,-0.0888809,-1.4581354,-1.6780468,303.8163,-64.127144,7.35906,CSO
2408576092000,2.800179,4.1340649719686,7.64491976741951,2.3263649211597,-0.1020145,-1.6059648,-1.6588045,304.32047,-64.28698,7.286531,CSO
2408580776000,2.804863,4.22268079149714,7.8209089567705,2.32035142738398,-0.13805555,-1.7293595,-1.6511687,304.85437,-64.44569,7.2507815,CSO
2408585811000,2.809898,4.2763258276939,7.97418037444374,2.10577124258582,-0.17837265,-1.7272215,-1.6688838,305.39023,-64.59987,7.2149806,CSO
2408590722000,2.814809,4.32864971503497,8.12367708391608,1.8964756541958,-0.21197024,-1.6187929,-1.6832392,305.9288,-64.74627,7.1953244,CSO
2408595893000,2.81998,4.30309285798889,8.37350715030224,1.482444643537,-0.25534168,-1.4556919,-1.6933185,306.4494,-64.880135,7.1638474,CSO
2408601107000,2.825194,4.23375232260252,8.67534331890214,0.960349872287208,-0.27000242,-1.3811663,-1.6847663,306.9598,-65.01235,7.129942,CSO
2408605849000,2.829936,4.17878117488619,8.8990590798179,0.59454751198786,-0.26267207,-1.212873,-1.6841555,307.43024,-65.19089,7.062435,CSO
2408610812000,2.834899,4.14993138391502,8.95315201426404,0.598153707617602,-0.2406809,-1.0192287,-1.6902641,307.86932,-65.36785,6.983455,CSO
2408615810000,2.839897,4.12087813884674,9.00762642215478,0.601785334810319,-0.21166481,-0.83658,-1.6869044,308.3167,-65.685684,6.859467,CSO
2408620810000,2.844897,4.05804511533896,9.02634664206303,0.738515686185739,-0.17379116,-0.691194,-1.690875,308.71698,-66.00742,6.714562,CSO
2408626078000,2.850165,3.96526631296498,9.01791202934047,0.987331767844186,-0.14782938,-0.56107974,-1.7150042,309.06766,-66.32923,6.547459,CSO
2408631926000,2.856013,3.81293726847291,9.1214601773399,1.27659311871921,-0.13103059,-0.3454443,-1.7947221,309.36157,-66.65951,6.328329,CSO
2408635820000,2.859907,3.64901604059871,9.3334274629784,1.48573400075028,-0.1518,-0.25289822,-1.8280143,309.6441,-66.97787,6.1168184,CSO
2408640838000,2.864925,3.43777908079576,9.60657893687003,1.75524323188329,-0.13652839,-0.048258353,-1.9092593,309.82977,-67.2647,5.812404,CSO
2408645804000,2.869891,3.3369807965721,9.82943404904857,2.12377481083328,-0.13622294,0.12736541,-1.9908098,309.9963,-67.53631,5.497238,CSO
2408651069000,2.875156,3.32658953765886,10.0234039260837,2.60523683549495,-0.17195857,0.21380283,-2.053729,310.13318,-67.79788,5.158939,CSO
2408655807000,2.879894,3.31723839146115,10.1979583947242,3.03850693480113,-0.24312437,0.16982053,-2.0995438,310.23984,-68.02362,4.727742,CSO
2408660806000,2.884893,3.35740579429182,10.3773738176876,3.38939662174546,-0.3640757,0.10140363,-2.143526,310.33224,-68.216225,4.2830615,CSO
2408665807000,2.889894,3.42714690213572,10.5540521906611,3.67766031091156,-0.49693888,0.055588737,-2.189341,310.4316,-68.375565,3.8371828,CSO
2408670801000,2.894888,3.47240320312799,10.6931279676827,3.82800840536227,-0.6236934,0.059864793,-2.2363777,310.5103,-68.38838,3.3673139,CSO
2408676070000,2.900157,3.50058873731248,10.8098965252154,3.87632646396425,-0.7339546,0.06352998,-2.278833,310.60547,-68.36024,2.9019158,CSO
2408680796000,2.904883,3.52523715129876,10.9147894134021,3.9125384369236,-0.80848014,0.064446285,-2.3051,310.70358,-68.24479,2.4423883,CSO
2408685829000,2.909916,3.54154996492089,11.0289783422455,3.83913107371182,-0.86559606,0.04428773,-2.324953,310.81158,-68.09767,1.9857812,CSO
2408690724000,2.914811,3.5574154969456,11.1400363209239,3.76773646951519,-0.9049969,0.017715093,-2.3283129,310.935,-67.916626,1.5403179,CSO
2408695782000,2.919869,3.50174267930534,11.1000961322137,3.6837018528397,-0.9401216,-0.05100725,-2.3075435,311.0761,-67.716354,1.1127435,CSO
2408700766000,2.924853,3.41429695356489,10.9907890225954,3.59625608905344,-0.95630956,-0.13255776,-2.2956316,311.23035,-67.50725,0.6959894,CSO
2408705812000,2.929899,3.30816292819298,10.8814592332544,3.52001063021753,-0.9999864,-0.19120082,-2.2809708,311.40842,-67.29073,0.2999372,CSO
2408710751000,2.934838,3.00254243762653,10.7897733945725,3.58622844040491,-1.0216721,-0.23151793,-2.2699752,311.60297,-67.07413,-0.07865991,CSO
2408715833000,2.93992,2.67886074978067,10.7005950917953,3.64975453267262,-1.0528263,-0.28893927,-2.2855523,311.83093,-66.84024,-0.46494627,CSO
2408720750000,2.944837,2.33458583067425,10.6317401159626,3.69565782326564,-1.0781772,-0.2666427,-2.3283129,312.05078,-66.60014,-0.8517525,CSO
2408726184000,2.950271,1.95411198271324,10.555645355199,3.74638763434606,-1.1016954,-0.2678644,-2.3515258,312.29407,-66.325035,-1.2775544,CSO
2408730775000,2.954862,1.55966147687188,10.5374002576262,3.83074745701608,-1.0958922,-0.30665436,-2.3887885,312.54816,-66.04832,-1.7068163,CSO
2408735817000,2.959904,1.10884690274542,10.5284732889628,3.93340822584581,-1.1227703,-0.34300083,-2.450486,312.80862,-65.7218,-2.2247128,CSO
2408740744000,2.964831,0.672648454824642,10.637683657455,4.10765172053801,-1.1731668,-0.37232238,-2.5079072,313.08142,-65.385605,-2.7357945,CSO
2408745745000,2.969832,0.23293480896805,10.8311574344473,4.33630279416085,-1.2351695,-0.4098906,-2.5717428,313.37405,-65.03319,-3.2476087,CSO
2408751061000,2.975148,-0.23526188367696,11.0314577738717,4.55753631824228,-1.2932017,-0.43127087,-2.6215281,313.6762,-64.61924,-3.8556614,CSO
2408755813000,2.9799,-0.654679625297862,11.2044138685036,4.7304920968266,-1.3561208,-0.48258355,-2.6847527,314.0055,-64.17892,-4.4608994,CSO
2408760723000,2.98481,-1.07590364299256,11.356756073387,4.86264971144634,-1.4013249,-0.5861252,-2.7605,314.3603,-63.667046,-5.155567,CSO
2408765742000,2.989829,-1.47763752984405,11.4498405929059,4.88714566456019,-1.4159856,-0.6786713,-2.8393016,314.73407,-63.138515,-5.8438025,CSO
2408771092000,2.995179,-1.71214208085443,11.5996270079114,4.79819992088608,-1.4288138,-0.754724,-2.9095511,315.1432,-62.542072,-6.6093273,CSO
2408776062000,3.000149,-1.63683078151611,11.8152908355869,4.54145709867664,-1.4315627,-0.7984009,-2.9562824,315.57483,-61.937977,-7.3598094,CSO
2408780805000,3.004892,-1.56495925379747,12.0211044240506,4.29644075949367,-1.3952162,-0.82924956,-2.9862146,316.03333,-61.309105,-8.166914,CSO
2408785810000,3.009897,-1.35705252292871,12.1547143416827,4.15502429601798,-1.317331,-0.8396343,-3.0143147,316.50308,-60.684925,-8.95944,CSO
2408790782000,3.014869,-1.05123442394715,12.2246161271676,4.10259804814203,-1.2391402,-0.8402451,-3.0085113,316.97693,-60.070305,-9.726011,CSO
2408795801000,3.019888,-0.748637660491036,12.2350565356354,4.10461774330125,-1.169807,-0.8738427,-2.990491,317.47717,-59.555542,-10.430829,CSO
2408801101000,3.025188,-0.439334631435132,12.1454030780712,4.1987536163031,-1.149343,-0.93615097,-2.946203,317.9782,-59.049564,-11.105805,CSO
2408805813000,3.0299,-0.158829208636021,12.0513465101733,4.25625208711379,-1.1527027,-1.0491611,-2.8997774,318.5235,-58.585903,-11.678086,CSO
2408810895000,3.034982,0.182259557700075,11.8496274922381,4.13522052316503,-1.2027937,-1.149343,-2.8674014,319.07495,-58.11912,-12.221983,CSO
2408815719000,3.039806,0.506032129287114,11.6581492272796,4.0203334187792,-1.2644911,-1.2281445,-2.8069258,319.6688,-57.651833,-12.660127,CSO
2408820804000,3.044891,0.942091122822501,11.1782157938799,3.84565428383372,-1.2922854,-1.2709051,-2.7424796,320.27197,-57.189415,-13.068836,CSO
2408826098000,3.050185,1.51080998918674,10.3418646610855,3.59893065381062,-1.2880094,-1.3090842,-2.6627617,320.88098,-56.73421,-13.437388,CSO
2408830888000,3.054975,1.99517334435544,9.61483677958543,3.38650012653398,-1.2605205,-1.3350459,-2.5561657,321.50653,-56.315876,-13.699589,CSO
2408835798000,3.059885,2.04565547549756,9.30806092030721,3.3282515261541,-1.2116512,-1.3891076,-2.4920247,322.14166,-55.915802,-13.9347105,CSO
2408840770000,3.064857,2.09677505921216,8.99741131290776,3.26926740373276,-1.1844677,-1.4489723,-2.4260514,322.81146,-55.52177,-14.048786,CSO
2408845803000,3.06989,2.15408837473574,8.78366500861043,3.26743413021351,-1.151481,-1.4605788,-2.3561072,323.4714,-55.158188,-14.137978,CSO
2408850970000,3.075057,2.21644044642632,8.62778473895695,3.30207429864893,-1.1209377,-1.4474452,-2.2971587,324.1305,-54.815617,-14.201809,CSO
2408855852000,3.079939,2.27535331927196,8.48050247140357,3.3348037939657,-1.0998629,-1.423316,-2.2235496,324.7943,-54.4704,-14.237417,CSO
2408860751000,3.084838,2.38187239889608,8.22970732127903,3.30096534940997,-1.0555751,-1.3313808,-2.1395555,325.42578,-54.155064,-14.262515,CSO
2408865760000,3.089847,2.50513050359726,7.94210501341835,3.24618391657785,-1.0064005,-1.2339478,-2.0482311,326.0355,-53.863575,-14.267153,CSO
2408870808000,3.094895,2.57520886872005,7.65451231314803,3.25238443764921,-0.9272934,-1.1319333,-1.9401081,326.6264,-53.583065,-14.244446,CSO
2408876114000,3.100201,2.61948403376318,7.35344154221486,3.29223209543435,-0.8249735,-1.0424415,-1.8536706,327.18362,-53.33632,-14.213676,CSO
2408880797000,3.104884,2.63948027992197,7.08434775949594,3.32658977027312,-0.7281514,-0.98899084,-1.7418822,327.72128,-53.111225,-14.141378,CSO
2408886692000,3.110779,2.62757366049773,6.73905560970157,3.36826293825794,-0.6417139,-0.91904676,-1.6316211,328.21747,-52.92556,-14.061897,CSO
2408890850000,3.114937,2.53936687995837,6.52000868464665,3.36916991020914,-0.537256,-0.8713993,-1.4914275,328.7068,-52.74899,-13.946531,CSO
2408895748000,3.119835,2.36734119693726,6.28289222757459,3.34592322252949,-0.43371433,-0.8170323,-1.4321736,329.17102,-52.602856,-13.833172,CSO
2408901091000,3.125178,2.12194778666721,5.99456460977792,3.29678839696575,-0.3903429,-0.8313876,-1.3747523,329.63428,-52.449123,-13.687181,CSO
2408905789000,3.129876,1.85111108669161,5.71274804978443,3.23090916042463,-0.32650748,-0.8194757,-1.2883148,330.06116,-52.341537,-13.530881,CSO
2408911130000,3.135217,1.54267256967397,5.39571232463923,3.15401976694816,-0.25259277,-0.77518797,-1.1838568,330.47614,-52.223103,-13.39656,CSO
2408915747000,3.139834,1.26853736800641,5.16884168017103,3.05949030707643,-0.17134771,-0.82833326,-1.0571023,330.8909,-52.138523,-13.219978,CSO
2408920927000,3.145014,0.9840519992088,4.93802381966422,2.9826891741895,-0.09621128,-0.84299403,-0.9550878,331.27124,-52.03002,-13.117135,CSO
2408926083000,3.15017,0.836356279795446,4.84750079727904,3.07797682015631,-0.03145956,-0.818254,-0.8762862,331.635,-51.953796,-12.985842,CSO
2408930859000,3.154946,0.698550516385566,4.7615733350588,3.16280282444467,0.06383542,-0.8029824,-0.8222246,331.98575,-51.884342,-12.895437,CSO
2408935771000,3.159858,0.542518548002814,4.64336713383255,3.2006286804704,0.15485434,-0.7684685,-0.7360926,332.30487,-51.844193,-12.785391,CSO
2408940802000,3.164889,0.387704456476356,4.52433548087427,3.24053172290139,0.23823744,-0.70463306,-0.66523224,332.61557,-51.791756,-12.702706,CSO
2408945749000,3.169836,0.309554128771994,4.43750189424487,3.29697371968475,0.32742378,-0.61850107,-0.5821546,332.89383,-51.77612,-12.606224,CSO
2408951694000,3.175781,0.219781669428892,4.33126282526352,3.36752030650596,0.41691554,-0.52778757,-0.5198463,333.15186,-51.751804,-12.5454,CSO
2408956692000,3.180779,0.211510566717643,4.21133172583377,3.47090907960083,0.52778757,-0.39003745,-0.44684792,333.36053,-51.766598,-12.485294,CSO
2408960804000,3.184891,0.204705689897183,4.11266092134094,3.5559700309746,0.6377433,-0.2733622,-0.39187005,333.5557,-51.774548,-12.445456,CSO
2408965763000,3.18985,0.186232685316738,4.05560591855842,3.66040042909158,0.7309003,-0.17898351,-0.35643986,333.71326,-51.812252,-12.412722,CSO
2408970813000,3.1949,0.159279569767787,4.04662155296303,3.76821291005016,0.8246681,-0.09407325,-0.33292156,333.83716,-51.882656,-12.388088,CSO
2408976109000,3.200196,0.204977956322268,4.06467387079448,3.88781922372249,0.91965765,0.027794369,-0.29749137,333.94308,-51.931755,-12.377432,CSO
2408980850000,3.204937,0.3277591576837,4.11124592866468,4.00213262949459,0.9972375,0.11575896,-0.2144137,334.024,-52.006634,-12.3586,CSO
2408985722000,3.209809,0.425122674804104,4.16422523507463,4.10302132509328,1.0910053,0.13958271,-0.13072516,334.09793,-52.08388,-12.343241,CSO
2408990818000,3.214905,0.440297868759328,4.23504315547264,4.15866390892413,1.1337659,0.19364429,-0.0870483,334.13623,-52.170166,-12.337513,CSO
2408995733000,3.21982,0.457492475182013,4.31774568094218,4.17495476488223,1.2183707,0.24281894,-0.0061086523,334.16684,-52.294098,-12.264849,CSO
2409001113000,3.2252,0.482009816588944,4.44033223863907,4.10957502850345,1.2962561,0.28619036,0.09896017,334.17386,-52.4317,-12.184565,CSO
2409005787000,3.229874,0.503309826577048,4.54683215883893,4.05277486347847,1.3579534,0.3222314,0.21777347,334.16055,-52.594257,-12.0790415,CSO
2409010773000,3.23486,0.349130941303448,4.88133171032387,3.86086476647355,1.4407257,0.35338554,0.33353242,334.1203,-52.78997,-11.9566145,CSO
2409015784000,3.239871,0.153144312997246,5.26874721186248,3.63753122127457,1.4990633,0.4092797,0.44226643,334.0463,-53.002747,-11.818876,CSO
2409020780000,3.244867,0.000236246602081464,5.48855311967108,3.51352722258127,1.5558738,0.47067168,0.5503896,333.93555,-53.28753,-11.646242,CSO
2409025826000,3.249913,-0.136361529138892,5.64067338984967,3.42970588825003,1.5995506,0.54428095,0.6722572,333.78824,-53.591133,-11.456979,CSO
2409033112000,3.257199,-0.335980049715567,5.87101414593741,3.30551081982873,1.6679676,0.6435465,0.8323039,333.5558,-54.0283,-11.284921,CSO
2409035787000,3.259874,-0.430000493746559,6.04860826587828,3.2323837538689,1.7647897,0.66981375,0.8894198,333.32242,-54.47994,-11.1085,CSO
2409040743000,3.26483,-0.604193136968091,6.37763871762667,3.09690048699154,1.7993035,0.7458665,0.9969321,332.9975,-54.99597,-10.950627,CSO
2409045742000,3.269829,-0.719666085999685,6.69042162962089,3.01491188980651,1.9037615,0.8191703,1.1154399,332.66006,-55.55511,-10.778952,CSO
2409051130000,3.275217,-0.804894676938808,7.01510211126317,2.96215131736668,1.9837849,0.8686504,1.2269229,332.2983,-56.117725,-10.590358,CSO
2409055817000,3.279904,-0.868534112671034,7.3282715650655,2.93791891477438,2.0567832,0.89369583,1.3500122,331.8837,-56.775692,-10.408264,CSO
2409060761000,3.284848,-0.837903210041242,7.94471855895197,3.11404673583212,2.1022928,0.88606006,1.4651603,331.45584,-57.446568,-10.201502,CSO
2409065744000,3.289831,-0.80703068014556,8.56602830218341,3.2915639147016,2.1368067,0.8512407,1.568091,330.9983,-58.19411,-9.976613,CSO
2409070737000,3.294824,-0.849619982570081,8.97489724817831,3.38634335528504,2.1303926,0.7837401,1.6557503,330.54514,-58.93847,-9.719385,CSO
2409076043000,3.30013,-0.945455362542649,9.26240375653665,3.42990481927132,2.1184807,0.69027776,1.7394388,330.10233,-59.68579,-9.427794,CSO
2409080744000,3.304831,-1.02110597596722,9.48521147971003,3.46862414941297,2.0971005,0.58551437,1.813048,329.66702,-60.475887,-9.065302,CSO
2409085776000,3.309863,-1.07806424302261,9.64089738058466,3.51039359547711,2.05434,0.5357288,1.861001,329.2443,-61.243717,-8.684921,CSO
2409090712000,3.314799,-1.13393586587345,9.79361312118824,3.55136616816642,2.0390682,0.43310347,1.8784106,328.8602,-62.01885,-8.290068,CSO
2409096116000,3.320203,-1.15555860821627,9.92099476527279,3.57525575021235,1.9929478,0.22540927,1.91323,328.51862,-62.760025,-7.862624,CSO
2409100881000,3.324968,-1.16301265758739,10.021623672901,3.59016377112055,1.881465,0.14660765,1.9156734,328.1827,-63.45867,-7.447178,CSO
2409105763000,3.32985,-1.15730404550411,10.1409864857738,3.6230122801031,1.8490891,0.017715093,1.9168952,327.91803,-64.15503,-7.0074883,CSO
2409110776000,3.334863,-1.11922845429761,10.3028079347675,3.69916336312085,1.7757853,-0.10598512,1.9156734,327.6817,-64.79083,-6.5655084,CSO
2409115727000,3.339814,-1.06760579188406,10.5023667039337,3.81160875155279,1.7214183,-0.2406809,1.9172006,327.48923,-65.412544,-6.111864,CSO
2409120746000,3.344833,-0.976743801978576,10.8138934903232,4.02794703359438,1.6893479,-0.4007276,1.9257526,327.34323,-66.002304,-5.647141,CSO
2409125909000,3.349996,-0.892167526828066,11.1249504710576,4.232949,1.6783522,-0.5571091,1.9254472,327.24185,-66.56439,-5.1648946,CSO
2409130785000,3.354872,-0.910431163814925,11.3148924879537,4.232949,1.702176,-0.70371675,1.9404135,327.184,-67.110596,-4.6689205,CSO
2409135770000,3.359857,-0.929103073244681,11.5090805425532,4.232949,1.7321084,-0.84574294,1.9391917,327.17914,-67.619675,-4.1406965,CSO
2409140736000,3.364823,-0.93852705,11.699140289077,4.1796565170349,1.7550159,-0.97524637,1.9086485,327.21606,-68.113785,-3.6134348,CSO
2409145749000,3.369836,-0.93852705,11.8874864519926,4.07061357127813,1.7669277,-1.078788,1.8671097,327.2893,-68.59393,-3.0888402,CSO
2409151002000,3.375089,-0.971501756676136,11.9655123948864,3.91234319715909,1.7687603,-1.1478158,1.8112154,327.3959,-69.07601,-2.580312,CSO
2409155810000,3.379897,-1.02382597769886,11.956791975947,3.73792926367424,1.7592919,-1.1872166,1.72264,327.53357,-69.53742,-2.0955539,CSO
2409160764000,3.384851,-1.07258334927392,11.8816948527949,3.51587501583449,1.7253889,-1.208597,1.6114625,327.6941,-70.00735,-1.6370013,CSO
2409165858000,3.389945,-1.11625332866521,11.7215712910284,3.23444615842451,1.6649132,-1.2034045,1.5048665,327.86984,-70.44804,-1.2102048,CSO
2409170736000,3.394823,-1.10713027073465,11.5191674737624,2.98429045639454,1.6154331,-1.1609493,1.4110987,328.05362,-70.90009,-0.8334568,CSO
2409175982000,3.400069,-1.0278065313272,11.2345353097427,2.74165308999721,1.5482379,-1.0925325,1.3185526,328.24185,-71.3141,-0.49615884,CSO
2409180752000,3.404839,-0.958714552167065,10.9780902266508,2.56335477907717,1.502423,-1.0512991,1.244638,328.4365,-71.74862,-0.19748424,CSO
2409185780000,3.409867,-0.893592256167064,10.7137706266508,2.48290957907717,1.4288138,-0.97219205,1.1921035,328.6113,-72.143524,0.06616149,CSO
2409190717000,3.414804,-0.829648585651551,10.4542348539379,2.40392032840096,1.3839152,-0.9053023,1.0647382,328.79456,-72.551315,0.2971077,CSO
2409195810000,3.419897,-0.523590035239159,10.2379734041557,2.20424735398325,1.325883,-0.86742866,0.93370754,328.97076,-72.924515,0.50291324,CSO
2409201169000,3.425256,-0.123162956722733,10.0272220146189,1.95556101361695,1.2718215,-0.8622363,0.8179486,329.14862,-73.277794,0.6706476,CSO
2409205764000,3.429851,0.199692251737354,10.0004081196498,1.81028664644942,1.241889,-0.84665924,0.6805039,329.3262,-73.613,0.8045374,CSO
2409211673000,3.43576,0.56851388857821,10.3141817677043,1.77725780811284,1.2522738,-0.7828238,0.5164866,329.5011,-73.93951,0.89159596,CSO
2409215724000,3.439811,0.859732815213914,10.5286890515794,1.66814013230708,1.2745703,-0.70188415,0.3567453,329.6753,-74.296104,1.0290797,CSO
2409220742000,3.444829,1.31608620773691,10.7928934730108,1.31746860867653,1.2977833,-0.6236934,0.22418754,329.84338,-74.65136,1.1205726,CSO
2409225898000,3.449985,1.76210712025957,11.0569391942367,1.02579064806423,1.3200798,-0.4728097,0.08460484,329.97998,-75.0253,1.2146719,CSO
2409230817000,3.454904,2.13516024980202,11.2918245100455,0.904893797521631,1.3695599,-0.27152961,-0.016187929,330.0873,-75.40822,1.2707669,CSO
2409235782000,3.459869,2.51170198352398,11.5289063545241,0.78286638078164,1.432479,-0.108123146,-0.09193522,330.17285,-75.87099,1.3755684,CSO
2409240744000,3.464831,2.98071993225458,11.8915584880847,0.720165153368638,1.5115861,0.01740966,-0.15577064,330.21796,-76.34489,1.4417316,CSO
2409245760000,3.469847,3.53189770830637,12.3626507599294,0.70603239997058,1.5974126,0.1432479,-0.18234327,330.2187,-76.82989,1.4845771,CSO
2409251019000,3.475106,4.03892784314842,12.7485056208519,0.741179543164933,1.6710218,0.2751948,-0.1740966,330.17978,-77.35832,1.6083621,CSO
2409255790000,3.479877,4.44250477969292,13.0125281292719,0.812842727934621,1.6957619,0.3894266,-0.12095132,330.1078,-77.88263,1.7280042,CSO
2409260803000,3.48489,4.85684299453964,13.2595109558525,0.888926806505954,1.6811012,0.4877759,-0.00580322,329.99252,-78.40143,1.9596553,CSO
2409265754000,3.489841,5.17358395051796,13.2136059970956,0.971554965340304,1.6035212,0.56138515,0.14905111,329.84607,-78.88356,2.2065868,CSO
2409271072000,3.495159,5.47012537100718,13.1230952128717,1.06089935250414,1.5012014,0.5891795,0.34513888,329.67093,-79.293816,2.5784795,CSO
2409276037000,3.500124,5.26011397696979,12.57931552165,1.15090420209796,1.3891076,0.605062,0.55924714,329.47058,-79.635315,2.985281,CSO
2409281720000,3.505807,5.01973235515419,11.9568986061992,1.2539248587428,1.2657127,0.5656612,0.76052725,329.26715,-79.8569,3.4940877,CSO
2409285835000,3.509922,4.67131181647978,11.6813886239487,1.3383145437525,1.1462886,0.5180137,0.8512407,329.05917,-79.99736,4.017502,CSO
2409290807000,3.514894,4.11353674775731,11.4859294873849,1.44796267503004,1.0778717,0.35613444,0.9831876,328.8866,-80.04689,4.6015944,CSO
2409295759000,3.519846,3.56852140757576,11.4056873939394,1.45828643484848,0.93951076,0.10567969,1.0424415,328.7567,-79.98577,5.148959,CSO
2409300925000,3.525012,3.01132996649652,11.4457730760006,1.3620807560444,0.7825184,-0.15424347,1.0711522,328.67316,-79.854935,5.7204723,CSO
2409305968000,3.530055,2.46139102342164,11.4818854028225,1.26806263816951,0.6560693,-0.38637227,1.0906999,328.6592,-79.69538,6.208284,CSO
2409310764000,3.534851,1.84731831983164,11.4705134563011,1.17708892629364,0.5833763,-0.54550266,1.0989466,328.69843,-79.49117,6.699308,CSO
2409315841000,3.539928,1.19726679436742,11.4584752218371,1.08078501987291,0.55741453,-0.61819565,1.0760391,328.791,-79.349045,7.065221,CSO
2409320737000,3.544824,0.509100101892581,11.4088347708184,1.08439541820065,0.56169057,-0.73945236,1.026559,328.94345,-79.19324,7.42709,CSO
2409326018000,3.550105,-0.276791014634632,11.328230189019,1.15693920515579,0.54611355,-0.8756753,0.94225967,329.12296,-79.03319,7.7689676,CSO
2409330781000,3.554868,-1.04421669570961,11.2269460737548,1.21251260340837,0.50823987,-0.9831876,0.86376345,329.3426,-78.98219,7.958657,CSO
2409335798000,3.559885,-2.45171908610313,10.8280897681992,1.17032587262133,0.44898596,-1.0320568,0.7874053,329.58643,-78.93862,8.124125,CSO
2409340772000,3.564859,-3.84715797185505,10.4326520038314,1.12850071835888,0.38423425,-1.0360274,0.6817256,329.8604,-79.00974,8.09121,CSO
2409345742000,3.569829,-4.58462389610992,10.1705237545108,1.05387836878,0.3213151,-0.98654735,0.56382865,330.13354,-79.08752,8.032966,CSO
2409351945000,3.576032,-4.9091334663218,9.96401807043536,0.930958032693263,0.23793201,-0.88331115,0.42577308,330.3941,-79.17406,7.937767,CSO
2409355823000,3.57991,-5.02321673526359,9.85048755539335,0.874895264708029,0.16310102,-0.7254025,0.30665436,330.6454,-79.46837,7.503327,CSO
2409360877000,3.584964,-4.77591152160584,9.77197798978102,0.894522676605839,0.07788532,-0.573297,0.1777618,330.8696,-79.75729,7.029995,CSO
2409365747000,3.589834,-4.53760990100568,9.69632670673155,0.913435517116788,-0.004581489,-0.45662177,0.06658431,331.06622,-80.07383,6.478582,CSO
2409370741000,3.594828,-4.12577707629428,9.73285415531335,0.908413610081744,-0.103847094,-0.3811799,-0.0067195175,331.2306,-80.35659,5.90535,CSO
2409375929000,3.600016,-3.62117868547601,9.82310762075799,0.892003898827512,-0.17073683,-0.34238997,-0.06383542,331.37225,-80.6109,5.3108664,CSO
2409380754000,3.604841,-3.13141884943324,9.90087119836695,0.859687199817483,-0.21166481,-0.34300083,-0.08093964,331.4996,-80.78232,4.769566,CSO
2409385777000,3.609864,-2.56766058674352,9.96556463976945,0.781130712680115,-0.20708331,-0.38606682,-0.11575896,331.62845,-80.925,4.2149878,CSO
2409390799000,3.614886,-1.95049685865898,10.0050453337604,0.654738234640188,-0.18875736,-0.48349985,-0.15454891,331.77087,-80.996414,3.772925,CSO
2409395743000,3.61983,-1.13154180437754,9.94438183087764,0.341311009152253,-0.13988814,-0.600786,-0.18784106,331.93054,-81.056145,3.3314471,CSO
2409400926000,3.625013,-0.272997296622535,9.88078576788384,0.0127322652800911,-0.06047566,-0.7290677,-0.20005837,332.11993,-81.09641,3.0046144,CSO
2409405802000,3.629889,0.408565465316901,9.80464912793427,-0.267656016173709,0.021991149,-0.8558222,-0.19150625,332.34103,-81.13861,2.6837695,CSO
2409410804000,3.634891,0.914585060416667,9.70157143055556,-0.511295089722222,0.1001819,-0.92087936,-0.1695151,332.57922,-81.18842,2.3706148,CSO
2409415730000,3.639817,1.3124587447205,9.60299968322981,-0.644045229440994,0.16890424,-0.96577793,-0.13255776,332.85065,-81.28973,2.2947137,CSO
2409421243000,3.64533,1.53654507360248,9.49915496614907,-0.556596859204969,0.21166481,-0.9896017,-0.099265605,333.13202,-81.40205,2.2262108,CSO
2409425931000,3.650018,1.61118653171715,9.4806454448826,-0.439694541339846,0.20952678,-1.022283,-0.09040806,333.4299,-81.54185,2.2623167,CSO
2409430887000,3.654974,1.55163489282129,9.54445072468184,-0.265293332180498,0.19364429,-1.0219775,-0.076052725,333.7221,-81.68409,2.3075228,CSO
2409435798000,3.659885,1.46960226822521,9.63161507656341,-0.0650748969842198,0.15668693,-1.0216721,-0.061391957,334.02066,-81.78994,2.3927472,CSO
2409440782000,3.664869,1.2836260511202,9.82688971127995,0.260383550917592,0.1282817,-1.0149527,-0.07269296,334.3164,-81.891945,2.4725382,CSO
2409445743000,3.66983,1.10382446649369,10.0243047126776,0.581903799888232,0.09590584,-1.0137309,-0.09468412,334.61053,-81.94655,2.537841,CSO
2409450962000,3.675049,0.956186722912342,10.2557369053169,0.901120522497206,0.059864793,-1.0235047,-0.11881329,334.90497,-81.99232,2.598049,CSO
2409455824000,3.679911,0.818647978077599,10.4713382313588,1.19850157352706,0.0106901415,-1.0100657,-0.15302174,335.18808,-81.976654,2.6062527,CSO
2409460759000,3.684846,0.666161861383064,10.6483613921656,1.4172674740787,-0.0711658,-0.9505063,-0.18784106,335.46033,-81.94493,2.605786,CSO
2409465742000,3.689829,0.504351699568127,10.8016552259302,1.58759394615865,-0.17073683,-0.86742866,-0.21563543,335.72165,-81.89792,2.5961595,CSO
2409470736000,3.694823,0.345688474666119,10.8160229464514,1.61755778957307,-0.30024028,-0.7855727,-0.24404067,335.96332,-81.7617,2.5351439,CSO
2409476158000,3.700245,0.179898419652436,10.5744432188469,1.39018857889984,-0.41508293,-0.75716746,-0.27763826,336.19687,-81.60601,2.4652987,CSO
2409480790000,3.704877,0.0971195172686306,10.3738907385463,1.20983851266461,-0.50793445,-0.71929383,-0.2874121,336.40393,-81.39413,2.3551702,CSO
2409485772000,3.709859,0.256383983509138,10.1827732692982,1.07446371552867,-0.5537493,-0.70463306,-0.3115413,336.61093,-81.1679,2.2344568,CSO
2409490765000,3.714852,0.416000097507302,9.99123382249854,0.938790017796879,-0.60231316,-0.7284568,-0.31948254,336.82437,-80.9599,2.0930536,CSO
2409495766000,3.719853,0.615715016560439,9.78765425934066,0.818122410967033,-0.6206391,-0.7473936,-0.30970868,337.03174,-80.747406,1.9524883,CSO
2409501127000,3.725214,0.841390885663265,9.56600846938775,0.693194691326531,-0.6282749,-0.77549344,-0.27183503,337.2467,-80.523285,1.8225737,CSO
2409505809000,3.729896,1.01374195073986,9.3689162788385,0.584642346809865,-0.6383542,-0.8216137,-0.21074851,337.4753,-80.31406,1.7485522,CSO
2409510830000,3.734917,1.12467824949881,9.14704360143198,0.469880661193317,-0.6560693,-0.86101454,-0.14355333,337.7067,-80.100586,1.6900859,CSO
2409515723000,3.73981,1.23278645699284,8.93082710859189,0.358044587159905,-0.65179324,-0.8979719,-0.0870483,337.95218,-79.90675,1.7058097,CSO
2409520806000,3.744893,1.18814308075802,8.742438491212,0.270076327816743,-0.65026605,-0.91324353,-0.034208454,338.19812,-79.70756,1.7407757,CSO
2409525957000,3.750044,1.08130563411079,8.56574610453978,0.192002811753436,-0.6291912,-0.9251554,0.008857546,338.4496,-79.516396,1.7906754,CSO
2409530743000,3.75483,0.949148368068331,8.52948712877792,0.175214035137976,-0.59589905,-0.9379836,0.04734206,338.70816,-79.346855,1.8874253,CSO
2409535771000,3.759858,0.74124519303548,8.75998794049183,0.274645996211751,-0.54000485,-0.93370754,0.07544186,338.96207,-79.190735,1.9922892,CSO
2409540799000,3.764886,0.534453943142564,9.0214766870507,0.348987932419009,-0.4801401,-0.9098838,0.08582657,339.2132,-79.06193,2.0805528,CSO
2409545740000,3.769827,0.335653170264214,9.40140734207824,0.322481162701895,-0.40286562,-0.8689558,0.07574729,339.4564,-78.9555,2.1687589,CSO
2409550983000,3.77507,0.136670767072581,9.79920784946236,0.288429932301564,-0.33017266,-0.79809546,0.048563786,339.68213,-78.8591,2.204966,CSO
2409555794000,3.779881,0.0653603791451613,10.114474921147,0.2021068263203,-0.258396,-0.7031059,0.009162978,339.88922,-78.78727,2.2306175,CSO
2409560782000,3.784869,-0.00857356701612903,10.4413408853047,0.112607833879114,-0.2180789,-0.57726765,-0.018020526,340.06952,-78.7565,2.2012343,CSO
2409565745000,3.789832,0.0338016988320432,10.7141283358118,0.0333490973562844,-0.19822577,-0.45570546,-0.052534413,340.22568,-78.74299,2.1540182,CSO
2409570775000,3.794862,0.156462468847321,10.9545431748829,-0.0402473665997148,-0.16371189,-0.34972036,-0.06994407,340.35037,-78.74533,2.0984528,CSO
2409576047000,3.800134,0.331300770548148,11.0718927444444,-0.00736823191358024,-0.14019357,-0.32375857,-0.076358154,340.46884,-78.79068,2.0162363,CSO
2409580794000,3.804881,0.510900198508642,11.1130509925926,0.0749481667078189,-0.12950343,-0.3115413,-0.07696902,340.56134,-78.84086,1.9273051,CSO
2409585822000,3.809909,0.701082234929603,11.1327547967895,0.16104683199175,-0.09437868,-0.34880406,-0.063224554,340.66635,-78.92122,1.8682349,CSO
2409590740000,3.814827,0.886926049923774,11.0651751876065,0.241297574895525,-0.07513642,-0.44226643,-0.053145275,340.7833,-78.99812,1.8115426,CSO
2409596138000,3.820225,1.086643174156,10.9854177464494,0.322692687860303,-0.056199603,-0.5177083,-0.03848451,340.9074,-79.054726,1.8069972,CSO
2409600770000,3.824857,1.17615455203725,10.8098378051222,0.26416602157858,-0.041233405,-0.5757405,-0.02687807,341.05173,-79.11388,1.8083581,CSO
2409606812000,3.830899,1.29291356437718,10.5808106018626,0.18782359548312,-0.02565634,-0.63255095,0.030543262,341.21817,-79.14623,1.8736119,CSO
2409610741000,3.834828,1.3184092977819,10.456513231581,0.115385833931991,-0.03268129,-0.6389651,0.04153884,341.3875,-79.177086,1.9280721,CSO
2409615747000,3.839834,1.2856175520129,10.3300307766269,-0.00641198528630058,-0.026572637,-0.6377433,0.056199603,341.56628,-79.21187,2.0005572,CSO
2409620723000,3.84481,1.25336321102271,10.2256323939168,-0.113129502133267,-0.015577064,-0.6301075,0.07391469,341.74844,-79.2477,2.1035066,CSO
2409626075000,3.850162,1.21938009575667,10.1576660746726,-0.198087352396818,0.0009162979,-0.59223384,0.0870483,341.92004,-79.28468,2.2053764,CSO
2409631288000,3.855375,1.1862617898117,10.0926916980498,-0.279147498096839,0.004276057,-0.5534439,0.086132,342.0904,-79.3412,2.3018148,CSO
2409635829000,3.859916,1.15701612366342,10.063446222764,-0.3120488524731,0.028710667,-0.49480084,0.08582657,342.24274,-79.40541,2.3969657,CSO
2409640852000,3.864939,1.12466620490921,10.0310965151311,-0.348442488903833,0.047036625,-0.44837508,0.07574729,342.39142,-79.484665,2.4813073,CSO
2409645811000,3.869898,1.11752833014526,10.0151337105435,-0.355093681865513,0.08307768,-0.40439278,0.058948494,342.52377,-79.5739,2.558947,CSO
2409651205000,3.875292,1.13017495798923,10.0109180798923,-0.338231502603232,0.10415252,-0.35735616,0.051923547,342.64142,-79.66184,2.632311,CSO
2409655791000,3.879878,1.15664959542219,10.0081882485442,-0.313704720540278,0.13652839,-0.33567044,0.0580322,342.75452,-79.76979,2.6960442,CSO
2409660809000,3.884896,1.31212163518279,10.01207512868,-0.204874268356519,0.1563815,-0.3182608,0.054061573,342.85574,-79.878876,2.7515278,CSO
2409665717000,3.889804,1.46418555928502,10.0158768041896,-0.0984294976674215,0.16798794,-0.30482176,0.06536258,342.9518,-79.98515,2.8144512,CSO
2409670816000,3.894903,1.56250539658267,10.0359099663445,-0.00970903734207801,0.16707164,-0.301462,0.08368854,343.0451,-80.090454,2.8766003,CSO
2409676372000,3.900459,1.63138109758371,10.0680516277183,0.0729417463237832,0.18753563,-0.28496864,0.10415252,343.12967,-80.200874,2.939988,CSO
2409680724000,3.904811,1.67649252560482,10.084377,0.125049813158882,0.19364429,-0.2733622,0.13744467,343.21683,-80.26304,3.0492203,CSO
2409685779000,3.909866,1.70995505824035,10.084377,0.158512370752444,0.18753563,-0.27488935,0.15974127,343.3019,-80.32362,3.158908,CSO
2409690784000,3.914871,1.71297373373603,10.0902136620149,0.199469268303826,0.18203785,-0.25381452,0.17623462,343.37772,-80.359116,3.2870176,CSO
2409695756000,3.919843,1.64354834763591,10.11004953593,0.258976727802541,0.18845193,-0.23701571,0.20952678,343.45264,-80.3894,3.423934,CSO
2409700795000,3.924882,1.57318742234257,10.1301527074221,0.319286077845588,0.19028452,-0.204029,0.23854288,343.51767,-80.40337,3.567495,CSO
2409705814000,3.929901,1.48146335980076,10.1398831284305,0.34652252885438,0.16584991,-0.2012801,0.26236662,343.5845,-80.40621,3.7168438,CSO
2409710795000,3.934882,1.36033297040727,10.1352241737474,0.327887079841781,0.14446963,-0.20372356,0.27000242,343.64224,-80.40613,3.8657627,CSO
2409715731000,3.939818,1.25425535107435,10.1168886921215,0.302370307489156,0.10873401,-0.17715092,0.28069258,343.68753,-80.38167,3.9978127,CSO
2409720741000,3.944828,1.17197389682235,10.0733280233027,0.263649602919399,0.106901415,-0.13133603,0.2782491,343.7276,-80.359726,4.1250615,CSO
2409725737000,3.949824,1.08635360529063,10.0358301339653,0.244540098760892,0.09865474,-0.10323623,0.2724459,343.7646,-80.337875,4.2281637,CSO
2409730793000,3.95488,0.993620983017332,10.0080102722398,0.258449990891506,0.07086037,-0.077579886,0.27152961,343.78864,-80.30955,4.3281384,CSO
2409735776000,3.959863,0.904877997336107,9.98436101846966,0.287974801639943,0.035430185,-0.08368854,0.267559,343.8142,-80.29049,4.409472,CSO
2409740756000,3.964843,0.822599467297544,9.9698414934037,0.355733569084636,0.0143553335,-0.08827003,0.25228736,343.83228,-80.26927,4.4846697,CSO
2409745717000,3.969804,0.764815249802229,9.959879,0.398238126630708,-0.008552114,-0.08155051,0.23701571,343.84665,-80.24367,4.5382376,CSO
2409750751000,3.974838,0.760481412046027,9.959879,0.385236604311399,-0.01985312,-0.064446285,0.23915374,343.85898,-80.21558,4.5911355,CSO
2409755780000,3.979867,0.767906019128877,9.96205944423494,0.369570657644951,-0.019242255,-0.042760566,0.22785273,343.86725,-80.18234,4.6183133,CSO
2409760882000,3.984969,0.887674350796644,9.98509179720939,0.328112393430753,-0.009773844,-0.01863139,0.23671028,343.8688,-80.14611,4.6503334,CSO
2409766108000,3.990195,1.00111903337609,10.0075609201489,0.289122881944559,0.0030543262,-0.00030543262,0.25778514,343.8666,-80.11446,4.680999,CSO
2409770750000,3.994837,0.899958325198593,10.0029626129499,0.330506811290856,0.007941248,0.032986723,0.25686884,343.8538,-80.08549,4.7057023,CSO
2409775921000,4.000008,0.782513748768597,9.99397195040767,0.372371712855342,0.0033597588,0.08857546,0.2883284,343.8313,-80.04799,4.76872,CSO
2409780776000,4.004863,0.610554639661259,9.93534956997562,0.356739069911742,-0.0018325958,0.10170906,0.28985557,343.8127,-80.01605,4.8223877,CSO
2409785764000,4.009851,0.433884807276624,9.87512126233504,0.340678179488947,-0.015577064,0.0983493,0.28527406,343.77914,-79.97904,4.8590455,CSO
2409790781000,4.014868,0.357748078981233,9.83248787310098,0.234404971224307,0.009162978,0.084910266,0.25045475,343.7461,-79.95491,4.88674,CSO
2409795759000,4.019846,0.334079461012809,9.79935211835965,0.0829257707516632,0.050396383,0.05100725,0.22266038,343.7198,-79.93172,4.9155,CSO
2409800809000,4.024896,0.377769754067938,9.79908766854869,-0.0350186352341725,0.12461651,0.04886922,0.20433442,343.68604,-79.947586,4.8948827,CSO
2409805775000,4.029862,0.457004439801,9.81669527332469,-0.131861036057942,0.18509217,0.10751228,0.18845193,343.646,-79.97367,4.866224,CSO
2409810831000,4.034918,0.49799395,9.84955499880335,-0.170083823158157,0.21655174,0.20677789,0.20005837,343.59772,-80.039635,4.8361025,CSO
2409816062000,4.040149,0.49799395,9.899511361787,-0.145105626017152,0.22082779,0.29840767,0.19853121,343.53656,-80.11656,4.7961845,CSO
2409820744000,4.044831,0.479768147633136,9.93751942392939,-0.088510790514492,0.20341812,0.37201694,0.20525073,343.4543,-80.20433,4.776265,CSO
2409825750000,4.049837,0.441303406213018,9.97117574947347,0.00765107056664326,0.16982053,0.40408736,0.22388211,343.358,-80.28582,4.757687,CSO
2409830806000,4.054893,0.423342520838882,9.99057206183422,0.0770910627371837,0.16279559,0.36926803,0.22968534,343.26016,-80.36563,4.736534,CSO
2409835803000,4.05989,0.427325149800266,9.99455477396804,0.116917381461385,0.13897185,0.3210097,0.24037547,343.15674,-80.4281,4.7217607,CSO
2409840760000,4.064847,0.430670308281203,9.99589807819482,0.14722307966473,0.10598512,0.2733622,0.25686884,343.06213,-80.46989,4.703823,CSO
2409845738000,4.069825,0.427120017068811,9.96749589678284,0.0726669115625558,0.08979719,0.27030787,0.2666427,342.96902,-80.5084,4.6876273,CSO
2409850810000,4.074897,0.423502685403634,9.9385573945487,-0.00329710704215074,0.09101892,0.28955013,0.2669481,342.8801,-80.53304,4.6740484,CSO
2409855754000,4.079841,0.412100666383712,9.90456078458255,-0.0587093381009769,0.1001819,0.30909783,0.2687807,342.79202,-80.55358,4.664032,CSO
2409860828000,4.084915,0.388165332489943,9.86067928634759,-0.0866338948657746,0.1151481,0.31703907,0.26358834,342.70267,-80.576385,4.6520557,CSO
2409866164000,4.090251,0.364718682921684,9.81562699147576,-0.112321605045072,0.12339478,0.3145956,0.25717425,342.61145,-80.61811,4.639797,CSO
2409870743000,4.09483,0.383409014342035,9.80160944539158,-0.051578017194992,0.12217305,0.29565877,0.25534168,342.52335,-80.66037,4.6280303,CSO
2409875741000,4.099828,0.406637199553621,9.7877910631579,0.00428322405769687,0.11362094,0.28955013,0.25259277,342.43237,-80.711266,4.6091046,CSO
2409880801000,4.104888,0.464166263835378,9.79162601052631,-0.0647516462723387,0.09621128,0.29932398,0.25778514,342.3426,-80.75777,4.592428,CSO
2409885840000,4.109927,0.521456571130985,9.79544504210526,-0.13350000824725,0.06841691,0.33536503,0.25259277,342.2468,-80.78675,4.575047,CSO
2409890744000,4.114831,0.553604481498829,9.79964854761905,-0.183409686799375,0.051923547,0.36743546,0.26053402,342.14923,-80.811,4.5629277,CSO
2409895818000,4.119905,0.567829505854801,9.80439032142857,-0.221343114789227,0.052839845,0.408058,0.27030787,342.03976,-80.832695,4.548418,CSO
2409900741000,4.124828,0.556718841523739,9.8106255381556,-0.187739224458116,0.05222898,0.44409904,0.2874121,341.92404,-80.85714,4.551933,CSO
2409905772000,4.129859,0.520789752224708,9.81860994233159,-0.0839440598548347,0.05589417,0.43493605,0.2883284,341.81058,-80.883194,4.5539036,CSO
2409910801000,4.134888,0.484794578301239,9.825804,0.009576807,0.051923547,0.39553526,0.29626966,341.6954,-80.90947,4.565291,CSO
2409915811000,4.139898,0.448203682714967,9.825804,0.009576807,0.013133603,0.3454443,0.2910773,341.5871,-80.92908,4.5739584,CSO
2409920981000,4.145068,0.409982317084071,9.825804,0.00763508628178226,-0.011911872,0.3399465,0.2959642,341.47333,-80.92916,4.5770245,CSO
2409925769000,4.149856,0.363122652345006,9.825804,-0.0423485631742744,-0.034513887,0.34269542,0.3005457,341.3723,-80.92101,4.58017,CSO
