timestamp,rel_time,acc_x,acc_y,acc_z,gyro_x,gyro_y,gyro_z,azimuth,pitch,roll,label
10879265943000,0,5.65390481355767,-0.372306044166505,7.7200958158335,-0.011301007,-0.0021380284,0.012217305,104.55386,3.346716,42.066185,SIT
10879270905000,0.004962,5.65852658694806,-0.358441013549893,7.73396084645011,-0.020463986,-0.00580322,0.01160644,104.28517,3.369806,42.077435,SIT
10879276002000,0.010059,5.66510105752809,-0.350869818022472,7.73285194247191,-0.004276057,-0.0027488936,0.014966198,104.01735,3.388849,42.089977,SIT
10879280983000,0.01504,5.67224743068165,-0.346105564278652,7.72570556931835,-0.021380283,-0.004276057,0.0125227375,103.759285,3.414072,42.10436,SIT
10879286005000,0.020062,5.67945262762547,-0.341302094633708,7.71850037237453,-0.0067195175,0.0033597588,0.01160644,103.512,3.424696,42.11341,SIT
10879290950000,0.025007,5.68654735062172,-0.336572274364045,7.71140564937828,-0.013133603,-0.0033597588,0.0061086523,103.27387,3.4406972,42.126614,SIT
10879296032000,0.030089,5.67251732615897,-0.338409454768206,7.71899324430462,-0.023518313,-0.0009162979,0.011301007,103.03914,3.4548988,42.134247,SIT
10879301822000,0.035879,5.6468628096419,-0.34354035807162,7.73438595421486,-0.016798794,0.0036651916,0.007330383,102.8163,3.4627101,42.143055,SIT
10879305986000,0.040043,5.64561632798828,-0.349641973080725,7.74781380505217,-0.019547688,-0.004581489,0.009773844,102.58467,3.4767,42.15782,SIT
10879312171000,0.046228,5.65645881526634,-0.360484471680395,7.76949866639209,-0.013439035,-0.0021380284,0.003970624,102.364655,3.4837167,42.167988,SIT
10879315996000,0.050053,5.66344731664263,-0.365695827599821,7.77281268335737,-0.009773844,0.0009162979,0.004886922,102.151794,3.4923837,42.172596,SIT
10879321009000,0.055066,5.67299597116006,-0.370470179785192,7.76326402883994,-0.007330383,0.007941248,0.0061086523,101.94692,3.4978335,42.17518,SIT
10879325954000,0.060011,5.68241510074089,-0.375179769164139,7.75384489925911,-0.018936822,-0.0015271631,0.005192355,101.75224,3.5045009,42.179657,SIT
10879331003000,0.06506,5.69203232728358,-0.379988407541147,7.74422767271642,-0.011911872,-0.0030543262,0.010079277,101.5607,3.5070055,42.17952,SIT
10879335899000,0.069956,5.69339039378029,-0.381469035605816,7.73645674212439,-0.021380283,-0.003970624,0.0067195175,101.37754,3.5126798,42.181885,SIT
10879341007000,0.075064,5.67857286147011,-0.376529789402262,7.7315173927706,-0.025045475,-0.0021380284,0.005497787,101.19673,3.5160232,42.183495,SIT
10879345925000,0.079982,5.66666503116464,-0.37293447326225,7.72736103824004,-0.011911872,0.00061086525,0.0036651916,101.033134,3.513869,42.19522,SIT
10879351019000,0.085076,5.65863777765492,-0.371329042676803,7.72415021059664,-0.018020526,0.0036651916,0.00580322,100.872665,3.5163853,42.205795,SIT
10879355892000,0.089949,5.65095878151183,-0.369793262691941,7.72107868269984,-0.019547688,-0.0021380284,0.009468411,100.71803,3.513446,42.215794,SIT
10879361004000,0.095061,5.64290316314871,-0.368182159206898,7.71785650937572,-0.022907447,-0.0036651916,0.0036651916,100.57025,3.510168,42.223522,SIT
10879365939000,0.099996,5.63512646584395,-0.366626839234541,7.714745901912,-0.018325957,-0.010079277,0.008246681,100.42228,3.5073864,42.23267,SIT
10879371680000,0.105737,5.62607965343733,-0.364817499424754,7.71112726007832,-0.014966198,0.002443461,0.009162978,100.282234,3.5031579,42.236694,SIT
10879375948000,0.110005,5.62412088321959,-0.357580079029635,7.71186500379546,-0.016187929,-0.0018325958,0.009773844,100.14343,3.4991891,42.246834,SIT
10879381009000,0.115066,5.63318308701505,-0.334925023739366,7.72092692371693,-0.019547688,-0.0076358155,0.004581489,100.0104,3.4934819,42.253662,SIT
10879385980000,0.120037,5.6420731370051,-0.317034923450162,7.72781613846082,-0.013744468,-0.0067195175,0.0070249503,99.87789,3.486497,42.25755,SIT
10879391005000,0.125062,5.65099727608716,-0.323728032420955,7.72335411551229,-0.021991149,-0.0070249503,0.0070249503,99.75127,3.481288,42.263317,SIT
10879396035000,0.130092,5.6599302949096,-0.330427801201669,7.71888765273992,-0.0125227375,-0.003970624,0.007941248,99.63039,3.4663284,42.26812,SIT
10879401036000,0.135093,5.66881181123783,-0.33708894308484,7.71444694094576,-0.016187929,-0.00030543262,0.008246681,99.51272,3.4554543,42.272533,SIT
10879405978000,0.140035,5.67758854662958,-0.343671499210941,7.71005861907279,-0.02443461,-0.0030543262,0.005192355,99.39869,3.4427981,42.2777,SIT
10879411004000,0.145061,5.67097556202024,-0.348800567417577,7.75372030888867,-0.017104227,0.004276057,0.01282817,99.28365,3.429469,42.278454,SIT
10879415908000,0.149965,5.66156286992685,-0.353506923292915,7.80549011540235,-0.021991149,0.004276057,0.007330383,99.2307857124314,3.42270436902646,42.2812744732901,SIT
10879421019000,0.155076,5.67133282972491,-0.373408250838419,7.7231556029293,-0.012217305,-0.0030543262,0.0106901415,99.17569,3.4156542,42.284214,SIT
10879426006000,0.160063,5.68478494734767,-0.395828456240729,7.61553847465966,-0.022602014,-0.0036651916,0.011301007,99.07146,3.405685,42.293087,SIT
10879431000000,0.165057,5.67511004176628,-0.395469229104021,7.65577570143238,-0.02443461,0.00061086525,0.013744468,98.9768,3.392099,42.290413,SIT
10879436002000,0.170059,5.6561815013336,-0.386004998417465,7.75515021752445,-0.010995574,-0.00580322,0.005497787,98.8879,3.3753397,42.29108,SIT
10879441195000,0.175252,5.64009874347911,-0.37285507460367,7.8097840992581,-0.00580322,-0.005497787,0.00061086525,98.78638,3.3685968,42.308968,SIT
10879445973000,0.18003,5.62669823520109,-0.359454659609528,7.84105173424444,-0.022296581,-0.0061086523,0.006414085,98.68641,3.363756,42.328255,SIT
10879450959000,0.185016,5.63858089051805,-0.357174422034786,7.78783261404526,-0.021991149,-0.00580322,0.0015271631,98.60872,3.346275,42.327644,SIT
10879455975000,0.190032,5.66553295515242,-0.361666401537311,7.68451699167758,-0.019547688,-0.0067195175,0.010079277,98.52543,3.335424,42.32701,SIT
10879460962000,0.195019,5.67667530239896,-0.359176062321831,7.66117059597336,-0.019547688,-0.004886922,0.0070249503,98.45978,3.3170018,42.319477,SIT
10879465946000,0.200003,5.67189433668553,-0.349614125902739,7.71854223445685,-0.015271631,-0.0015271631,0.004886922,98.39201,3.2989767,42.31168,SIT
10879470965000,0.205022,5.66707979677468,-0.339985041053739,7.77631676366004,-0.01985312,-0.002443461,0.00061086525,98.31905,3.2844725,42.3273,SIT
10879475962000,0.210019,5.66228636064506,-0.330398163789252,7.83383804726799,-0.017104227,0.0015271631,0.008857546,98.244095,3.269487,42.339813,SIT
10879480987000,0.215044,5.65523038015972,-0.330274059840277,7.81826346283075,-0.024129177,-0.003970624,0.010079277,98.168884,3.256835,42.354877,SIT
10879486004000,0.220061,5.64598438658713,-0.339520053412874,7.73042642734533,-0.022602014,-0.002443461,0.007330383,98.0942,3.2425175,42.36632,SIT
10879490980000,0.225037,5.63972503661678,-0.347807941625976,7.67451322216697,-0.016798794,-0.008552114,0.0015271631,98.03175,3.2226653,42.36171,SIT
10879496002000,0.230059,5.63733342492169,-0.354982332220178,7.66016450090995,-0.016187929,-0.007330383,0.004276057,97.96863,3.2047799,42.354565,SIT
10879501009000,0.235066,5.6349489566307,-0.36213529392969,7.6458586372433,-0.0125227375,-0.005497787,0.011301007,97.90142,3.1881084,42.361282,SIT
10879505987000,0.240044,5.63257829892099,-0.369246826462135,7.6316356315847,-0.016187929,-0.0033597588,0.004276057,97.84004,3.170703,42.36748,SIT
10879511298000,0.245355,5.6351034368231,-0.367583424115523,7.62707975451264,-0.0106901415,-0.0106901415,0.003970624,97.7746,3.1532538,42.375275,SIT
10879516006000,0.250063,5.64304365272519,-0.355673340699128,7.63501980459628,-0.01985312,-0.014660766,0.005192355,97.71282,3.1386492,42.381363,SIT
10879520956000,0.255013,5.65097060959931,-0.34607423322477,7.64621958924363,-0.007941248,-0.005192355,0.0125227375,97.639114,3.125052,42.387268,SIT
10879525999000,0.260056,5.65614489832869,-0.356422605376045,7.67726478133705,-0.013744468,0.0021380284,0.009468411,97.57044,3.1152396,42.394753,SIT
10879530973000,0.26503,5.66113685183365,-0.361431005686756,7.70348442562187,-0.014660766,0.008552114,0.0027488936,97.50356,3.0993755,42.40176,SIT
10879536010000,0.270067,5.6658796842985,-0.35194552894504,7.71771242778488,-0.0021380284,0.0015271631,0.0030543262,97.43639,3.082652,42.410137,SIT
10879540955000,0.275012,5.66847007710754,-0.346764846109574,7.73248262892455,-0.017715093,0.0030543262,0.008552114,97.37983,3.071494,42.408527,SIT
10879545978000,0.280035,5.6640331401033,-0.355638544067515,7.75023009896698,-0.015882496,0.007941248,0.00580322,97.327385,3.0525558,42.407974,SIT
10879551121000,0.285178,5.66126054304802,-0.362095268317328,7.76633455231733,-0.0125227375,0.0143553335,0.007941248,97.2742,3.03646,42.40497,SIT
10879555990000,0.290047,5.67586266388309,-0.342625763705637,7.76146717870564,-0.017715093,0.01282817,0.009162978,97.22344,3.0211442,42.402843,SIT
10879560948000,0.295005,5.68733887330312,-0.325932569997615,7.7568924767088,-0.03390302,0.01863139,0.0076358155,97.17719,3.0082839,42.392925,SIT
10879565965000,0.300022,5.67817177452898,-0.328224332725972,7.75460076184116,-0.03145956,0.008857546,0.009162978,97.12975,2.9934762,42.387886,SIT
10879570969000,0.305026,5.66902842944908,-0.33051015706177,7.75231498524207,-0.020158553,0.011911872,0.01160644,97.086426,2.976212,42.381218,SIT
10879575944000,0.310001,5.65993807337944,-0.332782734214166,7.75004245554973,-0.02687807,0.016798794,0.01038471,97.04459,2.961924,42.376804,SIT
10879581458000,0.315515,5.65008101647292,-0.335423218865199,7.74869440133564,-0.029321533,0.018020526,0.00580322,97.003944,2.9442906,42.372562,SIT
10879586108000,0.320165,5.64567507534009,-0.339829072587682,7.76852067637893,-0.03390302,0.015271631,0.015577064,96.959076,2.9311733,42.367798,SIT
10879591053000,0.32511,5.64098961751175,-0.344514437460302,7.78960474736582,-0.03023783,0.015271631,0.014660766,96.90624,2.9189706,42.357143,SIT
10879595950000,0.330007,5.63634964036607,-0.34915432255256,7.81048416002968,-0.033292156,0.0106901415,0.015271631,96.85011,2.9112356,42.348507,SIT
10879600987000,0.335044,5.63157701122928,-0.353926857004205,7.83196049280237,-0.027183503,0.01038471,0.01282817,96.79686,2.8999324,42.33885,SIT
10879605985000,0.340042,5.62309964386596,-0.346279411260039,7.90235870063694,-0.029626964,0.013744468,0.015882496,96.742424,2.8921773,42.32943,SIT
10879610965000,0.345022,5.61429470229853,-0.337474368557186,7.97720143949044,-0.031154128,0.0033597588,0.008552114,96.69373,2.880409,42.324368,SIT
10879615944000,0.350001,5.61727550847963,-0.342210690535634,7.96503247075645,-0.02076942,-0.013439035,0.012217305,96.6382,2.8713698,42.312294,SIT
10879620910000,0.354967,5.6243714030835,-0.351671756558413,7.92245767118417,-0.009162978,0.00580322,0.009773844,96.5896,2.8597438,42.293392,SIT
10879626781000,0.360838,5.63276044803302,-0.362856999937335,7.87212407305913,-0.021380283,0.00061086525,0.004276057,96.545975,2.8480687,42.27271,SIT
10879630958000,0.365015,5.63872894415875,-0.370814888132491,7.83631357410355,-0.028710667,0.009468411,0.0067195175,96.501945,2.834043,42.243107,SIT
10879635947000,0.370004,5.64418185836428,-0.371774230817863,7.82252980676367,-0.02076942,0.007941248,0.009162978,96.46046,2.8183775,42.218697,SIT
10879640939000,0.374996,5.64897938827898,-0.369375465860512,7.82013109190166,-0.021991149,0.004276057,0.0061086523,96.42113,2.8056448,42.193108,SIT
10879645948000,0.380005,5.65379325593578,-0.366968532032112,7.81772420833919,-0.016798794,0.0070249503,-0.0012217305,96.37649,2.7944891,42.181957,SIT
10879650992000,0.385049,5.65864076012042,-0.364544779939789,7.81530050686402,-0.025045475,0.004886922,0.011911872,96.325874,2.7897556,42.17304,SIT
10879655964000,0.390021,5.6565755894071,-0.353966629129532,7.8080397866503,-0.027794369,0.0033597588,0.013133603,96.28368,2.7790601,42.16369,SIT
10879660938000,0.394995,5.65207823310045,-0.340474832577417,7.79904535579683,-0.02443461,-0.0021380284,0.018936822,96.2355,2.7721574,42.155907,SIT
10879665940000,0.399997,5.62860297071929,-0.338290082817738,7.79241909240399,-0.022602014,-0.0018325958,0.01160644,96.19261,2.7631395,42.1488,SIT
10879670970000,0.405027,5.59282945703374,-0.343400554279652,7.787308514216,-0.025045475,-0.014966198,0.013133603,96.14469,2.7570412,42.146847,SIT
10879675965000,0.410022,5.59391831550553,-0.33767154570936,7.79658424143596,-0.018325957,-0.010079277,0.010079277,96.10501,2.7434597,42.140656,SIT
10879680970000,0.415027,5.60850067561099,-0.327950039979718,7.81116650003042,-0.02687807,-0.014049901,0.014966198,96.06208,2.7354605,42.14046,SIT
10879685972000,0.420029,5.59789424749709,-0.329140028125728,7.79703145937136,-0.021991149,-0.009773844,0.013133603,96.01708,2.7244754,42.1292,SIT
10879690964000,0.425021,5.5793426814901,-0.333777919627474,7.77384200186263,-0.016798794,-0.01985312,0.014966198,95.96938,2.7167916,42.123127,SIT
10879695978000,0.430035,5.58663822102009,-0.331954034744977,7.77325881051005,-0.015271631,-0.03756821,0.03176499,95.92567,2.707603,42.11822,SIT
10879700972000,0.435029,5.6051183366306,-0.327334005842349,7.7824988683153,0.00580322,-0.02076942,0.031154128,95.88939,2.6902044,42.106663,SIT
10879705965000,0.440022,5.62549358438568,-0.309429582647958,7.78324696932902,0.01740966,-0.0290161,0.036651913,95.83751,2.6811697,42.109947,SIT
10879712147000,0.446204,5.65211899910056,-0.27747932964562,7.77792181966181,0.042760566,-0.03726278,0.04062254,95.787895,2.6643345,42.10844,SIT
10879715965000,0.450022,5.6658553192268,-0.259207145025258,7.77537330434021,0.074830994,-0.040317107,0.044898596,95.737526,2.6436305,42.109642,CSO
10879720974000,0.455031,5.68069151247423,-0.236952914539175,7.77290066571134,0.07941248,-0.04184427,0.04337143,95.6888,2.6231434,42.112587,CSO
10879725954000,0.460011,5.69544181041237,-0.214827526673196,7.77044234261856,0.08032878,-0.04337143,0.05100725,95.63968,2.5935602,42.121254,CSO
10879730946000,0.465003,5.71022765123711,-0.192648824619588,7.76797809585567,0.11759156,-0.046120327,0.059253927,95.591835,2.5554502,42.130337,CSO
10879735970000,0.470027,5.74104936187506,-0.158263950805217,7.77389905804744,0.13072516,-0.059253927,0.0729984,95.53968,2.5251017,42.142212,CSO
10879740964000,0.475021,5.78624975805689,-0.113063521584916,7.78745927129761,0.18020524,-0.0580322,0.09162979,95.48381,2.4820442,42.150154,CSO
10879745987000,0.480044,5.83605066466038,-0.0590936768381901,7.81428080862562,0.23915374,-0.05497787,0.1160644,95.431015,2.428629,42.167088,CSO
10879751034000,0.485091,5.8923899881954,0.00748933300487442,7.86037659934301,0.30665436,-0.05589417,0.13347405,95.37477,2.3658009,42.183987,CSO
10879756027000,0.490084,5.96394570205541,0.0837863615061066,7.90697816780856,0.3839288,-0.06352998,0.16890424,95.3074,2.2878482,42.209175,CSO
10879760959000,0.495016,6.04836532243074,0.168206042117367,7.95387795690597,0.44409904,-0.10598512,0.24404067,95.218506,2.211307,42.24302,CSO
10879766621000,0.500678,6.10915271431433,0.302208066738455,8.0018847400581,0.5216789,-0.16829337,0.31520647,95.128784,2.1087656,42.287067,CSO
10879770972000,0.505029,6.13419656996895,0.427426996338776,8.03527625703696,0.52839845,-0.23518312,0.37232238,95.01661,2.0216327,42.342613,CSO
10879775966000,0.510023,6.11583549585517,0.569901672995712,8.13296067022392,0.50762904,-0.34238997,0.43188173,94.886284,1.9227345,42.430687,CSO
10879780947000,0.515004,6.05220233096713,0.710803470101,8.28749839028109,0.45356745,-0.46395215,0.4822781,94.73919,1.8402464,42.5392,CSO
10879785922000,0.519979,5.98854209370492,0.808709337699361,8.52595492324335,0.4538729,-0.5213735,0.52748215,94.59855,1.7330081,42.656654,CSO
10879790966000,0.525023,5.92384289382856,0.843547356009685,8.89424227663301,0.4783075,-0.6450737,0.6389651,94.413025,1.6564869,42.82259,CSO
10879795969000,0.530026,5.86315723713863,0.875202016122348,9.12161251139615,0.5879578,-0.75502944,0.7516697,94.23458,1.5431858,42.96455,CSO
10879801014000,0.535071,5.80595166604835,0.903804876334485,9.193119599704,0.68386364,-0.80939645,0.8445212,94.02303,1.4475291,43.121296,CSO
10879805950000,0.540007,5.71455866142263,1.05027416948682,9.05335140618189,0.6627888,-0.8155051,0.8903361,93.80441,1.3582811,43.232895,CSO
10879810957000,0.545014,5.5767954265108,1.3495526637656,8.64481314305528,0.56107974,-0.80878556,0.88789266,93.57181,1.27669,43.353203,CSO
10879815932000,0.549989,5.48145877547855,1.54420102911554,8.31662095655247,0.4196644,-0.8188649,0.8402451,93.341896,1.2052553,43.45886,CSO
10879820965000,0.555022,5.44360658394032,1.59624784188672,8.09423878779817,0.2742785,-0.8142834,0.754724,93.13219,1.1491778,43.55654,CSO
10879825892000,0.559949,5.39613475454545,1.48724508408355,7.8522826606649,0.14080444,-0.75686204,0.6392705,93.010544,1.0472664,43.67365,CSO
10879830950000,0.565007,5.32962971818182,1.10246541012062,7.56251025236834,0.046731193,-0.66859204,0.5555819,92.91333,0.958269,43.777775,CSO
10879835950000,0.570007,5.26087606267409,0.727415198474193,7.30429295687367,0.0125227375,-0.5742133,0.51923543,92.828835,0.8689562,43.887264,CSO
10879840965000,0.575022,5.18611554387187,0.361482478467229,7.09968551745863,0.010079277,-0.4822781,0.4877759,92.777985,0.778131,43.96987,CSO
10879846810000,0.580867,5.11075018177966,-0.0539020013133475,6.87057774152542,0.04153884,-0.38637227,0.441961,92.679,0.7561137,44.052,CSO
10879851009000,0.585066,5.18316780826271,-0.23281581918697,6.80667999279661,0.044898596,-0.3231477,0.39095375,92.59757,0.7326977,44.11515,CSO
10879856251000,0.590308,5.28473355700213,-0.438748451341525,6.74391705037067,0.053450707,-0.2941316,0.37812558,92.43019,0.79208636,44.181026,CSO
10879860965000,0.595022,5.50938143631563,-0.41582519854575,6.89062585485935,0.047647487,-0.3109304,0.36896262,92.285164,0.8429558,44.240555,CSO
10879866128000,0.600185,5.75450854225685,-0.384023530155849,7.05695414225686,0.03145956,-0.3408628,0.36346483,92.10301,0.9333933,44.320404,CSO
10879870961000,0.605018,5.97365091134346,-0.279017781045571,7.27609651134346,-0.0012217305,-0.3717115,0.36377025,91.925964,1.0259253,44.403103,CSO
10879876232000,0.610289,6.20872862524908,-0.162816617523484,7.51447281682323,-0.031154128,-0.40194935,0.36285394,91.76067,1.1121732,44.507793,CSO
10879880939000,0.614996,6.37126438571022,-0.0387761135098207,7.7197812233988,-0.0571159,-0.41722095,0.36957347,91.59584,1.2039827,44.613743,CSO
10879885906000,0.619963,6.54277811466932,0.0921160010930828,7.93643022604611,-0.1020145,-0.4373795,0.37110063,91.43464,1.2845707,44.734013,CSO
10879890960000,0.625017,6.64531980513775,0.255471843998511,8.11656791154133,-0.12339478,-0.43249258,0.37843102,91.272415,1.3662884,44.847622,CSO
10879895961000,0.630018,6.7389317851452,0.420407025667349,8.29041815304356,-0.17898351,-0.4175264,0.4007276,91.107124,1.4654317,44.960102,CSO
10879900991000,0.635048,6.75760032269007,0.524944240847056,8.40432968188541,-0.2434298,-0.3921755,0.42485678,90.969635,1.5409228,45.0595,CSO
10879905975000,0.640032,6.75289365936298,0.609665114528153,8.49846442283799,-0.28710666,-0.37201694,0.44012842,90.83008,1.6245013,45.152714,CSO
10879910895000,0.644952,6.73729671223216,0.685890232323695,8.49106551175369,-0.31581733,-0.35124752,0.4541783,90.704735,1.687352,45.233715,CSO
10879915923000,0.64998,6.71726248044518,0.761018494312461,8.4459887125026,-0.37201694,-0.32467487,0.47708577,90.572685,1.7681606,45.30458,CSO
10879920968000,0.655025,6.64222770724299,0.700656694498172,8.37000373648923,-0.41813725,-0.3118467,0.5030475,90.447235,1.8385602,45.356842,CSO
10879925896000,0.659953,6.5559312885514,0.60956610875254,8.28850150487607,-0.47952923,-0.31490102,0.5308419,90.314384,1.9270862,45.404316,CSO
10879930943000,0.665,6.46855555650979,0.52135861091034,8.29159989797321,-0.52106804,-0.33261612,0.5656612,90.17409,2.0144467,45.45731,CSO
10879935975000,0.670032,6.38164378941944,0.434446861106149,8.3122931552731,-0.57604593,-0.3921755,0.6178902,90.01717,2.124428,45.521004,CSO
10879940963000,0.67502,6.2579301938326,0.342442616108306,8.34338471419362,-0.6001751,-0.44715336,0.6554584,89.82862,2.2592878,45.58871,CSO
10879945937000,0.679994,6.09926616740088,0.245196918523692,8.38433056247986,-0.61819565,-0.50579643,0.6914995,89.62168,2.4115365,45.671444,CSO
10879950959000,0.685016,5.94991479729069,0.180181475598983,8.36987703247261,-0.6407976,-0.55680364,0.7076874,89.39001,2.5904071,45.74672,CSO
10879955989000,0.690046,5.80621122970462,0.133065534476135,8.32511672339593,-0.65393126,-0.59986967,0.72418076,89.14655,2.7748942,45.83316,CSO
10879960961000,0.695018,5.66416468138693,0.0864928785590767,8.28087253716745,-0.6914995,-0.61636305,0.7247916,88.89095,2.9830663,45.895863,CSO
10879965968000,0.700025,5.52111820764867,0.0395923781212833,8.23631689749609,-0.7473936,-0.63041294,0.7147123,88.636375,3.1947222,45.967384,CSO
10879970964000,0.705021,5.45041151760687,-0.0366359192859952,8.11926838505331,-0.80848014,-0.6704246,0.7272351,88.35879,3.4195898,46.048958,CSO
10879975951000,0.710008,5.43558080627264,-0.135506709086016,7.94624462395197,-0.8695667,-0.66706485,0.7504479,88.086334,3.6515684,46.119183,CSO
10879980951000,0.715008,5.45939856260004,-0.198796781663088,7.7965994897521,-0.91965765,-0.66339964,0.7467828,87.8008,3.908152,46.169765,CSO
10879985951000,0.720008,5.50613289795042,-0.240857707878196,7.66107001483506,-0.9370673,-0.68111473,0.75655663,87.50407,4.1732135,46.221653,CSO
10879990963000,0.72502,5.59464730235413,-0.373290184306128,7.52495803761106,-0.9673051,-0.6899723,0.75228053,87.19986,4.462465,46.289703,CSO
10879995945000,0.730002,5.71264818794541,-0.569958173319593,7.38947547511221,-0.9914343,-0.7098254,0.71929383,86.906876,4.744857,46.363113,CSO
10880000969000,0.735026,5.8663130852123,-0.661556849267936,7.29711316076135,-0.9999864,-0.7189884,0.72112644,86.59395,5.0412526,46.45724,CSO
10880005939000,0.739996,6.07039868696925,-0.591869101830161,7.27222469809663,-1.0439687,-0.72173727,0.7993172,86.26684,5.3532176,46.54929,CSO
10880010919000,0.744976,6.23170288615768,-0.642003516861277,7.23416608884232,-1.0925325,-0.72234815,0.8509353,85.90861,5.699971,46.680866,CSO
10880015951000,0.750008,6.34712908168663,-0.824761864845309,7.18126249331337,-1.1490375,-0.7156286,0.8405506,85.54914,6.053904,46.804977,CSO
10880021524000,0.755581,6.45007242933549,-1.02014722694489,7.1970637293355,-1.1884383,-0.7180721,0.8213083,85.189674,6.4008336,46.960594,CSO
10880025948000,0.760005,6.51444808249595,-1.17035719635332,7.26143938249595,-1.2202033,-0.7312057,0.768163,84.85358,6.741291,47.113136,CSO
10880030932000,0.764989,6.59187719326693,-1.22470400016282,7.34575858226224,-1.25319,-0.72692966,0.7440339,84.467224,7.1232214,47.279877,CSO
10880035952000,0.770009,6.67475830197299,-1.16484551247007,7.44245288855474,-1.2880094,-0.74036866,0.7651087,84.08694,7.502787,47.44827,CSO
10880040934000,0.774991,6.76502088564477,-1.06991689292376,7.46054696536902,-1.2950343,-0.7266242,0.8020661,83.68709,7.9044433,47.600662,CSO
10880045962000,0.780019,6.86753458783455,-0.92346864499189,7.3677964729116,-1.318858,-0.63071835,0.8671232,83.278725,8.318744,47.7234,CSO
10880051084000,0.785141,6.92851282355693,-0.943592823775876,7.28530992228304,-1.3814718,-0.5821546,0.960891,82.86067,8.732692,47.845802,CSO
10880055894000,0.789951,6.93768174244626,-1.14989256531648,7.22112787301951,-1.3939945,-0.5992588,0.95447695,82.46668,9.126344,47.955936,CSO
10880060873000,0.79493,6.91703531506024,-1.32400313626506,7.16249011088353,-1.4431691,-0.593761,0.90377516,82.0881,9.5136175,48.075195,CSO
10880065896000,0.799953,6.85424857153614,-1.44474682725904,7.11419250336345,-1.4908166,-0.5723807,0.8872818,81.704895,9.901297,48.18671,CSO
10880070856000,0.804913,6.78186304908595,-1.4988151987577,7.062288004242,-1.5344934,-0.4990769,0.8949176,81.281746,10.3314705,48.282608,CSO
10880075883000,0.80994,6.69433988703161,-1.46477848403192,7.00393916184224,-1.5833627,-0.45051312,0.91996306,80.86571,10.76343,48.372723,CSO
10880080841000,0.814898,6.57546706999406,-1.48568320676692,6.95941459856549,-1.6108516,-0.35979962,0.9315695,80.439606,11.217579,48.422276,CSO
10880085890000,0.819947,6.41282238622873,-1.57657279924812,6.93071267194302,-1.679574,-0.2938262,0.95203346,80.01173,11.6870985,48.457035,CSO
10880091145000,0.825202,6.16058515724932,-1.96558060254693,6.94907220186775,-1.7556267,-0.25259277,1.0146471,79.58351,12.163666,48.461597,CSO
10880095869000,0.829926,5.84478261564003,-2.63132633366664,7.01735363135553,-1.7690657,-0.23273966,0.9761627,79.20394,12.615184,48.457413,CSO
10880100971000,0.835028,5.57667521134766,-3.12972016447173,7.03081344261808,-1.7889189,-0.27030787,0.9242391,78.78302,13.109293,48.427204,CSO
10880105968000,0.840025,5.4676869748688,-3.15341323784533,6.91708678938509,-1.8316795,-0.31337386,0.915687,78.372086,13.602427,48.389603,CSO
10880110903000,0.84496,5.42648456067113,-3.12406280540298,6.77530334725856,-1.7953329,-0.3313944,0.8900307,77.85147,14.215487,48.257065,CSO
10880115958000,0.850015,5.54735424008789,-2.96451477808848,6.55773777285529,-1.7580702,-0.35643986,0.86559606,77.34029,14.823993,48.13522,CSO
10880120930000,0.854987,5.69589840882353,-2.88970012735294,6.37244951373529,-1.7241671,-0.33261612,0.850019,76.84105,15.425329,48.002365,CSO
10880125963000,0.86002,5.91799680392157,-3.01256305882353,6.25431232254902,-1.7348573,-0.29565877,0.8594874,76.35329,16.018343,47.86929,CSO
10880130930000,0.864987,6.11601195418106,-3.15319845901866,6.08959860055287,-1.7333301,-0.34666604,0.7861836,75.89503,16.549154,47.82298,CSO
10880135933000,0.86999,6.25318953174055,-3.35186912513575,5.78213167597986,-1.72264,-0.41630468,0.73975784,75.4362,17.07916,47.764313,CSO
10880140966000,0.875023,6.37473384656138,-3.52196922506997,5.50451180789684,-1.7079792,-0.43585235,0.72051555,74.96169,17.609219,47.753124,CSO
10880145965000,0.880022,6.44173129005398,-3.59375224664134,5.33223284595162,-1.6850718,-0.36377025,0.70096785,74.519714,18.116035,47.737244,CSO
10880150974000,0.885031,6.50770729006856,-3.69056987133593,5.17825785944043,-1.6865989,-0.31612277,0.627664,74.00499,18.649948,47.7978,CSO
10880155971000,0.890028,6.56977652052066,-3.86791022555123,5.08515399061516,-1.6829338,-0.2846632,0.61391956,73.49654,19.17757,47.83186,CSO
10880161026000,0.895083,6.63100045012806,-4.04295770494826,4.99224864868354,-1.6749926,-0.26939157,0.5751296,72.990555,19.693768,47.900673,CSO
10880165950000,0.900007,6.67448016212478,-4.16856606450159,4.91495143335724,-1.6612481,-0.28985557,0.52748215,72.5016,20.193008,47.966362,CSO
10880170937000,0.904994,6.72049705541389,-4.30505115121616,4.83925935123578,-1.6346754,-0.32284227,0.51893,71.95258,20.720572,48.03831,CSO
10880175963000,0.91002,6.7818670491173,-4.51276519219302,4.78261008077678,-1.5873333,-0.34574974,0.52198434,71.42437,21.22349,48.10959,CSO
10880180957000,0.915014,6.83288472352199,-4.70488053191923,4.7118839170663,-1.5720617,-0.37110063,0.49846604,70.860695,21.737223,48.19581,CSO
10880185943000,0.92,6.77262372713329,-4.73732883521017,4.48011052265799,-1.5308284,-0.4184427,0.39950588,70.32232,22.210888,48.295578,CSO
10880191224000,0.925281,6.7090060964805,-4.77291857527091,4.24443172140409,-1.5106697,-0.44837508,0.37384954,69.7158,22.72764,48.381275,CSO
10880196019000,0.930076,6.6537156207465,-4.81970266682412,4.14661016856534,-1.4764613,-0.42546764,0.37751472,69.1461,23.208078,48.467297,CSO
10880201019000,0.935076,6.59606131862554,-4.8684869124479,4.04460646383255,-1.4220943,-0.3576616,0.3631594,68.53767,23.688528,48.57218,CSO
10880206107000,0.940164,6.56242183532564,-4.90101577271228,3.90853716871393,-1.3884968,-0.30543262,0.32070425,67.95081,24.150303,48.66947,CSO
10880210949000,0.945006,6.53375054905194,-4.92968695919209,3.77473819868096,-1.3646729,-0.24129178,0.28863382,67.39791,24.593699,48.740562,CSO
10880215976000,0.950033,6.49605268306757,-5.02479493965517,3.69302627390871,-1.3466524,-0.18295415,0.2593123,66.84871,25.034426,48.80299,CSO
10880220907000,0.954964,6.45840218343632,-5.12362748275862,3.61772517636037,-1.3106114,-0.13775012,0.21380283,66.3409,25.447641,48.855526,CSO
10880225965000,0.960022,6.41957852790698,-5.25633037790698,3.57526693604651,-1.2910637,-0.10323623,0.17592919,65.82277,25.863089,48.90829,CSO
10880230979000,0.965036,6.38107165124298,-5.39110474779471,3.53675995886127,-1.2754866,-0.062308256,0.12461651,65.3499,26.250551,48.95422,CSO
10880235949000,0.970006,6.33615300189184,-5.48951971373973,3.44144094416205,-1.2589933,-0.05100725,0.0729984,64.88222,26.638605,48.999725,CSO
10880240914000,0.974971,6.29072130687942,-5.58492636814447,3.34149121513472,-1.2449434,-0.028710667,0.036651913,64.45085,27.00777,49.03551,CSO
10880245945000,0.980002,6.27461144323712,-5.72681451994877,3.26873467796276,-1.2137892,-0.0030543262,0.0030543262,64.02413,27.380678,49.058937,CSO
10880250947000,0.985004,6.26517337733228,-5.87782455994483,3.20266782242144,-1.1508701,0.0143553335,-0.05375614,63.629128,27.724344,49.086548,CSO
10880256037000,0.990094,6.22716560080371,-5.95697814006182,3.14098839256054,-1.106277,0.02687807,-0.10262536,63.214565,28.081577,49.106102,CSO
10880260900000,0.994957,6.18397674911901,-6.01456312531685,3.08340320687275,-1.0519099,0.022602014,-0.15363261,62.82684,28.406174,49.133026,CSO
10880265948000,1.000005,6.12058144819895,-5.95928678969703,3.08222061116155,-0.98440933,0.010995574,-0.18997909,62.42437,28.73744,49.155064,CSO
10880270905000,1.004962,6.05499250620744,-5.88432827140037,3.09159048098293,-0.9236283,0.0021380284,-0.21991149,62.042538,29.04375,49.18245,CSO
10880275963000,1.01002,5.95687566078393,-5.86666952993894,3.18722438364191,-0.8594874,0.0012217305,-0.24190263,61.653595,29.344069,49.20622,CSO
10880280957000,1.015014,5.85325306255663,-5.86195951020288,3.30026726725428,-0.8402451,-0.040011674,-0.3268129,61.28285,29.612516,49.255253,CSO
10880285936000,1.019993,5.73383745208728,-5.86857805252565,3.36479872376208,-0.82253003,-0.058337633,-0.37018433,60.946957,29.859015,49.293884,CSO
10880290962000,1.025019,5.60915269245791,-5.8781690646209,3.4175498411079,-0.7825184,-0.06566802,-0.4129449,60.62996,30.07369,49.352894,CSO
10880295970000,1.030027,5.49217440047985,-5.82914126554702,3.49044737552783,-0.74067414,-0.069027774,-0.4596761,60.371964,30.26809,49.39569,CSO
10880301007000,1.035064,5.3764395125144,-5.76432957746641,3.56914726176583,-0.70249504,-0.061391957,-0.5109888,60.13161,30.441765,49.445835,CSO
10880305960000,1.040017,5.26460448645004,-5.72706319084184,3.6515353719824,-0.6585127,-0.06414085,-0.5644395,59.92398,30.602665,49.481964,CSO
10880312137000,1.046194,5.12611787015638,-5.69382654638075,3.75678511244499,-0.62949663,-0.054367006,-0.6435465,59.74649,30.738066,49.52995,CSO
10880315981000,1.050038,5.03829283774553,-5.75476853085989,3.74920902514186,-0.6017023,-0.05131268,-0.6609562,59.611187,30.85771,49.5629,CSO
10880321041000,1.055098,4.92195828056526,-5.87110303282409,3.70690556988215,-0.5946773,-0.06627888,-0.7067711,59.502575,30.947392,49.619972,CSO
10880326007000,1.060064,4.78985253938778,-5.97550323891387,3.60314121002466,-0.5864306,-0.087659165,-0.768163,59.438675,31.022797,49.66226,CSO
10880330993000,1.06505,4.65130633387495,-6.07710380891242,3.47844961782968,-0.61178154,-0.10048734,-0.8268061,59.38381,31.089743,49.714172,CSO
10880336000000,1.070057,4.51217660042072,-6.17913229948257,3.35323285045699,-0.62949663,-0.0870483,-0.86406887,59.324238,31.17427,49.74875,CSO
10880340996000,1.075053,4.3733525244596,-6.28093664118188,3.22829117484404,-0.61391956,-0.055588737,-0.9282097,59.28899,31.234995,49.800594,CSO
10880346723000,1.08078,4.35079618286159,-6.30310572766268,3.07397897215251,-0.602924,-0.06261369,-1.0125091,59.262608,31.282057,49.869312,CSO
10880351033000,1.08509,4.3869291670071,-6.28303184292384,2.95353532834355,-0.6062838,-0.073303826,-1.063211,59.253254,31.32066,49.938713,CSO
10880356006000,1.090063,4.31847726361967,-6.03124673425832,2.80805619602122,-0.5830709,-0.08093964,-1.1151345,59.184395,31.412624,49.98381,CSO
10880361005000,1.095062,4.16218430891655,-5.59655711336462,2.65664749177719,-0.5329799,-0.0852157,-1.135904,59.11722,31.495686,50.0329,CSO
10880365961000,1.100018,4.16495168345267,-5.61595494782737,2.70544560909269,-0.4709771,-0.0852157,-1.1713341,59.035038,31.553871,50.12118,CSO
10880371009000,1.105066,4.27875761796959,-5.95263010710152,2.89512177050515,-0.40225476,-0.106901415,-1.2391402,58.955975,31.5907,50.223732,CSO
10880375996000,1.110053,4.37126156229459,-6.06585808584168,2.97572782285571,-0.4083634,-0.19333886,-1.2690725,58.87985,31.57218,50.386887,CSO
10880380998000,1.115055,4.44806015522044,-6.00345923848697,2.97092785754509,-0.41355577,-0.25228736,-1.3093897,58.823334,31.526167,50.56365,CSO
10880386033000,1.12009,4.51411083509958,-5.79778099426274,2.99602685181802,-0.40958515,-0.26389378,-1.3365731,58.754185,31.518366,50.697212,CSO
10880391001000,1.125058,4.57061627526037,-5.48482790243011,3.04383919970766,-0.36041048,-0.25900686,-1.3277156,58.668877,31.505232,50.83523,CSO
10880396038000,1.130095,4.6627352773899,-5.1854614443609,3.16732670936627,-0.2843578,-0.27183503,-1.319469,58.58435,31.460625,51.004227,CSO
10880401009000,1.135066,4.81102565359828,-4.91956153308271,3.41277269095596,-0.21624629,-0.301462,-1.3170254,58.4929,31.41303,51.170612,CSO
10880405974000,1.140031,4.89618552675719,-4.5649424266873,3.65878757863419,-0.13652839,-0.32284227,-1.2742649,58.45503,31.291824,51.377827,CSO
10880411001000,1.145058,4.92021836102236,-4.11793135802716,3.9087292557508,-0.04062254,-0.3313944,-1.2504412,58.413445,31.15916,51.58715,CSO
10880416529000,1.150586,4.98290225654779,-3.74804491902967,4.08833208137624,0.036651913,-0.29901853,-1.2525792,58.47922,30.949232,51.821407,CSO
10880421010000,1.155067,5.05755635749493,-3.52823002052769,4.17128120753842,0.08857546,-0.29565877,-1.2571607,58.524364,30.740576,52.051895,CSO
10880425992000,1.160049,5.22860339866441,-3.38605075769959,4.20681650114622,0.14752395,-0.3191771,-1.2825116,58.73136,30.414295,52.328926,CSO
10880430984000,1.165041,5.51450453802452,-3.37652072967208,4.16869609050135,0.204029,-0.36865717,-1.2803736,58.92418,30.093607,52.59863,CSO
10880435895000,1.169952,5.8623007078474,-3.5350003310931,4.11010623482902,0.24648413,-0.44532076,-1.2797627,59.178307,29.699322,52.920223,CSO
10880441010000,1.175067,6.32223434947618,-3.9465202297885,4.01811964805298,0.29810223,-0.5537493,-1.2809844,59.40279,29.303743,53.248535,CSO
10880445992000,1.180049,6.71852241754509,-4.3070022499499,3.88737749625251,0.35185838,-0.68569624,-1.2974777,59.56995,28.876472,53.637203,CSO
10880451002000,1.185059,7.04063143187375,-4.60988059514028,3.69507371649299,0.43768495,-0.768163,-1.348485,59.726933,28.437311,54.036522,CSO
10880455896000,1.189953,7.54506244560487,-5.01309860400348,3.41095746089353,0.4868596,-0.84849185,-1.3863586,59.70342,28.046362,54.464157,CSO
10880461003000,1.19506,8.37274150516391,-5.60429793225994,2.96164581338362,0.5235115,-0.91996306,-1.4361442,59.670704,27.638197,54.909912,CSO
10880465920000,1.199977,8.97475279552716,-6.04916838330671,2.55702271733227,0.5421429,-0.9428705,-1.4773777,59.509716,27.260204,55.387707,CSO
10880471011000,1.205068,9.18893466253994,-6.24874681644369,2.19680818890775,0.550695,-0.9300423,-1.5063937,59.347237,26.876938,55.86939,CSO
10880475895000,1.209952,9.38023680067243,-6.37378441768492,1.89043038048031,0.54702985,-0.85918194,-1.5241088,58.871067,26.556318,56.423756,CSO
10880481004000,1.215061,9.54943991162344,-6.35968421569645,1.65542599973103,0.56169057,-0.7733554,-1.5632042,58.42843,26.225077,56.968033,CSO
10880485936000,1.219993,9.71389782238233,-6.28017928549472,1.47211982146013,0.57787853,-0.6786713,-1.6172657,57.842743,25.922567,57.53905,CSO
10880491006000,1.225063,9.88647336560999,-5.9909983690682,1.42081351569645,0.6084218,-0.5552765,-1.647809,57.322044,25.617191,58.075863,CSO
10880496005000,1.230062,10.062087578293,-5.68531886789754,1.41032326891652,0.65026605,-0.4129449,-1.6514742,56.750275,25.293682,58.64666,CSO
10880501012000,1.235069,10.2638076115266,-5.28187894185286,1.58962989751332,0.7107417,-0.27091873,-1.6349808,56.25137,24.967838,59.180046,CSO
10880505976000,1.240033,10.4581596081026,-4.87626555737989,1.76700464197883,0.78038037,-0.16584991,-1.6145169,55.817333,24.570925,59.758083,CSO
10880510895000,1.244952,10.4677502561075,-4.29124779582655,1.93004245350163,0.8561276,-0.109650314,-1.5806139,55.433506,24.183804,60.295013,CSO
10880516024000,1.250081,10.4693053403141,-3.6927364408377,2.10073034502618,0.9315695,-0.057726767,-1.5131133,55.26036,23.696825,60.866886,CSO
10880520968000,1.255025,10.366405379433,-3.25775293760743,2.2737882690408,0.98807454,0.03176499,-1.4107933,55.12355,23.23494,61.389877,CSO
10880526179000,1.260236,10.2656069304808,-2.82343404940965,2.47562397513932,1.0497719,0.13072516,-1.3121386,55.18947,22.676693,61.944187,CSO
10880530949000,1.265006,10.2569774972136,-2.6896734183527,2.87259065606876,1.1163563,0.18448131,-1.2596041,55.27276,22.141388,62.46181,CSO
10880535907000,1.269964,10.2480079521111,-2.55064087982431,3.28520298396146,1.1643091,0.20463985,-1.2281445,55.553997,21.553394,62.969887,CSO
10880540966000,1.275023,10.12552946644,-2.31627042468953,3.4491503463631,1.1731668,0.18387043,-1.2027937,55.83873,20.988226,63.450687,CSO
10880545989000,1.280046,9.99277567563572,-2.07446881880544,3.58664539172088,1.1346822,0.2144137,-1.1606439,56.15522,20.447973,63.89452,CSO
10880550985000,1.285042,9.77062277596266,-1.9660725798133,3.68007517782964,1.099252,0.23548855,-1.1282681,56.697372,19.884275,64.28974,CSO
10880556262000,1.290319,9.52491720988915,-1.86779019944574,3.77344339043174,1.0607675,0.25870144,-1.1114693,57.254444,19.34266,64.66016,CSO
10880560963000,1.29502,9.24564465929886,-1.78810510892361,3.86084525138275,1.0430524,0.31795537,-1.0961977,57.96053,18.773203,65.01879,CSO
10880565920000,1.299977,8.94305566053254,-1.70513730231315,3.95357402138378,1.0143417,0.35246924,-1.0824533,58.667534,18.223051,65.360916,CSO
10880570968000,1.305025,8.68223224826217,-1.59780127102284,4.07055191650447,1.0027353,0.39492437,-1.0876455,59.49063,17.67581,65.658646,CSO
10880575897000,1.309954,8.43379009036743,-1.48998656681231,4.18774190176763,0.9868528,0.43249258,-1.099252,60.331093,17.142899,65.93637,CSO
10880580947000,1.315004,8.29423434096397,-1.35857783190007,4.24684343920877,0.9575313,0.47158796,-1.1102476,61.2726,16.617981,66.167725,CSO
10880585942000,1.319999,8.17428823885587,-1.2253048026003,4.29571010683507,0.92485,0.52503866,-1.1319333,62.253002,16.097029,66.380516,CSO
10880590963000,1.32502,8.10816306047762,-1.13398684987077,4.34168536498501,0.9101892,0.5888741,-1.1346822,63.340645,15.577811,66.54265,CSO
10880596000000,1.330057,8.06328075038768,-1.05918320801199,4.38656757092939,0.8961393,0.59528816,-1.108415,64.418465,15.071089,66.69136,CSO
10880601016000,1.335073,8.16405301780202,-0.914277610259313,4.52534868974069,0.8943067,0.5873469,-1.1038336,65.59878,14.543109,66.81928,CSO
10880606075000,1.340132,8.30364716361391,-0.749756150360156,4.68987014963984,0.9092729,0.5580254,-1.0888673,66.7444,14.03217,66.93066,CSO
10880610961000,1.345018,8.35133825459791,-0.604191852737108,4.80270470861882,0.89552844,0.5332854,-1.0577132,67.91167,13.521467,67.02975,CSO
10880615967000,1.350024,8.38591585016228,-0.457238123155427,4.91075884853949,0.86498517,0.47433686,-1.0341948,69.03735,13.020333,67.12966,CSO
10880620964000,1.355021,8.37740889375,-0.386903974829918,4.89911457617828,0.82894415,0.3894266,-1.0305296,70.23226,12.491278,67.23216,CSO
10880625944000,1.360001,8.34320251875,-0.362471349870902,4.81604373703893,0.77518797,0.37018433,-1.0094548,71.39402,11.985897,67.31357,CSO
10880630938000,1.364995,8.31998265410261,-0.380978289698092,4.76472665368587,0.6976081,0.39522982,-0.9960158,73.67729,11.456128,67.39409,CSO
10880635978000,1.370035,8.30210274300796,-0.421208318370069,4.72896659812002,0.6441574,0.4297437,-0.9819659,74.13338,10.943607,67.46022,CSO
10880640961000,1.375018,8.36088068209453,-0.433315279246911,4.74066028803687,0.60903263,0.44226643,-0.97097033,74.560486,10.444179,67.52673,CSO
10880645976000,1.380033,8.4927479384193,-0.419186719107668,4.7971745384291,0.61391956,0.45937067,-0.94225967,74.96838,9.962557,67.56748,CSO
10880651009000,1.385066,8.67566269391696,-0.357282386803991,4.88866551158674,0.6395759,0.46639562,-0.91415983,75.35298,9.502329,67.59897,CSO
10880655984000,1.390041,8.91079269069842,-0.244828631144727,5.016453732003,0.66920286,0.45540005,-0.8713993,75.72461,9.060186,67.61583,CSO
10880660958000,1.395015,9.05831494680031,-0.16744274848111,5.13627690069391,0.6728681,0.45570546,-0.82894415,76.086266,8.623625,67.62016,CSO
10880665949000,1.400006,9.15044642097147,-0.112163825497301,5.25144143581342,0.65668017,0.45204028,-0.782213,76.43556,8.206074,67.61486,CSO
10880671711000,1.405768,9.19706882207276,-0.119538808679303,5.40225875084072,0.6426302,0.44348818,-0.75441855,76.78964,7.7708654,67.60738,CSO
10880675965000,1.410022,9.20122051452155,-0.161054896499541,5.52265523081626,0.6243043,0.45845437,-0.691194,77.12054,7.367525,67.578674,CSO
10880680934000,1.414991,9.15160926487157,-0.244001452643942,5.59878868249785,0.5910121,0.43676865,-0.64568454,77.43762,6.9607677,67.54482,CSO
10880685976000,1.420033,9.05939838814093,-0.354654576934976,5.6264522343741,0.5626069,0.4279111,-0.61208695,77.73632,6.5767145,67.4927,CSO
10880690954000,1.425011,8.96486575830222,-0.456478141175083,5.66307711192769,0.54458636,0.43157628,-0.57879484,78.00911,6.222362,67.4047,CSO
10880696007000,1.430064,8.86502060316369,-0.551568749986245,5.71062237661623,0.53878313,0.42485678,-0.55680364,78.266365,5.882306,67.31647,CSO
10880700969000,1.435026,8.81684621349299,-0.586847939801402,5.71383229491822,0.5684101,0.42730024,-0.5384777,78.50563,5.5799513,67.19834,CSO
10880706054000,1.440111,8.83106906542056,-0.548921106915888,5.66168262990654,0.571159,0.4361578,-0.5149594,78.72688,5.2936125,67.07685,CSO
10880712090000,1.446147,8.81454982604273,-0.472069370600203,5.61128756459817,0.5842926,0.42455134,-0.4905248,78.941986,5.0345173,66.93427,CSO
10880715956000,1.450013,8.78316299253984,-0.403018277900983,5.58617822889115,0.58032197,0.3839288,-0.46120325,79.14613,4.788823,66.79572,CSO
10880721195000,1.455252,8.74706359025007,-0.312939886620609,5.54698309426876,0.5742133,0.3408628,-0.44684792,79.342186,4.5365844,66.67627,CSO
10880725964000,1.460021,8.79150434066362,-0.272943183405663,5.44921335054977,0.5842926,0.32467487,-0.4392121,79.53545,4.293139,66.55935,CSO
10880731311000,1.465368,8.84102635714286,-0.230387813833819,5.34295077915452,0.5867361,0.32559118,-0.43279803,79.72449,4.0371113,66.45726,CSO
10880736010000,1.470067,8.87792609375,-0.242687758858418,5.32245092072704,0.57940567,0.33964106,-0.42210788,79.90717,3.78851,66.35496,CSO
10880741697000,1.475754,8.92258427678571,-0.257573859593659,5.29764081328353,0.5549711,0.3378085,-0.41050145,80.07877,3.536203,66.2859,CSO
10880745987000,1.480044,8.95991282470444,-0.273831080741949,5.353189021117,0.54550266,0.34300083,-0.39920044,80.24612,3.2901392,66.20966,CSO
10880751000000,1.485057,9.00394823878924,-0.293402446849776,5.42658139495516,0.52931476,0.32803464,-0.38148534,80.39882,3.056598,66.13839,CSO
10880756019000,1.490076,9.02414823317684,-0.305129956964006,5.52624009652582,0.5222898,0.29901853,-0.36987892,80.53979,2.8286133,66.07883,CSO
10880760895000,1.494952,9.03876351538863,-0.31487361409494,5.62854880162754,0.5342017,0.28619036,-0.3484986,80.6769,2.6114604,66.01757,CSO
10880765961000,1.500018,8.95572862972466,-0.239735833638607,5.6788887666239,0.5329799,0.24373524,-0.3381139,80.797775,2.4024599,65.96198,CSO
10880770900000,1.504957,8.86237066031777,-0.155713602682325,5.720899852857,0.5360342,0.18692477,-0.3222314,80.919395,2.2023032,65.91328,CSO
10880775964000,1.510021,8.71640838865713,-0.0483739074423917,5.71450293184346,0.5403103,0.14110987,-0.30024028,81.037315,2.0125277,65.85291,CSO
10880780910000,1.514967,8.56585849572904,0.059834115609257,5.70038875349623,0.5348125,0.1151481,-0.27947086,81.149704,1.8307679,65.802826,CSO
10880785945000,1.520002,8.35191058974105,0.161776677784899,5.74686426193075,0.5213735,0.100792766,-0.25625798,81.25766,1.6417477,65.74506,CSO
10880790905000,1.524962,8.13040567060224,0.26074683476079,5.80341879313424,0.50793445,0.10873401,-0.23701571,81.360695,1.4610571,65.688065,CSO
10880795943000,1.53,7.93105659019927,0.339192182937344,5.97830857656639,0.48624873,0.09712757,-0.22082779,81.45319,1.2689598,65.62998,CSO
10880800986000,1.535043,7.73672595248132,0.413222968787124,6.1772662803219,0.48991394,0.080634214,-0.20097467,81.54585,1.084622,65.570854,CSO
10880806043000,1.5401,7.61925325412658,0.417891597399494,6.32944221690633,0.48655418,0.040317107,-0.18845193,81.630226,0.8916216,65.48781,CSO
10880811117000,1.545174,7.52575831711392,0.400668863963544,6.4672240792557,0.5015204,-0.0036651916,-0.18051068,81.71686,0.70291233,65.41092,CSO
10880815948000,1.550005,7.43674096577215,0.384270948072911,6.59840740148861,0.5015204,-0.037873644,-0.17562376,81.79111,0.5073667,65.281784,CSO
10880820951000,1.555008,7.34455429453165,0.367289210709873,6.73426129532658,0.5122105,-0.082161374,-0.17654006,81.86681,0.31211042,65.16914,CSO
10880825963000,1.56002,7.33386296047821,0.367721560820077,6.75742283888944,0.5158757,-0.11575896,-0.17898351,81.93551,0.121309355,65.06411,CSO
10880830959000,1.565016,7.34331789418042,0.372448928945756,6.75269552012647,0.5119051,-0.1572978,-0.183565,81.99922,-0.06787161,64.97472,CSO
10880835950000,1.570007,7.32405182646032,0.407314148030426,6.70893059716309,0.52870387,-0.21319197,-0.17501289,82.064224,-0.24606001,64.8291,CSO
10880840968000,1.575025,7.29646358120366,0.450995531952351,6.65375403463139,0.5390886,-0.2751948,-0.16798794,82.12076,-0.4221522,64.69874,CSO
10880845958000,1.580015,7.26902927593647,0.494433177582165,6.5988853524805,0.54275376,-0.344528,-0.16249016,82.17552,-0.5962607,64.58973,CSO
10880851069000,1.585126,7.24092973000048,0.53892412083146,6.54268618725542,0.5308419,-0.40866885,-0.16310102,82.22435,-0.76702577,64.497955,CSO
10880856019000,1.590076,7.18161376902489,0.56120483774476,6.43555476384926,0.528093,-0.47769663,-0.16584991,82.27074,-0.93653744,64.42842,CSO
10880860965000,1.595022,7.10238126289481,0.570526268975696,6.29573334405195,0.537256,-0.4990769,-0.16401732,82.31305,-1.1025783,64.36393,CSO
10880865944000,1.600001,7.07057543085677,0.62377872790423,6.17665387013099,0.5488624,-0.5342017,-0.1685988,82.34258,-1.2885929,64.33845,CSO
10880870970000,1.605027,7.07574335033283,0.711631578258536,6.07329742323384,0.5308419,-0.5714644,-0.18173242,82.36094,-1.471067,64.318726,CSO
10880875964000,1.610021,7.07054201750224,0.81467096887272,6.02281098235822,0.5174029,-0.59223384,-0.19394971,82.37678,-1.6569034,64.32219,CSO
10880880975000,1.615032,7.0609757173328,0.924683520711652,5.99411198195953,0.5021312,-0.6072,-0.19700404,82.38237,-1.8385617,64.332886,CSO
10880885961000,1.620018,7.07787113512739,1.02685670540194,5.9887981626506,0.4804455,-0.60231316,-0.20922135,82.36828,-2.0381758,64.3579,CSO
10880890964000,1.625021,7.10626130734742,1.12622149294884,5.99352991566265,0.43768495,-0.59803706,-0.21868975,82.34151,-2.230386,64.385,CSO
10880895960000,1.630017,7.13723354992296,1.21450585015408,6.01055660708783,0.40744713,-0.6075055,-0.23151793,82.291435,-2.4471776,64.41396,CSO
10880901050000,1.635107,7.17009385269646,1.29900386960709,6.03402825192604,0.38973203,-0.6243043,-0.2489276,82.22749,-2.6605995,64.44083,CSO
10880905980000,1.640037,7.1904320647091,1.35726544293909,6.07166319175089,0.36774087,-0.6435465,-0.25961772,82.14087,-2.889344,64.46913,CSO
10880912092000,1.646149,7.20642042898115,1.41056004616225,6.13028730538104,0.35216382,-0.6637051,-0.269697,82.04421,-3.1174,64.49903,CSO
10880915947000,1.650004,7.22988034381533,1.41870222412892,6.14006788109756,0.31795537,-0.69027776,-0.28527406,81.92781,-3.3573625,64.53059,CSO
10880920971000,1.655028,7.27703028841463,1.39774666280488,6.11911221036585,0.28680122,-0.7360926,-0.301462,98.19674,-3.5946252,64.56972,CSO
10880925961000,1.660018,7.30551198217116,1.3806519066561,6.1126641977813,0.269697,-0.7696902,-0.3005457,98.33307,-3.8344784,64.59972,CSO
10880930942000,1.664999,7.31968632151347,1.3664773699683,6.1173890433439,0.24251351,-0.82863873,-0.30176744,98.48315,-4.0699763,64.645744,CSO
10880936026000,1.670083,7.33431027424242,1.34916897575758,6.08736642727273,0.21410827,-0.8753699,-0.30604348,98.630745,-4.2936816,64.702255,CSO
10880940962000,1.675019,7.34863494511111,1.33006954755556,6.03006814266667,0.17745635,-0.93737274,-0.30848694,98.785286,-4.509115,64.77599,CSO
10880945972000,1.680029,7.39466278034071,1.30043927619933,5.95440249918739,0.14630222,-0.99082345,-0.3203988,98.94516,-4.7183766,64.85691,CSO
10880951108000,1.685165,7.46689664288232,1.26191449922655,5.86290632358528,0.13316862,-1.0143417,-0.3368922,99.10972,-4.923643,64.942345,CSO
10880956005000,1.690062,7.55913073508125,1.3004350852258,5.78993254437245,0.13072516,-1.0326678,-0.3371976,99.27077,-5.117669,65.05212,CSO
10880960961000,1.695018,7.67268909321105,1.40453020567242,5.72842172176254,0.115453534,-1.0433578,-0.34300083,99.440285,-5.310922,65.16039,CSO
10880965944000,1.700001,7.80330100234467,1.482080992966,5.64758774490035,0.10781772,-1.067487,-0.35033122,99.60345,-5.4948263,65.30098,CSO
10880970967000,1.705024,7.95079347713951,1.53413723781225,5.54781327183696,0.086437434,-1.061073,-0.35430184,99.770096,-5.672721,65.43076,CSO
10880975966000,1.710023,8.1005559682245,1.60931450443328,5.43921524408168,0.06352998,-1.0748174,-0.35460728,99.95262,-5.8698063,65.58807,CSO
10880980941000,1.714998,8.25663178991046,1.73937734511902,5.3091525663682,0.043066,-1.0830641,-0.3313944,100.13109,-6.0558586,65.737625,CSO
10880985936000,1.719993,8.42854027936508,1.69891130056548,5.17969304543651,0.0012217305,-1.0913107,-0.31031954,100.31693,-6.2446485,65.92397,CSO
10880990966000,1.725023,8.61969624761905,1.45518729133929,5.05066256726191,-0.020463986,-1.1233811,-0.32589662,100.503685,-6.4332027,66.11123,CSO
10880996000000,1.730057,8.80027782121573,1.28694483054231,4.92145997482122,-0.044898596,-1.1591167,-0.35246924,100.7091,-6.636952,66.330765,CSO
10881000972000,1.735029,8.96580769169646,1.21127398322408,4.7937655526917,-0.056505036,-1.174083,-0.36041048,100.911606,-6.834659,66.54512,CSO
10881005949000,1.740006,9.08291279052977,1.24394511687764,4.66904507248007,-0.05100725,-1.1863003,-0.36774087,101.075676,-6.9811625,66.819305,CSO
10881010927000,1.744984,9.13655383281763,1.41827803755274,4.54835296071261,-0.056199603,-1.1734722,-0.32284227,101.228355,-7.110121,67.085464,CSO
10881015913000,1.74997,9.20239423122115,1.54479368039236,4.44961735416492,-0.061086524,-1.1450669,-0.2846632,101.35635,-7.220043,67.390175,CSO
10881020948000,1.755005,9.29850927528326,1.55491095614771,4.40408932274444,-0.0842994,-1.1688906,-0.27947086,101.48211,-7.3217654,67.696815,CSO
10881025900000,1.759957,9.40155290167158,1.56642092820059,4.30098064879056,-0.10567969,-1.2119566,-0.27916542,101.626686,-7.4541616,68.018326,CSO
10881030934000,1.764991,9.52006227040315,1.58064205244838,4.10188476082596,-0.14446963,-1.1841623,-0.2733622,101.77112,-7.5762906,68.3171,CSO
10881035908000,1.769965,9.6578975346347,1.57228059506302,3.90290946312897,-0.18936823,-1.1636983,-0.28405234,101.924225,-7.700275,68.63625,CSO
10881040931000,1.774988,9.83567308518905,1.52213869866389,3.69778352764143,-0.2302962,-1.1093313,-0.312763,102.08202,-7.821108,68.92626,CSO
10881045924000,1.779981,9.99265754178493,1.47097250092505,3.51044772624829,-0.25411993,-1.071763,-0.32742378,102.23912,-7.9412713,69.26138,CSO
10881055853000,1.78991,10.1420188979121,1.35556992654086,3.28327858843606,-0.2843578,-1.0454959,-0.3484986,102.55178,-8.169148,69.9327,CSO
10881060884000,1.794941,10.1129999969886,1.28302292674162,3.27844212178277,-0.30115658,-1.0134255,-0.35063666,102.70011,-8.270894,70.26725,CSO
10881066316000,1.800373,9.94949091358025,1.2432169176859,3.27136339115705,-0.31306845,-0.99173975,-0.3313944,102.82962,-8.357266,70.63528,CSO
10881070885000,1.804942,9.63960741975309,1.2599673815389,3.26298815923055,-0.31429017,-0.99387777,-0.3222314,102.9595,-8.443651,70.98506,CSO
10881075885000,1.809942,9.32126105930391,1.35285477355629,3.2083977771923,-0.3173445,-0.98899084,-0.29779682,103.074165,-8.50421,71.32082,CSO
10881080876000,1.814933,9.06568216809255,1.66884286357185,3.01787564420572,-0.31703907,-0.9660834,-0.3118467,103.19302,-8.5711,71.63625,CSO
10881085889000,1.819946,8.88812240518445,1.86486116677966,2.86901085908275,-0.32498032,-0.9071349,-0.31856623,103.31949,-8.641072,71.90511,CSO
10881090884000,1.824941,9.0407403224327,1.55485622779661,2.89762663141575,-0.321926,-0.79229224,-0.3032946,103.4397,-8.707926,72.14583,CSO
10881095883000,1.82994,9.21214320683695,1.2424505087344,2.92178309275975,-0.30848694,-0.7113526,-0.3231477,103.62703,-8.866573,72.35731,CSO
10881101085000,1.835142,9.47525281409641,0.907584086884963,2.92656699462262,-0.28893927,-0.6945538,-0.35185838,103.80712,-9.020855,72.54676,CSO
10881105947000,1.840004,9.70311823654763,0.641289132761506,2.90880910148876,-0.31398472,-0.689056,-0.37995818,103.94112,-9.104758,72.74284,CSO
10881112151000,1.846208,9.82452514984918,0.739571395188285,2.67755661632772,-0.31612277,-0.7012733,-0.43585235,104.078384,-9.205354,72.922615,CSO
10881116034000,1.850091,9.89210514035088,0.807017043405861,2.53712813834166,-0.3295618,-0.6988298,-0.45540005,104.15356,-9.220208,73.14786,CSO
10881120973000,1.85503,9.88283368421053,0.960000973384299,2.4073236377536,-0.34666604,-0.6719518,-0.45570546,104.23699,-9.244168,73.3573,CSO
10881126288000,1.860345,9.86845178458179,1.11292351930124,2.27162710665527,-0.3378085,-0.62949663,-0.43676865,104.32384,-9.287715,73.594955,CSO
10881130978000,1.865035,9.81301645656508,1.13424469655369,2.19060663309598,-0.3277292,-0.57848936,-0.41996986,104.411865,-9.329557,73.81496,CSO
10881135989000,1.870046,9.75378694085256,1.15702516973322,2.10404083501377,-0.32559118,-0.5467244,-0.43310347,104.519455,-9.409414,74.0308,CSO
10881141005000,1.875062,9.67409192742498,1.18529859295185,2.04872830523378,-0.31948254,-0.50701815,-0.44012842,104.61682,-9.481829,74.227036,CSO
10881145994000,1.880051,9.59311952736517,1.21387724214934,1.99633410674908,-0.30940324,-0.46639562,-0.44257188,104.712555,-9.555008,74.40534,CSO
10881151102000,1.885159,9.43000524327628,1.2458395091687,1.96661718288509,-0.30085114,-0.41630468,-0.4370741,104.81849,-9.640145,74.57655,CSO
10881155945000,1.890002,9.26862823095731,1.27637012911416,1.94044804103818,-0.31123585,-0.37659842,-0.42821655,104.923,-9.722233,74.732704,CSO
10881161001000,1.895058,9.27001472290122,1.20354801458626,1.94590699791625,-0.29993483,-0.3036,-0.42149702,105.02402,-9.812748,74.86545,CSO
10881165977000,1.900034,9.31775531035865,1.10329382776999,1.96022902460429,-0.26206118,-0.29138273,-0.45631635,105.1269,-9.911148,74.98928,CSO
10881171410000,1.905467,9.31971533057055,1.0740846996145,1.98348165096376,-0.2574797,-0.2843578,-0.53878313,105.24719,-10.030352,75.076195,CSO
10881175965000,1.910022,9.31130684271395,1.06567638735544,2.00450243161141,-0.25167647,-0.28221974,-0.56046885,105.35223,-10.142105,75.16037,CSO
10881180944000,1.915001,9.23369201684618,1.08489011411212,2.09546398704778,-0.25137106,-0.26389378,-0.6032294,105.46257,-10.257524,75.22679,CSO
10881185957000,1.920014,9.12762528030931,1.1158262725214,2.21478921563104,-0.24129178,-0.24098633,-0.61911196,105.566376,-10.369919,75.287575,CSO
10881190966000,1.925023,9.02631449401501,1.15368755510245,2.32745153881112,-0.22418754,-0.22999077,-0.6417139,105.678764,-10.492682,75.32842,CSO
10881195989000,1.930046,8.9287201211199,1.19760507385879,2.43480550185636,-0.19028452,-0.17623462,-0.6918049,105.79353,-10.626524,75.34304,CSO
10881200976000,1.935033,8.877944912789,1.17892633908399,2.59504372874841,-0.17195857,-0.077579886,-0.70554936,105.92337,-10.765365,75.31043,CSO
10881205977000,1.940034,8.86159250629207,1.1135170423983,2.79594362169544,-0.1554652,-0.019242255,-0.71685034,106.05551,-10.916316,75.263596,CSO
10881210963000,1.94502,8.84528914720515,1.04830393436494,2.99624093547947,-0.12308934,-0.043982297,-0.77579886,106.21256,-11.096568,75.16955,CSO
10881215956000,1.950013,8.82896289932689,0.982999271627158,3.19681945287289,-0.13988814,-0.11362094,-0.84849185,106.3784,-11.279147,75.067535,CSO
10881220944000,1.955001,8.7891010784821,0.993613303643812,3.29681250271669,-0.17562376,-0.15821409,-0.9007208,106.54792,-11.469865,74.95715,CSO
10881225976000,1.960033,8.72156400043122,1.09232173930574,3.28122697309185,-0.1957823,-0.17837265,-0.9272934,151.80809,-11.670086,74.84469,CSO
10881230934000,1.964991,8.64113530207715,1.17029905165183,3.25514991918892,-0.20463985,-0.19303341,-0.94897914,152.22816,-11.848637,74.68708,CSO
10881236016000,1.970073,8.54966985816024,1.23769476625124,3.22145213728981,-0.21105394,-0.20219639,-0.9486737,152.64795,-12.024146,74.5333,CSO
10881241047000,1.975104,8.37802004677724,1.49233356454464,3.08979987750521,-0.19547687,-0.21594086,-0.9786061,153.1607,-12.234132,74.356544,CSO
10881245993000,1.98005,8.15692073145297,1.86396767361208,2.89692636098917,-0.1957823,-0.17959438,-0.9630291,153.59058,-12.426263,74.18509,CSO
10881251027000,1.985084,8.24218081703221,1.94818662323651,2.83231633175262,-0.16065755,-0.14508049,-0.98563105,154.10577,-12.653279,73.992775,CSO
10881255972000,1.990029,8.54161468583284,1.82654167510373,2.86038831802015,-0.10842858,-0.15118915,-1.0137309,154.59795,-12.874276,73.80574,CSO
10881260964000,1.995021,8.76166123441154,1.78459927875097,2.85757388396337,-0.09101892,-0.22143865,-1.0708468,155.41597,-13.196489,73.56516,CSO
10881265938000,1.999995,8.9148133306703,1.80780421965121,2.82972791611458,-0.09132435,-0.27855456,-1.1136073,156.1998,-13.518918,73.32121,CSO
10881270966000,2.005023,8.97331893351466,1.83648269635338,2.77456391976428,-0.09865474,-0.2751948,-1.1139128,156.91338,-13.801846,73.11291,CSO
10881275961000,2.010018,8.93476882472046,1.87021421765891,2.69264456119674,-0.09712757,-0.258396,-1.110553,157.65143,-14.09079,72.90372,CSO
10881280940000,2.014997,8.82710774163056,1.85299326073257,2.59511096837338,-0.076052725,-0.21380283,-1.094976,158.36827,-14.372155,72.700455,CSO
10881286022000,2.020079,8.64979768235526,1.78590280439149,2.48009874320599,-0.053450707,-0.160963,-1.0845913,159.03491,-14.648752,72.49423,CSO
10881290999000,2.025056,8.46993955187573,1.78695295219812,2.45503627303634,-0.040317107,-0.10170906,-1.1007792,159.70276,-14.935009,72.2788,CSO
10881296024000,2.030081,8.28188349237984,1.85747383950762,2.52085572203986,-0.021380283,-0.064446285,-1.119716,160.31331,-15.215182,72.06226,CSO
10881300971000,2.035028,8.131429961729,1.94542130235951,2.59596806050519,-0.007941248,-0.030543262,-1.1307116,160.9002,-15.489887,71.85044,CSO
10881306022000,2.040079,8.02250426154298,2.05908289610339,2.68595013700803,0.008246681,-0.012217305,-1.1487321,161.45668,-15.7678585,71.63113,CSO
10881312342000,2.046399,7.97624875513272,2.16957707080269,2.82089785471698,0.037873644,0.014966198,-1.1572843,161.941,-16.069021,71.37124,CSO
10881316009000,2.050066,7.99590235649984,2.21730714503518,2.91074281415094,0.034513887,0.01985312,-1.1954633,162.42653,-16.377506,71.103325,CSO
10881320954000,2.055011,8.02240550860249,2.28167180745123,3.03189997924528,0.025961773,0.023518313,-1.208597,162.84225,-16.70616,70.80031,CSO
10881326001000,2.060058,8.06034063315052,2.38067093268332,3.06728510115783,0.030848695,0.010079277,-1.2357804,163.26788,-17.044256,70.49014,CSO
10881330948000,2.065005,8.09883438269348,2.48171765328052,3.09134392071907,0.04153884,0.005192355,-1.2400564,163.65973,-17.373667,70.18509,CSO
10881336055000,2.070112,8.13807862568881,2.62083349039174,3.16550933882377,0.06261369,-0.004276057,-1.2699889,164.02055,-17.729324,69.8423,CSO
10881340935000,2.074992,8.17553791834485,2.75662241174231,3.2404272885282,0.1001819,-0.011301007,-1.2861768,164.36147,-18.077467,69.50739,CSO
10881346024000,2.080081,8.2084913235406,2.89156272566077,3.2764361249382,0.12308934,-0.019242255,-1.2910637,164.7248,-18.44499,69.15554,CSO
10881351000000,2.085057,8.240206108861,3.02295386846359,3.30815133604297,0.112704635,-0.032986723,-1.2864822,165.08089,-18.807978,68.80911,CSO
10881356627000,2.090684,8.41216101674815,2.90268395498804,3.4991379290232,0.109650314,-0.038789943,-1.2944235,165.4304,-19.197256,68.43353,CSO
10881360893000,2.09495,8.5609091987933,2.775185804858,3.66488545318839,0.11881329,0.047036625,-1.2156218,165.67719,-19.55383,68.0775,CSO
10881365971000,2.100028,8.3975107411358,2.94142842532346,3.67001869378765,0.13775012,0.024740042,-1.287093,166.06071,-19.974594,67.675804,CSO
10881370902000,2.104959,8.19695759614815,3.14198142420741,3.65136261445926,0.129198,-0.10293079,-1.3420709,166.4087,-20.36053,67.307175,CSO
10881375986000,2.110043,8.05015611111544,3.28058574076309,3.55449512666926,0.106901415,-0.16126843,-1.3530666,166.59448,-20.702158,66.9552,CSO
10881380922000,2.114979,7.91672595156706,3.40481391642982,3.44867111094024,0.087659165,-0.16584991,-1.3600914,166.8348,-21.051117,66.605545,CSO
10881386053000,2.12011,7.75492563738131,3.47662488635682,3.31619788995502,0.06811147,-0.1685988,-1.3548992,167.16132,-21.452414,66.21239,CSO
10881390925000,2.124982,7.59636684781609,3.53258670896552,3.18562025517241,0.05467244,-0.1704314,-1.3545936,167.47849,-21.848824,65.82321,CSO
10881396025000,2.130082,7.44307634445193,3.53575585402752,3.20249026284284,0.03390302,-0.18570304,-1.3524556,167.87518,-22.275824,65.416504,CSO
10881401005000,2.135062,7.29620329546723,3.52657628247522,3.25297785845443,0.019242255,-0.22204952,-1.3567317,168.26935,-22.696339,65.01727,CSO
10881406029000,2.140086,7.19917656039913,3.53552284053633,3.31072327970065,0.0009162979,-0.26633725,-1.3805555,168.7398,-23.141626,64.60729,CSO
10881410936000,2.144993,7.12102504970377,3.55017621053945,3.36933691272217,-0.01740966,-0.3200934,-1.4016303,169.21666,-23.578798,64.207756,CSO
10881416006000,2.150063,7.11381668407605,3.65864744044365,3.31017810027728,-0.029321533,-0.37201694,-1.4364496,169.6871,-24.030731,63.78735,CSO
10881420965000,2.155022,7.12322302017231,3.78562985933848,3.22552318708655,-0.058643065,-0.3915646,-1.4657712,170.15341,-24.477411,63.37089,CSO
10881426631000,2.160688,6.98807482113515,4.56766267801151,2.88545347215717,-0.0720821,-0.39095375,-1.4935656,170.60266,-24.934248,62.939472,CSO
10881430977000,2.165034,6.86004885415757,5.27386991107363,2.58397311672951,-0.08827003,-0.3494149,-1.5027285,171.02307,-25.38449,62.509018,CSO
10881436014000,2.170071,7.20378343182088,5.23140136510798,2.54667536415692,-0.089186326,-0.21105394,-1.3658947,171.40587,-25.822203,62.08899,CSO
10881440996000,2.175053,7.67645682664949,4.95725084842481,2.59394276780266,-0.035124753,-0.24220806,-1.382388,171.87904,-26.299454,61.645557,CSO
10881446011000,2.180068,8.13717524425705,4.72530062044199,2.68015528993894,0.01282817,-0.3191771,-1.4459181,172.57399,-26.938028,61.082844,CSO
10881451065000,2.185122,8.59693248550935,4.50480474567219,2.77867463579529,0.0021380284,-0.37598756,-1.4556919,173.2291,-27.554317,60.53783,CSO
10881456093000,2.19015,8.98348960712533,4.48112773784473,2.7923717286191,-0.004276057,-0.49113566,-1.4660766,173.86787,-28.073624,60.096863,CSO
10881461000000,2.195057,9.33401478781038,4.53186151376975,2.77392301715576,0.00580322,-0.63499445,-1.466382,174.52193,-28.58276,59.669533,CSO
10881465969000,2.200026,9.53315910465963,4.47968286721878,3.04778552158719,0.01038471,-0.77366084,-1.4535538,175.13873,-28.986616,59.343513,CSO
10881470990000,2.205047,9.65569106224973,4.37465540971969,3.47227223057881,0.031154128,-0.90224797,-1.4263704,175.79922,-29.379461,59.036774,CSO
10881476005000,2.210062,9.93395191834764,4.24878432793991,3.7548727505794,0.06872234,-1.0848967,-1.4184291,176.55699,-29.741285,58.77925,CSO
10881481001000,2.215058,10.3857141462446,4.09990803077253,3.87808065040773,0.12767084,-1.2217305,-1.4379768,177.33105,-30.097637,58.529083,CSO
10881485953000,2.22001,10.9883288535418,4.16167404840254,4.04954925876893,0.20952678,-1.3335189,-1.4587462,177.98746,-30.402641,58.302795,CSO
10881491008000,2.225065,11.707276784172,4.3650606769321,4.25766585598437,0.28680122,-1.4477507,-1.4501941,178.69559,-30.701584,58.090855,CSO
10881496340000,2.230397,12.4307156176413,4.61794435490906,4.09195150435165,0.34513888,-1.5577064,-1.3857478,179.38423,-30.914839,57.964474,CSO
10881501129000,2.235186,13.0586122444749,4.86910286514766,3.70175885476237,0.31612277,-1.6267341,-1.2672399,180.08582,-31.106373,57.85883,CSO
10881506004000,2.240061,13.2104095925348,4.96544596845337,3.01161771879934,0.27183503,-1.5494597,-1.174083,180.71634,-31.248035,57.791317,CSO
10881512108000,2.246165,12.8571955440016,4.90847609495176,1.82094652979242,0.18845193,-1.3060299,-1.1133019,181.27216,-31.362625,57.73729,CSO
10881515955000,2.250012,12.233566381199,4.75525947150966,1.26861594392551,0.100792766,-0.9483683,-1.1701124,181.87633,-31.469027,57.70381,CSO
10881521015000,2.255072,11.0464698227445,4.44642144940251,0.723323547390958,0.009468411,-0.61727935,-1.2834278,182.35194,-31.573498,57.65136,CSO
10881526000000,2.260057,10.0514039964043,4.324297753336,0.62002840930883,-0.041233405,-0.41233405,-1.4107933,183.0086,-31.734358,57.575645,CSO
10881530992000,2.265049,9.26352708709548,4.4197977747503,1.03545445229724,-0.094989546,-0.35979962,-1.5344934,183.56157,-31.921587,57.453903,CSO
10881535935000,2.269992,8.76749439905129,4.69672665864216,1.41786522413282,-0.17348573,-0.41325033,-1.6084082,184.24297,-32.210514,57.24161,CSO
10881540988000,2.275045,8.62402695048918,5.21320992288764,1.77175184693152,-0.24923302,-0.5140431,-1.6288722,184.90074,-32.51121,57.008766,CSO
10881545951000,2.280008,8.50398009193192,5.74170882027118,2.11539038055582,-0.25870144,-0.6001751,-1.6401732,185.424,-32.91216,56.648457,CSO
10881550967000,2.285024,8.41159192230022,6.30527708914319,2.45722689760554,-0.23793201,-0.6948592,-1.6471981,185.98343,-33.308773,56.29288,CSO
10881555911000,2.289968,8.41306253669109,6.75182589539684,2.72562018372381,-0.23671028,-0.65148777,-1.6551393,186.42827,-33.79903,55.824467,CSO
10881560967000,2.295024,8.60296545835483,6.98670629172257,2.86055140750335,-0.24862215,-0.55833083,-1.6481144,186.876,-34.27815,55.367542,CSO
10881565963000,2.30002,9.08935651226469,7.08292564957216,2.86665566896748,-0.20372356,-0.64751714,-1.674687,187.32475,-34.867706,54.794,CSO
10881570953000,2.30501,10.0162255282373,6.97842561800723,2.68491662390188,-0.16584991,-0.78984874,-1.5906931,187.73125,-35.411648,54.26302,CSO
10881575924000,2.309981,11.0429166163946,6.91727349188254,2.34999722996806,-0.054367006,-0.8863655,-1.3982705,188.12306,-35.94077,53.747047,CSO
10881580944000,2.315001,12.3309599024131,6.95992385188964,1.63773502876153,0.15882497,-0.8436049,-1.14018,188.49425,-36.41904,53.28456,CSO
10881586132000,2.320189,13.6107456517585,7.00641330664769,0.941915667015654,0.4147775,-0.58062744,-0.8536842,188.81493,-36.700493,53.02568,CSO
10881590964000,2.325021,14.2222279335231,7.0769691510063,0.749063415419801,0.5696318,-0.15607607,-0.59040123,189.01482,-36.911247,52.831993,CSO
10881596035000,2.330092,14.7713535454545,7.19087609090909,0.7313198,0.52534413,0.0842994,-0.42394048,189.35524,-36.92275,52.860542,CSO
10881600978000,2.335035,14.4018164284585,7.69138805474308,2.51819495782609,0.3555236,-0.009773844,-0.37598756,189.63599,-36.89675,52.92,CSO
10881606114000,2.340171,13.9562447478226,8.21746685599762,4.25315733904394,0.11178834,-0.22174409,-0.43401974,189.89348,-36.802437,53.044006,CSO
10881610956000,2.345013,12.8823347692003,8.77736911074822,4.59735927615796,-0.116980694,-0.3753767,-0.49938235,190.15892,-36.701797,53.16881,CSO
10881616153000,2.35021,11.7114438476847,9.32685538831181,4.89786031512474,-0.2275473,-0.40286562,-0.5815437,190.08281,-36.72699,53.13153,CSO
10881620970000,2.355027,10.3948087157558,9.18354811853218,4.30223983166683,-0.20616703,-0.38331795,-0.6768387,190.06659,-36.774323,53.073082,CSO
10881626300000,2.360357,8.94903527326426,8.99476211126174,3.63583047729253,-0.13561209,-0.35277468,-0.7644979,190.02849,-37.032925,52.794674,CSO
10881630935000,2.364992,7.93893605616346,8.15659446475259,2.89222531354701,-0.057421334,-0.30757064,-0.84207773,189.98666,-37.308453,52.49877,CSO
10881635966000,2.370023,6.84253710012588,7.24681637854169,2.08508883484071,-0.008552114,-0.26450464,-0.90102625,190.09056,-37.725254,52.07246,CSO
10881640964000,2.375021,7.09068884451576,6.94607882234284,2.4581793160185,0.042455133,-0.23609942,-0.9407325,190.18257,-38.151573,51.63752,CSO
10881645969000,2.380026,7.47526616582971,6.70628352750614,2.95134326348877,0.094989546,-0.22724187,-0.9560041,190.26506,-38.57994,51.201023,CSO
10881651105000,2.385162,7.82744014572844,6.5279635629336,3.2294339589891,0.1001819,-0.26297748,-0.9941832,190.49802,-39.019928,50.769943,CSO
10881655957000,2.390014,8.14980558311199,6.37599113280476,3.43666884180377,0.10476339,-0.28008172,-1.0372492,190.71164,-39.46139,50.33733,CSO
10881661008000,2.395065,8.35703487436282,6.31000436707646,3.31063743205397,0.08674286,-0.2764165,-1.1102476,190.79817,-39.830704,49.963806,CSO
10881665931000,2.399988,8.52196595352324,6.27230604557721,3.08915906746627,0.07544186,-0.22999077,-1.1737776,190.87276,-40.204475,49.585266,CSO
10881671001000,2.405058,8.78553213138686,6.42470934562044,2.94776902481752,0.10476339,-0.1414153,-1.2110404,190.87315,-40.525826,49.253586,CSO
10881675900000,2.409957,9.06782818741369,6.62833315411324,2.8367014753403,0.13255776,-0.0842994,-1.2244794,190.86957,-40.85263,48.915565,CSO
10881681704000,2.415761,9.32697054476963,6.96864092088284,2.67839679975852,0.11881329,-0.016493361,-1.2162327,190.86266,-41.156788,48.60259,CSO
10881685984000,2.420041,9.5011718777166,7.24181997197914,2.5556641927847,0.07788532,0.03634648,-1.1756102,190.83719,-41.450073,48.29917,CSO
10881691003000,2.42506,9.58338157568534,7.48431461835518,2.37991066078665,0.037873644,0.090713486,-1.1279627,190.80782,-41.729435,48.011074,CSO
10881696055000,2.430112,9.60740918474374,7.69095215661502,2.18768973814064,-0.005192355,0.17195857,-1.0867293,190.74411,-41.992702,47.73557,CSO
10881701032000,2.435089,9.60549722763984,7.77644741250374,1.98179747233024,-0.044898596,0.269697,-1.0635164,190.69159,-42.264107,47.454037,CSO
10881705984000,2.440041,9.59131127091435,7.80481972096919,1.76900496133214,-0.07849618,0.45723262,-1.0360274,190.56654,-42.516426,47.1854,CSO
10881712170000,2.446227,9.45589733412066,7.7641637246334,1.8339994869009,-0.08124508,0.6750061,-1.0012082,190.43468,-42.782967,46.90446,CSO
10881716015000,2.450072,9.34355491801988,7.72067658921366,1.95358939311091,-0.098043874,0.8332202,-0.96761054,190.25098,-43.035503,46.632072,CSO
10881721014000,2.455071,9.03524945367982,7.6578758601468,2.10684803690736,-0.11759156,0.9627236,-0.9462303,190.0337,-43.286346,46.36216,CSO
10881726000000,2.460057,8.63267619361238,7.5915692804999,2.25840507838722,-0.14752395,1.0537425,-0.9297369,189.77005,-43.52359,46.100933,CSO
10881730980000,2.465037,8.10929012403846,7.52533485961538,2.33930995798077,-0.15515977,1.1389582,-0.93187493,189.43053,-43.76154,45.828102,CSO
10881736013000,2.47007,7.50163979508547,7.45839058247863,2.37535715356838,-0.17654006,1.1969905,-0.9388999,189.07208,-43.99037,45.5599,CSO
10881741000000,2.475057,6.8810257093405,7.41303439462847,2.296673264339,-0.22113322,1.2177598,-0.9663888,188.6791,-44.255276,45.245373,CSO
10881746023000,2.48008,6.24939632537551,7.37475376836765,2.17704651962598,-0.24587326,1.2614367,-0.977079,188.26256,-44.512234,44.934128,CSO
10881751807000,2.485864,5.78446240654341,7.31509624921111,2.27712014138999,-0.2452624,1.2547172,-1.0198395,187.8729,-44.838757,44.548813,CSO
10881756011000,2.490068,5.50387155183429,7.26833121527442,2.40182715627722,-0.22113322,1.2257011,-1.0351112,187.48378,-45.154755,44.17151,CSO
10881760943000,2.495,5.16269890135321,7.23131948833105,2.52495638723279,-0.2144137,1.0940597,-1.0748174,187.18312,-45.55934,43.711815,CSO
10881765979000,2.500036,4.80800608315356,7.20294396411061,2.63845823720337,-0.19425514,0.8940013,-1.1102476,186.92863,-45.96279,43.25863,CSO
10881770934000,2.504991,4.49678189850535,7.20985204090083,2.67267097954959,-0.1459968,0.6582073,-1.1267409,186.71284,-46.39492,42.77603,CSO
10881775966000,2.510023,4.20477700171682,7.2390525813977,2.65807070930115,-0.07696902,0.42577308,-1.1533136,186.58043,-46.83597,42.295444,CSO
10881781010000,2.515067,4.00757669437315,7.28560809575518,2.68874074019564,-0.007941248,0.22388211,-1.1640037,186.5147,-47.311695,41.783966,CSO
10881786098000,2.520155,3.86327237532083,7.34245506910168,2.7455879418469,0.07513642,0.037873644,-1.1591167,186.53246,-47.789017,41.285595,CSO
10881790920000,2.524977,3.79049699504731,7.46987055824441,2.80982202901148,0.15974127,-0.15088372,-1.1505647,186.62883,-48.30652,40.760204,CSO
10881795964000,2.530021,3.80994762174351,7.71300242721965,2.89248681165694,0.267559,-0.30940324,-1.1447614,186.77972,-48.82352,40.24838,CSO
10881801072000,2.535129,3.88752848469055,7.91936410944625,2.84524744462541,0.33108896,-0.44135013,-1.1258247,186.97388,-49.355507,39.72674,CSO
10881805887000,2.539944,4.03255192560935,8.06438760444794,2.63807080686286,0.39095375,-0.52198434,-1.0885619,187.20018,-49.88058,39.222023,CSO
10881810881000,2.544938,4.16316512490079,8.12408680853175,2.52155033809524,0.45051312,-0.5589417,-1.0375546,187.44937,-50.41834,38.708435,CSO
10881815891000,2.549948,4.28216281388889,8.12884680555555,2.46443156666667,0.50335294,-0.5839872,-1.0219775,187.71645,-50.951794,38.20392,CSO
10881821066000,2.555123,4.43007852715483,8.1614246943336,2.35301015435954,0.528093,-0.61636305,-1.0225884,188.01909,-51.475407,37.724865,CSO
10881825901000,2.559958,4.58251521480447,8.20761765921788,2.21905050796089,0.54519725,-0.63804877,-1.0106765,188.31638,-51.986073,37.259487,CSO
10881830886000,2.564943,4.73503033059388,8.24622540103708,2.15025227300656,0.5271767,-0.62858033,-1.0033462,188.60217,-52.471752,36.819584,CSO
10881835908000,2.569965,4.88560581988064,8.27916345152138,2.12672488351433,0.4978552,-0.61819565,-0.9944886,188.88582,-52.94635,36.389374,CSO
10881840895000,2.574952,5.01041202278888,8.29889619516113,2.14069377243249,0.47647488,-0.6072,-0.98929626,189.17436,-53.399036,35.98636,CSO
10881845914000,2.579971,5.11657135518522,8.30854722678446,2.18412250778034,0.46639562,-0.59437186,-1.001819,189.44989,-53.84546,35.585384,CSO
10881851078000,2.585135,5.15631203137974,8.32663542155064,2.14400359623443,0.43035457,-0.57971114,-1.01312,189.70374,-54.257767,35.215134,CSO
10881856008000,2.590065,5.14719460162209,8.34942899594477,2.04827248780535,0.40439278,-0.5516113,-1.0280862,189.94086,-54.667057,34.84453,CSO
10881860993000,2.59505,5.11000693665972,8.42836761209998,1.94075319998106,0.3912592,-0.5122105,-1.0290025,190.1521,-55.049046,34.49514,CSO
10881865961000,2.600018,5.0469426874645,8.55900080051127,1.82363361126681,0.37965274,-0.47219884,-1.0308352,190.34723,-55.427288,34.145824,CSO
10881870973000,2.60503,4.95097808567119,8.74020230165913,1.74678640856712,0.36193767,-0.45081854,-1.0207558,190.54048,-55.801815,33.80181,CSO
10881876000000,2.610057,4.80575161930618,8.99676885671192,1.73226376193062,0.33933565,-0.43279803,-1.0094548,190.71458,-56.168663,33.462082,CSO
10881880950000,2.615007,4.63532602733219,9.25144457502264,1.71991429586394,0.3051272,-0.42546764,-0.9923506,190.8885,-56.549656,33.110382,CSO
10881885999000,2.620056,4.42122261579954,9.51420800986213,1.71018233185066,0.25778514,-0.39828414,-0.9896017,191.04282,-56.922672,32.762585,CSO
10881891246000,2.625303,4.17342372155351,9.78278030655203,1.71145173590276,0.20219639,-0.3857614,-0.97310835,191.19304,-57.32671,32.381863,CSO
10881896000000,2.630057,3.92146435248542,10.0212413975689,1.72494954414468,0.160963,-0.38056904,-0.9596693,191.33005,-57.72156,32.00732,CSO
10881900951000,2.635008,3.65545604157536,10.2265486603494,1.78378445792123,0.1337795,-0.40744713,-0.93615097,191.4737,-58.160862,31.586233,CSO
10881905997000,2.640054,3.37879782262363,10.3696481599052,1.91257365886882,0.11759156,-0.48838675,-0.9114109,191.62686,-58.58603,31.178242,CSO
10881912115000,2.646172,2.631421565368,10.4420391881235,2.17745939809913,0.09040806,-0.59589905,-0.89919364,191.79985,-59.06913,30.71068,CSO
10881915995000,2.650052,1.88715223035897,10.4216084631215,2.41679307306574,0.042455133,-0.77396625,-0.88208944,192.01506,-59.532574,30.263514,CSO
10881920974000,2.655031,0.93207052442856,10.3953907879193,2.72391739462729,0.0009162979,-0.90041536,-0.8597928,192.23389,-60.037468,29.769794,CSO
10881926005000,2.660062,0.169052340779429,10.2505791323825,2.38455564939735,-0.09468412,-0.94225967,-0.8237518,192.47527,-60.519753,29.296562,CSO
10881930928000,2.664985,-0.536536881458417,10.0848363193049,1.92047681117919,-0.2012801,-0.8784242,-0.7828238,192.71513,-60.982437,28.841112,CSO
10881936031000,2.670088,-0.721784880012026,9.50678018460613,1.89160074305472,-0.2733622,-0.8381071,-0.7510588,192.96822,-61.623314,28.19235,CSO
10881940895000,2.674952,-0.791811300120265,8.87654217939467,1.9522903305472,-0.25900686,-0.7846564,-0.7339546,193.19041,-62.243393,27.562023,CSO
10881946015000,2.680072,-0.419255906624108,8.2593537517086,2.09291523989861,-0.2611449,-0.8414669,-0.7458665,193.46979,-62.96305,26.842768,CSO
10881950973000,2.68503,0.0309565028614344,7.67095737664288,2.24447183259482,-0.32436943,-0.96577793,-0.78038037,193.74464,-63.67108,26.133282,CSO
10881956029000,2.690086,0.623284450534678,7.35452026841837,2.37321922302679,-0.41141775,-1.1313224,-0.8164214,194.03145,-64.32557,25.47349,CSO
10881960899000,2.694956,1.24551847320501,7.1597752226907,2.48721630602913,-0.5128214,-1.2861768,-0.8405506,194.34737,-64.97556,24.816614,CSO
10881965950000,2.700007,1.85232254940654,7.27723256176783,2.88858311076908,-0.57971114,-1.4181237,-0.8604037,194.6838,-65.48309,24.295527,CSO
10881970976000,2.705033,2.44219952682621,7.50946761439737,3.39021074490977,-0.6087272,-1.5253305,-0.8542951,195.05571,-65.98131,23.782501,CSO
10881975964000,2.710021,2.89020088575419,7.91517621085395,3.95710706897446,-0.65057147,-1.6230689,-0.85062987,195.44554,-66.342384,23.400805,CSO
10881980936000,2.714993,3.27021584553073,8.40444561292897,4.55563081414605,-0.7516697,-1.7037032,-0.84696466,195.85919,-66.691376,23.027668,CSO
10881985997000,2.720054,3.50568818269441,8.8697488543264,4.64733168587076,-0.9120218,-1.7589865,-0.8677341,196.25955,-66.92756,22.744862,CSO
10881990965000,2.725022,3.66202193683162,9.31032581579209,4.48152311528428,-1.1365148,-1.7852536,-0.8940013,196.67456,-67.14575,22.469,CSO
10881995979000,2.730036,3.92576022495366,9.55760168178714,4.27319059527851,-1.3625349,-1.7406605,-0.956615,197.05275,-67.30842,22.210499,CSO
10882000970000,2.735027,4.24282724212272,9.70214690381426,4.0447158973466,-1.5265522,-1.647809,-1.0231993,197.4272,-67.45153,21.950958,CSO
10882005926000,2.739983,4.68465559680284,9.77578203128084,3.96372918602724,-1.5851953,-1.6126842,-1.0742066,197.81505,-67.59386,21.686052,CSO
10882010932000,2.744989,5.21450023978686,9.80416665393724,3.97792144795737,-1.6319265,-1.6722436,-1.103528,198.207,-67.71772,21.418293,CSO
10882015944000,2.750001,5.64510874773869,9.44969050452261,3.97006764623116,-1.6649132,-1.6811012,-1.0647382,198.5738,-67.77863,21.217466,CSO
10882020924000,2.754981,5.99980687035176,8.81698625929648,3.9461015839196,-1.7482964,-1.6924021,-1.056186,198.96259,-67.83171,21.00972,CSO
10882025934000,2.759991,6.1873941391768,8.10262120998605,3.83556554448874,-1.8298469,-1.6264287,-1.1154399,199.31923,-67.78269,20.897602,CSO
10882030929000,2.764986,6.25413782300179,7.33506852242376,3.66393895738489,-1.9233092,-1.5897768,-1.1960741,199.69067,-67.71707,20.787983,CSO
10882035943000,2.77,6.33457933363007,6.73002262156281,3.15452060593472,-1.9877555,-1.4727961,-1.2208142,200.007,-67.52584,20.788557,CSO
10882040987000,2.775044,6.42536095626113,6.24266824830861,2.39482116522255,-2.019215,-1.2235631,-1.2385293,200.2787,-67.339,20.76341,CSO
10882046013000,2.78007,6.60981500632911,5.99459594936709,2.06131668101266,-2.0906863,-0.84421575,-1.2449434,200.47543,-67.07389,20.795458,CSO
10882050976000,2.785033,6.86225211224219,5.92727953423033,2.04869483670001,-2.175291,-0.44715336,-1.2592987,200.59747,-66.80122,20.808542,CSO
10882055926000,2.789983,7.11871103136013,5.84517782011483,2.04825540839438,-2.2482896,-0.14935656,-1.2528846,200.62698,-66.52007,20.883234,CSO
10882060955000,2.795012,7.39046112601465,5.72598922577707,2.07686077059988,-2.3096814,0.1133155,-1.2156218,200.55241,-66.22144,20.943577,CSO
10882065911000,2.799968,7.58759119849417,5.52342603803818,2.15252706933192,-2.3280075,0.33841935,-1.2046263,200.39687,-65.87051,21.043407,CSO
10882070976000,2.805033,7.59787921790032,5.08619853374337,2.35828111949099,-2.3405302,0.56779927,-1.2415836,200.1708,-65.51317,21.12219,CSO
10882076447000,2.810504,7.45792656095027,4.88914789380815,2.47816309065791,-2.330451,0.72692966,-1.2935071,199.89372,-65.09921,21.248816,CSO
10882080944000,2.815001,7.19146619567374,5.00305461208615,2.47409497612998,-2.2953262,0.7974846,-1.3008375,199.58495,-64.68624,21.364508,CSO
10882085947000,2.820004,6.8950238546734,5.12977805250083,2.46956911956265,-2.2339342,0.8750645,-1.2724323,199.24013,-64.219604,21.486563,CSO
10882090969000,2.825026,6.59745570826052,5.25698275323289,2.46502607505313,-2.149024,0.9379836,-1.2281445,198.88934,-63.75999,21.603174,CSO
10882095992000,2.830049,6.27508688658525,5.41379604316408,2.49141535182261,-2.0766363,0.9425651,-1.1927143,198.5334,-63.30241,21.723103,CSO
10882101055000,2.835112,5.82542889110275,5.72098793150308,2.67394982061335,-2.0314324,0.88025683,-1.1597277,198.18578,-62.846165,21.851542,CSO
10882106410000,2.840467,5.33682369775088,6.03199800555505,2.84129358051667,-1.9883664,0.81122905,-1.1181889,197.84761,-62.506596,21.855635,CSO
10882112144000,2.846201,4.62256732221118,6.16096110899648,2.64288899722699,-1.8787161,0.7867944,-1.0885619,197.5207,-62.181187,21.86613,CSO
10882115947000,2.850004,4.14884618580074,6.24649418928733,2.51129976976786,-1.6911805,0.79626286,-1.0797043,197.21939,-61.942505,21.764055,CSO
10882120970000,2.855027,3.49270961972531,6.18654448634327,2.25156170923437,-1.475545,0.82650065,-1.0989466,196.92531,-61.72669,21.663198,CSO
10882125945000,2.860002,2.83368625692577,6.07516011950127,1.96846007568673,-1.2681563,0.8527679,-1.1111639,196.63358,-61.539055,21.566946,CSO
10882130941000,2.864998,2.53036990444098,6.32171842968446,2.42422664664979,-1.0891727,0.8491027,-1.0836749,196.34085,-61.512516,21.345036,CSO
10882135986000,2.870043,2.37038640989482,6.71697167666537,3.18650054823724,-1.0103711,0.6835582,-1.0415252,196.09023,-61.502964,21.139828,CSO
10882140965000,2.875022,3.28486636916399,7.14388960388753,2.72534158263823,-0.94134337,0.2779437,-0.874759,195.88777,-61.6127,20.889772,CSO
10882146694000,2.880751,4.95702778528968,7.65640968465748,1.4932227753161,-0.95142263,-0.3747658,-0.5513059,195.78476,-61.677673,20.736864,CSO
10882150956000,2.885013,4.99883128568445,7.59609223205461,1.34765658659127,-0.5665775,-0.50793445,-0.45173484,195.68181,-61.77313,20.47548,CSO
10882155967000,2.890024,4.23604728737073,7.22692431326099,1.69726590532376,-0.3585779,-0.68936145,-0.31887165,195.74358,-61.756447,20.380453,CSO
10882160964000,2.895021,3.47539439581741,6.85878779555759,2.04589846682969,-0.04428773,-0.7244862,-0.355829,195.65143,-61.91317,20.603123,CSO
10882165942000,2.899999,2.71763372058179,6.49205103647664,2.39320542924245,0.03268129,-0.4578435,-0.5354234,195.52676,-62.055065,20.805466,CSO
10882170967000,2.905024,2.91158502702973,6.45011515371909,1.96262413796176,0.004886922,-0.118507855,-0.7134906,195.36722,-62.226677,20.997526,CSO
10882175962000,2.910019,3.70175057267995,6.61293720222244,1.04794752874162,0.10781772,-0.17654006,-0.7089091,195.24641,-62.42155,21.19738,CSO
10882180943000,2.915,3.93174299224806,6.7007248227907,0.984555139651163,0.3839288,-0.71929383,-0.5561928,195.30736,-62.643436,21.110655,CSO
10882186020000,2.920077,3.81395856007752,6.74312721837209,1.45569321270349,0.7079928,-1.350623,-0.4465425,195.4135,-62.896935,21.027569,CSO
10882190958000,2.925015,3.45600581714143,7.0529904523938,1.87428495483258,0.89858276,-1.8484782,-0.45051312,195.40614,-63.215286,21.212456,CSO
10882195985000,2.930042,2.89783069905048,7.58229446187906,2.26885702366817,0.9950995,-2.1212296,-0.50518554,195.5147,-63.533936,21.439806,CSO
10882200975000,2.935032,2.50482700112031,8.22355029945499,2.29682717229512,1.1026118,-2.271808,-0.5558874,195.84218,-63.799587,21.625704,CSO
10882206056000,2.940113,2.23471333859507,8.97004632716996,2.03162466447315,1.1826351,-2.4217753,-0.5696318,196.24835,-64.06035,21.818768,CSO
10882210966000,2.945023,2.02376372846632,9.52213333043478,1.52103396475681,1.1798862,-2.5247061,-0.5723807,196.75546,-64.40707,21.819586,CSO
10882216289000,2.950346,1.83378598562829,9.98977045217391,0.770865700904921,1.1481212,-2.4987442,-0.56230146,197.26338,-64.7474,21.815058,CSO
10882220968000,2.955025,1.74549710381352,10.3261864070136,0.226590721945609,1.146594,-2.4055874,-0.58032197,197.76915,-65.2188,21.69987,CSO
10882225962000,2.960019,1.73082788618751,10.6097915874655,-0.237934839861977,1.1768318,-2.300824,-0.6273586,198.25815,-65.67616,21.571617,CSO
10882230932000,2.964989,1.75393960660369,10.8540521716397,-0.332279635557946,1.183246,-2.2602015,-0.6582073,198.651,-66.23059,21.40928,CSO
10882236032000,2.970089,1.81332996765504,11.0687711876345,-0.081012743966888,1.1664472,-2.2030854,-0.713796,199.00447,-66.7759,21.213617,CSO
10882240964000,2.975021,1.8734161181048,11.2995171219538,0.200220468277377,1.1239921,-2.2208006,-0.79290307,199.30238,-67.3488,21.005505,CSO
10882245983000,2.98004,1.93877099432068,11.5709914250601,0.547103999639159,1.042747,-2.2834144,-0.87598073,199.59196,-67.89795,20.772522,CSO
10882250943000,2.985,1.92998052177604,11.7338558279283,0.710700637657383,0.93034774,-2.3484714,-0.95447695,199.93904,-68.42717,20.489182,CSO
10882256091000,2.990148,1.83592979277947,11.7808811678749,0.673080365700115,0.80848014,-2.3603833,-1.039998,200.28166,-68.94736,20.17829,CSO
10882260926000,2.994983,1.71557906990111,11.7839951962205,0.616640240891021,0.66950834,-2.2999077,-1.1462886,200.65933,-69.463036,19.813574,CSO
10882265971000,3.000028,1.53581119200039,11.717765060609,0.522025536333105,0.5332854,-2.2149973,-1.2583824,201.02446,-69.976395,19.425562,CSO
10882270896000,3.004953,1.37813796973698,11.6521593503224,0.448702462509467,0.43890667,-2.1542163,-1.3558154,201.38829,-70.516335,18.98958,CSO
10882276001000,3.010058,1.2530494300788,11.5821094086583,0.413677674539965,0.3436117,-2.110234,-1.4202617,201.7224,-71.05329,18.535555,CSO
10882280914000,3.014971,1.13830446042072,11.4555954483833,0.340941039329957,0.25686884,-2.0998492,-1.4627168,202.0674,-71.62851,18.030516,CSO
10882286184000,3.020241,1.02525372201013,11.2147480311648,0.193483585687573,0.19120082,-2.084883,-1.488984,202.3882,-72.19839,17.518679,CSO
10882290899000,3.024956,0.94731166396521,10.9982048220004,0.0742377681834355,0.1469131,-2.0818288,-1.5070046,202.7176,-72.78258,16.983097,CSO
10882295988000,3.030045,0.913594076501285,10.7621819511761,-0.0269150062795019,0.10903945,-2.0613647,-1.5183055,203.02803,-73.35594,16.450155,CSO
10882300972000,3.035029,0.882248163114187,10.5357649846213,-0.123751044269127,0.06169739,-2.02624,-1.5271631,203.33322,-73.930016,15.913165,CSO
10882305993000,3.04005,0.854517388598616,10.3185406180315,-0.216186928434448,0.029626964,-1.9935588,-1.5351044,203.62401,-74.494064,15.380881,CSO
10882310896000,3.044953,0.839391117509546,10.1343404578041,-0.313692098199953,-0.007330383,-1.9617938,-1.5509869,203.89519,-75.04399,14.858895,CSO
10882316005000,3.050062,0.869892424775189,10.0504617692667,-0.443322648107224,-0.044898596,-1.9065105,-1.5473217,204.14114,-75.578926,14.346857,CSO
10882321008000,3.055065,0.899760900063898,9.96832337060703,-0.570263662236422,-0.054061573,-1.8371773,-1.5354098,204.35991,-76.098434,13.848051,CSO
10882326003000,3.06006,0.948244878261113,9.91706468912497,-0.663194112522598,-0.022296581,-1.7999145,-1.5222762,204.56396,-76.60681,13.35692,CSO
10882330974000,3.065031,1.00591720565278,9.88157422281241,-0.738611821306495,0.0021380284,-1.7259997,-1.5100589,204.72935,-77.10206,12.874882,CSO
10882336009000,3.070066,1.08188505003199,9.82445275431862,-0.767789723256558,0.02321288,-1.6673567,-1.4899004,204.85776,-77.56426,12.424748,CSO
10882341004000,3.075061,1.17370111817019,9.74793945297505,-0.752487009724888,0.06383542,-1.6374242,-1.459968,204.9655,-78.01083,11.9860735,CSO
10882346000000,3.080057,1.2857563043362,9.66774007316141,-0.785065799426934,0.11056661,-1.6032158,-1.4159856,205.03487,-78.42078,11.579219,CSO
10882351004000,3.085061,1.40933823316141,9.58535234364852,-0.844568234383954,0.18142697,-1.5696182,-1.3610078,205.08875,-101.191895,11.188632,CSO
10882356098000,3.090155,1.53188973848991,9.47310852853191,-0.888148984622477,0.27763826,-1.5176947,-1.3051136,205.11096,-100.85099,10.836733,CSO
10882361006000,3.095063,1.64745898418195,9.343092536318,-0.917041296045487,0.37568212,-1.500285,-1.2504412,205.12718,-100.53876,10.503943,CSO
10882366059000,3.100116,1.75284725128869,9.1797725204498,-1.00691609391482,0.50518554,-1.4972308,-1.1887437,205.08316,-100.30268,10.232472,CSO
10882371010000,3.105067,1.8472143754901,9.00047527515176,-1.1343117682456,0.605062,-1.4953982,-1.1285735,205.02863,-100.09936,9.97862,CSO
10882375986000,3.110043,1.94245800021048,8.83626056971033,-1.22939443244462,0.7165449,-1.4837917,-1.0873401,204.92406,-99.97017,9.776169,CSO
10882380987000,3.115044,2.03846602227122,8.68264761411246,-1.3014004615215,0.8155051,-1.4602734,-1.0424415,204.81026,-99.88266,9.5933275,CSO
10882386033000,3.12009,2.13998924126515,8.54887348645187,-1.30307516523795,0.89888823,-1.4773777,-0.9935723,204.59557,-99.89626,9.476521,CSO
10882391006000,3.125063,2.24322698666864,8.43155792235688,-1.25614889060006,0.9786061,-1.5128077,-0.95111716,204.3751,-99.950294,9.370495,CSO
10882396014000,3.130071,2.33376533826446,8.29781382271523,-1.22748305592422,1.0552697,-1.5515977,-0.91690874,204.07605,-100.097176,9.32053,CSO
10882401767000,3.135824,2.42570818379307,8.13015343270835,-1.21125786782173,1.1114693,-1.5748106,-0.86193085,203.78021,-100.28849,9.287165,CSO
10882405938000,3.139995,2.47601697087229,8.02747392983571,-1.25095855613143,1.1673635,-1.5195273,-0.81153446,203.41081,-100.551704,9.302981,CSO
10882410932000,3.144989,2.52376971038395,7.91894497640011,-1.33778171887991,1.2006557,-1.496009,-0.7828238,203.05516,-100.84337,9.325704,CSO
10882415948000,3.150005,2.56689128391575,7.83210902259454,-1.40809766917185,1.2067643,-1.4740179,-0.79320854,202.60214,-101.19617,9.393708,CSO
10882420939000,3.154996,2.5989243772427,7.79549978673049,-1.44013071471517,1.2257011,-1.4559973,-0.8081747,202.14268,-101.570816,9.467384,CSO
10882425940000,3.159997,2.62293113728197,7.79463942142322,-1.49978426752274,1.2391402,-1.4544702,-0.8194757,201.5766,-102.006615,9.581412,CSO
10882430965000,3.165022,2.61778149362226,7.92338029782771,-1.65942332851792,1.2534955,-1.4520267,-0.852157,201.0046,-102.441216,9.683378,CSO
10882436198000,3.170255,2.63487800648067,8.09155999515645,-1.81222903857406,1.2861768,-1.4184291,-0.8894198,200.27666,-102.934074,9.831088,CSO
10882440938000,3.174995,2.68324901083987,8.29383948367722,-1.93095807199458,1.3115277,-1.3457361,-0.93584555,199.53943,-103.41728,9.965551,CSO
10882445937000,3.179994,2.69577161182605,8.52876745020336,-2.03060561858379,1.3292428,-1.244638,-1.0045679,198.64413,-103.94246,10.121943,CSO
10882451177000,3.185234,2.60680489287726,8.8323005568881,-2.06723906023569,1.3277156,-1.0931433,-1.0772609,197.72015,-104.45091,10.265028,CSO
10882455847000,3.189904,2.52212634544184,9.10518015986021,-2.00137198285572,1.3200798,-0.93951076,-1.1481212,196.67958,-104.980774,10.420204,CSO
10882460886000,3.194943,2.42093743927109,9.40392921198203,-1.75080860093859,1.3222178,-0.8032878,-1.2311989,195.60931,-105.483505,10.551688,CSO
10882465917000,3.199974,2.31555776983645,9.7236942194692,-1.42167980298306,1.310306,-0.6933321,-1.3371841,194.60114,-105.90933,10.600976,CSO
10882471308000,3.205365,2.19420963846832,10.1079630733523,-0.916062675182646,1.2980887,-0.63163465,-1.4285084,193.57376,-106.31359,10.630856,CSO
10882475857000,3.209914,2.08060015288374,10.4249631010569,-0.397483250544539,1.2739595,-0.5934556,-1.5250251,192.71674,-106.568375,10.539337,CSO
10882480877000,3.214934,1.93059077975843,10.7588544931052,0.37675844364771,1.237613,-0.5992588,-1.5870279,191.85526,-106.80582,10.432162,CSO
10882485864000,3.219921,1.75295679586896,11.0637416598136,1.13325671256221,1.1725558,-0.6609562,-1.6019942,191.2265,-106.85979,10.204344,CSO
10882490863000,3.22492,1.51379150562974,11.3121058496493,1.86455063971755,1.0598512,-0.7699956,-1.5842791,190.61153,-106.89491,9.968684,CSO
10882495887000,3.229944,1.25687032917839,11.5005839474689,2.47401739300924,0.91354895,-0.8744536,-1.534799,190.18196,-106.718414,9.65077,CSO
10882500925000,3.234982,0.946718732492969,11.4957377315187,2.68724664419446,0.7281514,-0.9633345,-1.434617,189.78552,-106.52749,9.352456,CSO
10882505874000,3.239931,0.628944566788761,11.4088868842512,2.77189335053446,0.50946164,-0.99387777,-1.2983941,189.54657,-106.12351,8.988387,CSO
10882511747000,3.245804,0.205234974099257,11.0138061146289,2.42834491239947,0.28680122,-0.9370673,-1.1545353,189.31975,-105.70499,8.662652,CSO
10882515885000,3.249942,0.0949809340456621,10.7256295479452,1.90368543187215,0.06627888,-0.8582657,-1.0201449,189.13464,-105.19888,8.314572,CSO
10882520918000,3.254975,0.396410787776951,10.3524306494937,0.611843269398451,-0.113926366,-0.8017606,-0.9083566,188.95169,-104.68202,8.010702,CSO
10882525863000,3.25992,0.535280613006292,9.96291578293354,-0.353599957455761,-0.21410827,-0.6994407,-0.8686504,188.777,-104.17178,7.667273,CSO
10882530902000,3.264959,0.241143093441408,9.50273302143138,-0.495924570568227,-0.2489276,-0.5439755,-0.7816021,188.58276,-103.670135,7.3817735,CSO
10882535861000,3.269918,-0.0163332369450065,9.06449207743163,-0.637716728322148,-0.27855456,-0.5821546,-0.732122,188.19463,-103.465645,7.2259974,CSO
10882540871000,3.274928,-0.170130056351998,8.67038830401683,-0.786707403489933,-0.26175576,-0.67347896,-0.6994407,187.7826,-103.27759,7.0969768,CSO
10882545877000,3.279934,-0.280620484605752,8.33336940481315,-0.988222114241831,-0.19914207,-0.89888823,-0.70463306,187.36267,-103.13022,6.9347763,CSO
10882550877000,3.284934,-0.252514027943651,8.17878321815692,-1.35829046681471,-0.1133155,-1.1557571,-0.72326446,186.98087,-102.997086,6.7718697,CSO
10882555854000,3.289911,-0.205253727135622,8.06342111311199,-1.75005861601951,-0.00580322,-1.3866642,-0.7470882,186.667,-102.90946,6.5707483,CSO
10882560844000,3.294901,-0.0752725110410805,8.11272439110861,-2.24309078756331,0.11759156,-1.5302174,-0.76144356,186.40154,-102.84813,6.3590627,CSO
10882565914000,3.299971,0.0567925722453573,8.16281810241981,-2.74402728249859,0.20525073,-1.5494597,-0.77274454,185.94067,-102.93434,6.2144384,CSO
10882570972000,3.305029,0.188545075453011,8.21279324873382,-3.24377812892515,0.2770274,-1.4657712,-0.7779369,185.49669,-103.045334,6.063928,CSO
10882575837000,3.309894,0.315270249060214,8.26086147467642,-3.72445979516976,0.3539964,-1.2855659,-0.786489,185.04536,-103.17204,5.910001,CSO
10882580906000,3.314963,0.456291489103572,8.52111814513592,-3.84912969755111,0.44257188,-1.0821478,-0.7993172,184.56879,-103.31814,5.7589173,CSO
10882585864000,3.319921,0.587519352280702,8.79669105633528,-3.88096268756335,0.5519168,-0.88025683,-0.8206975,184.04662,-103.486305,5.6129518,CSO
10882590879000,3.324936,0.67645949745614,9.09627914015594,-3.56733152840156,0.6429357,-0.70371675,-0.85154617,182.72885,-104.045876,5.757597,CSO
10882595889000,3.329946,0.763532053906972,9.40047493131085,-3.23191554017111,0.7119634,-0.6160576,-0.8695667,181.38916,-104.616554,5.921486,CSO
10882600911000,3.334968,0.834475228999902,9.7504607731832,-2.69274771367883,0.75716746,-0.57787853,-0.890947,180.06747,-105.17064,6.0631576,CSO
10882605933000,3.33999,0.904735474618569,10.1005047704514,-2.15418502676917,0.7733554,-0.573297,-0.92485,178.98534,-105.59362,6.128006,CSO
10882610888000,3.344945,0.965536752974571,10.4466043902523,-1.63035840622906,0.78954333,-0.5879578,-0.93462384,177.93007,-106.01019,6.182482,CSO
10882616084000,3.350141,1.02722910049202,10.8064398859323,-1.0849765348288,0.79504114,-0.6075055,-0.9407325,177.18732,-106.236374,6.136602,CSO
10882620887000,3.354944,1.05955986393212,11.1020353822673,-0.627727520305251,0.77671516,-0.6224717,-0.93431836,176.45987,-106.45407,6.0869617,CSO
10882626053000,3.36011,1.08674518424083,11.4082112221897,-0.144465119301327,0.75869465,-0.6038403,-0.86284715,175.88911,-106.53235,6.015871,CSO
10882630862000,3.364919,1.02382870124902,11.5565145316159,0.206069554223263,0.7049385,-0.5635232,-0.82802784,175.3206,-106.591896,5.936654,CSO
10882636152000,3.370209,0.947705057087744,11.7062279237313,0.58524908531012,0.6365216,-0.52503866,-0.74006325,174.8618,-106.53897,5.8670044,CSO
10882640886000,3.374943,0.745890127401325,11.5806539961421,0.800518334276387,0.54611355,-0.48166725,-0.65148777,174.39746,-106.47195,5.811306,CSO
10882646263000,3.38032,0.520001060067172,11.4343074346032,1.0245354150024,0.41813725,-0.45814893,-0.57360244,174.0103,-106.29691,5.7442875,CSO
10882650918000,3.384975,0.387386028764994,11.2375239095096,0.832029763884464,0.2779437,-0.41325033,-0.50732356,173.61406,-106.1077,5.704253,CSO
10882655846000,3.389903,0.246993574574417,11.0291996964783,0.628234307663372,0.15088372,-0.31581733,-0.45753807,173.26802,-105.843346,5.6317225,CSO
10882660888000,3.394945,0.0855709239728563,10.5578179154843,0.450322616927822,0.009162978,-0.2648101,-0.42485678,172.92805,-105.54966,5.5739193,CSO
10882665847000,3.399904,-0.0755657900493523,10.0597588690623,0.279420038050586,-0.10903945,-0.2733622,-0.4269948,172.58073,-105.237236,5.5237083,CSO
10882670887000,3.404944,-0.0726668423551738,9.837574714168,-0.081230204849181,-0.2180789,-0.2773328,-0.4560109,172.22374,-104.93321,5.4524384,CSO
10882675817000,3.409874,-0.0585197218397923,9.63951509096584,-0.446697501243508,-0.26145032,-0.28221974,-0.4972443,171.87048,-104.62013,5.3770676,CSO
10882680855000,3.414912,-0.0440626846883739,9.43711663626149,-0.820170977761686,-0.23365596,-0.2938262,-0.52442783,171.53084,-104.34011,5.271102,CSO
10882685825000,3.419882,-0.0298007802337195,9.23745003842889,-1.18860352605374,-0.1469131,-0.2846632,-0.5503896,171.18607,-104.065056,5.156095,CSO
10882690866000,3.424923,0.0150289134729836,9.18308126311668,-1.51381793288958,-0.070249505,-0.2669481,-0.57757306,170.83936,-103.7952,5.0349107,CSO
10882695818000,3.429875,0.0614505542952232,9.14130142913077,-1.82948505364135,0.024740042,-0.24495697,-0.59620446,170.48988,-103.55618,4.9110227,CSO
10882701059000,3.435116,0.084414316027832,9.12324069042969,-1.89571438654785,0.12797627,-0.20158553,-0.6151413,170.01593,-103.5038,4.823419,CSO
10882705905000,3.439962,0.102542910983887,9.10964444238281,-1.92517335778809,0.19242255,-0.17165314,-0.6395759,169.54271,-103.46475,4.729174,CSO
10882710892000,3.444949,0.12119897847168,9.09565259570313,-1.95548947202148,0.27183503,-0.12980886,-0.6719518,168.96771,-103.52477,4.6651907,CSO
10882715930000,3.449987,0.140045833896484,9.08151766015625,-1.98611561669922,0.3222314,-0.11636983,-0.70371675,168.3986,-103.5906,4.5928187,CSO
10882720969000,3.455026,0.158189440496368,9.09698466138946,-1.81025903430806,0.35979962,-0.07849618,-0.71959925,167.81662,-103.66885,4.5184345,CSO
10882726590000,3.460647,0.178242051767554,9.12205040584839,-1.55960138033153,0.37201694,-0.03176499,-0.7440339,167.23341,-103.74881,4.433015,CSO
10882730931000,3.464988,0.212102974623132,9.18363473931941,-1.32892428310188,0.38453966,0.02443461,-0.7703011,166.61443,-103.85146,4.360354,CSO
10882736055000,3.470112,0.258922021318775,9.2720703186685,-1.04280795603732,0.36377025,0.08155051,-0.79534656,165.98918,-103.94472,4.28285,CSO
10882740969000,3.475026,0.31956302442982,9.36662105078087,-0.802795269979373,0.32650748,0.15332718,-0.806953,165.3838,-103.98272,4.199826,CSO
10882745994000,3.480051,0.385738084050683,9.46588417326392,-0.5664557346685,0.27000242,0.23151793,-0.82527894,164.76604,-104.00692,4.1115146,CSO
10882751025000,3.485082,0.456632728508879,9.56202500375834,-0.422560056070657,0.19181168,0.31245756,-0.8414669,164.17427,-103.95846,4.021609,CSO
10882756017000,3.490074,0.528503325956967,9.65635518284318,-0.310262269837452,0.11362094,0.3866777,-0.8552113,163.56812,-103.89461,3.931743,CSO
10882761130000,3.495187,0.595869427253606,9.71038163020833,-0.277477051444311,0.010079277,0.47433686,-0.86193085,162.95325,-103.75166,3.8544683,CSO
10882765970000,3.500027,0.656223267397837,9.73823683854167,-0.291404859216747,-0.09193522,0.5552765,-0.88789266,162.32431,-103.58797,3.7716434,CSO
10882770989000,3.505046,0.693596080615666,9.73706214721122,-0.348420446676826,-0.18753563,0.61453044,-0.89369583,161.68752,-103.37872,3.7096152,CSO
10882776003000,3.51006,0.715548873300823,9.71754865559281,-0.431353272529717,-0.2782491,0.66614854,-0.9120218,161.03548,-103.14409,3.6399722,CSO
10882780982000,3.515039,0.737348425510515,9.6981713770192,-0.513707189546378,-0.35033122,0.7101309,-0.9288206,160.35109,-102.89402,3.5885859,CSO
10882786030000,3.520087,0.759450080371838,9.67852556415727,-0.597202383983034,-0.3943135,0.76144356,-0.9392053,159.65851,-102.63105,3.5349343,CSO
10882790999000,3.525056,0.643173569774217,9.60059212308813,-0.625491719147852,-0.40653083,0.8020661,-0.9465357,158.95364,-102.35805,3.4791806,CSO
10882796752000,3.530809,0.43751898791697,9.48020913155499,-0.630507681493081,-0.40439278,0.8393288,-0.9593639,158.24402,-102.08145,3.419005,CSO
10882800969000,3.535026,0.324297719398616,9.43073255944634,-0.610470224473711,-0.34574974,0.8332202,-0.9645562,157.50829,-101.85746,3.3735604,CSO
10882805973000,3.54003,0.222819774646214,9.40598185848569,-0.565918936900114,-0.25686884,0.82986045,-0.95203346,156.7726,-101.64772,3.3286333,CSO
10882810960000,3.545017,0.121686579106601,9.38131524264022,-0.52151900262163,-0.11728613,0.7968737,-0.9437868,156.07977,-101.46115,3.231828,CSO
10882815947000,3.550004,0.0205533835669869,9.35664862679475,-0.477119068343146,0.03390302,0.77457714,-0.9288206,155.39491,-101.30838,3.1396499,CSO
10882820966000,3.555023,-0.272166577427182,9.45456695644841,-0.436421165250992,0.10629055,0.7180721,-0.9288206,154.72409,-101.1728,3.0438998,CSO
10882825964000,3.560021,-0.685286077985516,9.63026103561508,-0.398433157209325,0.21960606,0.6792821,-0.93279123,154.06358,-101.094315,2.9505684,CSO
10882830932000,3.564989,-0.94035169870383,9.78932095614462,-0.37482077488159,0.2846632,0.6560693,-0.95386606,153.45721,-100.994995,2.8018844,CSO
10882835990000,3.570047,-1.09141529410389,9.94038465013157,-0.360658572055355,0.30268374,0.64996064,-0.9850202,152.8624,-100.917244,2.6494317,CSO
10882840962000,3.575019,-1.21822572934631,10.0155149054242,-0.364677883198887,0.26939157,0.6291912,-1.0106765,152.33514,-100.810104,2.3951232,CSO
10882845987000,3.580044,-1.32818392152792,10.029857072124,-0.383801048358832,0.19120082,0.59437186,-1.031446,151.81631,-100.70227,2.136183,CSO
10882851091000,3.585148,-1.44721361748252,9.98144619137201,-0.450317438420171,0.09040806,0.56016344,-1.0436633,151.3203,-100.57279,1.8413036,CSO
10882856089000,3.590146,-1.56978694615385,9.88244513001083,-0.554033327367281,-0.020463986,0.54519725,-1.0421361,150.83202,-100.42924,1.5483395,CSO
10882860997000,3.595054,-1.64702716786622,9.79981216917661,-0.766955575685508,-0.10995574,0.5360342,-1.0348058,150.35422,-100.27218,1.2344259,CSO
10882866420000,3.600477,-1.68765697751809,9.7236313755134,-1.11738747048113,-0.16646078,0.54336464,-1.0094548,149.88055,-100.10679,0.93094957,CSO
10882870987000,3.605044,-1.66713754461291,9.71601555728487,-1.43856157854202,-0.17592919,0.5702427,-0.9798279,149.40355,-99.96327,0.61119395,CSO
10882876000000,3.610057,-1.5851871005121,9.76904191254142,-1.81939036457476,-0.1685988,0.6230826,-0.9236283,148.923,-99.82317,0.3124895,CSO
10882880941000,3.614998,-1.50056906686385,9.83640337339787,-2.11116612041767,-0.14049901,0.69058317,-0.8512407,148.40257,-99.76351,0.030652182,CSO
10882886002000,3.620059,-1.4093408789101,9.92328727552209,-2.31099923138837,-0.090713486,0.75411314,-0.7602218,147.87541,-99.72273,-0.22345191,CSO
10882890933000,3.62499,-1.33250423481587,10.03928010742,-2.44120658982625,-0.032070424,0.8011498,-0.6814202,147.27846,-99.765915,-0.42633915,CSO
10882896011000,3.630068,-1.29530420852366,10.2677951016282,-2.35086369261283,0.014660766,0.8393288,-0.6102544,146.67542,-99.82332,-0.60043406,CSO
10882900968000,3.635025,-1.29050906822412,10.4638560118263,-2.19393900494378,0.058337633,0.806953,-0.5552765,146.04802,-99.93507,-0.7263093,CSO
10882906077000,3.640134,-1.33319531790423,10.62511489114,-1.92833583318147,0.07788532,0.7290677,-0.5329799,145.43181,-100.0525,-0.84072214,CSO
10882910894000,3.644951,-1.38684914587554,10.711055918958,-1.69028557973951,0.093767814,0.6740898,-0.5314528,144.77617,-100.14098,-0.9275067,CSO
10882915996000,3.650053,-1.47170153418234,10.663915703232,-1.46401244580801,0.1133155,0.5626069,-0.54550266,144.16676,-100.235725,-1.0191128,CSO
10882920931000,3.654988,-1.55656215060324,10.5877779040706,-1.24904487374203,0.11759156,0.45570546,-0.55680364,143.5822,-100.26843,-1.1193957,CSO
10882926002000,3.660059,-1.65183238799411,10.4210546653261,-1.03945037137813,0.12675454,0.37323865,-0.55833083,143.0287,-100.30964,-1.2244898,CSO
10882930949000,3.665006,-1.75171946856224,10.2714641315181,-0.867119065718879,0.14049901,0.30634892,-0.5839872,142.51413,-100.31155,-1.3627049,CSO
10882936274000,3.670331,-1.88493649106802,10.1587419120868,-0.80051055446599,0.17073683,0.25411993,-0.59498274,142.02466,-100.32336,-1.4988544,CSO
10882940958000,3.675015,-1.99862574027611,10.0563296990796,-0.772274207258904,0.18845193,0.22418754,-0.6078109,141.55197,-100.30165,-1.6645119,CSO
10882946018000,3.680075,-2.11012523967587,9.93513470108043,-0.840143487130852,0.21502456,0.24373524,-0.60048056,141.08514,-100.294945,-1.8250822,CSO
10882951096000,3.685153,-2.21845736268614,9.81113233384571,-0.932923986037083,0.2134974,0.29168814,-0.6044512,140.63307,-100.28754,-2.016992,CSO
10882956057000,3.690114,-2.31430918255356,9.68333022509367,-1.09267697466615,0.19822577,0.36377025,-0.61086524,140.17285,-100.28823,-2.2021117,CSO
10882960974000,3.695031,-2.41629994934592,9.55176238664306,-1.25455888953477,0.15760323,0.44623706,-0.6123924,139.68146,-100.29969,-2.4024289,CSO
10882965964000,3.700021,-2.55730987931543,9.39195085128356,-1.43787176904692,0.08002335,0.54641896,-0.62858033,139.16803,-100.30307,-2.6010048,CSO
10882970963000,3.70502,-2.69424439627628,9.23266640820821,-1.61669724422422,0.0036651916,0.65087694,-0.6462954,138.61848,-100.33681,-2.8136759,CSO
10882976000000,3.710057,-2.8004750287988,9.07814899619619,-1.76155722974975,-0.105068825,0.74220127,-0.68600166,138.04733,-100.34895,-3.0297675,CSO
10882980982000,3.715039,-2.90034213900941,8.92786224563256,-1.90408757324822,-0.18784106,0.8359691,-0.711658,137.44098,-100.39805,-3.2705162,CSO
10882986077000,3.720134,-2.9659126078134,8.79203780092148,-2.04459586740257,-0.26908615,0.915687,-0.7330383,136.81612,-100.428505,-3.5142367,CSO
10882991139000,3.725196,-3.02909051131777,8.66348549505342,-2.17710725445192,-0.31764993,0.9798279,-0.7452556,136.15796,-100.48776,-3.77918,CSO
10882996019000,3.730076,-3.06607896086268,8.61725005381876,-2.21871915156312,-0.35643986,1.0363328,-0.74189585,135.48445,-100.53713,-4.0389786,CSO
10883001177000,3.735234,-3.10159708575459,8.57567985883285,-2.25712010756818,-0.36865717,1.0864239,-0.729984,134.78758,-100.622215,-4.30921,CSO
10883005978000,3.740035,-3.08111471227046,8.64623005835767,-2.20932802159085,-0.35888332,1.1050552,-0.72418076,134.08916,-100.71141,-4.5756793,CSO
10883011161000,3.745218,-3.05900262275405,8.72239370845914,-2.1577332743256,-0.32498032,1.1148291,-0.72295904,133.36145,-100.814995,-4.841694,CSO
10883015994000,3.750051,-3.03838372855517,8.79341414468148,-2.10962264080582,-0.28955013,1.1099422,-0.72112644,132.63905,-100.92781,-5.1024404,CSO
10883021294000,3.755351,-3.01307512772864,8.87797439702595,-2.05700291423851,-0.26542094,1.0922271,-0.66889745,131.88391,-101.03159,-5.3413754,CSO
10883025973000,3.76003,-2.93468298255418,9.09137572426864,-2.01345169721061,-0.20891592,1.0714576,-0.6554584,131.1363,-101.163185,-5.587852,CSO
10883030954000,3.765011,-2.85123111781514,9.31855076401983,-1.96708952323841,-0.18387043,1.0360274,-0.6072,130.37677,-101.2468,-5.7919044,CSO
10883035988000,3.770045,-2.71576806000601,9.51468825320513,-1.97211046266026,-0.13591751,0.98440933,-0.5448918,129.63657,-101.34994,-5.987211,CSO
10883040907000,3.774964,-2.57893487127404,9.70342334615385,-1.98154721730769,-0.10170906,0.93767816,-0.49327368,128.91458,-101.45341,-6.170754,CSO
10883046002000,3.780059,-2.46236125290753,9.78608086549961,-2.05574098538868,-0.06963864,0.8903361,-0.42821655,128.1974,-101.523766,-6.3124804,CSO
10883050964000,3.785021,-2.3511694079123,9.85609069061444,-2.1339871542768,-0.05375614,0.8371908,-0.37415496,127.505554,-101.59436,-6.443439,CSO
10883055889000,3.789946,-2.26304874069104,9.90574559521413,-2.26712778860561,-0.03970624,0.8042041,-0.3408628,126.79948,-101.635605,-6.529228,CSO
10883060889000,3.794946,-2.1880878215364,9.94322574728838,-2.4384672160908,-0.032070424,0.8005389,-0.3210097,126.110794,-101.674484,-6.6042333,CSO
10883065898000,3.799955,-2.18756127350368,9.94446233551677,-2.56619869582979,-0.022602014,0.81214535,-0.32925636,125.39835,-101.70498,-6.6516905,CSO
10883070880000,3.804937,-2.20426117465873,9.93730533466673,-2.68309810356018,-0.020158553,0.82436264,-0.3390302,124.69701,-101.73464,-6.6946983,CSO
10883075882000,3.809939,-2.22102811676584,9.93011960238012,-2.80046679835492,-0.030848695,0.84238315,-0.34483343,123.9669,-101.774345,-6.718659,CSO
10883080869000,3.814926,-2.23774477815891,9.92295541867093,-2.91748352785139,-0.042760566,0.8604037,-0.3707952,123.242584,-101.82104,-6.7514386,CSO
10883085886000,3.819943,-2.36431038719349,9.84063165432344,-2.98247698176313,-0.023518313,0.86406887,-0.40622538,122.55853,-101.88505,-6.8108983,CSO
10883090882000,3.824939,-2.51630707826864,9.74088375915814,-3.03472582727092,-0.020463986,0.91629785,-0.4361578,121.86259,-101.94729,-6.872821,CSO
10883095881000,3.829938,-2.64972272232515,9.56525688050023,-3.01367867219083,-0.06780604,0.98654735,-0.45631635,121.16967,-102.05212,-6.957333,CSO
10883101119000,3.835176,-2.7844829488189,9.36079292125984,-2.97185657811024,-0.12583824,1.0219775,-0.48716503,120.47684,-102.16202,-7.051204,CSO
10883105965000,3.840022,-2.91758285857711,9.10785536122719,-2.89867911444297,-0.18051068,1.0256428,-0.50701815,119.82294,-102.30556,-7.1917086,CSO
10883110893000,3.84495,-3.05708353332994,8.81923358729997,-2.80728216913668,-0.20769419,1.033584,-0.5195409,119.16172,-102.44573,-7.3342857,CSO
10883115950000,3.850007,-3.1564735660892,8.58577212748851,-2.7394470736696,-0.23854288,1.0363328,-0.5467244,118.54256,-102.60732,-7.527686,CSO
10883121645000,3.855702,-3.24521565285222,8.35608614931087,-2.67680550767611,-0.28405234,1.061073,-0.57879484,117.917564,-102.762695,-7.721068,CSO
10883125964000,3.860021,-3.30986114847028,8.27658900931137,-2.60345878920495,-0.3304781,1.0638218,-0.58001655,117.33835,-102.93584,-7.9551463,CSO
10883130938000,3.864995,-3.38297340087998,8.23272182073059,-2.50597581992223,-0.3381139,1.0751228,-0.58001655,116.75047,-103.11416,-8.192244,CSO
10883135963000,3.87002,-3.4494683202394,8.27245805216958,-2.38439273187032,-0.34055737,1.0790935,-0.5681047,116.1874,-103.29865,-8.446155,CSO
10883140963000,3.87502,-3.51156228532668,8.35843461077307,-2.25065183411471,-0.32284227,1.0567969,-0.5525276,115.63083,-103.48674,-8.695843,CSO
10883146027000,3.880084,-3.5827371699853,8.63663681612785,-1.9811975219324,-0.29016098,1.0250319,-0.5149594,115.103065,-103.676605,-8.959352,CSO
10883150991000,3.885048,-3.65696273861132,9.01213049908156,-1.64499949761205,-0.24709499,0.9746355,-0.46303585,114.58991,-103.86824,-9.2126,CSO
10883155972000,3.890029,-3.74308816580468,9.27621647731363,-1.43147632965805,-0.18906279,0.9062186,-0.3930918,114.10947,-104.047226,-9.462535,CSO
10883160967000,3.895024,-3.8427751555745,9.41215362565123,-1.35897676955575,-0.15149458,0.8246681,-0.3100141,113.6519,-104.21903,-9.693627,CSO
10883165938000,3.899995,-3.97118787104007,9.53470685675732,-1.35689063180403,-0.12003502,0.7147123,-0.23335053,113.232445,-104.32502,-9.914727,CSO
10883170968000,3.905025,-4.15619298355823,9.63470956383641,-1.48689420321777,-0.10629055,0.602924,-0.14905111,112.84331,-104.418816,-10.110927,CSO
10883175971000,3.910028,-4.30965867197563,9.66008284018174,-1.66106219534175,-0.0888809,0.50885075,-0.0870483,112.48641,-104.50844,-10.315934,CSO
10883180939000,3.914996,-4.42130411009037,9.58644437555544,-1.89385475293325,-0.099571034,0.42821655,-0.040317107,112.162575,-104.582886,-10.502915,CSO
10883185976000,3.920033,-4.53450017929003,9.51178315447601,-2.12988054049129,-0.112399206,0.37110063,-0.013439035,111.8763,-104.693405,-10.709123,CSO
10883191479000,3.925536,-4.65816862654151,9.43021462169854,-2.38774234492486,-0.11911872,0.34147367,-0.0027488936,111.60745,-104.7971,-10.905449,CSO
10883195943000,3.93,-4.72957151801033,9.30988705540111,-2.59438656854647,-0.12889257,0.34422258,0.014660766,111.34482,-104.892654,-11.0947695,CSO
10883200981000,3.935038,-4.7726842830421,9.10390378355838,-2.82432124868944,-0.13744467,0.37110063,0.018020526,111.08397,-104.98842,-11.281596,CSO
10883205897000,3.939954,-4.8032006192732,8.88733914665801,-2.98359482628164,-0.12522738,0.39675698,0.010995574,110.82307,-105.18676,-11.507242,CSO
10883210965000,3.945022,-4.8166988733939,8.63987115444517,-3.04658677280986,-0.124005646,0.4550946,0.008246681,110.54555,-105.37704,-11.723307,CSO
10883215915000,3.949972,-4.8159254805001,8.39400626080059,-3.05615956055894,-0.100792766,0.5164866,-0.013744468,110.257355,-105.62883,-11.966126,CSO
10883220972000,3.955029,-4.77013131172515,8.12941714566085,-2.89842387781046,-0.076052725,0.5873469,-0.018325957,109.950294,-105.87394,-12.196778,CSO
10883225899000,3.959956,-4.70260667808677,7.92647961193616,-2.71301940263761,-0.058337633,0.6087272,-0.028099801,109.64221,-106.1501,-12.442451,CSO
10883230933000,3.96499,-4.58742674718081,7.8297287201357,-2.45962389139908,-0.06261369,0.5879578,-0.03481932,109.32588,-106.42288,-12.682717,CSO
10883235961000,3.970018,-4.45058427669369,7.78487639715801,-2.23482390841589,-0.06414085,0.54061574,-0.03726278,109.02118,-106.69099,-12.930233,CSO
10883241003000,3.97506,-4.24763986640648,7.89601251131792,-2.09469571401981,-0.062002823,0.4615087,-0.044898596,108.73099,-106.95842,-13.1801815,CSO
10883245972000,3.980029,-4.06604196686615,8.05773378750249,-2.0065674069619,-0.07971791,0.40103304,-0.05955936,108.45345,-107.178894,-13.417629,CSO
10883251035000,3.985092,-3.93546575260323,8.37692068940754,-2.06460142585278,-0.10140363,0.3408628,-0.059864793,108.199,-107.39578,-13.654382,CSO
10883255967000,3.990024,-3.8355404180054,8.69402494313294,-2.13545271681504,-0.12339478,0.29840767,-0.070249505,107.94365,-107.56065,-13.861379,CSO
10883261248000,3.995305,-3.81530431485446,9.05321561558468,-2.25686944137241,-0.14263703,0.27672195,-0.06566802,107.700424,-107.7181,-14.063685,CSO
10883265964000,4.000021,-3.81259555673534,9.33662726406498,-2.35323478706418,-0.1441642,0.267559,-0.070249505,107.461945,-107.845634,-14.2301235,CSO
10883271007000,4.005064,-3.85564847091918,9.52797404883122,-2.42020593695523,-0.12064589,0.26297748,-0.076358154,107.22848,-107.97256,-14.394023,CSO
10883275978000,4.010035,-3.89859023981265,9.69338827962529,-2.47914141185012,-0.09315695,0.25961772,-0.10323623,106.9732,-108.0955,-14.550947,CSO
10883280963000,4.01502,-3.94331187728337,9.78283155456674,-2.5149187218267,-0.05375614,0.27214047,-0.10995574,106.715324,-108.219795,-14.700377,CSO
10883286053000,4.02011,-3.98792628967708,9.85900068131286,-2.54232016945474,-0.04184427,0.2919936,-0.12583824,106.45831,-108.35543,-14.857793,CSO
10883291005000,4.025062,-4.02307390267867,9.81381086320805,-2.49713024649021,-0.013744468,0.3173445,-0.13041973,106.1963,-108.497025,-15.00955,CSO
10883296055000,4.030112,-4.04993645033947,9.74844792807242,-2.44860845128407,0.006414085,0.3475823,-0.12644911,105.92651,-108.64381,-15.162087,CSO
10883301038000,4.035095,-4.0452409669389,9.61697135294697,-2.39226152276887,-0.0106901415,0.38056904,-0.1301143,105.647964,-108.789215,-15.312946,CSO
10883305987000,4.040044,-4.0514459571147,9.48468510721324,-2.31621709373276,-0.023518313,0.39003745,-0.12583824,105.37315,-108.93642,-15.464837,CSO
10883312172000,4.046229,-4.12148833945605,9.30957915135987,-2.10608970291683,-0.028710667,0.40378192,-0.12614368,105.0873,-109.0814,-15.613533,CSO
10883315965000,4.050022,-4.15904403276356,9.20891497767019,-1.97580753635016,-0.064446285,0.4016439,-0.122478485,104.80888,-109.21712,-15.763124,CSO
10883321006000,4.055063,-4.17812402600534,9.11351600760794,-1.7945493438099,-0.06963864,0.3539964,-0.12614368,104.53972,-109.35651,-15.913432,CSO
10883325964000,4.060021,-4.20048971319626,9.02029606691589,-1.6099882573271,-0.062002823,0.3042109,-0.12583824,104.281456,-109.49975,-16.095474,CSO
10883330990000,4.065047,-4.24997223327103,8.93032784859813,-1.37607074878505,-0.046731193,0.23609942,-0.08979719,104.0446,-109.634186,-16.268688,CSO
10883336225000,4.070282,-4.30168656795085,8.83784738983757,-1.13500316628488,-0.036957346,0.1563815,-0.067500606,103.842995,-109.76271,-16.4562,CSO
10883341001000,4.075058,-4.35407367848813,8.79022265347772,-0.992128857746772,-0.025961773,0.05955936,-0.035124753,103.66934,-109.88179,-16.632147,CSO
10883346090000,4.080147,-4.40884521942566,8.73972031627953,-0.855069080642948,-0.01863139,-0.037873644,-0.018325957,103.530075,-109.988625,-16.824818,CSO
10883351043000,4.0851,-4.45068639446241,8.69323017573263,-0.88761220329805,-0.0076358155,-0.12461651,0.0021380284,103.418594,-110.088936,-17.008709,CSO
10883356304000,4.090361,-4.48871619714734,8.64946047897265,-0.928192636672875,0.00580322,-0.16249016,0.004886922,103.34147,-110.1943,-17.21198,CSO
10883360998000,4.095055,-4.45786878077639,8.66708748201157,-1.02514172857563,0.03023783,-0.1853976,0.002443461,103.28663,-110.299545,-17.411253,CSO
10883366288000,4.100345,-4.41907291406699,8.68784351285144,-1.13379546333859,0.05100725,-0.1826487,-0.0070249503,103.228745,-110.42087,-17.620289,CSO
10883371001000,4.105058,-4.29761697548483,8.72553657984597,-1.21755811626612,0.057726767,-0.19150625,-0.0106901415,103.18142,-110.542564,-17.82646,CSO
10883375937000,4.109994,-4.17041423565,8.76501312953512,-1.30528407740559,0.079107046,-0.17256944,-0.00580322,103.13764,-110.67374,-18.018852,CSO
10883380987000,4.115044,-4.00324897082168,8.78875584177805,-1.42410523910476,0.086437434,-0.18203785,0.0030543262,103.10484,-110.802605,-18.209587,CSO
10883385953000,4.12001,-3.83077538105896,8.80846701802922,-1.54730078532795,0.106595986,-0.19364429,0.00580322,103.066956,-110.93508,-18.3964,CSO
10883391001000,4.125058,-3.65050465454545,8.83678063636364,-1.66549377272727,0.1133155,-0.18997909,-0.00030543262,103.03081,-111.04765,-18.548212,CSO
10883395893000,4.12995,-3.47521483110527,8.86520607998787,-1.77919525040955,0.116980694,-0.19975294,0.004886922,103.002525,-111.15744,-18.694668,CSO
10883401088000,4.135145,-3.34362206178301,8.88560061530235,-1.92194574476959,0.11759156,-0.18936823,-0.010995574,102.98143,-111.25665,-18.810467,CSO
10883405935000,4.139992,-3.22628899020027,8.90365175559012,-2.0573300508847,0.10354166,-0.17959438,-0.015271631,102.96385,-111.3487,-18.920193,CSO
10883410982000,4.145039,-3.16678768323775,8.95201696498642,-2.09474413325284,0.0983493,-0.15790866,-0.022296581,102.93837,-111.42354,-18.994513,CSO
