timestamp,rel_time,acc_x,acc_y,acc_z,gyro_x,gyro_y,gyro_z,azimuth,pitch,roll,label
4669385401000,0,-2.25330857269133,6.885724,6.58218439676635,-1.239751,0.7629707,0.062308256,305.9979,-74.21389,-7.073324,SIT
4669389965000,0.004564,-2.25773923819564,6.885724,6.6176299058591,-1.2406673,0.73975784,0.067500606,305.7945,-73.47882,-7.211705,SIT
4669394944000,0.009543,-2.27479275916135,6.89061282041932,6.64894928723792,-1.2324207,0.7257079,0.06352998,305.57623,-72.75732,-7.343208,SIT
4669399975000,0.014574,-2.3040730976299,6.90037300118505,6.67334961175934,-1.2311989,0.7141015,0.07819075,305.36078,-72.046074,-7.464547,SIT
4669404928000,0.019527,-2.32008060063335,6.90737117459673,6.68710474856012,-1.2281445,0.68936145,0.084910266,305.13754,-71.34421,-7.586744,SIT
4669409934000,0.024533,-2.32482498078179,6.91211550520534,6.6918490296289,-1.2281445,0.64751714,0.09010262,304.9199,-70.65342,-7.700416,SIT
4669414907000,0.029506,-2.327164,6.92146159789699,6.694188,-1.1798862,0.5870415,0.09437868,304.69357,-69.98842,-7.8126354,SIT
4669419931000,0.03453,-2.327164,6.93551495511635,6.694188,-1.0922271,0.5143485,0.09101892,304.4808,-69.34404,-7.917525,SIT
4669424918000,0.039517,-2.327164,6.93240918003208,6.6963432090016,-0.958753,0.43127087,0.08002335,304.26047,-68.74323,-8.01545,SIT
4669430043000,0.044642,-2.327164,6.90780959101844,6.70126322955092,-0.8237518,0.36713,0.06963864,304.05338,-68.17572,-8.105512,SIT
4669434896000,0.049495,-2.33135797667121,6.88901007878581,6.70586194454297,-0.6957755,0.31398472,0.06566802,303.82837,-67.66388,-8.18858,SIT
4669439908000,0.054507,-2.34071276575716,6.87497799283765,6.71053924140518,-0.5815437,0.09682214,0.019547688,303.66913,-67.18732,-8.258336,SIT
4669444873000,0.059472,-2.3444587239537,6.85541604372217,6.70404631976848,-0.1685988,-0.047036625,-0.020158553,303.4609,-66.84744,-8.324921,SIT
4669449907000,0.064506,-2.3396888010092,6.82679650605521,6.68019670504601,0.08032878,-0.027183503,-0.01038471,303.26532,-66.50201,-8.381242,SIT
4669454896000,0.069495,-2.32990635388562,6.8091097,6.66374906969409,0.041233405,-0.009773844,-0.013439035,303.05453,-66.21027,-8.434216,SIT
4669459903000,0.074502,-2.31168427023561,6.8091097,6.65919363202546,0.008857546,-0.015882496,-0.014660766,302.84448,-65.991066,-8.479792,SIT
4669464895000,0.079494,-2.29709247006633,6.81045072993367,6.65319892612977,0.009468411,-0.016798794,-0.018936822,302.5487,-65.806114,-8.524715,SIT
4669469892000,0.084491,-2.29213234676617,6.81541085323383,6.64327862773632,0.0061086523,-0.0106901415,-0.0125227375,302.25494,-65.61421,-8.563112,SIT
4669474882000,0.089481,-2.28422808160153,6.81714362183032,6.62746995042898,0.0061086523,-0.007941248,-0.014966198,301.86328,-65.47135,-8.587577,SIT
4669480044000,0.094643,-2.27009025428027,6.81243099632031,6.59919395132507,0.0061086523,-0.0061086523,-0.023518313,301.4772,-65.32676,-8.608572,SIT
4669484890000,0.099489,-2.2601264,6.80794981894927,6.57694622578705,0.00030543262,-0.009773844,-0.0143553335,300.93808,-65.246185,-8.613182,SIT
4669489884000,0.104483,-2.2601264,6.80315474778424,6.56735603338681,0.00030543262,-0.01160644,-0.009162978,300.675370210168,-65.2047141082866,-8.6162142856285,SIT
4669494882000,0.109481,-2.25779726752628,6.79836840944257,6.56709989742115,0.010995574,-0.0021380284,-0.013439035,300.41245,-65.16321,-8.619249,SIT
4669499894000,0.114493,-2.24827556119818,6.7936074568538,6.59566501640547,0.007330383,-0.003970624,-0.016493361,299.8581,-65.08828,-8.620462,SIT
4669504967000,0.119566,-2.2409728,6.790958310568,6.61456644155667,0.009773844,-0.0018325958,-0.010995574,299.32486,-65.014244,-8.61368,SIT
4669509927000,0.124526,-2.2409728,6.79500343702631,6.60243135784723,0.007941248,-0.0070249503,-0.005497787,298.8028,-64.93395,-8.604666,SIT
4669514938000,0.129537,-2.2409728,6.79909015651878,6.59017149807545,0.01038471,-0.0033597588,-0.009468411,298.26166,-64.85433,-8.594988,SIT
4669519932000,0.134531,-2.22708196680426,6.799533,6.57032184072344,0.011301007,-0.0027488936,-0.003970624,297.72748,-64.77197,-8.57927,SIT
4669525061000,0.13966,-2.21187413728151,6.79990125887312,6.5505357,0.013744468,0.0027488936,-0.009468411,297.19925,-64.68594,-8.567399,SIT
4669530076000,0.144675,-2.2069360690109,6.80483927558092,6.5505357,0.011911872,0.0030543262,-0.004276057,296.65958,-64.6047,-8.551754,SIT
4669535091000,0.14969,-2.20331458254873,6.81105664086957,6.54858875235382,0.01160644,0.0015271631,-0.0070249503,296.09177,-64.53328,-8.539911,SIT
4669539906000,0.154505,-2.20792350728636,6.82488336695652,6.53476197814093,0.013133603,-0.002443461,-0.009162978,295.52808,-64.459755,-8.525953,SIT
4669544917000,0.159516,-2.2114413232755,6.83784,6.52380799181125,0.024129177,-0.006414085,-0.004886922,294.89774,-64.41018,-8.509248,SIT
4669549978000,0.164577,-2.20331657517392,6.83784,6.54411986206521,0.008246681,-0.0021380284,-0.01282817,294.2729,-64.34925,-8.496641,SIT
4669555107000,0.169706,-2.19508266230827,6.83784,6.56470464422932,0.014966198,-0.0076358155,-0.004581489,293.64804,-64.30177,-8.477536,SIT
4669559978000,0.174577,-2.20008019151076,6.83434434074633,6.57318495925367,0.012217305,-0.009773844,-0.006414085,293.0287,-64.24255,-8.463968,SIT
4669564956000,0.179555,-2.20967047724804,6.8295492479481,6.5779800520519,0.009468411,-0.01160644,-0.005497787,292.41473,-64.18303,-8.447008,SIT
4669569996000,0.184595,-2.23019526581664,6.82467272683667,6.579266,0.015882496,-0.009162978,-0.005497787,291.8042,-64.117546,-8.431002,SIT
4669574933000,0.189532,-2.25411788350536,6.81988820329893,6.579266,0.00580322,-0.010079277,-0.0036651916,291.2002,-64.04421,-8.4139,SIT
4669580092000,0.194691,-2.27450210859906,6.78634107121517,6.60082980682754,0.008552114,-0.014966198,-0.005192355,290.6053,-63.975605,-8.391558,SIT
4669585195000,0.199794,-2.29322097590731,6.74422350982476,6.62890842541415,0.004886922,-0.0070249503,-0.0033597588,290.01196,-63.90011,-8.369806,SIT
4669589976000,0.204575,-2.3099897219429,6.73538430269348,6.63383826713952,-0.004581489,-0.002443461,-0.0061086523,289.44116,-63.814293,-8.354067,SIT
4669594967000,0.209566,-2.32715552662058,6.73967567544442,6.62954684957802,-0.0012217305,-0.006414085,0.00061086525,288.87402,-63.729523,-8.335796,SIT
4669600003000,0.214602,-2.34350268580996,6.73756423299498,6.62264261532022,0.004886922,-0.00580322,0.01160644,288.30566,-63.63383,-8.320136,SIT
4669605114000,0.219713,-2.35886906027627,6.7273200368355,6.61239815173713,0.0021380284,-0.00580322,0.011301007,287.74402,-63.533882,-8.305676,SIT
4669610111000,0.22471,-2.35949132640262,6.71893180508286,6.6079965,0.0021380284,0.004581489,0.01282817,287.525608925831,-63.4935701242807,-8.29832467495205,SIT
4669617626000,0.232225,-2.34344696614401,6.708235620755,6.6079965,-0.004581489,0.0030543262,0.014049901,287.19714,-63.432945,-8.287269,SIT
4669621062000,0.235661,-2.336741,6.70352714724701,6.6079965,0.0125227375,0.0009162979,0.016187929,286.6579,-63.335445,-8.268485,SIT
4669625093000,0.239692,-2.336741,6.70027703047651,6.6079965,0.011911872,0.0009162979,0.017104227,286.1241,-63.229668,-8.251866,SIT
4669630342000,0.244941,-2.336741,6.69604486403435,6.6079965,0.0125227375,0.007330383,0.016187929,285.56134,-63.13787,-8.2308445,SIT
4669635074000,0.249673,-2.336741,6.70076293729979,6.60142156270021,0.015882496,-0.00030543262,0.024129177,285.00696,-63.04473,-8.206557,SIT
4669641062000,0.255661,-2.336741,6.71697155177125,6.58521294822875,0.02107485,0.011911872,0.021685716,284.45313,-62.94854,-8.189435,SIT
4669645082000,0.259681,-2.34010584656452,6.73301303969355,6.57590117100318,0.025350908,0.00580322,0.020158553,283.91098,-62.84997,-8.169423,SIT
4669650063000,0.264662,-2.34929964839549,6.76059444518647,6.56670741717259,0.03756821,0.009162978,0.021685716,283.36896,-62.75257,-8.152985,SIT
4669655088000,0.269687,-2.35382147087589,6.78348899368617,6.56218561830041,0.025045475,0.00030543262,0.02076942,282.8273,-62.656643,-8.130437,SIT
4669660358000,0.274957,-2.34629709726426,6.79477555410362,6.56970995262766,0.018325957,-0.00030543262,0.014660766,282.28943,-62.562542,-8.111491,SIT
4669665119000,0.279718,-2.33949946106597,6.80497200840104,6.57650755333582,0.024129177,-0.0018325958,0.021380283,281.78668,-62.461605,-8.093058,SIT
4669670004000,0.284603,-2.34169029828491,6.81653362158733,6.58916462240987,0.02076942,-0.011911872,0.019242255,281.2933,-62.353115,-8.078342,SIT
4669675106000,0.289705,-2.35024137171859,6.8293601870931,6.60626681392195,0.00580322,-0.018020526,0.015882496,280.80377,-62.241642,-8.063637,SIT
4669680163000,0.294762,-2.35748240458797,6.83466440740376,6.61280990281579,0.008857546,-0.018936822,0.013133603,280.3128,-62.1348,-8.047432,SIT
4669685122000,0.299721,-2.36215813080634,6.82531300379049,6.59878277298415,-0.0021380284,-0.025961773,0.0076358155,279.83118,-62.01774,-8.032452,SIT
4669690107000,0.304706,-2.36429332065563,6.81750842065563,6.59119914638736,-0.012217305,-0.03359759,0.0061086523,279.3626,-61.896614,-8.017312,SIT
4669695070000,0.309669,-2.36031860428165,6.81353370428165,6.59914853763171,-0.0106901415,-0.03573562,0.0070249503,278.8997,-61.774075,-8.003946,SIT
4669700704000,0.315303,-2.35599214148148,6.80920724148148,6.60828912851852,-0.010995574,-0.03145956,0.014049901,278.4305,-61.650017,-7.996179,SIT
4669704967000,0.319566,-2.35977231725926,6.81298741725926,6.61962981374074,-0.01160644,-0.01863139,0.017715093,277.96536,-61.52483,-7.991002,SIT
4669710364000,0.324963,-2.36455805703704,6.81777315703704,6.63398723296296,-0.01160644,-0.024129177,0.0070249503,277.4997,-61.40038,-7.9824944,SIT
4669714926000,0.329525,-2.36902410009453,6.81513379990547,6.62962175142317,-0.013439035,-0.03145956,0.008857546,277.03485,-61.275208,-7.972602,SIT
4669719894000,0.334493,-2.37402121619578,6.81013668380422,6.6196273105031,-0.0036651916,-0.012217305,0.013744468,276.5713,-61.151333,-7.968672,SIT
4669724923000,0.339522,-2.36399719777351,6.81647703481766,6.63599179090211,-0.0027488936,-0.011911872,0.012217305,276.12292,-61.020927,-7.9621053,SIT
4669729918000,0.344517,-2.35022480353167,6.82565863097889,6.65894597305182,-0.002443461,-0.011301007,0.017104227,275.67355,-60.89286,-7.9564905,SIT
4669734919000,0.349518,-2.33913186686905,6.82107744190307,6.65827180438606,0.0036651916,0.0012217305,0.025350908,275.2315,-60.763412,-7.959659,SIT
4669739896000,0.354495,-2.32915296363446,6.81109864286612,6.64829295325029,0.01282817,-0.0067195175,0.035124753,274.7988,-60.634678,-7.9595027,SIT
4669744898000,0.359497,-2.38569464882553,6.7987807683163,7.19373766684597,0.005192355,0.0015271631,0.02565634,274.3707,-60.497967,-7.9623003,SIT
4669749912000,0.364511,-2.45887985411512,6.78586574002152,7.87823452608929,0.0009162979,-0.0030543262,0.01985312,273.9511,-60.365135,-7.960028,SIT
4669754959000,0.369558,-2.4899697,6.76915454921145,7.50956320243094,0.013133603,0.009468411,0.016798794,273.52756,-60.235706,-7.962761,SIT
4669759957000,0.374556,-2.4899697,6.74992201426419,6.37965402099448,0.015271631,0.01038471,0.022907447,273.11288,-60.10206,-7.963508,SIT
4669764977000,0.379576,-2.46007827379768,6.75452677175526,6.40918497130139,0.0070249503,0.0106901415,0.018936822,272.68002,-59.83709,-7.98222,SIT
4669769967000,0.384566,-2.41002518092869,6.7753822452649,7.23089123733962,0.0076358155,0.013439035,0.01740966,272.25073,-59.579098,-7.999737,SIT
4669774929000,0.389528,-2.37645081940224,6.79135864869427,7.51756038820375,0.011301007,0.018020526,0.03145956,271.92456,-59.481693,-8.036029,SIT
4669780404000,0.395003,-2.38165715243769,6.79656509045775,6.4502612461126,0.010995574,0.018020526,0.019242255,271.6054,-59.380993,-8.07888,SIT
4669784967000,0.399566,-2.34419260113074,6.81068674261484,5.87670749116608,0.008246681,0.012217305,0.024740042,271.1953,-59.151714,-8.09694,SIT
4669789967000,0.404566,-2.20399704333165,6.84936130091873,5.99756564361434,0.0070249503,0.004581489,0.029626964,270.79306,-58.924347,-8.118332,SIT
4669794945000,0.409544,-2.13606377256031,6.86819288552632,6.2960413845943,0.008857546,0.0106901415,0.025045475,270.47473,-58.840973,-8.158878,SIT
4669799990000,0.414589,-2.23318808976608,6.84170442280702,7.01123052339181,0.01038471,0.01282817,0.015577064,270.16223,-58.756817,-8.197759,SIT
4669804959000,0.419558,-2.32503573333333,6.81230197222222,7.58802323888889,0.02076942,0.01160644,0.02076942,269.79974,-58.681095,-8.20414,SIT
4669809951000,0.42455,-2.38859740444444,6.75782066851852,7.20665354407407,0.013744468,0.0009162979,0.024129177,269.4457,-58.599255,-8.213029,SIT
4669816624000,0.431223,-2.43008330489083,6.70520359598253,6.76064852270742,0.02107485,0.00580322,0.02565634,269.06702,-58.391544,-8.237247,SIT
4669820124000,0.434723,-2.3861721520524,6.70813097152838,6.62306031310044,0.02076942,0.008552114,0.02565634,268.69623,-58.18241,-8.259645,SIT
4669824933000,0.439532,-2.3258382280524,6.71215318552838,6.43401411310044,0.014966198,-0.0009162979,0.0290161,268.3292,-58.036217,-8.293333,SIT
4669830154000,0.444753,-2.25495069463453,6.7310282474339,6.30033260209953,0.014660766,-0.008246681,0.023823744,267.96747,-57.891155,-8.329969,SIT
4669834979000,0.449578,-2.18757895887442,6.75348550832037,6.20152079489697,0.0021380284,-0.0070249503,0.040011674,267.60745,-57.74348,-8.360628,SIT
4669839949000,0.454548,-2.16756002531338,6.74841919874646,6.06181016407198,0.0076358155,-0.008857546,0.041233405,267.267,-57.637436,-8.388839,SIT
4669844959000,0.459558,-2.1724103860089,6.72901775596442,5.90174795723817,0.002443461,-0.015577064,0.03848451,266.93063,-57.5257,-8.414007,SIT
4669850116000,0.464715,-2.16773024429773,6.72602097785114,5.88555625636249,0.0076358155,-0.015271631,0.03573562,266.58224,-57.44436,-8.437307,SIT
4669855112000,0.469711,-2.15907587280456,6.73034816359772,5.93315529957493,0.00061086525,-0.02107485,0.040011674,266.24213,-57.35784,-8.458235,SIT
4669860064000,0.474663,-2.15245307513519,6.74180939945925,6.04060079239013,0.0018325958,-0.026572637,0.041233405,265.93442,-57.28979,-8.488489,SIT
4669865195000,0.479794,-2.14762183329073,6.76113436683709,6.21452570058008,0.0036651916,-0.021685716,0.03848451,265.63007,-57.21937,-8.519623,SIT
4669870192000,0.484791,-2.14275773123028,6.76101422492114,6.26972710599369,-0.0061086523,-0.022602014,0.042760566,265.33478,-57.13786,-8.541905,SIT
4669875093000,0.489692,-2.13782230569926,6.74127252279706,6.20556657409043,-0.0033597588,-0.033292156,0.043066,265.046,-57.059376,-8.565424,SIT
4669880135000,0.494734,-2.12780684042978,6.7324953,6.14314877241609,-0.0036651916,-0.0290161,0.032375857,264.7395,-56.95556,-8.589782,SIT
4669885118000,0.499717,-2.1141942528858,6.7324953,6.0841606561567,-0.0067195175,-0.022602014,0.025961773,264.4392,-56.852085,-8.612276,SIT
4669890073000,0.504672,-2.11276650560773,6.73836420560773,6.04276019065379,-0.0027488936,-0.008552114,0.018936822,264.15424,-56.754482,-8.641235,SIT
4669895053000,0.509652,-2.12556298105715,6.75116068105715,6.02143273157142,-0.00580322,-0.020463986,0.02443461,263.87732,-56.654675,-8.665984,SIT
4669900107000,0.514706,-2.135628,6.76969618415986,5.99195194612019,-0.015882496,-0.0036651916,0.025961773,263.60458,-56.562004,-8.697187,SIT
4669905098000,0.519697,-2.135628,6.80687840618436,5.93617849175418,-0.0070249503,-0.009468411,0.01985312,263.34433,-56.4736,-8.723857,SIT
4669910193000,0.524792,-2.14348368354511,6.83998246660578,5.89616339236023,-0.011301007,0.007941248,0.017104227,263.07166,-56.386703,-8.752924,SIT
4669915132000,0.529731,-2.18480340775095,6.8512515215216,5.92997051788437,-0.004886922,0.014966198,0.022296581,262.80634,-56.30528,-8.779293,SIT
4669920095000,0.534694,-2.22632391620076,6.86257533596728,5.9639419218075,0.00580322,0.015882496,0.01985312,262.5556,-56.233208,-8.813475,SIT
4669925082000,0.539681,-2.26577844951974,6.86381431672003,6.00073302073995,0.006414085,0.019242255,0.018020526,262.30484,-56.160553,-8.847677,SIT
4669930177000,0.544776,-2.30483431611526,6.85947477598719,6.03978884202241,0.006414085,0.022907447,0.013744468,262.0577,-56.09021,-8.883156,SIT
4669935103000,0.549702,-2.327164,6.86211176140708,6.06894260562832,0.01038471,0.018936822,0.005192355,261.81558,-56.012814,-8.925679,SIT
4669940093000,0.554692,-2.327164,6.87479885848673,6.0858587939469,0.030543262,0.025350908,0.004276057,261.57257,-55.94024,-8.969234,SIT
4669945082000,0.559681,-2.32589052186779,6.88954442774789,6.10742982640277,0.025961773,0.015882496,0.0033597588,261.33698,-55.85259,-9.013356,SIT
4669950216000,0.564815,-2.31644249191007,6.91788846829362,6.15939396650653,0.03176499,0.022602014,-0.006414085,261.1003,-55.772736,-9.062872,SIT
4669955108000,0.569707,-2.30779032311796,6.943185,6.20797076882039,0.03634648,0.02687807,-0.008857546,260.8568,-55.694004,-9.107987,SIT
4669960055000,0.574654,-2.30427991784232,6.943185,6.24307482157676,0.03756821,0.021685716,-0.01160644,260.61865,-55.61528,-9.154592,SIT
4669966034000,0.580633,-2.30003720243035,6.943185,6.2855019756965,0.03176499,0.01863139,-0.015882496,260.37222,-55.533665,-9.202865,SIT
4669970115000,0.584714,-2.29310579547862,6.9414090614053,6.32107389803462,0.03176499,0.02321288,-0.012217305,260.12793,-55.45454,-9.249761,SIT
4669975079000,0.589678,-2.27858260753564,6.93656789765784,6.37432553660896,0.03604105,0.017104227,-0.009468411,259.89133,-55.374767,-9.295207,SIT
4669980132000,0.594731,-2.26773449649587,6.92573354487114,6.39900920375879,0.03573562,0.014049901,-0.01160644,259.6663,-55.283356,-9.33841,SIT
4669985108000,0.599707,-2.26288029875726,6.90631665254151,6.37959221005399,0.038789943,0.014966198,-0.019242255,259.44537,-55.194298,-9.381534,SIT
4669990109000,0.604708,-2.2601264,6.88006597670002,6.40361706949821,0.034513887,0.004886922,-0.01863139,259.23376,-55.09413,-9.421976,SIT
4669995062000,0.609661,-2.2601264,6.84541993886495,6.48330299269593,0.03848451,0.004886922,-0.01038471,259.02246,-54.99787,-9.463673,SIT
4670000161000,0.61476,-2.2601264,6.80975263684172,6.5653378245928,0.02565634,0.008857546,-0.009773844,258.81982,-54.896156,-9.506411,SIT
4670005072000,0.619671,-2.25771437196671,6.79712092159439,6.61296335589137,0.03390302,-0.0018325958,-0.009162978,258.62213,-54.802784,-9.544433,SIT
4670010059000,0.624658,-2.25422776796613,6.79363424478026,6.64782950511754,0.021991149,-0.006414085,-0.008246681,258.42462,-54.701298,-9.58346,SIT
4670015660000,0.630259,-2.24976011192112,6.7886401865352,6.6859271134648,0.022907447,-0.008246681,-0.004886922,258.2096,-54.589226,-9.6185055,SIT
4670020094000,0.634693,-2.239464258563,6.77148043093833,6.70308686906167,0.020158553,-0.019242255,-0.01282817,258.00278,-54.4731,-9.653647,SIT
4670025078000,0.639677,-2.2278912921361,6.75219215356017,6.72237514643983,0.036651913,-0.027488936,-0.0106901415,257.8044,-54.354404,-9.680498,SIT
4670030151000,0.64475,-2.21375763342466,6.74005662940069,6.77884930780822,0.023823744,-0.015577064,-0.01160644,257.6085,-54.227394,-9.711452,SIT
4670036215000,0.650814,-2.19386937479452,6.73508461666096,6.89320679493151,0.021380283,-0.02076942,-0.01282817,257.4211,-54.109203,-9.737892,SIT
4670040147000,0.654746,-2.18678546899841,6.7324953,6.94686945580286,0.014660766,-0.021380283,-0.02076942,257.2346,-53.9806,-9.768226,SIT
4670045068000,0.659667,-2.2075977957958,6.7324953,6.90940726756757,0.02107485,-0.020158553,-0.0125227375,257.04892,-53.857716,-9.794512,SIT
4670050163000,0.664762,-2.22914601872461,6.7324953,6.87062046629571,0.021380283,-0.01863139,-0.017715093,256.8681,-53.713963,-9.827906,SIT
4670055077000,0.669676,-2.21917658693584,6.74471471306416,6.88693618844026,0.027183503,-0.018936822,-0.019547688,256.68784,-53.57652,-9.858382,SIT
4670059989000,0.674588,-2.20547924394836,6.75841205605164,6.90976509341939,0.01863139,-0.01863139,-0.009468411,256.50818,-53.43784,-9.887499,SIT
4670065248000,0.679847,-2.2026656,6.768784693407,6.87288003626149,0.017715093,-0.008857546,-0.0076358155,256.3221,-53.31215,-9.922206,SIT
4670070074000,0.684673,-2.2026656,6.77736815274399,6.82567100990807,0.02107485,-0.008857546,-0.01160644,256.14008,-53.187305,-9.954255,SIT
4670075107000,0.689706,-2.21214448931694,6.78985818931694,6.75934543210846,0.01740966,-0.013439035,-0.01282817,255.95837,-53.061077,-9.984444,SIT
4670080175000,0.694774,-2.22652742675952,6.80424112675952,6.68383486034968,0.014049901,-0.013133603,-0.005192355,255.77719,-52.937916,-10.014215,SIT
4670085461000,0.70006,-2.24116154336853,6.81830901523379,6.6059203229462,0.007330383,-0.01038471,-0.008246681,255.6024,-52.822598,-10.049075,SIT
4670090104000,0.704703,-2.2456326426546,6.80936686334842,6.5567382307994,0.023518313,-0.00580322,-0.0009162979,255.42657,-52.71552,-10.079992,SIT
4670095408000,0.710007,-2.250378121758,6.79919004172545,6.50025100461205,0.013744468,-0.007941248,0.0067195175,255.25533,-52.61773,-10.117578,SIT
4670100136000,0.714735,-2.24628342919154,6.79100061383614,6.4429253086815,0.013439035,-0.0106901415,0.0070249503,255.08595,-52.52778,-10.155456,SIT
4670105830000,0.720429,-2.24135213065654,6.78113796527401,6.37388712919153,0.005497787,-0.01282817,0.0067195175,254.91681,-52.441784,-10.194858,SIT
4670110080000,0.724679,-2.24741763389531,6.78682416754347,6.31057296129402,0.0030543262,-0.0030543262,0.0061086523,254.74846,-52.3578,-10.235426,SIT
4670115141000,0.72974,-2.25597411457322,6.79538069289434,6.2335645905199,0.01038471,0.005192355,0.015271631,254.58221,-52.275753,-10.272833,SIT
4670120157000,0.734756,-2.27560891678771,6.80211339701084,6.16780928260183,0.02321288,0.007941248,0.016798794,254.41145,-52.206333,-10.312033,SIT
4670125062000,0.739661,-2.30527366086728,6.80705747800232,6.11342372055573,0.017104227,0.0061086523,0.024740042,254.24031,-52.135273,-10.347915,SIT
4670130313000,0.744912,-2.3262823085569,6.81490644517556,6.10823929605573,0.016798794,0.0070249503,0.014660766,254.08055,-52.080368,-10.39654,SIT
4670135102000,0.749701,-2.33923451813047,6.82354116139509,6.13414353487715,0.0125227375,0.005497787,0.013133603,253.92195,-52.024075,-10.44002,SIT
4670140002000,0.754601,-2.34978823939948,6.82999850158074,6.12575208954643,0.0125227375,-0.004581489,0.013439035,253.849320608312,-51.9988347370006,-10.4651977956234,SIT
4670145064000,0.759663,-2.35748984581778,6.83384926458019,6.07569152719835,0.010079277,0.006414085,0.018020526,253.77429,-51.97276,-10.491208,SIT
4670150501000,0.7651,-2.36622352532895,6.83859212532895,6.02396172349507,-0.0027488936,-0.004581489,0.0067195175,253.63538,-51.91598,-10.543241,SIT
4670155344000,0.769943,-2.38529443092105,6.85766303092105,6.02777586478618,-0.00061086525,-0.009773844,0.009773844,253.49763,-51.859097,-10.589121,SIT
4670160264000,0.774863,-2.40466854934211,6.8770371493421,6.03165064800987,0.0027488936,-0.0125227375,0.013744468,253.37045,-51.80668,-10.632177,SIT
4670165155000,0.779754,-2.40833253738768,6.88070115487043,6.00157657175414,-0.008552114,-0.015577064,0.004886922,253.24811,-51.7502,-10.675877,SIT
4670170535000,0.785134,-2.39826810503972,6.87063675755307,5.93783523694492,-0.01160644,-0.01863139,0.005192355,253.12592,-51.6982,-10.715473,SIT
4670175501000,0.7901,-2.38897814759734,6.86134683244563,5.87899890447975,-0.009162978,-0.02565634,0.0015271631,253.00879,-51.644905,-10.7547245,SIT
4670180419000,0.795018,-2.37265168944219,6.85938836211156,5.85621832422312,-0.010079277,-0.020463986,-0.005497787,252.89172,-51.589874,-10.795692,SIT
4670185103000,0.799702,-2.35100638390272,6.86371742321946,5.86487644643891,-0.009773844,-0.01985312,-0.01038471,252.77924,-51.53602,-10.834467,SIT
4670190066000,0.804665,-2.336741,6.86501835513607,5.90472975459179,-0.005192355,-0.021991149,-0.004886922,252.6658,-51.497208,-10.874851,SIT
4670195072000,0.809671,-2.336741,6.86087654426782,5.99584950719654,-0.016493361,-0.018020526,-0.00061086525,252.55356,-51.45365,-10.917061,SIT
4670200103000,0.814702,-2.3359226132985,6.85590252912523,6.082908773403,-0.014049901,-0.024129177,-0.0030543262,252.45673,-51.41205,-10.949191,SIT
4670205268000,0.819867,-2.3234167928451,6.83922827596494,6.10792041430979,-0.006414085,-0.032375857,0.0009162979,252.35896,-51.36992,-10.978741,SIT
4670209990000,0.824589,-2.31198359164841,6.82398416688016,6.13078681670318,0.004276057,-0.023823744,-0.0021380284,252.24472,-51.316864,-11.007934,SIT
4670215139000,0.829738,-2.3108992340786,6.82446433799123,6.18784527933614,0.004276057,-0.028405234,-0.0030543262,252.190018481768,-51.289218767817,-11.0192080397888,SIT
4670220219000,0.834818,-2.3150827532118,6.83283133257374,6.25896510460057,-0.003970624,-0.03145956,0.0012217305,252.13605,-51.261944,-11.030331,SIT
4670225136000,0.839735,-2.31240396840245,6.82747372327443,6.31838420813559,-0.0009162979,-0.032986723,-0.0143553335,252.0296,-51.211346,-11.060016,SIT
4670230454000,0.845053,-2.29771106124053,6.79808787059502,6.36613624271186,-0.008246681,-0.02687807,-0.013133603,251.91449,-51.153427,-11.078498,SIT
4670235132000,0.849731,-2.28478638660656,6.77223848758745,6.40814151118644,-0.0033597588,-0.032375857,-0.01038471,251.8077,-51.087147,-11.100905,SIT
4670240108000,0.854707,-2.27928,6.76348955564625,6.45999513469372,-0.0015271631,-0.040011674,-0.01160644,251.70209,-51.0185,-11.124465,SIT
4670245170000,0.859769,-2.27928,6.76733120408115,6.51761986121721,-0.009773844,-0.035430185,-0.008857546,251.59534,-50.94972,-11.147552,SIT
4670250320000,0.864919,-2.28138241920915,6.77237932401143,6.57862462691758,-0.007941248,-0.04062254,-0.008246681,251.49731,-50.870365,-11.16897,SIT
4670254954000,0.869553,-2.2982966737494,6.78506509218676,6.65051057298714,0.0009162979,-0.04153884,-0.01282817,251.39914,-50.7915,-11.192403,SIT
4670259914000,0.874513,-2.31640083916151,6.79864329895188,6.72745366588852,-0.008246681,-0.04153884,-0.010079277,251.30081,-50.69983,-11.210321,SIT
4670264945000,0.879544,-2.32176556202485,6.79535449434452,6.79099315751901,-0.0033597588,-0.034513887,-0.008552114,251.20349,-50.61511,-11.23064,SIT
4670269938000,0.884537,-2.32619885163174,6.79092115844613,6.85305856393473,0.008246681,-0.035430185,-0.0061086523,251.10867,-50.531277,-11.248767,SIT
4670274925000,0.889524,-2.32359837613365,6.76499693078759,6.90579191575179,0.005192355,-0.03848451,-0.004581489,251.01196,-50.43492,-11.265946,SIT
4670279972000,0.894571,-2.31898409314558,6.73269733532219,6.95654845044391,0.0036651916,-0.03023783,-0.0061086523,250.9143,-50.34345,-11.285181,SIT
4670284916000,0.899515,-2.31410722032762,6.73335817535369,7.01715363574088,0.0009162979,-0.02076942,-0.016493361,250.82901,-50.238537,-11.318272,SIT
4670289886000,0.904485,-2.30904428064036,6.7485470472822,7.08297185167535,-0.0030543262,-0.022296581,-0.009162978,250.7424,-50.13608,-11.34684,CSO
4670294901000,0.9095,-2.2970120035123,6.77364563125658,7.12574268412288,0.005192355,-0.013744468,-0.017715093,250.64412,-50.026917,-11.375632,CSO
4670299902000,0.914501,-2.28326138332855,6.80114691948512,7.16241137154752,-0.013744468,-0.0030543262,-0.014966198,250.54352,-49.912766,-11.400276,CSO
4670304936000,0.919535,-2.2535581046865,6.83115703884015,7.15098116115986,-0.028710667,0.00030543262,-0.02107485,250.44827,-49.794853,-11.427701,CSO
4670309910000,0.924509,-2.21788027220201,6.86173803811256,7.12040016188744,-0.03970624,0.0027488936,-0.015577064,250.34933,-49.67622,-11.453483,CSO
4670314972000,0.929571,-2.19220011495693,6.87859591288175,7.03138993539546,-0.05955936,0.008552114,-0.020463986,250.25038,-49.551388,-11.47705,CSO
4670319957000,0.934556,-2.16883463531715,6.89261524946163,6.93325472572435,-0.0693332,0.008857546,-0.0067195175,250.14877,-49.430614,-11.494708,CSO
4670324959000,0.939558,-2.16094906593948,6.93280360346587,6.90081716375792,-0.06658431,0.009773844,-0.005497787,250.05573,-49.31661,-11.509823,CSO
4670330076000,0.944675,-2.15663832653061,6.98022164693878,6.88357420612245,-0.059253927,0.023518313,-0.0070249503,249.95868,-49.204212,-11.525156,CSO
4670335045000,0.949644,-2.19046870102201,7.04822862908805,6.94157373985849,-0.095294975,0.044898596,-0.015882496,249.86517,-49.09885,-11.538303,CSO
4670339940000,0.954539,-2.25364713122192,7.1324669391734,7.05740101765499,-0.13225232,0.07269296,-0.03604105,249.77063,-48.995586,-11.558247,CSO
4670344954000,0.959553,-2.34363736774744,7.20008387713311,7.14844890051195,-0.18600847,0.09468412,-0.04795292,249.67912,-48.8886,-11.584546,CSO
4670349961000,0.96456,-2.44183070424915,7.26145465904437,7.23027669517065,-0.23487769,0.12889257,-0.07422013,249.58615,-48.771557,-11.625546,CSO
4670354973000,0.969572,-2.50384883399197,7.28892228709152,7.25040807397677,-0.34025195,0.16249016,-0.105374254,249.4914,-48.61741,-11.678677,CSO
4670360886000,0.975485,-2.5161444844968,7.26433085769189,7.17048647408533,-0.4297437,0.13622294,-0.13316862,249.40765,-48.454792,-11.731313,CSO
4670365090000,0.979689,-2.46196321952366,7.12759004487813,6.92465790903298,-0.5018258,0.1301143,-0.14080444,249.3117,-48.260838,-11.806905,CSO
4670370070000,0.984669,-2.36698854228931,6.9072488063884,6.54096005591843,-0.50976706,0.08674286,-0.1469131,249.2352,-48.061638,-11.87513,CSO
4670375074000,0.989673,-2.27677397932435,6.69839493700388,6.1866174,-0.5018258,0.05222898,-0.13622294,249.15741,-47.857056,-11.939653,CSO
4670380076000,0.994675,-2.24582307705372,6.63207134414805,6.1866174,-0.45875978,0.056199603,-0.13103059,249.08278,-47.66301,-12.004792,CSO
4670385564000,1.000163,-2.2122424,6.56024014814815,6.18859595529335,-0.41599923,0.034513887,-0.12339478,249.02798,-47.509308,-12.057722,CSO
4670390066000,1.004665,-2.2122424,6.569661,6.33461982300885,-0.3659083,0.01985312,-0.12492194,248.97131,-47.371563,-12.1127205,CSO
4670395043000,1.009642,-2.2148128499356,6.58146926197364,6.49231099037947,-0.3313944,0.042455133,-0.12064589,248.91174,-47.236267,-12.169006,CSO
4670400051000,1.01465,-2.24807593333994,6.60998072441296,6.60635609585852,-0.33475417,0.027183503,-0.11789699,248.8642,-47.106216,-12.215282,CSO
4670405122000,1.019721,-2.28023003645612,6.63553974388963,6.71737936547872,-0.355829,0.05009095,-0.11728613,248.79547,-46.96517,-12.260139,CSO
4670410075000,1.024674,-2.29284539990691,6.61977039961436,6.77099480010638,-0.40042216,0.099265605,-0.13164146,248.72688,-46.818012,-12.309385,CSO
4670416945000,1.031544,-2.31034339039894,6.59789771736702,6.84536145382979,-0.45875978,0.09987647,-0.13652839,248.6484,-46.655163,-12.352523,CSO
4670420207000,1.034806,-2.31821976141446,6.58915932244962,6.87772892876334,-0.48899764,0.06780604,-0.1432479,248.57,-46.48905,-12.401569,CSO
4670425076000,1.039675,-2.32558920741209,6.59284394926116,6.89615225519558,-0.50793445,0.032986723,-0.13958271,248.49142,-46.31359,-12.448381,CSO
4670431014000,1.045613,-2.33457663200316,6.59733754425128,6.91862046475701,-0.5152648,0.02107485,-0.14508049,248.41412,-46.12033,-12.496759,CSO
4670435160000,1.049759,-2.37189407025678,6.58760336200229,6.89969451126936,-0.516792,0.036651913,-0.14782938,248.33717,-45.92761,-12.542188,CSO
4670440153000,1.054752,-2.43651825280175,6.5677189821707,6.85495460474062,-0.5213735,0.03970624,-0.14905111,248.2662,-45.735245,-12.583551,CSO
4670445073000,1.059672,-2.4300213823892,6.47606421784405,6.71777091444519,-0.5164866,0.053450707,-0.1414153,248.18683,-45.5465,-12.629693,CSO
4670450179000,1.064778,-2.37706500786405,6.33348929136954,6.51409225968011,-0.49449542,0.014049901,-0.13194689,248.11815,-45.364704,-12.665605,CSO
4670455101000,1.0697,-2.336741,6.21478830034364,6.34958745738832,-0.42394048,-0.034208454,-0.10873401,248.04471,-45.20133,-12.704293,CSO
4670460070000,1.074669,-2.336741,6.16607720460627,6.30435589690722,-0.3567453,-0.05009095,-0.08674286,247.97104,-45.046906,-12.73957,CSO
4670465161000,1.07976,-2.336741,6.11617014314543,6.25801380103093,-0.29718593,-0.051923547,-0.070249505,247.91006,-44.922695,-12.770405,CSO
4670470222000,1.084821,-2.34953071188359,6.07166440991647,6.24729106736729,-0.24740042,-0.054061573,-0.045814894,247.84656,-44.818745,-12.791761,CSO
4670475258000,1.089857,-2.37552303998922,6.03267587252313,6.27328330500314,-0.19822577,-0.054061573,-0.029321533,247.78152,-44.73317,-12.811372,CSO
4670480166000,1.094765,-2.3942018,6.00272720353429,6.30451017159277,-0.15241088,-0.035124753,-0.015271631,247.71521,-44.65927,-12.828205,CSO
4670485111000,1.09971,-2.3942018,5.99532122601454,6.35264881280788,-0.1282817,-0.033292156,0.0067195175,247.64804,-44.596004,-12.836739,CSO
4670490001000,1.1046,-2.3942018,5.98799762033779,6.40025203940887,-0.1151481,-0.017104227,0.020463986,247.57823,-44.529808,-12.854728,CSO
4670495051000,1.10965,-2.41958744447925,6.02499280975376,6.54338886965979,-0.09132435,-0.0009162979,0.042455133,247.5025,-44.476517,-12.866925,CSO
4670500726000,1.115325,-2.46214683367267,6.09119635343252,6.75618606251631,-0.0870483,0.009468411,0.058337633,247.42384,-44.422752,-12.879678,CSO
4670505189000,1.119788,-2.47834678307547,6.1339027757394,6.86992512977581,-0.08032878,0.015271631,0.0720821,247.33664,-44.369167,-12.886446,CSO
4670510068000,1.124667,-2.47342880653615,6.1683285088096,6.92402225547837,-0.08002335,0.012217305,0.082161374,247.24771,-44.31654,-12.89126,CSO
4670515168000,1.129767,-2.45729402650246,6.19675893306123,6.97304478377199,-0.06536258,0.0033597588,0.08857546,247.16293,-44.247677,-12.891076,CSO
4670520126000,1.134725,-2.43056259093596,6.21680746612245,7.01314188478536,-0.06414085,-0.007330383,0.08674286,247.07977,-44.176273,-12.890034,CSO
4670525151000,1.13975,-2.40346991975369,6.23712692530612,7.05378083851513,-0.05467244,-0.013439035,0.086132,246.99866,-44.109856,-12.880446,CSO
4670530126000,1.144725,-2.38409743810758,6.24155196228127,7.05252650991575,-0.050396383,-0.02107485,0.07666359,246.92319,-44.04229,-12.87138,CSO
4670536480000,1.151079,-2.36437903655217,6.23662246484122,7.02294901053143,-0.04062254,-0.034513887,0.06811147,246.85103,-43.979652,-12.860625,CSO
4670540125000,1.154724,-2.34479554362853,6.2345014,6.99172400061488,-0.032070424,-0.032986723,0.06047566,246.78043,-43.916946,-12.84647,CSO
4670545070000,1.159669,-2.28454874477348,6.2345014,6.8913128206375,-0.01863139,-0.04184427,0.055588737,246.71677,-43.8586,-12.829662,CSO
4670550121000,1.16472,-2.22301050796523,6.2345014,6.78874924731783,-0.012217305,-0.03940081,0.05100725,246.65573,-43.803482,-12.811443,CSO
4670555095000,1.169694,-2.17649920321319,6.2345014,6.7211653008033,-0.02687807,-0.039095376,0.051618114,246.59758,-43.74703,-12.7919445,CSO
4670560109000,1.174708,-2.15619772336962,6.2345014,6.71608993084241,0.007330383,-0.0290161,0.0421497,246.54062,-43.705055,-12.778812,CSO
4670565112000,1.179711,-2.1452048,6.23656869510331,6.7133417,0.018325957,-0.018020526,0.039095376,246.48703,-43.676662,-12.754051,CSO
4670570319000,1.184918,-2.1452048,6.24127341783187,6.7133417,0.018020526,-0.009468411,0.033292156,246.43523,-43.65356,-12.734248,CSO
4670574984000,1.189583,-2.14661751827632,6.244078,6.71757984007749,0.03634648,-0.009468411,0.02565634,246.39563,-43.636185,-12.7122965,CSO
4670580167000,1.194766,-2.15130817735778,6.244078,6.73165176834247,0.037873644,-0.002443461,0.02076942,246.35406,-43.61406,-12.694916,CSO
4670585123000,1.199722,-2.1588480118496,6.24651786409419,6.74695171120395,0.04520403,0.011911872,0.0290161,246.31158,-43.59829,-12.671612,CSO
4670590083000,1.204682,-2.17688862255982,6.25734230587163,6.76860051940752,0.05955936,0.018020526,0.025045475,246.27347,-43.583492,-12.652347,CSO
4670594990000,1.209589,-2.19473646061527,6.26805108325105,6.79001799962021,0.06811147,0.018325957,0.033292156,246.23508,-43.566803,-12.630233,CSO
4670600138000,1.214737,-2.20527306192092,6.27020113807908,6.81257030960462,0.087659165,0.013133603,0.03848451,246.19852,-43.556503,-12.610342,CSO
4670605144000,1.219743,-2.20967095760022,6.26580324239978,6.8345597880011,0.09437868,0.013133603,0.048258353,246.17966302438,-43.555119617167,-12.5977642106589,CSO
4670610064000,1.224663,-2.21882283868299,6.25994154630236,6.847417,0.12064589,-0.0030543262,0.053145275,246.16113,-43.55376,-12.5854025,CSO
4670617730000,1.232329,-2.24413425009481,6.24728570844682,6.847417,0.1432479,-0.025350908,0.05681047,246.1373,-43.545856,-12.55739,CSO
4670620227000,1.234826,-2.2522148690521,6.24185765285625,6.8457517251517,0.16157386,-0.028710667,0.06658431,246.10847,-43.543114,-12.525049,CSO
4670625113000,1.239712,-2.26690170043942,6.22227531324545,6.8310648426449,0.17195857,-0.03756821,0.07513642,246.08524,-43.544464,-12.48759,CSO
4670630154000,1.244753,-2.28274778595528,6.20299678571989,6.82146072876422,0.18020524,-0.05222898,0.07422013,246.06732,-43.545773,-12.448915,CSO
4670635116000,1.249715,-2.30139042291095,6.18808275402118,6.83637483832876,0.20830505,-0.06291912,0.08307768,246.0469,-43.556705,-12.40662,CSO
4670639994000,1.254593,-2.31971746504512,6.17342119686151,6.85103647203609,0.22296582,-0.06536258,0.081855945,246.02185,-43.565548,-12.36715,CSO
4670645074000,1.259673,-2.34108659517597,6.18417098627874,6.87648525183482,0.22449298,-0.06841691,0.089186326,245.996,-43.57951,-12.323023,CSO
4670650226000,1.264825,-2.36423998779916,6.21195484467386,6.90889986611919,0.23762658,-0.064751714,0.08399397,245.9726,-43.598988,-12.283658,CSO
4670655065000,1.269664,-2.38430403009848,6.23603159998412,6.92218013011436,0.24312437,-0.06505715,0.0870483,245.9476,-43.60983,-12.239816,CSO
4670660063000,1.274662,-2.40331004440915,6.2588388250953,6.91837891931385,0.24984388,-0.06841691,0.083383106,245.92538,-43.62318,-12.199588,CSO
4670665357000,1.279956,-2.42303866020925,6.28345089096571,6.91477417840239,0.25595254,-0.061086524,0.08277224,245.89828,-43.63778,-12.166933,CSO
4670670095000,1.284694,-2.42680643835423,6.32112827899195,6.92607743415262,0.25778514,-0.06719518,0.07849618,245.87663,-43.65201,-12.13327,CSO
4670675104000,1.289703,-2.43078972259404,6.36096070546375,6.93802720368679,0.2507602,-0.06658431,0.07849618,245.85376,-43.667812,-12.102743,CSO
4670680237000,1.294836,-2.44201458707926,6.39716452378685,6.93367936329241,0.25503623,-0.063224554,0.0720821,245.83423,-43.685863,-12.07454,CSO
4670686213000,1.300812,-2.46113454277959,6.43540453501211,6.91455930776748,0.26206118,-0.07086037,0.064751714,245.81744,-43.702263,-12.04525,CSO
4670690120000,1.304719,-2.469466154272,6.472317029704,6.906902611544,0.25442538,-0.07849618,0.0571159,245.80519,-43.719658,-12.021489,CSO
4670695064000,1.309663,-2.4618905224,6.5708004418,6.9182660198,0.25625798,-0.08307768,0.057726767,245.79404,-43.74119,-11.997235,CSO
4670700111000,1.31471,-2.454157064864,6.671335591648,6.929866165728,0.25289822,-0.08460484,0.059864793,245.77821,-43.767464,-11.973749,CSO
4670705071000,1.31967,-2.43040546250476,6.712875140807,6.92753458336506,0.24678956,-0.08124508,0.059253927,245.76318,-43.7927,-11.951343,CSO
4670710078000,1.324677,-2.39846248929387,6.72656495924058,6.91840805362581,0.24556783,-0.09560041,0.06536258,245.7507,-43.81851,-11.92384,CSO
4670715154000,1.329753,-2.36894204750728,6.7324953,6.90399923472913,0.2321288,-0.102319926,0.069027774,245.73071,-43.858135,-11.894445,CSO
4670720092000,1.334691,-2.34230206835039,6.7324953,6.88623931044033,0.22235495,-0.08124508,0.08032878,245.70575,-43.898598,-11.865747,CSO
4670725259000,1.339858,-2.32042504349154,6.72575634349154,6.88457097364578,0.20647246,-0.079107046,0.087659165,245.67929,-43.93928,-11.821767,CSO
4670730153000,1.344752,-2.30645619421057,6.71178749421057,6.90203198966545,0.19028452,-0.08857546,0.09132435,245.65015,-43.976784,-11.779229,CSO
4670735144000,1.349743,-2.2922104797109,6.6975417797109,6.91983908630504,0.1872302,-0.08735373,0.09773844,245.61368,-44.018467,-11.733287,CSO
4670740124000,1.354723,-2.26807164785626,6.68033134680103,6.9240313,0.17440203,-0.08857546,0.092240654,245.58234,-44.0514,-11.687947,CSO
4670744983000,1.359582,-2.24152905433026,6.6626363460405,6.9240313,0.1591304,-0.079107046,0.10720685,245.54393,-44.08406,-11.640868,CSO
4670750130000,1.364729,-2.20305218484222,6.61053074776589,6.85884055473344,0.14905111,-0.06872234,0.10873401,245.51031,-44.107704,-11.59822,CSO
4670755647000,1.370246,-2.15555132572148,6.53452912517306,6.74958862835566,0.14049901,-0.040927973,0.1160644,245.46774,-44.12858,-11.5581255,CSO
4670760124000,1.374723,-2.11636252534877,6.51335471663739,6.72517103327478,0.14294247,-0.03634648,0.10934488,245.42694,-44.147453,-11.512437,CSO
4670765180000,1.379779,-2.07132958968689,6.53837295617443,6.77520751234887,0.14844026,-0.029321533,0.11484267,245.377,-44.165768,-11.470261,CSO
4670770096000,1.384695,-2.08412597728849,6.50360307073509,6.83218176426838,0.14935656,-0.02565634,0.11759156,245.33286,-44.187393,-11.428912,CSO
4670775081000,1.38968,-2.15447851829057,6.40842033807212,6.8983957959518,0.14874569,-0.0076358155,0.111177474,245.28616,-44.209095,-11.393869,CSO
4670780181000,1.39478,-2.22279695970919,6.31896086790963,6.96859355530801,0.13744467,-0.011301007,0.09560041,245.25075,-44.225204,-11.351466,CSO
4670785102000,1.399701,-2.27437490243902,6.26369890731707,7.04596054634146,0.1386664,-0.007941248,0.07574729,245.21344,-44.243122,-11.317567,CSO
4670790122000,1.404721,-2.32699048311445,6.20732519421513,7.12488399584115,0.13164146,-0.016493361,0.036651913,245.17819,-44.224743,-11.307349,CSO
4670795063000,1.409662,-2.34366348197602,6.20785194419187,7.18838107887954,0.129198,-0.03359759,0.010995574,245.14606,-44.207535,-11.297963,CSO
4670800117000,1.414716,-2.33933189550743,6.24250463594058,7.24469161251119,0.11728613,-0.04734206,-0.012217305,245.12302,-44.183144,-11.295338,CSO
4670804914000,1.419513,-2.32330919125819,6.30160820463067,7.28412966370002,0.11026118,-0.061391957,-0.040317107,245.11111,-44.130573,-11.313516,CSO
4670809901000,1.4245,-2.28555021144116,6.40949046499887,7.30031201120397,0.11209377,-0.07574729,-0.04520403,245.10187,-44.078236,-11.328591,CSO
4670814921000,1.42952,-2.23149848379089,6.5284482001947,7.290730237831,0.11362094,-0.093462385,-0.04734206,245.09189,-44.024124,-11.34436,CSO
4670819913000,1.434512,-2.16634049126752,6.65411033103583,7.2628054602609,0.11056661,-0.10170906,-0.034513887,245.08057,-43.9712,-11.356822,CSO
4670824942000,1.439541,-2.09848029188267,6.73519326616644,7.2583835808322,0.116980694,-0.098043874,-0.018020526,245.07993,-43.9329,-11.355739,CSO
4670829954000,1.444553,-2.02890468908595,6.77612004106412,7.2747542053206,0.11942416,-0.111177474,-0.011911872,245.08353,-43.893894,-11.349347,CSO
4670834947000,1.449546,-1.97972291643984,6.79530826712033,7.27710602731691,0.12492194,-0.13164146,-0.01282817,245.08948,-43.88667,-11.333497,CSO
4670839906000,1.454505,-2.01563126148196,6.72349157703608,7.22067868152949,0.13133603,-0.14202617,-0.024129177,245.09686,-43.880333,-11.318447,CSO
4670844896000,1.459495,-2.0332687966719,6.65031815149137,7.13482045704867,0.13500121,-0.13103059,-0.046731193,245.10146,-43.883682,-11.2883005,CSO
4670849972000,1.464571,-2.01291847252747,6.57400417032967,6.98728039450549,0.1414153,-0.116675265,-0.056505036,245.10721,-43.88978,-11.257645,CSO
4670854890000,1.469489,-1.99463805081456,6.51582430043328,6.85301850890815,0.16707164,-0.09437868,-0.06688975,245.1169,-43.89456,-11.243987,CSO
4670859959000,1.474558,-1.97781143064125,6.47796449289428,6.72681868190641,0.204029,-0.04062254,-0.06872234,245.11719,-43.90432,-11.240358,CSO
4670864982000,1.479581,-1.96261443216435,6.45339357527495,6.61568040308155,0.22724187,0.00030543262,-0.070249505,245.11572,-43.926823,-11.245687,CSO
4670869972000,1.484571,-1.95765611799128,6.51785160775057,6.60080551233658,0.25534168,0.03726278,-0.067500606,245.10382,-43.96044,-11.260258,CSO
4670874949000,1.489548,-1.96084120188404,6.60555234686802,6.59511906409634,0.27763826,0.052534413,-0.057726767,245.10149,-44.008774,-11.281272,CSO
4670879980000,1.494579,-1.9982741480237,6.79271727300184,6.6278730874041,0.28313604,0.0580322,-0.044593163,245.0928,-44.05951,-11.305495,CSO
4670884962000,1.499561,-2.02971130093934,6.97562968033535,6.65530928900009,0.29565877,0.053145275,-0.029321533,245.08649,-44.128136,-11.326168,CSO
4670889931000,1.50453,-2.02553369412694,7.14273408369766,6.65113159494338,0.2843578,0.016798794,-0.029321533,245.084516948762,-44.1595384058959,-11.3246608080818,CSO
4670894935000,1.509534,-2.0213266616276,7.31101551545957,6.6469244745852,0.27305678,-0.017104227,0.025045475,245.08253,-44.191162,-11.323143,CSO
4670899965000,1.514564,-2.04324602540031,7.41697737144111,6.62376403338451,0.24678956,-0.04337143,0.048563786,245.07758,-44.274673,-11.329202,CSO
4670905286000,1.519885,-2.0725730923637,7.50777385743092,6.59974734619119,0.23487769,-0.062308256,0.06872234,245.07602,-44.35806,-11.312103,CSO
4670909971000,1.52457,-2.11026976049291,7.50358534846901,6.61231304802091,0.21868975,-0.06872234,0.089491755,245.08444,-44.45863,-11.279163,CSO
4670915119000,1.529718,-2.15169184107543,7.49898290575056,6.62612056840926,0.18509217,-0.09254608,0.111177474,245.09953,-44.564037,-11.234487,CSO
4670920001000,1.5346,-2.22420996991404,7.34821150546203,6.62329320723496,0.15332718,-0.09254608,0.1469131,245.10464,-44.66593,-11.1869335,CSO
4670924956000,1.539555,-2.30069231160458,7.18249980950036,6.6190440107808,0.122478485,-0.07360926,0.15790866,245.1121,-44.756523,-11.140072,CSO
4670930074000,1.544673,-2.40015006616358,7.03946511129503,6.66834632508277,0.093767814,-0.076358154,0.16798794,245.11606,-44.834793,-11.08734,CSO
4670935100000,1.549699,-2.50794553149951,6.91292247020448,6.74333463659202,0.08155051,-0.07696902,0.16646078,245.11652,-44.90742,-11.040073,CSO
4670939978000,1.554577,-2.58711975142857,6.84176475023454,6.81049169962473,0.06536258,-0.087659165,0.16737708,245.10327,-44.943897,-11.008358,CSO
4670945068000,1.559667,-2.65363878,6.80019041164179,6.87701064137313,0.05467244,-0.12583824,0.15790866,245.09903,-44.97676,-10.9742565,CSO
4670950002000,1.564601,-2.71852715452788,6.75843259526265,6.93640119038565,0.04184427,-0.15485434,0.13897185,245.08936,-44.971043,-10.96465,CSO
4670954986000,1.569585,-2.78518313519175,6.7122861841766,6.98254754793211,0.025045475,-0.16584991,0.1337795,245.08319,-44.96166,-10.950603,CSO
4670959944000,1.574543,-2.8472535792696,6.68829391256713,7.01206365821697,0.008857546,-0.16798794,0.11148291,245.08424,-44.92623,-10.953172,CSO
4670965072000,1.579671,-2.90479859221756,6.69788478978615,7.01685897164339,-0.004886922,-0.18661933,0.0852157,245.09264,-44.886856,-10.952368,CSO
4670969978000,1.584577,-2.94174350611319,6.70542878873989,7.02312668171958,-0.010079277,-0.21166481,0.059864793,245.10245,-44.8303,-10.964284,CSO
4670974993000,1.589592,-2.94647902691777,6.71016426009663,7.03259792112009,-0.012217305,-0.21838433,0.04642576,245.11462,-44.77092,-10.978911,CSO
4670980094000,1.594693,-2.93960717835285,6.71962251783151,7.03769681020023,-0.03390302,-0.22632557,0.017104227,245.14224,-44.699368,-11.003175,CSO
4670985062000,1.599661,-2.91084852055157,6.73759665549679,7.0341019075935,-0.035124753,-0.2666427,0.017104227,245.164535366146,-44.6638857647059,-11.0092209903962,CSO
4670990090000,1.604689,-2.88174253596524,6.75578787211938,7.03046358828863,-0.054061573,-0.3005457,-0.013133603,245.1871,-44.627975,-11.01534,CSO
4670995044000,1.609643,-2.86721164554115,6.77580166224751,7.023545615101,-0.041233405,-0.3295618,-0.018020526,245.22044,-44.561764,-11.037869,CSO
4671000078000,1.614677,-2.85870686305901,6.79706372946106,7.01504078821558,-0.034513887,-0.3539964,-0.03481932,245.27539,-44.486874,-11.054667,CSO
4671005071000,1.61967,-2.84019270705364,6.81047927643444,6.99652664995658,-0.03145956,-0.38759398,-0.035124753,245.33316,-44.4234,-11.05304,CSO
4671011005000,1.625604,-2.80223341917708,6.81427519729477,6.95856748098991,-0.035430185,-0.4175264,-0.050396383,245.40005,-44.359055,-11.053634,CSO
4671016990000,1.631589,-2.76394788868479,6.81810374234854,6.9202820704295,-0.04153884,-0.44043383,-0.045814894,245.47377,-44.301052,-11.041903,CSO
4671020091000,1.63469,-2.70639315715754,6.83377355425958,6.88212504978933,-0.03940081,-0.4437936,-0.05009095,245.55263,-44.24406,-11.033191,CSO
4671025077000,1.639676,-2.58862533331621,6.86812243669715,6.80852019191244,-0.038179077,-0.42730024,-0.052839845,245.62888,-44.187305,-11.022952,CSO
4671030117000,1.644716,-2.52216752776827,6.89590641827828,6.79116733655656,-0.04886922,-0.44135013,-0.053145275,245.70612,-44.140457,-11.000005,CSO
4671035116000,1.649715,-2.50987728564094,6.91639008386103,6.83213466772206,-0.05131268,-0.47433686,-0.05681047,245.78342,-44.097084,-10.978203,CSO
4671040138000,1.654737,-2.50084580112508,6.9414038067505,6.8789138539047,-0.05681047,-0.49602258,-0.056505036,245.86444,-44.069706,-10.933837,CSO
4671045072000,1.659671,-2.50866379106552,6.98831174639312,6.95318471752151,-0.0711658,-0.48502702,-0.057421334,245.94469,-44.039963,-10.891569,CSO
4671050100000,1.664699,-2.51663072528127,7.03611335168763,7.02887055097618,-0.09010262,-0.4978552,-0.0711658,246.03362,-44.00583,-10.839621,CSO
4671055112000,1.669711,-2.57138767413249,7.06499444542587,7.11109618454259,-0.10629055,-0.5204572,-0.0870483,246.121,-43.969517,-10.789811,CSO
4671060065000,1.674664,-2.64180363599926,7.08699940478753,7.19471525989052,-0.1282817,-0.52839845,-0.109650314,246.21027,-43.926212,-10.745767,CSO
4671065096000,1.679695,-2.7064270865639,7.0884524707584,7.22518191745171,-0.1441642,-0.53786683,-0.129198,246.30676,-43.87649,-10.701268,CSO
4671070221000,1.68482,-2.76714212129603,7.07444121136169,7.21584114287753,-0.17256944,-0.539394,-0.15821409,246.4075,-43.81663,-10.664344,CSO
4671075153000,1.689752,-2.76630356171682,7.03555086207484,7.15711252720996,-0.20219639,-0.54428095,-0.18051068,246.51538,-43.738388,-10.635598,CSO
4671081329000,1.695928,-2.69067533292132,6.95488090930014,7.02098150479073,-0.22143865,-0.5332854,-0.19883664,246.62267,-43.655716,-10.615399,CSO
4671085075000,1.699674,-2.63577060266694,6.90185828462471,6.95402131496111,-0.24923302,-0.49846604,-0.2134974,246.72049,-43.561466,-10.613606,CSO
4671090099000,1.704698,-2.50453772370947,6.80464878225073,6.9637422144459,-0.26633725,-0.48716503,-0.21930063,246.8201,-43.466713,-10.6112,CSO
4671095127000,1.709726,-2.3788022922,6.7171436896,6.9770483648,-0.28527406,-0.4877759,-0.21746802,246.91183,-43.375805,-10.607505,CSO
4671100214000,1.714813,-2.28136784421667,6.6806058034,7.00952648586667,-0.2782491,-0.49754974,-0.22540927,247.00378,-43.2886,-10.607333,CSO
4671105100000,1.719699,-2.18778327318333,6.6455116198,7.04072131573333,-0.2843578,-0.52290064,-0.20647246,247.08102,-43.191597,-10.584217,CSO
4671110062000,1.724661,-2.10214906610493,6.61184346250869,7.08274489279013,-0.26847526,-0.53878313,-0.19333886,247.15863,-43.10416,-10.56426,CSO
4671115279000,1.729878,-2.01534882675469,6.57712322175122,7.13048524649062,-0.26236662,-0.54275376,-0.17867808,247.23218,-43.016293,-10.53817,CSO
4671120094000,1.734693,-1.95244543274936,6.57233854758406,7.18036472721108,-0.24770586,-0.56382865,-0.1704314,247.30927,-42.93198,-10.486074,CSO
4671125267000,1.739866,-1.905783627974,6.60033560121503,7.24102491263069,-0.2507602,-0.59742624,-0.160963,247.38394,-42.848026,-10.428978,CSO
4671130193000,1.744792,-1.84353672638456,6.63935963397326,7.30351118208865,-0.24709499,-0.59864795,-0.16035213,247.4505,-42.765163,-10.359076,CSO
4671135093000,1.749692,-1.74920293504875,6.70067671408182,7.37426139014976,-0.23976462,-0.6221663,-0.16707164,247.52548,-42.68519,-10.279795,CSO
4671140001000,1.7546,-1.67103739518034,6.76982646842022,7.43891904945661,-0.24404067,-0.643852,-0.16982053,247.60786,-42.600292,-10.18805,CSO
4671145066000,1.759665,-1.62519723054812,6.857686707513,7.49239927476768,-0.23579398,-0.6462954,-0.17684549,247.69075,-42.522804,-10.100625,CSO
4671151506000,1.766105,-1.56908568367406,6.96762554333882,7.55836633434745,-0.23823744,-0.6267477,-0.18875736,247.7825,-42.445168,-9.998618,CSO
4671155111000,1.76971,-1.55570540884604,7.01445638298615,7.57843683391144,-0.23854288,-0.6221663,-0.19639318,247.87561,-42.37279,-9.896833,CSO
4671160095000,1.774694,-1.53720685413235,7.07920115546943,7.60618478670671,-0.22479841,-0.59315014,-0.20005837,247.97311,-42.31111,-9.788395,CSO
4671165174000,1.779773,-1.57311959452962,7.15425703403369,7.67480743850085,-0.21288654,-0.5644395,-0.1994475,248.06766,-42.251038,-9.684997,CSO
4671170108000,1.784707,-1.62678452617831,7.23028247450312,7.75530476592845,-0.2171626,-0.53878313,-0.21380283,248.15845,-42.191277,-9.593828,CSO
4671175070000,1.789669,-1.71508387283173,7.20391549241638,7.81359600129373,-0.24220806,-0.5103779,-0.23273966,248.25607,-42.133526,-9.505718,CSO
4671180172000,1.794771,-1.8273695173802,7.11242341819729,7.85934195155332,-0.28038713,-0.50488013,-0.24801129,248.35294,-42.072224,-9.4229765,CSO
4671185098000,1.799697,-1.93536488758158,7.01421650742386,7.89838805073423,-0.31337386,-0.5143485,-0.28405234,248.46155,-42.00043,-9.357335,CSO
4671190118000,1.804717,-2.04431062761059,6.88783960006345,7.92453496099529,-0.3359759,-0.5195409,-0.31673363,248.56786,-41.92262,-9.298124,CSO
4671195100000,1.809699,-2.15028091988659,6.76191927115002,7.94779772358735,-0.36560285,-0.54367006,-0.37018433,248.68332,-41.804504,-9.26581,CSO
4671200176000,1.814775,-2.22765745004974,6.62651005300438,7.93328956421608,-0.39095375,-0.57726765,-0.42485678,248.80527,-41.682716,-9.237888,CSO
4671205129000,1.819728,-2.30230774564366,6.49627059974668,7.91819583733784,-0.3933972,-0.591623,-0.47769663,248.93744,-41.5283,-9.243941,CSO
4671210100000,1.824699,-2.36443314917479,6.39394656955554,7.88896054187457,-0.4129449,-0.6020077,-0.5348125,249.08359,-41.362953,-9.254707,CSO
4671218135000,1.832734,-2.46153841328218,6.2309120249973,7.83921740780287,-0.41996986,-0.6420194,-0.6246097,249.24878,-41.178062,-9.287238,CSO
4671220610000,1.835209,-2.46410002357073,6.20017256779423,7.80335481026694,-0.43310347,-0.65301496,-0.6545421,249.40488,-40.991154,-9.321806,CSO
4671225093000,1.839692,-2.4687399019237,6.14449378531287,7.7383964164271,-0.44318274,-0.6600399,-0.6808093,249.5842,-40.78111,-9.373954,CSO
4671230357000,1.844956,-2.45055560139147,6.08484696486085,7.70064645576994,-0.45906523,-0.67103547,-0.7302894,249.77254,-40.5679,-9.430929,CSO
4671235451000,1.85005,-2.41887758423006,6.030541711577,7.68707004794063,-0.48533243,-0.6927212,-0.7806858,249.96484,-40.35268,-9.487094,CSO
4671240072000,1.854671,-2.35179360013861,5.99426073042574,7.6930754329703,-0.5152648,-0.72784597,-0.82986045,250.16599,-40.133007,-9.542405,CSO
4671245115000,1.859714,-2.23224943493069,5.97035196728713,7.72176610851485,-0.5342017,-0.7583892,-0.8680395,250.37317,-39.912167,-9.599079,CSO
4671250119000,1.864718,-2.09460516600723,5.96113337285684,7.76421743714103,-0.54702985,-0.77732605,-0.89949906,250.59389,-39.68103,-9.657551,CSO
4671254931000,1.86953,-1.93775817443097,5.97093630023399,7.82303500140396,-0.5522222,-0.7974846,-0.93645644,250.82367,-39.450005,-9.714819,CSO
4671259898000,1.874497,-1.77133952676309,6.00237651303741,7.87943073814464,-0.55955255,-0.80573124,-0.9642508,251.05963,-39.21598,-9.7510195,CSO
4671264933000,1.879532,-1.59818318975561,6.05528524730174,7.93233952263342,-0.5647449,-0.7959574,-0.981355,251.29448,-38.985905,-9.789728,CSO
4671269902000,1.884501,-1.44867919754319,6.09082108826525,7.99890984411265,-0.57696223,-0.8072584,-0.990518,251.55145,-38.752884,-9.792581,CSO
4671274902000,1.889501,-1.31956020223709,6.1099498708479,8.08020700779986,-0.59131753,-0.8002335,-1.0057896,251.8003,-38.523266,-9.804736,CSO
4671279910000,1.894509,-1.22855435154609,6.11248641820614,8.2251614925669,-0.6020077,-0.79320854,-1.0158689,252.07248,-38.300156,-9.785207,CSO
4671284918000,1.899517,-1.17626820098117,6.09822662213082,8.43430629335976,-0.6221663,-0.78801614,-1.0128145,252.33667,-38.07701,-9.766697,CSO
4671289902000,1.904501,-1.15366937471343,6.01292934932971,8.6449207302312,-0.6603453,-0.8035932,-1.0140363,252.62431,-37.844242,-9.728013,CSO
4671294902000,1.909501,-1.16297270675151,5.85012188867301,8.8588963470954,-0.68325275,-0.83169305,-1.035722,252.91025,-37.615784,-9.690473,CSO
4671299936000,1.914535,-1.23184117853062,5.66147869179112,9.03627828335171,-0.7101309,-0.8570439,-1.0476339,253.20773,-37.353653,-9.640216,CSO
4671305097000,1.919696,-1.38541462995891,5.43359547910193,9.1650813660419,-0.7287622,-0.86742866,-1.0772609,253.5097,-37.09251,-9.593636,CSO
4671309919000,1.924518,-1.57651699328807,5.22174436372454,9.27376581532493,-0.7516697,-0.88178396,-1.1145236,253.82394,-36.774055,-9.5484085,CSO
4671314959000,1.929558,-1.83868557214355,5.00170998933075,9.3720795456838,-0.7706065,-0.88331115,-1.1368202,254.13446,-36.459274,-9.505296,CSO
4671319946000,1.934545,-2.13531652759382,4.81507938310255,9.43493855528798,-0.7874053,-0.9101892,-1.1582005,254.45023,-36.0898,-9.483385,CSO
4671324933000,1.939532,-2.49473501192053,4.68089625677303,9.43973089915713,-0.79137594,-0.91629785,-1.1618657,254.75644,-35.728176,-9.464643,CSO
4671329959000,1.944558,-2.85546702161572,4.57154497489083,9.42645356877729,-0.80878556,-0.9275989,-1.1667526,255.05026,-35.31175,-9.490903,CSO
4671335421000,1.95002,-3.24482186452958,4.4988655733426,9.37973113507344,-0.8142834,-0.9398162,-1.1566733,255.33505,-34.908825,-9.51036,CSO
4671339913000,1.954512,-3.61156418890201,4.41012517249114,9.31936434356552,-0.8350528,-0.97158116,-1.1258247,255.57352,-34.481735,-9.565503,CSO
4671344939000,1.959538,-4.10115638419762,4.2614988529743,9.21445144337481,-0.83108217,-1.0051788,-1.0913107,255.8021,-34.07172,-9.61106,CSO
4671349956000,1.964555,-4.52586809872195,4.10375772722927,9.10846644663415,-0.8136725,-1.0167851,-1.0564915,256.0577,-33.63517,-9.699704,CSO
4671354984000,1.969583,-4.61982366129756,3.89705576426341,8.99571955570732,-0.7858781,-1.0476339,-1.0192287,256.3055,-33.21516,-9.765219,CSO
4671360001000,1.9746,-4.69522353899917,3.70343629749792,8.87749961508633,-0.75533485,-1.1071932,-0.99387777,256.5702,-32.764336,-9.898798,CSO
4671365052000,1.979651,-4.63716394719786,3.60071571799465,8.71672009666698,-0.711658,-1.1887437,-0.96974856,256.8286,-32.336456,-10.008291,CSO
4671370434000,1.985033,-4.569719117211,3.49250949980662,8.54279820337344,-0.67256266,-1.2922854,-0.9639453,257.10437,-31.893127,-10.111509,CSO
4671374975000,1.989574,-4.39685010652127,3.42709963419639,8.3418957867963,-0.6423248,-1.4184291,-0.95539325,257.38358,-31.469929,-10.180631,CSO
4671380103000,1.994702,-4.19461078505893,3.35347006621214,8.12483968582838,-0.6188065,-1.5335772,-0.9447031,257.68127,-31.061289,-10.21505,CSO
4671385065000,1.999664,-3.94467532352196,3.28404348467907,7.9906152901724,-0.6160576,-1.6187929,-0.95356065,257.9893,-30.662645,-10.224917,CSO
4671390194000,2.004793,-3.69143183454175,3.21164351653768,7.85824395739308,-0.6044512,-1.7012597,-0.9669997,258.32043,-30.292229,-10.177779,CSO
4671394976000,2.009575,-3.51235058993075,3.13702635725458,7.80601189525051,-0.6062838,-1.754405,-0.97005403,258.65158,-29.926302,-10.115996,CSO
4671399991000,2.01459,-3.32454372215071,3.0587735229165,7.75123485810183,-0.63194007,-1.7941113,-0.9804387,259.00784,-29.569302,-10.000035,CSO
4671406167000,2.020766,-3.05107743084355,2.94482934185539,7.64296923426138,-0.63499445,-1.8231273,-0.98746365,259.3615,-29.225355,-9.874439,CSO
4671410063000,2.024662,-2.86502513672346,2.86730764370455,7.56157132775816,-0.64996064,-1.8365663,-0.9981538,259.71326,-28.877363,-9.745904,CSO
4671416964000,2.031563,-2.65773787911434,2.82224008883014,7.41908190059485,-0.657291,-1.8432859,-0.9960158,260.0526,-28.539194,-9.572834,CSO
4671420102000,2.034701,-2.5807705478189,2.81479156465631,7.35452869847984,-0.66981375,-1.8167132,-1.0012082,260.38422,-28.201685,-9.409516,CSO
4671425073000,2.039672,-2.47087129653222,2.8060043,7.2681874043164,-0.6743952,-1.7925841,-0.99173975,260.70197,-27.874794,-9.208082,CSO
4671430177000,2.044776,-2.3940562836878,2.8060043,7.22721947589314,-0.69027776,-1.7733418,-0.9804387,261.00775,-27.548237,-9.015791,CSO
4671435079000,2.049678,-2.33171338060725,2.82060871939275,7.20987254750245,-0.70005155,-1.7595973,-0.9654725,261.3061,-27.24267,-8.805043,CSO
4671440133000,2.054732,-2.2890482155142,2.8632738844858,7.23357536199804,-0.68752885,-1.7406605,-0.9450085,261.58762,-26.94659,-8.602039,CSO
4671444976000,2.059575,-2.25210927183931,2.90422139224104,7.25498772420244,-0.65179324,-1.6869044,-0.91721416,261.87033,-26.66202,-8.393238,CSO
4671450122000,2.064721,-2.22299414021268,2.94789408968098,7.27439771061442,-0.6093381,-1.6459764,-0.89888823,262.1407,-26.390049,-8.188713,CSO
4671455127000,2.069726,-2.19948185138911,2.99324441568043,7.29007249907393,-0.5500842,-1.5824465,-0.8744536,262.41025,-26.140503,-7.99128,CSO
4671460060000,2.074659,-2.18835902426621,3.04515101968294,7.29748771715586,-0.4905248,-1.5406022,-0.84482664,262.6635,-25.910128,-7.7998295,CSO
4671465102000,2.079701,-2.17699042618113,3.09820455655313,7.30506678254591,-0.44073927,-1.5146403,-0.82436264,262.91544,-25.703335,-7.609824,CSO
4671470162000,2.084761,-2.18457768470306,3.16922218137373,7.33903112819436,-0.38423425,-1.4798211,-0.8054258,263.14703,-25.521622,-7.4333043,CSO
4671475068000,2.089667,-2.1986700004799,3.24438114980004,7.38130817362528,-0.34788775,-1.4691309,-0.8017606,263.37088,-25.353237,-7.2604847,CSO
4671480097000,2.094696,-2.11780722466945,3.70210542936674,7.66605386012526,-0.3313944,-1.5054774,-0.7874053,263.6029,-25.208029,-7.074701,CSO
4671485086000,2.099685,-2.00143602221642,4.30058579993041,8.04010387473904,-0.3399465,-1.5674802,-0.7620544,263.82748,-25.070599,-6.887081,CSO
4671490096000,2.104695,-1.90428508589542,4.79791595985846,8.27536047247887,-0.36377025,-1.6093245,-0.7483099,264.06354,-24.944458,-6.6906776,CSO
4671495070000,2.109669,-1.83405454280519,5.15375085492432,8.32218129083939,-0.38087448,-1.6300939,-0.7284568,264.2911,-24.82281,-6.484455,CSO
4671500139000,2.114738,-1.76033556428784,5.45463078733274,8.3433440166518,-0.40103304,-1.6603317,-0.70921457,264.55328,-24.799023,-6.2107153,CSO
4671505166000,2.119765,-1.68398684954901,5.65981788968183,8.32425646426801,-0.39003745,-1.6905695,-0.6976081,264.8103,-24.781906,-5.9374037,CSO
4671510697000,2.125296,-1.56974735082721,5.85470241724877,8.30781886131536,-0.38056904,-1.7153096,-0.68600166,265.09073,-24.828712,-5.6342487,CSO
4671515165000,2.129764,-1.44739273134191,5.98142675168505,8.29907906638072,-0.37201694,-1.7171422,-0.66737026,265.36346,-24.879597,-5.3357983,CSO
4671520352000,2.134951,-1.30815885928101,6.10300161410633,8.30032797488608,-0.35216382,-1.7153096,-0.66431594,265.66187,-24.978775,-5.0108023,CSO
4671525065000,2.139664,-1.18475042187342,6.18527408070886,8.31404029924051,-0.34208453,-1.7015651,-0.64843345,265.94778,-25.07798,-4.694453,CSO
4671530063000,2.144662,-1.06145307705987,6.25510824510966,8.33666989270895,-0.32650748,-1.709201,-0.62125,266.25208,-25.213531,-4.3454514,CSO
4671535135000,2.149734,-0.94628159664098,6.30309627008496,8.37026174570243,-0.30818152,-1.7449366,-0.6032294,266.55368,-25.351393,-4.0026207,CSO
4671540083000,2.154682,-0.860180633454545,6.31902325151515,8.37964331418182,-0.26908615,-1.779756,-0.5910121,266.86484,-25.51622,-3.6303773,CSO
4671545053000,2.159652,-0.810180023757576,6.29209990808081,8.35656564630303,-0.226631,-1.7852536,-0.57910025,267.16974,-25.685434,-3.2663403,CSO
4671550576000,2.165175,-0.755112806342991,6.25854379919951,8.33149770042635,-0.1853976,-1.7864754,-0.5861252,267.49277,-25.869814,-2.879778,CSO
4671555082000,2.169681,-0.721320276350822,6.14965652287479,8.32398848455582,-0.13836098,-1.7825048,-0.593761,267.8104,-26.06538,-2.5048525,CSO
4671559984000,2.174583,-0.684557963429914,6.03119992532846,8.3158193375968,-0.08735373,-1.7873917,-0.6065892,268.14548,-26.264942,-2.1202066,CSO
4671565106000,2.179705,-0.62009955298339,5.87098432866943,8.28473638707348,-0.037873644,-1.7935003,-0.63041294,268.4824,-26.474455,-1.7516041,CSO
4671570135000,2.184734,-0.541844286333273,5.69273628561112,8.24126127676476,0.0070249503,-1.8048013,-0.6310238,268.81543,-26.69432,-1.3917143,CSO
4671575056000,2.189655,-0.45282136123706,5.51467172981366,8.18736402536232,0.05589417,-1.8234328,-0.6426302,269.16376,-26.897402,-1.0308157,CSO
4671580342000,2.194941,-0.339277707313665,5.31815400931677,8.11312381521739,0.11026118,-1.8484782,-0.6432411,269.50882,-27.1125,-0.6761651,CSO
4671585105000,2.199704,-0.228479267665293,5.1392769172062,8.04462431979596,0.17715092,-1.8637499,-0.6389651,269.86655,-27.305086,-0.31075802,CSO
4671590087000,2.204686,-0.045944994394742,4.93802117349421,7.96037798626643,0.23335053,-1.8774943,-0.6435465,270.22638,-27.508333,0.0472726,CSO
4671595180000,2.209779,0.154069049716639,4.72643983580725,7.87162323500824,0.28313604,-1.887879,-0.63438356,270.5842,-27.693193,0.4295358,CSO
4671600106000,2.214705,0.484374213354201,4.46219552149094,7.7589310437397,0.3210097,-1.8915442,-0.61727935,270.9384,-27.889095,0.8015189,CSO
4671605089000,2.219688,0.818501422125206,4.19489356894564,7.64493486243822,0.36377025,-1.8854356,-0.59620446,271.2825,-28.071663,1.2056438,CSO
4671610108000,2.224707,1.04084669886555,4.08634411368762,7.57683885434533,0.40286562,-1.8777997,-0.5766568,271.61884,-28.262327,1.5988712,CSO
4671616954000,2.231553,1.25778083207509,4.05978085704639,7.51928465392667,0.40866885,-1.8726074,-0.57848936,271.95096,-28.453817,1.9779152,CSO
4671619993000,2.234592,1.35407981408265,4.04798919228847,7.4937358348977,0.44532076,-1.8738291,-0.5674938,272.2953,-28.609215,2.4250982,CSO
4671625064000,2.239663,1.5265761988644,4.07380846893787,7.44439025865063,0.48380527,-1.8506162,-0.5488624,272.62964,-28.765345,2.8531058,CSO
4671630310000,2.244909,1.71115847855711,4.12414904288577,7.38985463687375,0.5137377,-1.8399261,-0.5338962,272.95975,-28.927835,3.273203,CSO
4671635130000,2.249729,1.85931030766714,4.16063983173175,7.34924661091801,0.5314528,-1.8099937,-0.5326745,273.3014,-29.095156,3.7260752,CSO
4671640110000,2.254709,1.96169655199346,4.17526673625026,7.32974447883868,0.54183745,-1.7935003,-0.52931476,273.6352,-29.266447,4.1696677,CSO
4671645053000,2.259652,2.0491297529952,4.19605888731503,7.32453320008164,0.5549711,-1.7867808,-0.54336464,273.99365,-29.456636,4.639775,CSO
4671650134000,2.264733,2.10871926884376,4.23081927402796,7.34936212180835,0.5653558,-1.7892243,-0.56107974,274.34753,-29.646368,5.0957694,CSO
4671655123000,2.269722,2.19208543733256,4.29377406554196,7.36065768135544,0.5830709,-1.7767016,-0.59589905,274.71854,-29.842127,5.5559034,CSO
4671660191000,2.27479,2.31859825415973,4.40622987010354,7.35011494967779,0.59712076,-1.7931949,-0.6301075,275.09473,-30.037634,6.0091686,CSO
4671665106000,2.279705,2.44129172193903,4.51529069871841,7.33989049699515,0.63255095,-1.7892243,-0.6569856,275.4801,-30.244476,6.456391,CSO
4671670294000,2.284893,2.60711891339596,4.64088104206657,7.28200877955891,0.65026605,-1.7623463,-0.66859204,275.86548,-30.448097,6.8871145,CSO
4671675244000,2.289843,2.78620742677149,4.76672698345926,7.19972501143557,0.6789767,-1.7299703,-0.6786713,276.25208,-30.662916,7.2998276,CSO
4671680162000,2.294761,2.97429290905281,4.88140994216262,7.16416611609388,0.7031059,-1.6920967,-0.6808093,276.66068,-30.906332,7.733552,CSO
4671685110000,2.299709,3.16847981194933,4.99174338353358,7.15092605704573,0.7153232,-1.6652187,-0.6805039,277.06436,-31.150923,8.148479,CSO
4671690087000,2.304686,3.33434049170215,5.0885828084977,7.1921445548701,0.73639804,-1.6325374,-0.657291,277.48303,-31.429125,8.58663,CSO
4671695869000,2.310468,3.49311303611087,5.18480872239117,7.30280406697367,0.75808376,-1.5974126,-0.6389651,277.89493,-31.706215,9.004307,CSO
4671700086000,2.314685,3.60862781601135,5.25772920135793,7.37609382683421,0.7678576,-1.597718,-0.60994893,278.32254,-31.997686,9.460561,CSO
4671705078000,2.319677,3.74427919371707,5.35462291972031,7.4342300882043,0.79045963,-1.5928311,-0.569021,278.73322,-32.291233,9.898747,CSO
4671710105000,2.324704,3.87348886015625,5.44639651989694,7.5003740191988,0.8060367,-1.5803084,-0.54641896,279.14902,-32.57912,10.354434,CSO
4671715131000,2.32973,3.97749957421875,5.51840407870678,7.59238382155918,0.8081747,-1.5696182,-0.505491,279.54657,-32.859592,10.805238,CSO
4671719994000,2.334593,4.0781370796875,5.5880763346742,7.68140962117686,0.8078693,-1.5546521,-0.46120325,279.9475,-33.14186,11.273367,CSO
4671725078000,2.339677,4.14439475904694,5.68997342242924,7.80830425412039,0.8011498,-1.5286902,-0.4297437,280.3348,-33.414215,11.726945,CSO
4671730169000,2.344768,4.20116871184163,5.79915357470441,7.94368750613579,0.7825184,-1.5161675,-0.3903429,280.7061,-33.67296,12.17509,CSO
4671735133000,2.349732,4.20879958296511,5.93900075371492,8.11806937874264,0.7644979,-1.4850134,-0.35338554,281.07214,-33.91812,12.632641,CSO
4671740116000,2.354715,4.18437497681481,6.1018302995479,8.3216062047684,0.7431176,-1.4679092,-0.3231477,281.4275,-34.148365,13.082118,CSO
4671744989000,2.359588,4.17310219949564,6.24341683418041,8.48985688098933,0.7180721,-1.4630222,-0.29718593,281.7822,-34.362034,13.52876,CSO
4671750156000,2.364755,4.20669937661494,6.32980867324927,8.55705068394762,0.68477994,-1.4792101,-0.2764165,282.1285,-34.559772,13.966723,CSO
4671755135000,2.369734,4.24934752777997,6.41727048371137,8.6059846334071,0.6426302,-1.5131133,-0.26083946,282.48642,-34.742477,14.388954,CSO
4671760057000,2.374656,4.33503070584051,6.52158074573619,8.58735801624121,0.5934556,-1.5274686,-0.24007004,282.8343,-34.907173,14.800777,CSO
4671767142000,2.381741,4.45986736483817,6.66961541897917,8.55723109396695,0.54733527,-1.5357152,-0.20311269,283.19415,-35.055225,15.221989,CSO
4671770211000,2.38481,4.52884070162315,6.71272366069229,8.51124890945536,0.47739118,-1.5289958,-0.18417588,283.5497,-35.179577,15.629374,CSO
4671775108000,2.389707,4.63889688612496,6.78150862637137,8.43787818363156,0.44165558,-1.5219707,-0.1386664,283.91376,-35.31034,16.062918,CSO
4671780172000,2.394771,4.70070796704613,6.84692955795599,8.35548888293263,0.37415496,-1.4871514,-0.106595986,284.2667,-35.40993,16.475195,CSO
4671785102000,2.399701,4.72878505208563,6.9070947401835,8.27125712522301,0.29352075,-1.4703526,-0.07360926,284.6071,-35.489246,16.884201,CSO
4671790052000,2.404651,4.74396227327678,6.95013283140433,8.19154982502651,0.22785273,-1.4682146,-0.055588737,284.96323,-35.56163,17.307585,CSO
4671795074000,2.409673,4.71846137741251,6.93920387603393,8.12597624496289,0.15088372,-1.4700472,-0.03604105,285.30542,-35.60422,17.720766,CSO
4671800083000,2.414682,4.69302649342524,6.92830321146796,8.06057240933192,0.09621128,-1.4740179,-0.03176499,285.6704,-35.651234,18.138865,CSO
4671805079000,2.419678,4.6155145658169,6.8589889010335,7.8998527316338,0.020463986,-1.4669929,-0.02687807,286.02554,-35.669193,18.545631,CSO
4671810067000,2.424666,4.504433081707,6.75202171143743,7.677689763414,-0.055283304,-1.4462235,-0.027183503,286.37567,-35.672535,18.93772,CSO
4671815070000,2.429669,4.39931666837304,6.64746944921619,7.517793,-0.089186326,-1.412015,-0.051618114,286.74506,-35.671906,19.321114,CSO
4671820140000,2.434739,4.30901099225932,6.54856300372863,7.517793,-0.15882497,-1.3961325,-0.06352998,287.10712,-35.641773,19.694498,CSO
4671825433000,2.440032,4.21768685414117,6.45059861150551,7.51476094859241,-0.20922135,-1.4037683,-0.089491755,287.50085,-35.61895,20.054783,CSO
4671830330000,2.444929,4.16028446389229,6.40850371179926,7.48414660685435,-0.267559,-1.4117095,-0.10842858,287.88837,-35.578514,20.400244,CSO
4671835073000,2.449672,4.10468725397797,6.36773260514076,7.45449501958384,-0.31948254,-1.428203,-0.12461651,288.29675,-35.508293,20.735712,CSO
4671840096000,2.454695,4.09502932634003,6.32390662276662,7.36207817728864,-0.35613444,-1.4315627,-0.13775012,288.70197,-35.432728,21.057163,CSO
4671845055000,2.459654,4.12127247491251,6.28016804181249,7.22648848498803,-0.37782016,-1.4083499,-0.1459968,289.10187,-35.353115,21.364666,CSO
4671850188000,2.464787,4.15935166568707,6.21485518239456,7.02050827844898,-0.40775254,-1.3884968,-0.14355333,289.52338,-35.255478,21.672129,CSO
4671855106000,2.469705,4.21061578249433,6.12514314526077,6.73428455931973,-0.42546764,-1.3439035,-0.14630222,289.9318,-35.162052,21.957048,CSO
4671860202000,2.474801,4.22985861799121,6.01629258682649,6.40131901183227,-0.44929138,-1.2953397,-0.12644911,290.34137,-35.063362,22.25649,CSO
4671865107000,2.479706,4.13209360835582,5.85697188779773,5.95594550335312,-0.46578476,-1.2739595,-0.10720685,290.7417,-34.96704,22.542606,CSO
4671870120000,2.484719,4.03217597465505,5.69414321007477,5.50076560569645,-0.4813618,-1.2754866,-0.06505715,291.14178,-34.87504,22.85867,CSO
4671875317000,2.489916,3.95787613778676,5.554372626703,5.25888492444405,-0.49846604,-1.2873985,-0.028099801,291.53098,-34.780296,23.166506,CSO
4671880106000,2.494705,3.90547015751077,5.4414983760218,5.16213525402127,-0.52778757,-1.287093,-0.017715093,291.90903,-34.680267,23.466497,CSO
4671885050000,2.499649,3.80647529157834,5.31981938176913,5.08145646405859,-0.5564982,-1.2986995,-0.0106901415,292.30676,-34.607525,23.797106,CSO
4671890066000,2.504665,3.61206735016381,5.18558507380998,5.03979775756408,-0.57696223,-1.317331,-0.025045475,292.7047,-34.534145,24.11952,CSO
4671895063000,2.509662,3.42212138577882,5.06657970688906,4.99308305290592,-0.59712076,-1.318858,-0.08155051,293.11826,-34.449623,24.44072,CSO
4671900137000,2.514736,3.24060050142472,4.99059445208931,4.92976186030753,-0.6081163,-1.2815952,-0.14049901,293.52762,-34.36851,24.74644,CSO
4671905425000,2.520024,3.05431593660941,4.91282584701018,4.86379957601781,-0.5861252,-1.1994339,-0.20952678,293.95767,-34.28507,25.009077,CSO
4671910073000,2.524672,3.02246024621501,4.90928625604326,4.8071672293257,-0.5635232,-1.1508701,-0.23823744,294.38547,-34.206245,25.26022,CSO
4671915102000,2.529701,2.98799332130248,4.90545652218511,4.74589268726145,-0.54733527,-1.0473285,-0.2996294,294.8345,-34.142036,25.440678,CSO
4671920385000,2.534984,2.90813006888994,4.88534579157298,4.66684084986301,-0.5195409,-0.9624182,-0.32559118,295.2685,-34.08989,25.609161,CSO
4671925076000,2.539675,2.79353684955125,4.85139230255078,4.58195688356164,-0.4886922,-0.94042706,-0.35124752,295.7026,-34.055695,25.752123,CSO
4671930334000,2.544933,2.64237035036216,4.8078590527908,4.44861638155092,-0.44929138,-0.9282097,-0.3753767,296.14886,-34.040745,25.878866,CSO
4671935115000,2.549714,2.46679291247337,4.75908755641244,4.26328454253302,-0.40622538,-0.9425651,-0.398895,296.59555,-34.041553,25.997122,CSO
4671940080000,2.554679,2.33507801363833,4.74613937731262,4.03931952121997,-0.3549127,-0.9260717,-0.41447207,297.06418,-34.059612,26.094042,CSO
4671945068000,2.559667,2.2663553431161,4.780500676694,3.77473737246439,-0.30451632,-0.9230174,-0.43127087,297.53717,-34.094986,26.187563,CSO
4671950087000,2.564686,2.19720556698317,4.81507552865775,3.50851086793267,-0.25870144,-0.9138544,-0.42760566,298.03558,-34.15759,26.271564,CSO
4671955132000,2.569731,2.21776066367975,4.86114501857407,3.31874740418818,-0.21227567,-0.9166033,-0.44318274,298.5376,-34.24081,26.345568,CSO
4671960072000,2.574671,2.2822713283335,4.91183200717834,3.17129429831499,-0.17073683,-0.9211848,-0.45448375,299.0293,-34.335068,26.413906,CSO
4671965118000,2.579717,2.38386014913991,4.98894271713734,2.96618055315058,-0.13530666,-0.9129381,-0.45753807,299.55438,-34.501606,26.483097,CSO
4671970143000,2.584742,2.50780990261246,5.08190475489835,2.72713477171373,-0.07941248,-0.8765916,-0.45937067,300.0725,-34.68535,26.539528,CSO
4671975160000,2.589759,2.64064355800428,5.14974934749465,2.5124086743212,-0.038179077,-0.8179486,-0.46975538,300.59793,-34.902363,26.601265,CSO
4671980207000,2.594806,2.7855424740985,5.18700939237687,2.32611004938758,0.005192355,-0.75441855,-0.46700647,301.10822,-35.13113,26.650438,CSO
4671985160000,2.599759,2.92868868070201,5.21855351355357,2.14621253285156,0.0580322,-0.6914995,-0.47311515,301.63205,-35.417984,26.708412,CSO
4671990077000,2.604676,3.07800170156331,5.21160869068653,1.98995468912322,0.13255776,-0.6206391,-0.47128254,302.13507,-35.71699,26.74784,CSO
4671995086000,2.609685,3.23010845801932,5.20453392604528,1.83077316802596,0.19394971,-0.5332854,-0.4746423,302.6372,-36.048126,26.800888,CSO
4672000087000,2.614686,3.41385312500764,5.20587511784659,1.70694749698482,0.2660318,-0.49235737,-0.47250426,303.12878,-36.39552,26.845644,CSO
4672005108000,2.619707,3.64896430139554,5.22056955997759,1.63837338256086,0.3136793,-0.44593164,-0.48075095,303.6001,-36.75063,26.86388,CSO
4672009980000,2.624579,3.88477261515765,5.26668999660552,1.52382002794569,0.3304781,-0.408058,-0.52320606,304.0778,-37.126835,26.915379,CSO
4672016907000,2.631506,4.23554108162413,5.39660409774137,1.26399155436386,0.37201694,-0.3313944,-0.5317582,304.5267,-37.511864,26.950207,CSO
4672020161000,2.63476,4.40031668287747,5.45763202976043,1.14193556287617,0.41996986,-0.22693644,-0.5458081,304.9729,-37.89536,27.005487,CSO
4672025068000,2.639667,4.55541767875161,5.5665175431044,1.02943177366967,0.46395215,-0.095294975,-0.54305923,305.3892,-38.281265,27.037983,CSO
4672030109000,2.644708,4.54652854215614,5.70874317171792,1.04276545535813,0.5296202,0.056199603,-0.5317582,305.77362,-38.678978,27.041588,CSO
4672035115000,2.649714,4.55379817223131,5.85754201603141,1.07087050010633,0.5708536,0.21013765,-0.5299256,306.15112,-39.106544,27.088284,CSO
4672040146000,2.654745,4.62867460366432,6.0388214638639,1.16151018287257,0.6078109,0.3481932,-0.52687126,306.48807,-39.539112,27.10866,CSO
4672045067000,2.659666,4.70191390381973,6.21613733800098,1.25016807969082,0.61911196,0.50671273,-0.50793445,306.79617,-39.99094,27.083908,CSO
4672050248000,2.664847,4.8635899762478,6.51354590077436,1.5809190744384,0.63255095,0.66767573,-0.49113566,307.06326,-40.443413,27.031706,CSO
4672055114000,2.669713,5.04223268879859,6.82795695249559,1.96678731564057,0.6252206,0.8323039,-0.48472157,307.28235,-40.884144,26.950483,CSO
4672060174000,2.674773,5.22208773229562,7.12099485025871,2.36177620541566,0.62125,0.97127575,-0.48808134,307.47498,-41.33511,26.839949,CSO
4672065097000,2.679696,5.36438930586409,7.21857332928596,2.71143215305278,0.6065892,1.0647382,-0.48838675,307.62854,-41.771297,26.711067,CSO
4672070164000,2.684763,5.51085326549672,7.31900602342187,3.07131569696447,0.5699373,1.131017,-0.5323691,307.76035,-42.17631,26.540443,CSO
4672075144000,2.689743,5.59098015041761,7.4624465219733,3.47130821380064,0.52381694,1.1612549,-0.57818395,307.8703,-42.565872,26.362402,CSO
4672080149000,2.694748,5.65832672094294,7.61584658793225,3.88286958648817,0.4783075,1.1563679,-0.6243043,307.97406,-42.944973,26.17329,CSO
4672085070000,2.699669,5.68671303824654,7.82795148426008,4.31495903979602,0.4251622,1.1429288,-0.6630942,308.05765,-43.24764,25.982721,CSO
4672090987000,2.705586,5.586684577817,8.30030703912916,4.93179935558498,0.33261612,1.1374311,-0.6948592,308.14313,-43.529232,25.787529,CSO
4672094988000,2.709587,5.49834764459063,8.60754891785937,5.3271226022402,0.26267207,1.1365148,-0.71929383,308.23303,-43.73921,25.575308,CSO
4672100109000,2.714708,5.30215903440306,8.95196883136279,5.74565871369011,0.1853976,1.1786644,-0.7519751,308.31943,-43.927116,25.351965,CSO
4672105486000,2.720085,5.08508979216255,9.31909440783745,6.19865463512337,0.14966199,1.2425,-0.795652,308.43826,-44.09564,25.055334,CSO
4672110074000,2.724673,4.67411952568941,9.74423649653282,6.86116682931785,0.040927973,1.2739595,-0.81214535,308.55527,-44.225594,24.762661,CSO
4672115142000,2.729741,4.22015324179971,10.2138572693114,7.59299154600871,0.002443461,1.3219124,-0.83260936,308.7171,-44.359867,24.37251,CSO
4672120195000,2.734794,3.82315183119476,10.3859053072798,8.23908783978548,-0.052839845,1.351234,-0.8491027,308.87918,-44.463634,23.988073,CSO
4672125110000,2.739709,3.49124503940808,10.2643614429437,8.78603313033072,-0.06261369,1.3075571,-0.86162543,309.0513,-44.568573,23.615345,CSO
4672130138000,2.744737,3.20490739159538,10.1211344245495,9.25039368798273,-0.077579886,1.1917981,-0.8732319,309.38705,-44.60629,23.119146,CSO
4672135112000,2.749711,2.97941128128893,9.95893559338925,9.60643972136866,-0.08124508,1.0250319,-0.8784242,309.74426,-44.650043,22.656906,CSO
4672140201000,2.7548,2.74219266884746,9.78148571220339,9.96214866529661,-0.07147124,0.8576548,-0.8723156,310.0905,-44.646683,22.166935,CSO
4672145071000,2.75967,2.4457580800339,9.48900341728814,10.2111540352119,-0.06505715,0.68783426,-0.8527679,310.47247,-44.648205,21.7269,CSO
4672150122000,2.764721,2.13830610711864,9.18565063050847,10.4694140194915,-0.059864793,0.49571714,-0.82986045,310.76236,-44.649376,21.265936,CSO
4672155222000,2.769821,1.91107752002381,8.90426367811074,10.5198517097638,-0.062308256,0.33933565,-0.82558435,311.08478,-44.653217,20.845463,CSO
4672160657000,2.775256,1.70448916846597,8.61504056836674,10.4836988210458,-0.037873644,0.21227567,-0.8191703,311.43945,-44.664894,20.473648,CSO
4672165099000,2.779698,1.69934576746224,8.42149496586831,10.3368559658683,-0.021685716,0.10842858,-0.8054258,311.73114,-44.645973,20.07614,CSO
4672170168000,2.784767,1.74795947832763,8.21488636685304,10.130247366853,-0.02076942,0.043676864,-0.7849618,312.04163,-44.629528,19.709547,CSO
4672175120000,2.789719,1.83980988023925,8.00963518557294,9.92754080230257,-0.018325957,0.003970624,-0.75533485,312.3325,-44.606625,19.350012,CSO
4672180081000,2.79468,2.03638162957366,7.79597020766325,9.72242277334053,-0.02076942,-0.021685716,-0.72082096,312.6305,-44.580868,19.014988,CSO
4672185246000,2.799845,2.25337780830705,7.55909202077166,9.50450262428213,-0.021991149,-0.022296581,-0.6817256,312.91913,-44.54347,18.72379,CSO
4672190062000,2.804661,2.56675153533123,7.20841195981558,9.26201081096821,-0.026572637,-0.035124753,-0.6637051,313.21323,-44.50492,18.449404,CSO
4672194987000,2.809586,2.88721781556257,6.84979499548653,9.01403070702904,-0.022907447,-0.044593163,-0.657291,313.49496,-44.44327,18.23614,CSO
4672200134000,2.814733,3.20371403330769,6.58605859199769,8.82602620371261,-0.030543262,-0.07941248,-0.63804877,313.77728,-44.376892,18.041157,CSO
4672205160000,2.819759,3.50000280008656,6.40550762700779,8.69177056246994,-0.03268129,-0.1600467,-0.6102544,314.06705,-44.314186,17.86424,CSO
4672209996000,2.824595,3.72051304493052,6.29019512030365,8.60023880159547,-0.017104227,-0.21044308,-0.58184916,314.3203,-44.210274,17.78908,CSO
4672217451000,2.83205,3.96547815481215,6.19833331600618,8.51450118579516,0.009773844,-0.19242255,-0.5421429,314.56445,-44.108482,17.725279,CSO
4672220073000,2.834672,4.03327937566442,6.18157845383509,8.48944189293556,-0.003970624,-0.18967366,-0.51923543,314.8215,-43.97201,17.744492,CSO
4672225087000,2.839686,4.09508828660559,6.20702901214507,8.46035560566366,-0.017104227,-0.16920967,-0.48288897,315.0536,-43.841515,17.766327,CSO
4672230777000,2.845376,4.16523042925721,6.23591087827667,8.42734783251306,-0.062308256,-0.15210545,-0.45265114,315.27744,-43.684734,17.825554,CSO
4672235105000,2.849704,4.15865308243229,6.33651903580485,8.40744908956284,-0.1020145,-0.13683382,-0.42424592,315.48206,-43.52779,17.885834,CSO
4672240064000,2.854663,4.1104821742976,6.50511598194543,8.38818046475302,-0.13164146,-0.13897185,-0.39553526,315.6729,-43.364098,17.95026,CSO
4672245058000,2.859657,4.00259431146667,6.623855736,8.37227450666667,-0.1414153,-0.13927728,-0.37507126,315.858,-43.199608,18.027365,CSO
4672250119000,2.864718,3.84660470465287,6.70407921765517,8.35890415908046,-0.1563815,-0.109650314,-0.3652974,316.02484,-43.030437,18.099865,CSO
4672255072000,2.869671,3.65737376343251,6.75567957697283,8.34694510737387,-0.1881465,-0.095294975,-0.34391713,316.188,-42.882755,18.162024,CSO
4672260063000,2.874662,3.41003689206555,6.76598521717335,8.33663866009056,-0.21197024,-0.08032878,-0.3371976,316.33804,-42.739605,18.214914,CSO
4672265118000,2.879717,3.16262894397528,6.74151532436102,8.29765264965827,-0.21777347,-0.06658431,-0.32650748,316.47647,-42.616535,18.232119,CSO
4672270156000,2.884755,2.91870154006179,6.68730930273383,8.23441233039977,-0.22479841,-0.061391957,-0.3145956,316.60648,-42.490936,18.24899,CSO
4672275129000,2.889728,2.66691374460308,6.60911811536265,8.13227817635637,-0.2134974,-0.062002823,-0.30573806,316.7248,-42.387596,18.221222,CSO
4672280082000,2.894681,2.40053248486579,6.4962445444032,7.97425569560251,-0.20952678,-0.0693332,-0.30726522,316.83972,-42.28425,18.194887,CSO
4672285067000,2.899666,2.13677812025488,6.35608907906932,7.82688440393899,-0.1881465,-0.09162979,-0.31612277,316.96048,-42.20688,18.135515,CSO
4672290117000,2.904716,1.87997582058312,6.15064724908283,7.70548704537555,-0.17165314,-0.10781772,-0.31856623,317.07803,-42.131546,18.078913,CSO
4672294993000,2.909592,1.64749676600213,5.96284559338748,7.6135616,-0.13164146,-0.14782938,-0.3222314,317.20764,-42.089535,17.992083,CSO
4672300110000,2.914709,1.46255888162277,5.80605036939864,7.6135616,-0.12186762,-0.2049453,-0.33322698,317.34454,-42.046852,17.911972,CSO
4672305213000,2.919812,1.27812698324719,5.64968413371072,7.6135616,-0.09773844,-0.2648101,-0.35002577,317.48914,-42.02128,17.808458,CSO
4672310004000,2.924603,0.952801690053408,5.48389000181045,7.75797388366072,-0.06872234,-0.32803464,-0.35308012,317.64417,-42.00033,17.719482,CSO
4672315124000,2.929723,0.566643188523581,5.30190744147732,7.94883369066715,-0.053145275,-0.41050145,-0.3539964,317.81708,-41.984905,17.64505,CSO
4672320066000,2.934665,0.361611057314054,5.19941202021129,8.07260320403372,-0.05375614,-0.50426924,-0.3659083,318.00305,-41.96139,17.55337,CSO
4672325044000,2.939643,0.275126495967346,5.14853841135418,8.15400048948885,-0.06658431,-0.6032294,-0.3811799,318.2063,-41.939995,17.479694,CSO
4672330092000,2.944691,0.252384551515121,5.1196177446851,8.17520534773929,-0.08277224,-0.69974613,-0.39095375,318.42075,-41.898064,17.359251,CSO
4672335191000,2.94979,0.257258501330472,5.1001220472103,8.17033129613734,-0.109650314,-0.7867944,-0.40683624,318.65643,-41.85292,17.253874,CSO
4672340131000,2.95473,0.336959200965552,5.07782070284573,8.14856757224164,-0.13255776,-0.86254174,-0.41722095,318.90604,-41.795723,17.152308,CSO
4672345956000,2.960555,0.465072314145781,5.04997004882676,8.11514667109336,-0.16218472,-0.92485,-0.42577308,319.1714,-41.732105,17.06368,CSO
4672350084000,2.964683,0.608435343747304,5.05300466959022,8.03319535826743,-0.1863139,-0.98715824,-0.4361578,319.4538,-41.664173,16.991903,CSO
4672355078000,2.969677,0.793243281718188,5.06160038116463,7.92145119755572,-0.21410827,-1.0436633,-0.45723262,319.749,-41.590813,16.928072,CSO
4672360077000,2.974676,1.04270429103285,5.10190982361645,7.77534683722995,-0.24098633,-1.0931433,-0.47158796,320.0495,-41.50643,16.89623,CSO
4672365113000,2.979712,1.3662278903068,5.17803325839992,7.58979659214758,-0.2724459,-1.1270463,-0.47952923,320.358,-41.416912,16.869495,CSO
4672370156000,2.984755,1.69435376649746,5.28289653251604,7.36198982439421,-0.2932153,-1.1618657,-0.49602258,320.67868,-41.33071,16.888174,CSO
4672375090000,2.989689,2.0201981319797,5.41866493937362,7.090452774399,-0.29138273,-1.1597277,-0.49266282,320.99194,-41.24326,16.907265,CSO
4672380070000,2.994669,2.34767710722059,5.53734930811015,6.83693373936784,-0.29565877,-1.1582005,-0.5009095,321.31598,-41.163963,16.983522,CSO
4672385091000,2.99969,2.67531315624113,5.62380886592221,6.61850964333302,-0.2947425,-1.1563679,-0.5149594,321.63483,-41.08954,17.056253,CSO
4672390173000,3.004772,2.9970152869227,5.73525872517258,6.404450573544,-0.26939157,-1.1481212,-0.5177083,321.958,-41.054157,17.187342,CSO
4672395066000,3.009665,3.27949243480797,5.90838971612056,6.217651104842,-0.2489276,-1.1233811,-0.52473325,322.27417,-41.022095,17.306482,CSO
4672400115000,3.014714,3.57039344461016,6.09095925734417,6.03906799367414,-0.21380283,-1.0833695,-0.5363397,322.59518,-41.024334,17.484673,CSO
4672405079000,3.019678,3.85400557491257,6.28655387750463,5.92171136454433,-0.17837265,-1.0451905,-0.5522222,322.9039,-41.034267,17.648361,CSO
4672410151000,3.02475,4.11091889457334,6.4754193439009,5.83518800270547,-0.15577064,-0.9764681,-0.55833083,323.21942,-41.071064,17.838774,CSO
4672415121000,3.02972,4.26813975340149,6.62889689175777,5.84641813105781,-0.11942416,-0.91446525,-0.5540548,323.5196,-41.12059,18.01299,CSO
4672419999000,3.034598,4.42245028647267,6.77953340653559,5.85744037775855,-0.0870483,-0.86132,-0.55924714,323.83624,-41.18442,18.205778,CSO
4672425110000,3.039709,4.59749385462642,6.91508489517736,5.85845237426415,-0.047647487,-0.8026769,-0.56077427,324.13007,-41.257423,18.379065,CSO
4672430133000,3.044732,4.77538902917736,7.03852244756226,5.85482178777358,-0.008857546,-0.73548174,-0.5494733,324.4028,-41.336338,18.5346,CSO
4672435149000,3.049748,4.94585590903964,7.15288120765388,5.85316813206574,0.012217305,-0.6783658,-0.54305923,324.6759,-41.427097,18.696037,CSO
4672440112000,3.054711,5.01095457880277,7.13756384301482,5.87997345020947,0.06383542,-0.6432411,-0.5360342,324.93176,-41.532356,18.844738,CSO
4672445103000,3.059702,5.07642051891718,7.12216006165002,5.90692999722849,0.0870483,-0.6200282,-0.5137377,325.1826,-41.632896,19.015682,CSO
4672450109000,3.064708,5.08682915667711,7.08426302381834,5.91259695150911,0.1020145,-0.59528816,-0.4990769,325.4215,-41.742226,19.173391,CSO
4672455080000,3.069679,5.05632965836418,7.03004157946327,5.9024303930951,0.10476339,-0.5366451,-0.49174652,325.6409,-41.849968,19.317106,CSO
4672459982000,3.074581,5.02625350854926,6.97657275624288,5.89240495166572,0.09682214,-0.46670106,-0.48624873,325.8487,-41.942543,19.469677,CSO
4672465102000,3.079701,4.90061166462749,6.83163263074859,5.90280663151775,0.090713486,-0.41416663,-0.49357912,326.04504,-42.034733,19.60766,CSO
4672470109000,3.084708,4.74622146223951,6.66008773254628,5.9199611929881,0.09040806,-0.37598756,-0.4999932,326.22455,-42.123432,19.731161,CSO
4672475080000,3.089679,4.61278948902576,6.51857363527436,5.92337480343412,0.093767814,-0.355829,-0.5045747,326.40573,-42.20184,19.845295,CSO
4672480100000,3.094699,4.49614461724524,6.40192904456887,5.91440223269877,0.11362094,-0.34513888,-0.52015173,326.5811,-42.28489,19.94636,CSO
4672485114000,3.099713,4.38019142161757,6.29520375341987,5.90704440738892,0.10995574,-0.3368922,-0.52656585,326.75745,-42.337902,20.026886,CSO
4672490098000,3.104697,4.26580919391912,6.20465106732901,5.90227837963055,0.12767084,-0.31398472,-0.5311473,326.92752,-42.401978,20.096594,CSO
4672495063000,3.109662,4.14573872340426,6.14015948085106,5.90257318723404,0.13500121,-0.2938262,-0.54061574,327.1059,-42.456062,20.153282,CSO
4672500182000,3.114781,4.01143946090768,6.11777616136426,5.91152645893526,0.15607607,-0.28588495,-0.5497787,327.27887,-42.51764,20.204437,CSO
4672505104000,3.119703,3.8909667390785,6.10666210056314,5.92782112351536,0.17623462,-0.27030787,-0.5531385,327.4568,-42.57286,20.237803,CSO
4672510062000,3.124661,3.80588838976109,6.13907307959044,5.97643719017065,0.20250183,-0.23090707,-0.55863625,327.62604,-42.63552,20.260563,CSO
4672516056000,3.130655,3.70349687043062,6.17874517875598,6.03475166478469,0.22602014,-0.21074851,-0.5488624,327.8145,-42.70348,20.268583,CSO
4672520247000,3.134846,3.64204397674641,6.21715318717703,6.06547811162679,0.24281894,-0.20341812,-0.54244834,327.99487,-42.77641,20.268126,CSO
4672525089000,3.139688,3.57104542956938,6.26152722124402,6.10097738521531,0.26236662,-0.19425514,-0.5308419,328.19153,-42.85685,20.252752,CSO
4672530071000,3.14467,3.50678567116564,6.29413603773006,6.13843931871166,0.27916542,-0.16646078,-0.5164866,328.37592,-42.938374,20.232834,CSO
4672535124000,3.149723,3.44453647116564,6.32286638773006,6.17674676871166,0.3051272,-0.14172074,-0.5030475,328.55234,-43.024357,20.212711,CSO
4672540099000,3.154698,3.39369020028696,6.32330797278844,6.17965614547793,0.32925636,-0.13469578,-0.49480084,328.74472,-43.1159,20.180264,CSO
4672545224000,3.159823,3.34512395375025,6.31359471333861,6.169942987453,0.35155296,-0.1133155,-0.50701815,328.92563,-43.212994,20.137774,CSO
4672550131000,3.16473,3.37713177203449,6.27695972415023,6.18112636180755,0.37232238,-0.10262536,-0.49449542,329.12073,-43.3091,20.094923,CSO
4672555478000,3.170077,3.44310069583788,6.2262145163512,6.20142440253691,0.38453966,-0.09132435,-0.49021935,329.31088,-43.409878,20.042847,CSO
4672560077000,3.174676,3.46039319035222,6.20584996282542,6.20260494352986,0.38698313,-0.09132435,-0.4859433,329.5224,-43.507885,19.994242,CSO
4672565180000,3.179779,3.46507067986217,6.19181739661179,6.19792735633614,0.3912592,-0.0720821,-0.4886922,329.723,-43.60829,19.938349,CSO
4672570247000,3.184846,3.49312906518955,6.16029227983382,6.21462156212567,0.38453966,-0.048563786,-0.4831944,329.91666,-43.68645,19.89947,CSO
4672575076000,3.189675,3.53315543162541,6.12026582980786,6.24264004370781,0.37232238,-0.035430185,-0.48716503,330.10632,-43.764885,19.855488,CSO
4672580068000,3.194667,3.57465598830473,6.08933849491748,6.25114801169527,0.3726278,-0.029626964,-0.47525316,330.28687,-43.843445,19.818512,CSO
4672585131000,3.19973,3.61705392329216,6.08403864236529,6.20875007670784,0.37140608,-0.026267206,-0.47403142,330.46417,-43.91944,19.775824,CSO
4672590061000,3.20466,3.63726889212854,6.11195544609054,6.20771214653708,0.3717115,-0.02107485,-0.4746423,330.62683,-43.981564,19.745192,CSO
4672595080000,3.209679,3.6330603325278,6.17929266337449,6.25400621425444,0.36651915,-0.018325957,-0.46822822,330.78418,-44.040127,19.715528,CSO
4672600106000,3.214705,3.62417512508306,6.24537074983389,6.29558512606935,0.36835176,-0.021685716,-0.46395215,330.94916,-44.096016,19.696075,CSO
4672605176000,3.219775,3.5939294589701,6.3058620820598,6.31574895611503,0.35796702,-0.025961773,-0.44806966,331.1064,-44.14448,19.679298,CSO
4672609998000,3.224597,3.55679594455378,6.33886776811842,6.32835017057414,0.35918877,-0.020158553,-0.42577308,331.27304,-44.193882,19.658792,CSO
4672615397000,3.229996,3.48600931231283,6.29020192957988,6.31950185309318,0.35827246,-0.029932396,-0.41080686,331.43866,-44.238644,19.643082,CSO
4672620085000,3.234684,3.42454464627364,6.24794494660734,6.31181877986652,0.35827246,-0.04337143,-0.39675698,331.60617,-44.29065,19.624796,CSO
4672625250000,3.239849,3.37584304606325,6.24838578535473,6.25511570486276,0.36254853,-0.04886922,-0.3885103,331.76886,-44.341743,19.607979,CSO
4672630098000,3.244697,3.331747380378,6.25279544401178,6.19779138551619,0.37232238,-0.05681047,-0.37904188,331.92865,-44.39168,19.59654,CSO
4672635107000,3.249706,3.24449368245756,6.28511826952304,6.14728809749394,0.37782016,-0.065973446,-0.3717115,332.08664,-44.437878,19.574892,CSO
4672640079000,3.254678,3.14826111483428,6.32361122623282,6.09917163783347,0.37140608,-0.07544186,-0.35979962,332.24075,-44.481102,19.557234,CSO
4672645077000,3.259676,3.0786917365735,6.34539046699418,6.10975061663646,0.36957347,-0.08246681,-0.35888332,332.4136,-44.53843,19.538849,CSO
4672650114000,3.264713,3.01426954924163,6.36379677877516,6.13275869855957,0.36254853,-0.08460484,-0.35338554,332.58096,-44.58985,19.524044,CSO
4672655064000,3.269663,3.03827879040296,6.34481257407047,6.16928706462916,0.35888332,-0.08460484,-0.36071593,332.76385,-44.661167,19.490747,CSO
4672659992000,3.274591,3.09340188076698,6.31265754195055,6.21062931045357,0.3371976,-0.10415252,-0.3640757,332.94644,-44.723835,19.46299,CSO
4672665109000,3.279708,3.16462180168966,6.28312968872618,6.20958356066836,0.32162055,-0.13897185,-0.35705075,333.1341,-44.793934,19.425753,CSO
4672670181000,3.28478,3.24213513089271,6.25577193109922,6.18678550866423,0.31123585,-0.15118915,-0.34788775,333.31827,-44.858986,19.387331,CSO
4672675068000,3.289667,3.28013405288731,6.2513774301439,6.13811044986918,0.3032946,-0.1826487,-0.34238997,333.50665,-44.90771,19.373495,CSO
4672680112000,3.294711,3.28916140837227,6.26491855763409,6.06589137033265,0.3173445,-0.19028452,-0.3323107,333.68652,-44.957027,19.359547,CSO
4672684992000,3.299591,3.26522853518846,6.27645767237927,6.02016218951708,0.3118467,-0.18875736,-0.3304781,333.87048,-44.989365,19.368647,CSO
4672690127000,3.304726,3.18799754043973,6.2861114522183,6.01050830887318,0.30482176,-0.18295415,-0.32498032,334.04874,-45.022804,19.379757,CSO
4672695071000,3.30967,3.11966541180746,6.28368229372345,5.98478638764512,0.29779682,-0.16920967,-0.3378085,334.23648,-45.065628,19.3909,CSO
4672700119000,3.314718,3.06034786224634,6.2608679065597,5.93003181080698,0.2959642,-0.14782938,-0.35369098,334.41666,-45.107304,19.398289,CSO
4672705216000,3.319815,3.0196214903045,6.24115056064293,5.88095358003392,0.2959642,-0.115453534,-0.36987892,334.6,-45.155476,19.38278,CSO
4672710101000,3.3247,3.02996938476001,6.23080284627295,5.84991007675293,0.2959642,-0.09315695,-0.38637227,334.78052,-45.20486,19.360674,CSO
4672715076000,3.329675,3.04050792619627,6.22026448824006,5.81829463584753,0.31581733,-0.07574729,-0.3866777,334.95746,-45.266075,19.324377,CSO
4672720571000,3.33517,3.05716192687518,6.25055991294527,5.82408533617144,0.30818152,-0.050396383,-0.37965274,335.1262,-45.32082,19.280071,CSO
4672725072000,3.339671,3.07380658924607,6.30049337865624,5.85321326720726,0.32895094,-0.02107485,-0.37018433,335.28662,-45.386578,19.231977,CSO
4672730322000,3.344921,3.07889353140382,6.4294559358732,5.86332499814924,0.32711834,0.018325957,-0.3662137,335.43436,-45.4502,19.183979,CSO
4672735140000,3.349739,3.06980867493601,6.61569179387675,5.84969790316992,0.31703907,0.00061086525,-0.3539964,335.58237,-45.51344,19.144955,CSO
4672740862000,3.355461,3.04607440527236,6.74964596708418,5.82951629880571,0.31490102,0.0021380284,-0.34300083,335.71674,-45.585186,19.098015,CSO
4672745050000,3.359649,3.01978775170405,6.78761565234489,5.81199190375765,0.30909783,0.02443461,-0.33017266,335.84546,-45.65029,19.053545,CSO
4672752156000,3.366755,2.97691454548949,6.85293832941442,5.78034242509609,0.30604348,0.052839845,-0.32162055,335.9955,-45.735626,18.998735,CSO
4672755128000,3.369727,2.96833447175371,6.88511360592358,5.75674722232271,0.29229903,0.052839845,-0.32284227,336.14392,-45.814728,18.945864,CSO
4672760073000,3.374672,2.95405840694099,6.93864884897129,5.71748804408772,0.28252518,0.057726767,-0.31215215,336.28864,-45.908676,18.882942,CSO
4672765424000,3.380023,2.93914182281866,6.99435154320346,5.6762329635594,0.27550024,0.07819075,-0.31337386,336.4301,-45.999653,18.814713,CSO
4672770084000,3.384683,2.9305553637518,7.02440390337662,5.65047354152958,0.28038713,0.08674286,-0.30634892,336.56732,-46.086845,18.752361,CSO
4672775757000,3.390356,2.92240082588025,7.06548054788121,5.61804582404741,0.29046643,0.10170906,-0.30298916,336.69666,-46.195477,18.676716,CSO
4672780404000,3.395003,2.93773307613863,7.14214199129057,5.58124848746641,0.30451632,0.12003502,-0.2843578,336.81702,-46.30106,18.604498,CSO
4672785131000,3.39973,2.95332927733756,7.22012319270998,5.54381766973059,0.3136793,0.1518,-0.2779437,336.94223,-46.41436,18.526138,CSO
4672790133000,3.404732,2.97115188530409,7.30291332641792,5.50900588530409,0.32528573,0.17654006,-0.25992316,337.05704,-46.525288,18.453085,CSO
4672795168000,3.409767,3.00918863532381,7.39039769259289,5.54704263532382,0.33536503,0.20952678,-0.24801129,337.16095,-46.635548,18.37366,CSO
4672800131000,3.41473,3.04668146359549,7.47663104101917,5.58453546359549,0.3567453,0.22693644,-0.21410827,337.2585,-46.762394,18.299755,CSO
4672804965000,3.419564,3.08340758335232,7.54469245293984,5.61319176994075,0.3707952,0.26816985,-0.1826487,337.33987,-46.885654,18.2188,CSO
4672810409000,3.425008,3.1249930810278,7.60410041310392,5.63695492919326,0.3827071,0.30757064,-0.14844026,337.40945,-47.00596,18.144331,CSO
4672814937000,3.429536,3.14873870953311,7.67177908089471,5.65101315723774,0.40103304,0.34605515,-0.1142318,337.46606,-47.13602,18.075657,CSO
4672819930000,3.434529,3.17209139677671,7.75117811998437,5.66502486712248,0.43096542,0.37201694,-0.07971791,337.50916,-47.264137,18.010965,CSO
4672824904000,3.439503,3.1859709687662,7.80872234383097,5.65652759218657,0.4437936,0.38606682,-0.04734206,337.5382,-47.386295,17.95245,CSO
4672829904000,3.444503,3.19551531797887,7.85644408989436,5.6374384951166,0.45753807,0.41172317,-0.022907447,337.5533,-47.509304,17.89429,CSO
4672835045000,3.449644,3.20859612333498,7.80916512142504,5.56487784443345,0.48563787,0.45234573,0.0015271631,337.55762,-47.640224,17.839422,CSO
4672839903000,3.454502,3.2224083235527,7.72168794952994,5.47279650964869,0.51923543,0.49021935,0.03176499,337.55096,-47.768425,17.78842,CSO
4672844899000,3.459498,3.2629043877928,7.6398552729004,5.35970513427919,0.5546656,0.53786683,0.041233405,337.53314,-47.905914,17.728767,CSO
4672849937000,3.464536,3.31803446095982,7.56175427994668,5.23566282944201,0.6068946,0.593761,0.061391957,337.49738,-48.04696,17.6715,CSO
4672854922000,3.469521,3.353219623229,7.45097253739704,5.14012534543863,0.6585127,0.64873886,0.07849618,337.44122,-48.19181,17.61721,CSO
4672859920000,3.474519,3.37293331614498,7.31297668698517,5.06619873969316,0.72418076,0.7180721,0.09743301,337.36566,-48.34637,17.557125,CSO
4672864973000,3.479572,3.35988782961157,7.19186327678105,5.06330638244208,0.7825184,0.7733554,0.10476339,337.27118,-48.508453,17.509966,CSO
4672869933000,3.484532,3.32679177387215,7.08430134401672,5.10467620372757,0.8417723,0.8038987,0.11728613,337.16354,-48.67948,17.46235,CSO
4672874918000,3.489517,3.28135866889125,6.99956849646371,5.15048067668173,0.88117313,0.8518516,0.124005646,337.034,-48.845684,17.417503,CSO
4672879971000,3.49457,3.2084475467163,6.96525735907117,5.20623654364974,0.9086621,0.872621,0.13897185,336.90204,-49.015903,17.378891,CSO
4672885071000,3.49967,3.13075715831006,6.93012949367049,5.26723290489192,0.947452,0.9016371,0.14813483,336.7519,-49.1779,17.33115,CSO
4672889926000,3.504525,3.01534814941566,6.89165990772572,5.3730244043231,0.9825767,0.91965765,0.16829337,336.59778,-49.33709,17.289888,CSO
4672894933000,3.509532,2.89616098767493,6.86108285772609,5.47653492765177,1.001819,0.9245446,0.16982053,336.4582,-49.491283,17.236122,CSO
4672899954000,3.514553,2.77549561396583,6.89356966301515,5.54150863515105,1.0262536,0.9260717,0.18997909,336.31152,-49.64501,17.19103,CSO
4672905120000,3.519719,2.64429075373773,6.93827213685461,5.61736750403864,1.042747,0.91996306,0.20280726,336.1638,-49.79131,17.120829,CSO
4672909974000,3.524573,2.45286991191004,7.08920013268926,5.77565775863161,1.0577132,0.93034774,0.2098322,336.01318,-49.936436,17.053602,CSO
4672915048000,3.529647,2.25277321816598,7.24696870517897,5.94112227280646,1.0644327,0.90133166,0.21227567,335.87408,-50.088833,16.968384,CSO
4672920190000,3.534789,2.15617792282769,7.41757306568483,6.04150275724104,1.071763,0.84696466,0.21197024,335.7422,-50.239635,16.889948,CSO
4672924973000,3.539572,2.14268577720177,7.58397638291605,6.08647657599411,1.0790935,0.818254,0.22204952,335.6128,-50.38559,16.817953,CSO
4672929966000,3.544565,2.12866686524657,7.74527450403657,6.13320640365723,1.0693196,0.79412484,0.25167647,335.4892,-50.55615,16.690832,CSO
4672935001000,3.5496,2.11459648648964,7.8953585441105,6.18010791104951,1.0531317,0.7480045,0.25992316,335.38425,-50.723263,16.57381,CSO
4672940135000,3.554734,2.10323705899743,8.03055780631427,6.17648657642192,1.0543534,0.6936375,0.2751948,335.28763,-50.90396,16.461264,CSO
4672945061000,3.55966,2.09565747724936,8.14046166251607,6.11584972457423,1.0500773,0.6435465,0.29840767,335.20187,-51.07186,16.363113,CSO
4672950419000,3.565018,2.08908712589693,8.25808514695741,6.04927982081819,1.0497719,0.6273586,0.30757064,335.1237,-51.252316,16.257805,CSO
4672955075000,3.569674,2.11817361043705,8.32041376199795,5.97864117211816,1.0458013,0.6123924,0.30543262,335.05795,-51.423973,16.166428,CSO
4672959977000,3.574576,2.14879688088715,8.38603551262697,5.9042703267729,1.0280862,0.57971114,0.30879238,334.98593,-51.622147,16.07389,CSO
4672965120000,3.579719,2.17367426899217,8.387524556425,5.78393697473367,1.0360274,0.55955255,0.30909783,334.9183,-51.82032,15.983609,CSO
4672970154000,3.584753,2.19639964431036,8.37388952107099,5.65667477803337,1.0290025,0.56169057,0.29901853,334.8569,-52.005188,15.896115,CSO
4672975129000,3.589728,2.16412657765847,8.32057944242327,5.59681029367738,1.0412198,0.552833,0.29168814,334.78723,-52.214725,15.816011,CSO
4672980084000,3.594683,2.11088965106178,8.25213143216604,5.56258652678901,1.0580186,0.5354234,0.27763826,334.72467,-52.419327,15.735615,CSO
4672985086000,3.599685,2.0095808546894,8.15944178105968,5.49708974862972,1.0784826,0.50335294,0.25534168,334.65894,-52.637505,15.658645,CSO
4672990117000,3.604716,1.7308240319123,7.97849480876979,5.31614262314251,1.1178834,0.47525316,0.23732115,334.6008,-52.859245,15.58387,CSO
4672994985000,3.609584,1.48890456578685,7.82988193017687,5.17042739627211,1.1475104,0.45020768,0.21319197,334.5394,-53.091278,15.496742,CSO
4673000193000,3.614792,1.33056809188209,7.76654726503401,5.12066428312925,1.1676689,0.41233405,0.18173242,334.49493,-53.327003,15.412455,CSO
4673005240000,3.619839,1.18132422678882,7.70684965330507,5.07000352260165,1.1985176,0.4120286,0.16218472,334.44614,-53.59885,15.276788,CSO
4673010069000,3.624668,1.09378274217839,7.67183309602484,4.98946544085712,1.2174544,0.39584067,0.12705997,334.4212,-53.87127,15.141407,CSO
4673015144000,3.629743,1.00178169964413,7.63503271743772,4.90482457010676,1.2257011,0.37110063,0.09468412,334.39557,-54.170506,14.976277,CSO
4673020115000,3.634714,0.967795058330669,7.61848442296528,4.79636739428425,1.2461652,0.35124752,0.050701816,334.38342,-54.47559,14.805152,CSO
4673025094000,3.639693,1.01657243458858,7.63067881875839,4.65003531326002,1.2596041,0.34147367,0.02687807,334.3796,-54.77458,14.63671,CSO
4673030196000,3.644795,1.06655479523688,7.64317446192699,4.50008828024423,1.2577715,0.33964106,-0.017104227,334.38797,-55.1063,14.439366,CSO
4673035078000,3.649677,1.13931256938148,7.6800474779101,4.40310520783711,1.2910637,0.34300083,-0.037873644,334.40018,-55.441998,14.246054,CSO
4673040093000,3.654692,1.28230697136957,7.78613987034191,4.43078148621783,1.3072516,0.34330627,-0.064751714,334.42383,-55.77065,14.044918,CSO
4673045093000,3.659692,1.4214754418818,7.89466980556909,4.453215,1.3432927,0.31398472,-0.077579886,334.44055,-56.134285,13.859709,CSO
4673050088000,3.664687,1.54574538915408,8.0150562802403,4.453215,1.3692545,0.2950479,-0.083383106,334.4601,-56.492542,13.671302,CSO
4673055004000,3.669603,1.66804990582887,8.1335387446014,4.453215,1.409877,0.27947086,-0.090713486,334.46204,-56.861343,13.504799,CSO
4673060050000,3.674649,1.7665602196004,8.2927934976946,4.49344261404936,1.4419475,0.27305678,-0.09712757,334.46942,-57.225227,13.341371,CSO
4673065961000,3.68056,1.86891713914655,8.49750776430703,4.55997463045837,1.4682146,0.26267207,-0.09743301,334.48407,-57.588226,13.1831665,CSO
4673070094000,3.684693,1.9009746856823,8.62836022337941,4.59439783789177,1.4953982,0.25320363,-0.10415252,334.48224,-57.962353,13.046106,CSO
4673075101000,3.6897,1.91030917817792,8.77771103114658,4.62706834232042,1.5015068,0.23579398,-0.10629055,334.48657,-58.32646,12.914918,CSO
4673080108000,3.694707,1.90450250201402,8.9128403765426,4.64909464083325,1.5219707,0.21135938,-0.106901415,334.4826,-58.702766,12.794642,CSO
4673085115000,3.699714,1.88083227902063,9.03119124434791,4.65856290798697,1.5436565,0.18478674,-0.1142318,334.48688,-59.07088,12.676873,CSO
4673090088000,3.704687,1.84146865334598,9.11654359089678,4.6248920203197,1.5549575,0.16646078,-0.124311075,334.49423,-59.449383,12.55843,CSO
4673095091000,3.70969,1.78089078592974,9.15981346392125,4.53402519660435,1.5732834,0.15118915,-0.12980886,334.50955,-59.824154,12.444298,CSO
4673100213000,3.714812,1.733402,9.193734,4.44243539803676,1.5964963,0.13316862,-0.13652839,334.53036,-60.21394,12.321716,CSO
4673105099000,3.719698,1.733402,9.193734,4.35955010037641,1.6132951,0.1142318,-0.13622294,334.5565,-60.594936,12.203587,CSO
4673109994000,3.724593,1.733402,9.193734,4.27651212820134,1.6398678,0.07727446,-0.13530666,334.59512,-61.007416,12.07688,CSO
4673115106000,3.729705,1.69555888698354,9.28455772413793,4.27079200764212,1.6597209,0.043982297,-0.115453534,334.6364,-61.407852,11.958848,CSO
4673120084000,3.734683,1.62150895907632,9.46227804597701,4.34484172935694,1.67316,0.013133603,-0.10048734,334.68808,-61.801975,11.8457155,CSO
4673125108000,3.739707,1.57531938697564,9.53643845816258,4.39309266875792,1.6975945,-0.015271631,-0.076052725,334.7351,-62.21535,11.744856,CSO
4673130155000,3.744754,1.55010969530586,9.53283700380002,4.42190366436927,1.7220291,-0.034513887,-0.042455133,334.7853,-62.617123,11.653755,CSO
4673135935000,3.750534,1.5246442165592,9.53471904679562,4.44631495115279,1.7580702,-0.03848451,-0.007941248,334.83426,-63.036983,11.550029,CSO
4673140110000,3.754709,1.55198716277843,9.61674784466588,4.34866171746776,1.7983873,-0.043982297,0.044898596,334.88293,-63.445156,11.4633,CSO
4673144984000,3.759583,1.58390800586166,9.71251032629934,4.23465887651426,1.8274034,-0.038789943,0.102319926,334.91843,-63.848423,11.379742,CSO
4673150137000,3.764736,1.54203281496758,9.91222806176252,4.18776743318805,1.8377881,-0.019547688,0.16890424,334.94525,-64.23683,11.31215,CSO
4673154906000,3.769505,1.48862685896673,10.1161412142022,4.15863683799298,1.8616118,-0.027183503,0.22388211,334.97357,-64.6179,11.259478,CSO
4673159904000,3.774503,1.34990674793841,10.2308936725762,4.16081722669436,1.9208658,-0.07086037,0.27122417,334.99567,-65.02804,11.232077,CSO
4673165418000,3.780017,1.18239550772746,10.3445275820523,4.15803281990029,2.0335703,-0.12614368,0.29138273,335.02087,-65.44122,11.213553,CSO
4673169909000,3.784508,0.932236732363938,10.3713303812838,4.02401933684047,2.193617,-0.13041973,0.30604348,335.04376,-65.89888,11.188519,CSO
4673175154000,3.789753,0.646530827462742,10.4126908364382,3.87296561542474,2.2757785,-0.10476339,0.33108896,335.07806,-66.379364,11.143969,CSO
4673179898000,3.794497,0.464564345428465,10.5692662559613,3.8010253476155,2.4459045,-0.08399397,0.35460728,335.11426,-66.9037,11.103571,CSO
4673184902000,3.799501,0.272624995491803,10.7344229590164,3.72514231639344,2.6435194,-0.06291912,0.3820962,335.15765,-67.49739,11.017358,CSO
4673189903000,3.804502,0.261971525669413,11.0315445932029,3.84554642121524,2.8301387,-0.04734206,0.42852196,335.1939,-68.10524,10.941641,CSO
4673194900000,3.809499,0.276756897318229,11.3469659373841,3.99339998331617,2.9816332,-0.06047566,0.49357912,335.22955,-68.72568,10.879409,CSO
4673199958000,3.814557,0.413482544222124,11.5393600361393,4.21073052842662,3.101363,-0.15699236,0.57451874,335.29346,-69.41103,10.79487,CSO
4673205237000,3.819836,0.564994469454385,11.7309777318643,4.4424546646981,3.1957414,-0.30451632,0.68661255,335.3687,-70.08762,10.742172,CSO
4673209954000,3.824553,0.6247908888,11.741931,4.5600922,3.2562172,-0.4184427,0.8145888,335.4491,-70.75122,10.711424,CSO
4673215837000,3.830436,0.662117834404969,11.6766089937888,4.66274141490683,3.2446108,-0.5479461,0.9147707,335.56964,-71.37833,10.715362,CSO
4673219958000,3.834557,0.643417557863025,11.5420890686885,4.63367807280578,3.2042937,-0.63591075,0.98715824,335.6838,-71.94578,10.784937,CSO
4673224953000,3.839552,0.504107609791123,11.1481782924282,4.3358428962141,3.123354,-0.6881397,1.0454959,335.8183,-72.45697,10.880653,CSO
4673229935000,3.844534,0.342196579161111,10.7332188899132,4.07436907136885,3.0130928,-0.7293731,1.0537425,335.96402,-72.91795,11.010763,CSO
4673235068000,3.849667,0.110345261474113,10.2431695256726,3.90575010390181,2.8823676,-0.83169305,1.031446,336.13968,-73.32379,11.149706,CSO
4673239984000,3.854583,-0.0282669699134312,9.89472649962846,3.7113222461267,2.7543914,-0.9611965,0.9957104,336.34363,-73.721855,11.27538,CSO
4673244958000,3.859557,-0.0503898748980123,9.71331872273825,3.46797019704626,2.636189,-1.0790935,0.9611965,336.5737,-74.07434,11.393638,CSO
4673249946000,3.864545,-0.00137230200407956,9.58045502141765,3.17297033482917,2.513405,-1.217149,0.9459248,336.8514,-74.41945,11.491691,CSO
4673254997000,3.869596,0.265033860829169,9.59525514686385,2.71909329597144,2.410169,-1.3545936,0.9434814,337.16205,-74.72935,11.582816,CSO
4673260047000,3.874646,0.57016688796622,9.76103938521732,2.17052506157356,2.345417,-1.432479,0.95325524,337.49866,-75.03036,11.670606,CSO
4673265097000,3.879696,0.963604680133261,10.2706351317115,1.40613157094832,2.3057108,-1.4566082,0.9816604,337.85538,-75.29473,11.75941,CSO
4673269987000,3.884586,1.34457711650887,10.7640852703959,0.665956487946851,2.2910502,-1.5451837,1.0030408,338.24768,-75.52874,11.88124,CSO
4673275171000,3.88977,1.44961727198519,11.0745598366574,0.483425256218968,2.2702806,-1.5690074,1.0497719,338.62143,-75.72316,12.007267,CSO
4673279976000,3.894575,1.44187233821426,11.2875459197172,0.526022420264243,2.2180517,-1.6099354,1.0910053,339.02026,-75.88815,12.133055,CSO
4673285061000,3.89966,1.48659136373851,11.5279423672114,0.558907926046987,2.1578815,-1.6646078,1.1010846,339.48093,-76.05281,12.3471155,CSO
4673289984000,3.904583,1.6262493811236,11.7879949393258,0.568539506516854,2.0619757,-1.7699821,1.1154399,339.96457,-76.160614,12.565986,CSO
4673294970000,3.909569,1.77075491859163,12.0169231784189,0.488992456845022,1.9495764,-1.8020525,1.1517864,340.44177,-76.232796,12.769745,CSO
4673300084000,3.914683,1.92413832415298,12.1935466733416,0.256593341508209,1.7916678,-1.7666223,1.2134838,340.92554,-76.25215,12.975869,CSO
4673304997000,3.919596,2.08648329440885,12.3259921747234,0.076608873560862,1.5894713,-1.7556267,1.2638801,341.4201,-76.212234,13.198891,CSO
4673310051000,3.92465,2.29320548359542,12.3635778043098,0.0061354030518346,1.3927728,-1.7602082,1.287093,341.90414,-76.13314,13.421331,CSO
4673315107000,3.929706,2.49076209913246,12.3705649131657,-0.07334422920588,1.1954633,-1.8038851,1.3057245,342.40872,-76.00033,13.673726,CSO
4673320228000,3.934827,2.66016061618604,12.2760166663989,-0.183650210501406,1.0164797,-1.8298469,1.3319917,342.90506,-75.83804,13.924909,CSO
4673325097000,3.939696,2.82122317809463,12.1861210574343,-0.28852812944847,0.8552113,-1.8719965,1.3637567,343.41217,-75.61657,14.215058,CSO
4673330000000,3.944599,2.95725885624381,12.0499920720266,-0.494242376863239,0.7324274,-1.87444,1.396438,343.91098,-75.37915,14.5026455,CSO
4673335125000,3.949724,3.08982696869542,11.8909108169623,-0.746121790521293,0.6169739,-1.8988746,1.4059063,344.42432,-75.134254,14.783615,CSO
4673340133000,3.954732,3.1606460987167,11.719014012833,-0.968086113552401,0.55771995,-1.861001,1.3933836,344.9211,-74.84142,15.105529,CSO
4673345119000,3.959718,3.17921499811394,11.5333250188606,-1.16770192749368,0.5119051,-1.8600847,1.3524556,345.4321,-74.55564,15.411872,CSO
4673350108000,3.964707,3.15200848784747,11.3119193204506,-1.45905623980573,0.49632803,-1.7889189,1.2815952,345.9268,-74.251366,15.73284,CSO
4673355131000,3.96973,3.07247255036685,11.0484560409218,-1.85673566767593,0.4859433,-1.6777414,1.1902709,346.40598,-73.96865,16.02565,CSO
4673360151000,3.97475,2.95422171426772,10.7475588411299,-2.0398598,0.45753807,-1.6074919,1.0671816,346.89243,-73.704414,16.295105,CSO
4673365173000,3.979772,2.8027899815941,10.4144090473192,-2.0398598,0.44226643,-1.5775595,1.0118983,347.35443,-106.54948,16.548634,CSO
4673370072000,3.984671,2.73159094748034,10.1742562615788,-1.97096705196621,0.42424592,-1.5460999,0.8921687,347.8313,-106.74966,16.741835,CSO
4673375221000,3.98982,2.83692561882707,10.1215888759103,-1.73635808395961,0.36743546,-1.4752395,0.75900006,348.28366,-106.928535,16.908161,CSO
4673380184000,3.994783,2.92716022029437,10.0725188639514,-1.54095077414532,0.2742785,-1.455081,0.6249151,348.746,-107.064995,17.027107,CSO
4673385124000,3.999723,2.98610810425979,10.0283081529476,-1.43042330416634,0.17470746,-1.4474452,0.5021312,349.18607,-107.1646,17.10617,CSO
4673390064000,4.004663,3.04505598822522,9.98409744194377,-1.31989583418737,0.059253927,-1.3497068,0.36163223,349.56885,-107.24076,17.16539,CSO
4673395066000,4.009665,2.99376613210185,9.90508154408387,-1.37019764992511,-0.074830994,-1.3225232,0.2519819,349.96512,-107.28562,17.194376,CSO
4673400138000,4.014737,2.88706447019471,9.80807998721917,-1.5011499542686,-0.18295415,-1.3417655,0.12461651,350.34018,-107.281395,17.1762,CSO
4673405117000,4.019716,2.77566824451167,9.73411675885912,-1.92045194900605,-0.25045475,-1.3063353,-0.0061086523,350.67465,-107.259094,17.145761,CSO
4673410171000,4.02477,2.65946449047345,9.66904280802843,-2.48287798847594,-0.2874121,-1.1633929,-0.1142318,350.97748,-107.20374,17.085453,CSO
4673415119000,4.029718,2.62923843172912,9.64138325996906,-2.87297783202991,-0.31337386,-0.97249746,-0.20372356,351.2755,-107.10938,16.985285,CSO
4673420185000,4.034784,2.65425531148161,9.63721369293572,-3.16484164682881,-0.31642818,-0.8347474,-0.26816985,351.54214,-106.99176,16.863165,CSO
4673425179000,4.039778,2.72256230819284,9.64908739442267,-3.44389845457031,-0.28252518,-0.7309003,-0.3036,351.8219,-106.85641,16.71085,CSO
4673430073000,4.044672,2.89768522048665,9.70034260029162,-3.69590471087214,-0.22449298,-0.627664,-0.2996294,352.0566,-106.717735,16.555126,CSO
4673435110000,4.049709,3.06571645092025,9.74548907537248,-3.92610622651582,-0.17073683,-0.5714644,-0.2724459,352.30206,-106.59433,16.404716,CSO
4673440149000,4.054748,3.0810962208589,9.69550537510955,-3.79153421314636,-0.09590584,-0.53786683,-0.23182335,352.51974,-106.48349,16.26265,CSO
4673445087000,4.059686,3.09616772392638,9.64652353111306,-3.65965951538523,-0.03145956,-0.5009095,-0.1881465,352.73514,-106.42653,16.163717,CSO
4673450091000,4.06469,3.02568694957358,9.55015466025387,-3.39324200484927,0.03756821,-0.49296826,-0.1337795,352.9461,-106.39275,16.080946,CSO
4673455115000,4.069714,2.88731894481357,9.41655830959937,-3.02107993805038,0.089186326,-0.52870387,-0.08002335,353.15613,-106.378296,16.011435,CSO
4673460099000,4.074698,2.72419751269933,9.27577230443607,-2.66206359257756,0.12736541,-0.5558874,-0.04520403,353.35223,-106.386665,15.9643755,CSO
4673465113000,4.079712,2.53856645904127,9.12726689939113,-2.30936462454818,0.14294247,-0.6411031,-0.024740042,353.57382,-106.41099,15.926872,CSO
4673470097000,4.084696,2.35019162863916,9.0064323982649,-2.01118358081307,0.15821409,-0.7272351,0.016187929,353.78943,-106.43203,15.895161,CSO
4673475072000,4.089671,2.15794057522445,8.9151133197821,-1.77086970131141,0.15515977,-0.82986045,0.05131268,354.0327,-106.45836,15.865189,CSO
4673480003000,4.094602,2.02254060762976,8.8612844466419,-1.58794236479269,0.13622294,-0.91965765,0.10262536,354.2837,-106.46688,15.830343,CSO
4673485120000,4.099719,1.94382644543721,8.84652574671218,-1.46003174848911,0.099571034,-0.9816604,0.1459968,354.55447,-106.48119,15.800906,CSO
4673490092000,4.104691,1.93073547244811,8.83712469149844,-1.35738499963037,0.05375614,-1.0128145,0.18295415,354.8323,-106.4684,15.756157,CSO
4673495093000,4.109692,1.98066717037248,8.83258535143588,-1.27567858484504,0.0061086523,-1.0699304,0.21594086,355.13388,-106.46232,15.719636,CSO
4673499998000,4.114597,2.04841286751933,8.83151073685215,-1.21735779269829,-0.038179077,-1.1224649,0.23854288,355.44275,-106.44488,15.681929,CSO
4673505089000,4.119688,2.15079158010881,8.83616440746397,-1.19408992556075,-0.05467244,-1.1890492,0.267559,355.77005,-106.43515,15.652491,CSO
4673509979000,4.124578,2.26278481594645,8.83171192528792,-1.19202920792401,-0.09621128,-1.2791518,0.2687807,356.11517,-106.425186,15.632807,CSO
4673515101000,4.1297,2.41729577682843,8.80274103819274,-1.24514226564623,-0.13408493,-1.3677273,0.26083946,356.47586,-106.41764,15.615401,CSO
4673519994000,4.134593,2.5776253945427,8.77840710591208,-1.31619093378474,-0.16126843,-1.466382,0.2706133,356.86676,-106.43199,15.62362,CSO
4673525250000,4.139849,2.79127874027286,8.76314611470439,-1.45862651531076,-0.2144137,-1.5308284,0.23426682,357.26743,-106.423904,15.61298,CSO
4673530859000,4.145458,3.02018384914615,8.73928546274118,-1.58236713575072,-0.22907446,-1.5711454,0.20280726,357.69604,-106.4553,15.637598,CSO
4673535092000,4.149691,3.19400208835662,8.71231358283433,-1.64230446932801,-0.25809056,-1.5806139,0.16707164,358.12805,-106.46726,15.647312,CSO
4673540093000,4.154692,3.39935645034376,8.68044815136394,-1.7131163297627,-0.28710666,-1.5903877,0.13805555,358.57843,-106.51601,15.687909,CSO
4673545071000,4.15967,3.6017368493372,8.62600503599333,-1.81534081824247,-0.3051272,-1.5604553,0.083383106,359.01288,-106.543755,15.70912,CSO
4673550166000,4.164765,3.80734691394961,8.55318513651128,-1.94384708626108,-0.31642818,-1.4947872,0.031154128,359.43362,-106.559906,15.721054,CSO
