timestamp,rel_time,acc_x,acc_y,acc_z,gyro_x,gyro_y,gyro_z,azimuth,pitch,roll,label
2315953057000,0,-5.57438752052575,-0.234288625266475,7.80356124263594,0.005497787,-0.008246681,-0.0030543262,107.3686,-0.086207256,-25.165453,SIT
2315957840000,0.004783,-5.55789288773857,-0.242535989025027,7.78294284400432,0.011911872,-0.002443461,0.0106901415,107.38844,-0.120508514,-25.231407,SIT
2315962867000,0.00981,-5.54883837953518,-0.242551333403092,7.7719469060469,0.0027488936,-0.0070249503,0.0021380284,107.41846,-0.14733589,-25.30051,SIT
2315967858000,0.014801,-5.56391813833211,-0.217418386328741,7.79205325110948,0.0030543262,-0.0070249503,0.00580322,107.44066,-0.18067162,-25.371294,SIT
2315972810000,0.019753,-5.56925017469041,-0.211499141684896,7.80806505255356,0.009162978,0.0021380284,0.008552114,107.47009,-0.20845956,-25.447817,SIT
2315977830000,0.024773,-5.55621333043478,-0.241918472173913,7.81675619130435,0.0067195175,-0.0021380284,0.0125227375,107.49822,-0.23404473,-25.519089,SIT
2315982832000,0.029775,-5.54250365967384,-0.267163662323712,7.824251,0.0125227375,-0.009468411,0.012217305,107.52225,-0.26404405,-25.59864,SIT
2315987859000,0.034802,-5.52407376395375,-0.25979169248909,7.824251,0.013133603,-0.006414085,0.015882496,107.543884,-0.29230687,-25.67826,SIT
2315992795000,0.039738,-5.50597749077406,-0.252553171879642,7.824251,0.010079277,0.0027488936,0.008552114,107.572495,-0.30826417,-25.760805,SIT
2315997891000,0.044834,-5.49950318654954,-0.244164695294229,7.81700269264192,0.0030543262,-0.004581489,0.011911872,107.59659,-0.32458168,-25.837696,SIT
2316002857000,0.0498,-5.50399543005573,-0.235180391217531,7.80352643118919,0.014966198,-0.008552114,0.007941248,107.625244,-0.3426521,-25.916382,SIT
2316007813000,0.054756,-5.50855966406158,-0.231739067610026,7.79741666406157,0.0018325958,-0.008246681,0.004581489,107.65373,-0.35162884,-25.99897,SIT
2316012870000,0.059813,-5.51333851409118,-0.236518027422538,7.80219551409118,-0.00061086525,-0.0015271631,0.0033597588,107.682594,-0.36567283,-26.080317,SIT
2316017807000,0.06475,-5.51879712678112,-0.236863622519313,7.8025410465236,0.005192355,-0.0009162979,0.004276057,107.71125,-0.37413904,-26.178072,SIT
2316022786000,0.069729,-5.52561864170243,-0.230042025683119,7.79571946037196,0.0033597588,-0.0012217305,0.004581489,107.74009,-0.3794531,-26.27486,SIT
2316027832000,0.074775,-5.5325319504578,-0.223128633910587,7.78880607942775,0.0027488936,-0.003970624,0.0061086523,107.76696,-0.37914222,-26.384071,SIT
2316032807000,0.07975,-5.535394,-0.211576967929155,7.785944,0.011911872,-0.005497787,0.0009162979,107.79545,-0.37989965,-26.490477,SIT
2316037881000,0.084824,-5.535394,-0.196299442140013,7.785944,0.009162978,-0.004276057,0.002443461,107.82092,-0.37836614,-26.5939,SIT
2316042817000,0.08976,-5.535394,-0.196962368827604,7.785944,0.0027488936,-0.004276057,-0.002443461,107.832224440875,-0.373397586777755,-26.6499822156194,SIT
2316047843000,0.094786,-5.535394,-0.20509363786384,7.785944,-0.01038471,-0.019242255,0.0015271631,107.843735,-0.36833844,-26.707087,SIT
2316052814000,0.099757,-5.53250925641996,-0.216459300417372,7.78882877370256,0.0070249503,-0.008552114,0.0027488936,107.86488,-0.36757338,-26.824503,SIT
2316057900000,0.104843,-5.52280568112362,-0.23586666379221,7.79853245032374,0.0033597588,-0.0015271631,0.0030543262,107.88129,-0.3510022,-26.95079,SIT
2316062783000,0.109726,-5.51899838360459,-0.251754786720919,7.8023397875986,0.0027488936,0.002443461,0.0015271631,107.89402,-0.32891554,-27.092258,SIT
2316067855000,0.114798,-5.528698438003,-0.261454957600599,7.79263963191213,0.0018325958,-0.004276057,-0.0036651916,107.90749,-0.30606988,-27.228075,SIT
2316072765000,0.119708,-5.5378350262301,-0.26570962092348,7.78228253712012,0.009468411,-0.0067195175,0.005497787,107.912674,-0.2725435,-27.378897,SIT
2316077867000,0.12481,-5.54667400126628,-0.256870816630789,7.76902435144718,0.00061086525,0.0030543262,-0.00030543262,107.9241,-0.23317818,-27.526226,SIT
2316082834000,0.129777,-5.554548,-0.24899697,7.75613569164296,0.01282817,0.013439035,0.002443461,107.93222,-0.19470859,-27.69394,SIT
2316087846000,0.134789,-5.554548,-0.24899697,7.74333361418919,0.0106901415,0.0070249503,0.0009162979,107.943344,-0.1505956,-27.853683,SIT
2316092874000,0.139817,-5.554548,-0.24899697,7.73049066817212,0.008246681,0.004276057,0.0015271631,107.94584,-0.1025784,-28.036228,SIT
2316097866000,0.144809,-5.5507011026645,-0.233609693969057,7.74002353133416,0.00580322,0.011301007,0.005497787,107.9476,-0.05616978,-28.213104,SIT
2316102802000,0.149745,-5.54618653175437,-0.215551778018336,7.75356705550568,0.0033597588,-0.006414085,-0.0012217305,107.952484,-0.009606663,-28.375834,SIT
2316107831000,0.154774,-5.57264906804374,-0.213765098029856,7.86177549724006,-0.002443461,-0.0018325958,-0.0015271631,107.94932,0.04544296,-28.562765,SIT
2316112831000,0.159774,-5.61005186269745,-0.217920973745877,8.00307535837528,0.004581489,-0.0061086523,0.0030543262,107.9467,0.09590186,-28.735422,SIT
2316117833000,0.164776,-5.62566029585383,-0.216598694255095,7.89026248243148,0.0061086523,-0.004276057,0.0030543262,107.940235614598,0.128019885550431,-28.83440131923,SIT
2316122805000,0.169748,-5.61311237245257,-0.208233291152495,7.45107861208714,0.005192355,-0.004276057,0.005192355,107.93381,0.15994528,-28.932787,SIT
2316127832000,0.174775,-5.60120793006431,-0.201724962825563,7.1409103585209,0.005497787,-0.004581489,0.00061086525,107.92182,0.21970978,-29.120613,SIT
2316132820000,0.179763,-5.59352785353698,-0.205564924905949,7.54026631864952,0.0061086523,0.0030543262,0.0021380284,107.903786,0.28980276,-29.324194,SIT
2316137803000,0.184746,-5.5858554755627,-0.209401037786174,7.93922196205788,0.0015271631,0.0012217305,-0.003970624,107.88721,0.34534413,-29.534412,SIT
2316142867000,0.18981,-5.57771558879466,-0.207908512451812,7.81181185633513,0.0021380284,0.0027488936,-0.0033597588,107.86807,0.396108,-29.741034,SIT
2316147809000,0.194752,-5.5696066105714,-0.203853976769468,7.43068577315172,0.008857546,0.0012217305,-0.0021380284,107.85084,0.4451483,-29.939753,SIT
2316153020000,0.199963,-5.55470991384713,-0.206761755624014,7.33872699595206,0.0076358155,0.009468411,-0.005192355,107.835594,0.5069739,-30.109941,SIT
2316157875000,0.204818,-5.53026697199033,-0.221427530947324,7.76892282367785,-0.00061086525,0.0012217305,-0.0036651916,107.81863,0.565268,-30.26848,SIT
2316162892000,0.209835,-5.52658525033408,-0.236050152360802,8.02406267706013,0.004886922,0.00580322,0.0033597588,107.79755,0.6072715,-30.445177,SIT
2316167810000,0.214753,-5.54938892148736,-0.249732359815048,8.04230551873729,0.005497787,0.00580322,-0.005192355,107.789490800162,0.629941949646393,-30.5282896100222,SIT
2316172790000,0.219733,-5.56088681508443,-0.25857377,8.01524061482176,0.004886922,0.004581489,-0.005497787,107.78133,0.6528982,-30.61245,SIT
2316177813000,0.224756,-5.55186162439025,-0.25857377,7.90693842073171,0.006414085,0.005497787,-0.0036651916,107.7643,0.7040044,-30.753004,SIT
2316182765000,0.229708,-5.54582632173983,-0.257718466122172,7.80457904653394,0.0143553335,0.006414085,0.0018325958,107.74591,0.75846255,-30.893227,SIT
2316187844000,0.234787,-5.54971547045654,-0.253829398623971,7.71513065651235,0.013133603,-0.004581489,0.00061086525,107.7294,0.8130427,-31.025093,SIT
2316192807000,0.23975,-5.55351579435516,-0.25002915408891,7.62772519093308,0.006414085,-0.006414085,-0.002443461,107.70241,0.86693174,-31.160603,SIT
2316197864000,0.244807,-5.554548,-0.24899697,7.63493199119071,0.0076358155,-0.002443461,-0.0021380284,107.67523,0.9164046,-31.28967,SIT
2316202831000,0.249774,-5.554548,-0.24899697,7.67637542749274,0.007941248,0.004276057,0.002443461,107.64819,0.9651959,-31.414314,SIT
2316207845000,0.254788,-5.554548,-0.243611069121265,7.67401824956063,0.0061086523,-0.004886922,-0.0021380284,107.62503,1.0105472,-31.53994,SIT
2316213796000,0.260739,-5.554548,-0.234071933368483,7.64540075763662,0.008246681,0.0009162979,0.004886922,107.59692,1.0505027,-31.667496,SIT
2316217772000,0.264715,-5.55333351549616,-0.234701201637759,7.64121626471425,0.010995574,0.01160644,0.010079277,107.5747,1.0867063,-31.7811,SIT
2316222793000,0.269736,-5.5487760217041,-0.252930815137902,7.67311824537958,0.013744468,0.0033597588,0.01038471,107.55191,1.1204691,-31.887259,SIT
2316227842000,0.274785,-5.54646174881482,-0.268895974407411,7.70347987203705,0.0061086523,0.0067195175,0.002443461,107.52569,1.1520352,-31.992472,SIT
2316232800000,0.279743,-5.55508617428027,-0.273208187140133,7.72504093570066,0.007330383,0.0070249503,0.004886922,107.49612,1.1778704,-32.09138,SIT
2316238244000,0.285187,-5.56391307552547,-0.277092812661204,7.74975228892056,0.010079277,0.010995574,0.0009162979,107.47677,1.2095138,-32.18586,SIT
2316242797000,0.28974,-5.56002972499109,-0.265442505590488,7.78858660527253,-0.002443461,0.0070249503,-0.0033597588,107.45689,1.2429333,-32.27522,SIT
2316247774000,0.294717,-5.55578473583897,-0.252707258876024,7.8310373833274,0.0027488936,0.013744468,-0.0027488936,107.43349,1.2739103,-32.367916,SIT
2316252805000,0.299748,-5.554548,-0.260800290480984,7.86110990523146,0.016493361,0.009468411,-0.007330383,107.41348,1.3058512,-32.45337,SIT
2316257893000,0.304836,-5.554548,-0.277570827930649,7.88626560414731,0.002443461,0.007330383,0.00030543262,107.38948,1.3399156,-32.538643,SIT
2316262817000,0.30976,-5.55080567902458,-0.283561957176844,7.9008656,0.00580322,0.005192355,-0.004886922,107.365685,1.3682551,-32.618652,SIT
2316267804000,0.314747,-5.54133690444092,-0.274093380333069,7.9008656,0.007941248,0.004581489,-0.005497787,107.33814,1.3970213,-32.695957,SIT
2316272798000,0.319741,-5.53369019333779,-0.269854442244917,7.90938479343323,0.009773844,0.004581489,-0.0030543262,107.31635,1.4271172,-32.766792,SIT
2316277816000,0.324759,-5.52910344342846,-0.274441287945022,7.93231897403837,0.0018325958,-0.00030543262,0.0030543262,107.29375,1.457308,-32.833755,SIT
2316282811000,0.329754,-5.5281552413252,-0.276558479337402,7.9475805793374,-0.002443461,-0.003970624,0.0067195175,107.26527,1.4859308,-32.899433,SIT
2316287844000,0.334787,-5.53655978088928,-0.272356209555362,7.94337830955536,0.0070249503,-0.0030543262,0.005192355,107.23696,1.5117114,-32.962868,SIT
2316293052000,0.339995,-5.54514246550099,-0.267979137542666,7.93900123987017,0.015271631,0.0021380284,-0.004276057,107.213394,1.5382308,-33.020844,SIT
2316297803000,0.344746,-5.54990639880641,-0.263215288801173,7.9342374557952,0.002443461,-0.005497787,-0.0033597588,107.187065,1.5650644,-33.073685,SIT
2316302875000,0.349818,-5.55641909570433,-0.260444867658111,7.93034443437417,0.005192355,-0.0015271631,0.004581489,107.15994,1.5843923,-33.129807,SIT
2316307853000,0.354796,-5.57744463614713,-0.28147043005557,7.93875460664197,0.0061086523,0.0009162979,0.006414085,107.134834,1.6070127,-33.18157,SIT
2316312895000,0.359838,-5.59874049289936,-0.302766309044721,7.94727290486901,0.01282817,-0.0030543262,0.01038471,107.107925,1.6219804,-33.229343,SIT
2316317799000,0.364742,-5.59567984639608,-0.296329794055283,7.9555014773443,0.004581489,-0.010995574,0.0076358155,107.08299,1.6402873,-33.27513,SIT
2316322765000,0.369708,-5.5873594506648,-0.283849452407278,7.96382165587824,0.0106901415,-0.008552114,0.009773844,107.05545,1.6514455,-33.321426,SIT
2316327824000,0.374767,-5.57787068451189,-0.269616333603487,7.95438457012162,0.017104227,-0.0030543262,0.01038471,107.035934,1.6675509,-33.366196,SIT
2316332866000,0.379809,-5.56747659961253,-0.254025027171456,7.92839908653536,0.017104227,-0.0021380284,0.004581489,107.027634465611,1.67613296635252,-33.3871804056547,SIT
2316337798000,0.384741,-5.5548831752481,-0.252077423473438,7.92309951780502,0.016493361,-0.006414085,0.00030543262,107.019516,1.6845278,-33.407707,SIT
2316342802000,0.389745,-5.54089524740222,-0.256740033631057,7.92776222533567,0.013133603,-0.010995574,0.0018325958,106.991325,1.6978118,-33.447582,SIT
2316347835000,0.394778,-5.54996119205955,-0.249833451722084,7.91794224635236,0.003970624,-0.0036651916,0.005192355,106.96436,1.7109399,-33.491264,SIT
2316352830000,0.399773,-5.5737012,-0.235589442,7.89895024,0.008246681,0.00030543262,0.004886922,106.93836,1.7213624,-33.531445,SIT
2316357874000,0.404817,-5.583278,-0.22984336,7.87511476754948,0.013133603,0.0018325958,-0.0018325958,106.9144,1.7326816,-33.563152,SIT
2316362819000,0.409762,-5.583278,-0.22984336,7.84870981856705,0.0061086523,0.0030543262,-0.008857546,106.89101,1.7453781,-33.594975,SIT
2316367853000,0.414796,-5.58534360942599,-0.227777791554041,7.81110672768286,0.005192355,-0.007330383,-0.00580322,106.86669,1.7498778,-33.627968,SIT
2316372817000,0.41976,-5.58990688721444,-0.22321460429737,7.760911624976,0.007941248,-0.008246681,0.0015271631,106.84365,1.755203,-33.66298,SIT
2316377807000,0.42475,-5.58945250236126,-0.221967800595796,7.71997675590316,0.004886922,-0.0021380284,-0.0018325958,106.81847,1.764267,-33.696663,SIT
2316382809000,0.429752,-5.57990718929959,-0.226740462110192,7.69611347324898,0.009162978,0.003970624,-0.0033597588,106.79044,1.7690746,-33.729343,SIT
2316387819000,0.434762,-5.57673600966114,-0.226808748754506,7.67604714888248,0.01038471,0.012217305,0.0021380284,106.7606,1.7744336,-33.77221,SIT
2316392863000,0.439806,-5.58544281917808,-0.218101934691781,7.66298711643836,0.004276057,0.012217305,-0.0030543262,106.746376291141,1.77727132019489,-33.7913237357065,SIT
2316397876000,0.444819,-5.59229937480836,-0.212356592505447,7.64909093205842,0.0070249503,0.0018325958,0.005192355,106.73224,1.7800916,-33.81032,SIT
2316402844000,0.449787,-5.58846022883886,-0.223873801917211,7.62989560308239,0.0125227375,0.00030543262,0.002443461,106.704056,1.7864212,-33.85764,SIT
2316407860000,0.454803,-5.58458398967159,-0.235502288714597,7.61051481199064,0.013133603,-0.0021380284,-0.0076358155,106.675995,1.792541,-33.902813,SIT
2316412852000,0.459795,-5.56732793765762,-0.248990224067386,7.59122468364774,0.010079277,0.0061086523,-0.0067195175,106.64556,1.7965062,-33.94945,SIT
2316417886000,0.464829,-5.54301157974377,-0.263580048972057,7.57177119106224,-0.0012217305,0.0061086523,0.0012217305,106.61632,1.8023657,-33.9918,SIT
2316422852000,0.469795,-5.5294229878944,-0.271136137227486,7.55672051301628,0.006414085,0.007330383,-0.009162978,106.60036,1.808762,-34.039078,SIT
2316427831000,0.474774,-5.52065058622022,-0.27552238386533,7.54356195630577,0.008857546,-0.0015271631,0.0018325958,106.57433,1.8139027,-34.082478,SIT
2316432792000,0.479735,-5.51818700105838,-0.271888190727634,7.5408397614685,0.01160644,-0.0009162979,-0.0018325958,106.55874,1.8230715,-34.121742,SIT
2316437796000,0.484739,-5.52214948718373,-0.260000719938813,7.54876465096742,0.007941248,-0.005192355,0.0036651916,106.53621,1.8295566,-34.156303,SIT
2316442822000,0.489765,-5.52380370632938,-0.24899697,7.5593223182837,0.013133603,-0.013133603,0.0067195175,106.510506,1.8368379,-34.1864,SIT
2316447813000,0.494756,-5.49829521620237,-0.24899697,7.60013600902978,0.013744468,-0.0067195175,0.0030543262,106.485695,1.845814,-34.218533,SIT
2316452864000,0.499807,-5.4796323684263,-0.251545425300524,7.64120984213152,0.004581489,-0.008246681,0.006414085,106.45665,1.8492448,-34.243103,SIT
2316457860000,0.504803,-5.48758742583756,-0.263478023877297,7.6809851291878,0.01038471,-0.014660766,0.0015271631,106.43208,1.8506372,-34.26728,SIT
2316462820000,0.509763,-5.49548516097764,-0.275324638957519,7.72047380488819,0.0070249503,-0.0125227375,0.009162978,106.40224,1.8539513,-34.285706,SIT
2316468961000,0.515904,-5.50953053947368,-0.256988150219298,7.74507447258772,0.0106901415,-0.010079277,0.008552114,106.377205,1.8560665,-34.301826,SIT
2316472774000,0.519717,-5.51877050364372,-0.241588197071525,7.7573944891363,0.007330383,-0.0070249503,0.01160644,106.34868,1.8585336,-34.318447,SIT
2316477805000,0.524748,-5.52802754477661,-0.22984336,7.78447197362757,0.0027488936,-0.009773844,0.011911872,106.32287,1.8644378,-34.33104,SIT
2316482809000,0.529752,-5.53323694866833,-0.22984336,7.8261481839113,0.0070249503,-0.005192355,0.0036651916,106.29949,1.8695852,-34.346172,SIT
2316487851000,0.534794,-5.54096464042303,-0.238199149042303,7.8573312520564,0.0070249503,-0.0076358155,0.005497787,106.26733,1.8711675,-34.361557,SIT
2316492840000,0.539783,-5.55032219095182,-0.252235186595182,7.88072454212691,0.005192355,-0.007330383,0.011911872,106.23695,1.8724593,-34.37853,SIT
2316497873000,0.544816,-5.55700716755958,-0.268410658509145,7.91096249998153,0.018325957,-0.0030543262,0.0061086523,106.21114,1.8722624,-34.394905,SIT
2316502859000,0.549802,-5.56141774649917,-0.286053365741733,7.94624777627933,0.0125227375,-0.00580322,0.009468411,106.18026,1.874142,-34.40911,SIT
2316507851000,0.554794,-5.56022029394387,-0.289072456809453,7.96399873471196,0.0027488936,-0.0076358155,0.006414085,106.16224,1.8767745,-34.425278,SIT
2316512873000,0.559816,-5.55007152323275,-0.268775042553281,7.95385006997257,0.00030543262,-0.004581489,0.0061086523,106.1424,1.8778392,-34.441658,SIT
2316517966000,0.564909,-5.53977927129493,-0.248190667641556,7.94355792550468,0.014966198,-0.0125227375,0.009468411,106.127014,1.8807671,-34.452267,SIT
2316522848000,0.569791,-5.53769065080909,-0.23942018,7.93687612113361,0.014966198,-0.01282817,0.0076358155,106.11389,1.8882707,-34.465443,SIT
2316527879000,0.574822,-5.54195114130339,-0.23942018,7.93261576409939,0.002443461,-0.019547688,0.007941248,106.098885,1.8941394,-34.47424,SIT
2316532799000,0.579742,-5.54799219925443,-0.23942018,7.92758186716372,0.010995574,-0.017104227,0.008857546,106.083954,1.8888315,-34.488976,SIT
2316537829000,0.584772,-5.55921570904007,-0.23942018,7.92009952730662,0.017715093,-0.002443461,0.01038471,106.06901,1.8866358,-34.50495,SIT
2316542810000,0.589753,-5.57032988443616,-0.23942018,7.91269007704256,0.012217305,-0.010079277,0.01160644,106.04984,1.8852094,-34.51182,SIT
2316547834000,0.594777,-5.58327009527873,-0.242609719559158,7.90725285711035,0.011911872,-0.01038471,0.0070249503,106.032745,1.881613,-34.524567,SIT
2316552802000,0.599745,-5.59680191370876,-0.247120289593288,7.90274228236633,0.011911872,-0.01863139,0.016798794,106.01028,1.8766276,-34.532738,SIT
2316557865000,0.604808,-5.602432,-0.251690810277908,7.87931482151911,0.020158553,-0.008552114,0.014049901,105.99625,1.8709077,-34.54731,SIT
2316562847000,0.60979,-5.602432,-0.256170353757394,7.84347838013332,0.014660766,-0.0143553335,0.0106901415,105.978935,1.8669424,-34.554836,SIT
2316567807000,0.61475,-5.59400805540385,-0.260679751750962,7.82635701913462,0.01985312,-0.004886922,0.016493361,105.960815,1.8567991,-34.567772,SIT
2316572790000,0.619733,-5.57565365403846,-0.265268342509615,7.83094569134615,0.015882496,-0.007941248,0.010079277,105.948074,1.8527006,-34.57508,SIT
2316577863000,0.624806,-5.5603929801464,-0.270016409926802,7.82449895036599,0.011301007,-0.019547688,0.008246681,105.937584,1.8443245,-34.58488,SIT
2316582885000,0.629828,-5.55074800078211,-0.274838899608944,7.80038650195528,0.01038471,-0.01740966,0.0036651916,105.93053,1.8376309,-34.597336,SIT
2316587863000,0.634806,-5.54681651403698,-0.270345494160227,7.77671662251785,0.01282817,-0.019242255,0.01160644,105.921,1.8317074,-34.60493,SIT
2316592875000,0.639818,-5.55151180152597,-0.25156472661254,7.75324067533992,0.013133603,-0.019242255,0.0061086523,105.917816,1.8294629,-34.613243,SIT
2316597817000,0.64476,-5.55793152200644,-0.23942018,7.73467644266279,0.01160644,-0.022296581,0.01282817,105.90451,1.8251047,-34.616505,SIT
2316602833000,0.649776,-5.56790903310832,-0.23942018,7.72469882737564,0.017104227,-0.014660766,0.01038471,105.89657,1.821416,-34.62259,SIT
2316607831000,0.654774,-5.57218705761067,-0.234877148088235,7.71284899881747,0.023518313,-0.011911872,0.008857546,105.88255,1.8129269,-34.630573,SIT
2316612864000,0.659807,-5.56853332546998,-0.223915940220588,7.69823399395088,0.018325957,-0.020463986,0.0067195175,105.8697,1.8064762,-34.637253,SIT
2316617818000,0.664761,-5.56493694378411,-0.213126783897059,7.68384839210127,0.018936822,-0.015882496,0.00580322,105.86195,1.7950008,-34.650143,SIT
2316622829000,0.669772,-5.57097868539904,-0.220970996189776,7.66346360757631,0.01740966,-0.020463986,0.011301007,105.85255,1.784735,-34.657806,SIT
2316627844000,0.674787,-5.57981045268481,-0.234218799283744,7.64138395880838,0.027183503,-0.023823744,0.0015271631,105.84891,1.7744834,-34.66673,SIT
2316632864000,0.679807,-5.57568025101846,-0.241952795609777,7.63524767114501,0.030543262,-0.020158553,0.004581489,105.83672,1.7609701,-34.679672,SIT
2316637823000,0.684766,-5.5633311073936,-0.246069229830979,7.63936419563145,0.015577064,-0.01985312,0.007330383,105.82801,1.751364,-34.690334,SIT
2316642799000,0.689742,-5.55589627957637,-0.250345277734162,7.64768520277886,0.025961773,-0.023518313,0.006414085,105.81715,1.7394774,-34.70173,SIT
2316647805000,0.694748,-5.56055431101827,-0.255003406455499,7.66631762038477,0.026572637,-0.020158553,0.015271631,105.80215,1.7314417,-34.715057,SIT
2316652922000,0.699865,-5.55901644123346,-0.25857377,7.68826126481925,0.015577064,-0.016187929,0.01038471,105.79718,1.7255733,-34.72415,SIT
2316657853000,0.704796,-5.53933805773518,-0.25857377,7.71777894280654,0.026267206,-0.02321288,0.008552114,105.788055,1.7127048,-34.730984,SIT
2316662806000,0.709749,-5.52300864147301,-0.257169376071964,7.73946442325712,0.022907447,-0.017715093,0.0027488936,105.78363,1.7064061,-34.736347,SIT
2316667841000,0.714784,-5.51397215637181,-0.252651086341829,7.74398280734633,0.008246681,-0.02565634,0.0036651916,105.77729,1.6996671,-34.735897,SIT
2316672825000,0.719768,-5.50737102333037,-0.249704008096009,7.74905106142637,0.020463986,-0.018936822,0.0012217305,105.773834,1.6904814,-34.737644,SIT
2316677891000,0.724834,-5.51129841389136,-0.253631480677568,7.75690592456893,0.022602014,-0.016798794,0.0027488936,105.768585,1.6863866,-34.735962,SIT
2316682896000,0.729839,-5.51517851451469,-0.257511662333846,7.76466620684854,0.02107485,-0.017715093,0.0021380284,105.76184,1.6798114,-34.729145,SIT
2316687808000,0.734751,-5.5162406,-0.25857377,7.78021250924918,0.0143553335,-0.01740966,-0.0015271631,105.75581,1.674379,-34.723484,SIT
2316692811000,0.739754,-5.5162406,-0.25857377,7.7991709543575,0.0070249503,-0.021991149,0.009468411,105.744934,1.6673102,-34.716522,SIT
2316697864000,0.744807,-5.5162406,-0.264768339435484,7.80819487986652,0.013133603,-0.014660766,0.010995574,105.73979,1.6618166,-34.712826,SIT
2316702805000,0.749748,-5.5162406,-0.273540872419355,7.81258113948832,0.02107485,-0.013439035,0.008857546,105.73213,1.6564901,-34.706387,SIT
2316707849000,0.754792,-5.5162406,-0.268316663815029,7.81655650635838,0.010995574,-0.016798794,0.009468411,105.72038,1.6553406,-34.701073,SIT
2316712819000,0.759762,-5.5162406,-0.250903648610522,7.82003903376015,0.0125227375,-0.011301007,0.009773844,105.70979,1.6500636,-34.698784,SIT
2316717775000,0.764718,-5.5162406,-0.233539684153069,7.82351175122558,0.02107485,-0.014966198,0.012217305,105.70495,1.646114,-34.6961,SIT
2316722786000,0.769729,-5.5090822021162,-0.233422566416627,7.84214699470949,0.015271631,-0.015882496,0.008552114,105.70228,1.6461636,-34.695747,SIT
2316727830000,0.774773,-5.49995506386396,-0.237986145073217,7.8649648403401,0.01282817,-0.020463986,0.007330383,105.69789,1.6426957,-34.693398,SIT
2316732801000,0.779744,-5.50499410675445,-0.242055879499309,7.87740645954645,0.025961773,-0.022296581,0.016493361,105.684265,1.6323131,-34.69211,SIT
2316737796000,0.784739,-5.51665860712022,-0.245944042227912,7.88518287432334,0.0143553335,-0.0125227375,0.017104227,105.67429,1.6299986,-34.692833,SIT
2316742775000,0.789718,-5.52688652401774,-0.247927824770807,7.88701221461766,0.012217305,-0.020158553,0.010995574,105.66139,1.6253486,-34.6865,SIT
2316747835000,0.794778,-5.53200456330798,-0.24280968393853,7.86653962991128,0.013439035,-0.025045475,0.013744468,105.64562,1.6210867,-34.683933,SIT
2316752809000,0.799752,-5.535394,-0.23942018,7.85914768009521,0.018020526,-0.018936822,0.014660766,105.63298,1.6182152,-34.681465,SIT
2316757861000,0.804804,-5.535394,-0.23942018,7.87834117155608,0.015882496,-0.02107485,0.01160644,105.620865,1.6168246,-34.675438,SIT
2316762841000,0.809784,-5.53262763241455,-0.242186575027563,7.88713920529217,0.016187929,-0.02107485,0.014049901,105.605286,1.6128787,-34.677303,SIT
2316767855000,0.814798,-5.52380411646454,-0.251010178506064,7.87390379316428,0.013439035,-0.024740042,0.016493361,105.59095,1.610627,-34.67747,SIT
2316772783000,0.819726,-5.51383662191453,-0.259174766404024,7.86195740547863,0.0143553335,-0.015271631,0.01038471,105.58499,1.6053486,-34.678017,SIT
2316777823000,0.824766,-5.4946047972308,-0.263982737636219,7.8571494493077,0.0125227375,-0.013133603,0.008857546,105.57659,1.6003197,-34.67561,SIT
2316782805000,0.829748,-5.47751957098548,-0.26773676968913,7.85215394197096,0.0036651916,-0.02565634,0.01160644,105.573105,1.5986252,-34.67309,SIT
2316787792000,0.834735,-5.47415290655576,-0.264370094713097,7.84542061311152,0.011301007,-0.016187929,0.01038471,105.57183,1.5944281,-34.67738,SIT
2316793812000,0.840755,-5.4700888761032,-0.260306051529677,7.8372925522064,0.010995574,-0.01863139,0.01160644,105.56675,1.5961107,-34.67333,SIT
2316797806000,0.844749,-5.46912589011644,-0.253958026891489,7.83305869381785,0.013133603,-0.014660766,0.009162978,105.563644,1.596186,-34.673824,SIT
2316802818000,0.849761,-5.47182594758396,-0.237757673628284,7.83035857996287,0.01038471,-0.00030543262,0.011911872,105.5585,1.5964338,-34.67675,SIT
2316807852000,0.854795,-5.47453785685999,-0.221486209476852,7.82764661405187,-0.0015271631,0.0015271631,0.01160644,105.55766,1.5959588,-34.675,SIT
2316812771000,0.859714,-5.47718781350059,-0.205586461332058,7.82499660207009,0.0070249503,-0.005192355,0.005192355,105.5581,1.5919478,-34.674892,SIT
2316817819000,0.864762,-5.48635558724698,-0.206727695343628,7.84109531586527,0.010995574,-0.003970624,0.014966198,105.55315,1.5892216,-34.677673,SIT
2316822797000,0.86974,-5.49779817679814,-0.214356039257541,7.86398041531323,0.010995574,-0.0076358155,0.015882496,105.554512709439,1.58936793556201,-34.6785150398359,SIT
2316827810000,0.874753,-5.5032607236807,-0.219132132457219,7.87944316491444,0.009162978,0.0009162979,0.008857546,105.555885,1.5895153,-34.679363,SIT
2316832801000,0.879744,-5.48856716649247,-0.214234314156164,7.86964752831233,0.0036651916,-0.0033597588,0.010995574,105.55263,1.5807184,-34.687134,SIT
2316837783000,0.884726,-5.47995065338253,-0.211698376691267,7.85751526654366,0.004581489,-0.0012217305,0.015882496,105.551384,1.5747138,-34.699566,SIT
2316842854000,0.889797,-5.48741743579336,-0.215431767896679,7.8388483105166,0.0027488936,-0.0036651916,0.0061086523,105.55431,1.5727702,-34.709007,SIT
2316849861000,0.896804,-5.49825060235641,-0.22026655,7.81389867319588,-0.005192355,0.00061086525,0.010079277,105.54522,1.5708823,-34.721096,SIT
2316852821000,0.899764,-5.50607847275405,-0.22026655,7.80868014742268,0.0070249503,-0.0021380284,0.0061086523,105.542206,1.5675377,-34.72999,SIT
2316857849000,0.904792,-5.5193752742268,-0.22026655,7.7998157056701,0.003970624,0.004886922,0.004886922,105.535835,1.5698522,-34.74537,CSO
2316863844000,0.910787,-5.50472156884671,-0.22026655,7.78497301099649,0.0027488936,0.009773844,0.0030543262,105.53105,1.5695535,-34.758923,CSO
2316867865000,0.914808,-5.48088725104188,-0.22026655,7.77305576913555,-0.0021380284,0.008246681,0.0021380284,105.52639,1.5707972,-34.772194,CSO
2316872795000,0.919738,-5.46331061463187,-0.212697566678829,7.75669837657405,-0.009773844,0.013133603,-0.0015271631,105.52879,1.5737215,-34.79897,CSO
2316877836000,0.924779,-5.45427765573955,-0.199148118908223,7.73863236446815,-0.003970624,0.009773844,-0.0009162979,105.52979,1.573971,-34.822186,CSO
2316882775000,0.929718,-5.45367349352337,-0.193026296063806,7.73146339125618,-0.00061086525,0.015577064,-0.005497787,105.53139,1.5794967,-34.845997,CSO
2316887817000,0.93476,-5.46437127631637,-0.196592227384979,7.73859539539177,-0.008552114,0.0061086523,0.0015271631,105.52842,1.5841432,-34.86392,CSO
2316892783000,0.939726,-5.4749078073259,-0.200104408055535,7.74561989609335,-0.01160644,0.0067195175,-0.0009162979,105.52928,1.5857352,-34.88696,CSO
2316897851000,0.944794,-5.49516596205534,-0.197666423990119,7.76142297766798,-0.005192355,0.009773844,0.0015271631,105.52588,1.5849066,-34.907463,CSO
2316902790000,0.949733,-5.51853543596838,-0.192992524327075,7.78011845918972,-0.0018325958,0.013439035,0.0061086523,105.52254,1.5854278,-34.92768,CSO
2316907876000,0.954819,-5.53597404810884,-0.206771112768725,7.78086567594558,-0.0033597588,0.0067195175,0.0076358155,105.520744,1.5858514,-34.945477,CSO
2316912819000,0.959762,-5.55012806885932,-0.228002158673942,7.77378866557034,-0.0067195175,0.003970624,0.006414085,105.51835,1.585566,-34.964813,CSO
2316917839000,0.964782,-5.56348504844683,-0.24976443253162,7.76717413360316,0.0070249503,0.0027488936,0.005192355,105.51173,1.5802687,-34.981056,CSO
2316922845000,0.969788,-5.53923054030153,-0.278869867632298,7.78172693979561,-0.00061086525,0.0033597588,0.008552114,105.50395,1.5801578,-34.99657,CSO
2316928049000,0.974992,-5.5162406,-0.307387155262156,7.79366232171247,0.0015271631,0.005497787,0.0061086523,105.50249,1.5795293,-35.00788,CSO
2316932818000,0.979761,-5.5162406,-0.317042928389006,7.77435069479915,-0.0067195175,0.0067195175,0.004581489,105.49955,1.582353,-35.018826,CSO
2316937841000,0.984784,-5.51548775855695,-0.327117154331147,7.75796645716557,0.003970624,-0.0067195175,0.0076358155,105.50375,1.5861691,-35.02401,CSO
2316942833000,0.989776,-5.5107365771616,-0.336619715571457,7.76271773778573,0.00030543262,-0.01038471,0.00580322,105.510216,1.5961176,-35.031975,CSO
2316947839000,0.994782,-5.50445003388187,-0.347532485510772,7.76070202496224,0.0027488936,-0.0030543262,0.0143553335,105.51579,1.6010596,-35.041824,CSO
2316952845000,0.999788,-5.48920503472454,-0.366588650884808,7.71877849616027,0.006414085,0.0015271631,0.022296581,105.52201,1.606811,-35.049587,CSO
2316957790000,1.004733,-5.47414580163765,-0.385412609689164,7.67736582138485,0.016493361,-0.007330383,0.027183503,105.52825,1.6114522,-35.054348,CSO
2316962831000,1.009774,-5.43116107421503,-0.412677454976213,7.63283347783064,0.019242255,-0.007941248,0.037873644,105.52974,1.6145525,-35.062637,CSO
2316967810000,1.014753,-5.37218128985728,-0.444435824086584,7.58746412869648,0.020463986,0.014660766,0.039095376,105.532906,1.6163431,-35.07481,CSO
2316972795000,1.019738,-5.32669608991364,-0.468267811924007,7.565677,0.03176499,0.018020526,0.052839845,105.531685,1.6157211,-35.080738,CSO
2316977820000,1.024763,-5.29345029069085,-0.484890763607945,7.565677,0.0421497,0.028405234,0.06994407,105.52912,1.6141701,-35.09485,CSO
2316982832000,1.029775,-5.26568325114746,-0.497213579648008,7.5766022501163,0.04917465,0.027794369,0.084910266,105.5319,1.6153231,-35.101986,CSO
2316987832000,1.034775,-5.25825818524577,-0.493501066080012,7.62857775019383,0.05589417,0.034208454,0.10781772,105.52608,1.6099865,-35.114037,CSO
2316992887000,1.03983,-5.25075144361917,-0.489747714862769,7.68112498077221,0.06505715,0.019547688,0.12217305,105.519714,1.6067445,-35.113636,CSO
2316997850000,1.044793,-5.26955183929329,-0.442428170614841,7.75800559858657,0.07269296,0.009468411,0.12705997,105.50892,1.6001184,-35.11636,CSO
2317002785000,1.049728,-5.30295224812721,-0.370855917929329,7.84866361625442,0.06261369,-0.005497787,0.13652839,105.491486,1.592515,-35.11366,CSO
2317007871000,1.054814,-5.37582199710788,-0.311383322577846,7.94847536513063,0.079107046,-0.03176499,0.14874569,105.47155,1.5749531,-35.097713,CSO
2317012832000,1.059775,-5.46742617102092,-0.26100099823002,8.04923990860889,0.08552113,-0.052534413,0.15363261,105.45112,1.5619673,-35.079502,CSO
2317017839000,1.064782,-5.62286160558032,-0.187017320233449,8.0878447568103,0.084910266,-0.052534413,0.14508049,105.41463,1.5356922,-35.063416,CSO
2317022801000,1.069744,-5.82292146640251,-0.0967942146950636,8.07999931624567,0.08735373,-0.071776666,0.13988814,105.37547,1.5064008,-35.036674,CSO
2317027830000,1.074773,-6.00746496616907,-0.0173844764420737,8.06558173669479,0.086437434,-0.070554934,0.1255328,105.33144,1.469743,-35.019245,CSO
2317032882000,1.079825,-6.08989421134188,-0.00560887309208178,8.01455411848937,0.080634214,-0.06841691,0.10629055,105.29152,1.4360867,-34.99729,CSO
2317037798000,1.084741,-6.17010445862405,0.0058497306427876,7.96490016538212,0.079107046,-0.03481932,0.0852157,105.230225,1.377811,-35.0121,CSO
2317042887000,1.08983,-6.21197983914716,-0.00846411162424938,7.91943300549895,0.07391469,-0.025045475,0.06811147,105.17502,1.3254515,-35.0205,CSO
2317047887000,1.09483,-6.23459565454423,-0.0343106999111396,7.87743229704473,0.076052725,-0.003970624,0.04153884,105.131714,1.2778192,-35.041157,CSO
2317052791000,1.099734,-6.25677724628568,-0.0596610337029215,7.83623800219284,0.070554934,0.018020526,0.01863139,105.084435,1.2315744,-35.076176,CSO
2317057829000,1.104772,-6.23949212207512,-0.158604773241149,7.70555296449936,0.08552113,0.04184427,0.0143553335,105.0408,1.1823043,-35.1168,CSO
2317062812000,1.109755,-6.20673254990684,-0.28496283890458,7.54175559233108,0.094989546,0.054367006,0.007941248,105.00652,1.1405838,-35.159252,CSO
2317067813000,1.114756,-6.06828896507936,-0.372345960136054,7.45708671558579,0.094989546,0.0571159,0.01160644,104.98083,1.1020148,-35.21132,CSO
2317072858000,1.119801,-5.87838875873016,-0.441732556394558,7.40961162586546,0.1133155,0.0571159,0.02565634,104.95406,1.0571103,-35.264824,CSO
2317077905000,1.124848,-5.69347021148164,-0.509147335989869,7.36430163427607,0.12767084,0.05497787,0.044898596,104.94736,1.0372361,-35.32191,CSO
2317082803000,1.129746,-5.60436827239342,-0.538847978906712,7.35935153229211,0.14721853,0.038179077,0.056505036,104.93828,1.0112398,-35.373547,CSO
2317087798000,1.134741,-5.52520092252543,-0.564415122525435,7.36608419454217,0.17562376,0.034513887,0.082161374,104.94061,0.99642617,-35.403854,CSO
2317092844000,1.139787,-5.5206060254255,-0.559820225425502,7.44879234234097,0.19150625,0.016493361,0.10170906,104.94063,0.9793619,-35.424587,CSO
2317097981000,1.144924,-5.51946761925501,-0.553572367421203,7.53032811174785,0.21074851,-0.028099801,0.129198,104.93995,0.9558047,-35.428898,CSO
2317102802000,1.149745,-5.56482464499386,-0.527114036627098,7.57190553663528,0.21746802,-0.05681047,0.15210545,104.93396,0.9295474,-35.43237,CSO
2317107841000,1.154784,-5.61223266256242,-0.499459290957839,7.61536304420794,0.21533,-0.0852157,0.17989981,104.91632,0.89672256,-35.418224,CSO
2317112895000,1.159838,-5.65923564930355,-0.452687230404731,7.66078854270697,0.22540927,-0.11178834,0.19242255,104.89605,0.85903776,-35.396935,CSO
2317117810000,1.164753,-5.70459461916776,-0.394957922445905,7.70614734034166,0.2171626,-0.13530666,0.20158553,104.86746,0.8229483,-35.36925,CSO
2317122810000,1.169753,-5.76380393530499,-0.332504614654344,7.75989722824399,0.23518312,-0.13652839,0.21197024,104.82511,0.7700757,-35.341873,CSO
2317127805000,1.174748,-5.85222559149723,-0.261767234303142,7.83063455319778,0.23976462,-0.15027285,0.20158553,104.787346,0.72523,-35.30529,CSO
2317132849000,1.179792,-5.94755889518001,-0.182681647361648,7.89942025821184,0.24190263,-0.15882497,0.18203785,104.7339,0.66427124,-35.271667,CSO
2317137794000,1.184737,-6.07437114703957,-0.062914574961321,7.9522587087474,0.24984388,-0.16462818,0.16646078,104.68361,0.60330635,-35.23609,CSO
2317142840000,1.189783,-6.20377349747099,0.0592987005355549,8.00617636727165,0.24709499,-0.15760323,0.1386664,104.628426,0.53472096,-35.207127,CSO
2317147873000,1.194816,-6.2819378803726,0.170145042003461,8.02809387885575,0.2501493,-0.15118915,0.08827003,104.58758,0.4708478,-35.177326,CSO
2317152993000,1.199936,-6.30190452518579,0.269978594441617,8.01311854341851,0.23976462,-0.14263703,0.04337143,104.55539,0.41593662,-35.15112,CSO
2317157972000,1.204915,-6.27956416840957,0.322344943889215,7.99989976835921,0.24984388,-0.12156218,-0.004581489,104.51051,0.33177146,-35.149704,CSO
2317163053000,1.209996,-6.21830573049937,0.334596665586236,7.98764822576584,0.25350907,-0.12950343,-0.05375614,104.4825,0.26106268,-35.142582,CSO
2317167806000,1.214749,-6.15631838970647,0.339398639466023,7.97128800386007,0.2687807,-0.111177474,-0.09621128,104.45007,0.1751946,-35.15443,CSO
2317172792000,1.219735,-6.05263926111781,0.289479100170487,7.91368857708082,0.2764165,-0.09896017,-0.12980886,104.43219,0.0989968,-35.162163,CSO
2317180191000,1.227134,-5.89660943764795,0.215354330554844,7.82926665643423,0.2919936,-0.08277224,-0.16646078,104.42848,0.025553446,-35.17093,CSO
2317182831000,1.229774,-5.82990021005654,0.188670669371278,7.80448898768187,0.2883284,-0.079107046,-0.18020524,104.42848,-0.041452423,-35.179432,CSO
2317188887000,1.23583,-5.67687328494535,0.127459967807765,7.74765051724086,0.2947425,-0.08460484,-0.19272798,104.45659,-0.0960325,-35.176754,CSO
2317193045000,1.239988,-5.5704469902836,0.086070726290485,7.70878719859037,0.30115658,-0.08277224,-0.20005837,104.48703,-0.1467502,-35.17728,CSO
2317197846000,1.244789,-5.36212137630475,0.0783549617653969,7.67406627635509,0.2996294,-0.09437868,-0.19761491,104.51778,-0.1951047,-35.172455,CSO
2317202810000,1.249753,-5.14672284520893,0.0703772373116295,7.63816653505622,0.29657507,-0.12156218,-0.19272798,104.56887,-0.2307654,-35.14652,CSO
2317207820000,1.254763,-5.04401305422063,0.0795786036364448,7.6231384,0.29046643,-0.13041973,-0.19486602,104.620605,-0.26325858,-35.123177,CSO
2317212829000,1.259772,-5.02258822563645,0.101003445643591,7.6231384,0.2761111,-0.1563815,-0.19058995,104.66756,-0.2936823,-35.088036,CSO
2317217791000,1.264734,-5.01454433614652,0.11785886647513,7.6246069610343,0.27550024,-0.16829337,-0.18020524,104.72685,-0.32382444,-35.032513,CSO
2317222842000,1.269785,-5.03191627518405,0.126544890413001,7.6289498777698,0.2565634,-0.18295415,-0.17501289,104.785675,-0.3449727,-34.970486,CSO
2317227823000,1.274766,-5.05309074484052,0.136426730464149,7.63318529561955,0.26419923,-0.19914207,-0.18142697,104.84094,-0.37497318,-34.905987,CSO
2317232856000,1.279799,-5.10420449530957,0.156085782833021,7.63711718574109,0.2602286,-0.21563543,-0.17287487,104.88852,-0.4000184,-34.83901,CSO
2317237775000,1.284718,-5.1541604934334,0.175299547705359,7.64096001655926,0.24098633,-0.23823744,-0.17470746,104.93974,-0.42085102,-34.771656,CSO
2317242872000,1.289815,-5.21087684284381,0.178928490335884,7.64532289979474,0.24312437,-0.2415972,-0.17073683,104.98536,-0.4470319,-34.706974,CSO
2317247807000,1.29475,-5.26820088748834,0.174518940293898,7.64973253732039,0.23793201,-0.24831672,-0.17715092,105.03471,-0.46400884,-34.63693,CSO
2317252809000,1.299752,-5.31174467883593,0.174635430254077,7.66763930826201,0.23701571,-0.26145032,-0.17562376,105.07435,-0.4897407,-34.57151,CSO
2317257849000,1.304792,-5.34218616077124,0.178984211441571,7.69808065396883,0.23640485,-0.2837469,-0.18081611,105.11804,-0.51115763,-34.503532,CSO
2317262844000,1.309787,-5.36455845096033,0.189691751128392,7.72199936651357,0.2406809,-0.28680122,-0.183565,105.16214,-0.5340141,-34.445663,CSO
2317267807000,1.31475,-5.36951968956159,0.214498477734864,7.73192205093946,0.23732115,-0.28160888,-0.18875736,105.20831,-0.55265963,-34.385765,CSO
2317272796000,1.319739,-5.35538569818403,0.238444827074792,7.74666145988954,0.23762658,-0.2910773,-0.19608775,105.25534,-0.5756973,-34.316486,CSO
2317277828000,1.324771,-5.31027626517832,0.260999585970233,7.76921619994384,0.23609942,-0.2855795,-0.19486602,105.300476,-0.59694034,-34.25506,CSO
2317282819000,1.329762,-5.24420610811496,0.301169123284024,7.80938566475063,0.22937989,-0.29016098,-0.19547687,105.34816,-0.62155086,-34.18914,CSO
2317288110000,1.335053,-5.10714192569738,0.399683942899408,7.90790023837701,0.23090707,-0.27397305,-0.20097467,105.3963,-0.6459702,-34.132763,CSO
2317292787000,1.33973,-4.98598350929839,0.486766500325444,7.9949825783601,0.23273966,-0.2773328,-0.19914207,105.44162,-0.6748246,-34.062973,CSO
2317297813000,1.344756,-4.86708603514455,0.560697697148206,8.03571784961686,0.22235495,-0.2843578,-0.20616703,105.49118,-0.697634,-33.99881,CSO
2317302836000,1.349779,-4.7497994225357,0.631907491840822,8.06922857279693,0.21960606,-0.27855456,-0.20158553,105.53542,-0.72367257,-33.93925,CSO
2317307852000,1.354795,-4.69352788735282,0.675273771457572,8.09150932196508,0.21410827,-0.25686884,-0.19608775,105.56875,-0.7653914,-33.85903,CSO
2317313130000,1.360073,-4.67813623861145,0.70092660864799,8.10690080998782,0.20891592,-0.2724459,-0.18295415,105.59778,-0.8071194,-33.772095,CSO
2317317868000,1.364811,-4.63734822181027,0.706425346232363,8.09800483023116,0.19914207,-0.267559,-0.17012598,105.613884,-0.8614969,-33.680454,CSO
2317322844000,1.369787,-4.58012298938757,0.702848780876614,8.07654536340438,0.17623462,-0.24770586,-0.16157386,105.62707,-0.91143835,-33.59107,CSO
2317328554000,1.375497,-4.52261641557297,0.696270436376102,8.0592941841332,0.16157386,-0.21777347,-0.14538592,105.631935,-0.96791965,-33.506866,CSO
2317332841000,1.379784,-4.54272206767875,0.672143611860921,8.10352670274241,0.15607607,-0.22540927,-0.13408493,105.63584,-1.0203168,-33.4198,CSO
2317337817000,1.38476,-4.56605906904995,0.644139161478942,8.15486820323213,0.13713925,-0.22174409,-0.124311075,105.63611,-1.0680062,-33.333214,CSO
2317342816000,1.389759,-4.62216761377405,0.591771470603925,8.21346956658411,0.12522738,-0.20952678,-0.12034045,105.63473,-1.1156384,-33.249146,CSO
2317347777000,1.39472,-4.68100153897885,0.537463406439322,8.27230311373595,0.119729586,-0.22418754,-0.10995574,105.628296,-1.1616411,-33.160538,CSO
2317352858000,1.399801,-4.74279022457289,0.529859070285805,8.22751306578317,0.12614368,-0.24281894,-0.10262536,105.632,-1.2032107,-33.072483,CSO
2317357840000,1.404783,-4.80373433135877,0.533668076959923,8.15895110474214,0.13408493,-0.25228736,-0.09407325,105.63204,-1.2445521,-32.985077,CSO
2317363058000,1.410001,-4.8763463381847,0.51657752162533,8.0900382991029,0.13500121,-0.24953845,-0.094989546,105.64118,-1.2737558,-32.89499,CSO
2317367858000,1.414801,-4.95882310441161,0.463210184422164,8.03181949171504,0.12156218,-0.23518312,-0.08735373,105.644646,-1.3030486,-32.808006,CSO
2317372793000,1.419736,-5.01428950445235,0.414097657549764,7.97602852646408,0.10293079,-0.22937989,-0.08582657,105.651245,-1.333826,-32.73742,CSO
2317377863000,1.424806,-5.02829682380998,0.372075377695932,7.92466804670641,0.100792766,-0.21868975,-0.08277224,105.65467,-1.3656951,-32.674397,CSO
2317382895000,1.429838,-5.03604324579493,0.342051131589852,7.884504057313,0.09621128,-0.20250183,-0.086132,105.66644,-1.3825525,-32.627995,CSO
2317387866000,1.434809,-5.03215987253446,0.334284385068929,7.86508727211029,0.087659165,-0.1853976,-0.08002335,105.673805,-1.3991556,-32.58641,CSO
2317392823000,1.439766,-5.02828743615303,0.326539512306061,7.84572517107431,0.087964594,-0.16676621,-0.0842994,105.69148,-1.4084868,-32.55015,CSO
2317397800000,1.444743,-5.11401478947368,0.312002293684211,7.92052315789474,0.09468412,-0.16371189,-0.081855945,105.704666,-1.4188256,-32.51544,CSO
2317403263000,1.450206,-5.2143266430705,0.299910113974576,8.01327789683527,0.09590584,-0.17501289,-0.07941248,105.71906,-1.4268365,-32.482975,CSO
2317407839000,1.454782,-5.24938854979998,0.323284707613121,8.0678186993955,0.10170906,-0.18906279,-0.077579886,105.73348,-1.4385905,-32.444927,CSO
2317412819000,1.459762,-5.28754595703618,0.348722967298427,8.12717473015379,0.102319926,-0.20250183,-0.0852157,105.754745,-1.4503976,-32.397625,CSO
2317417876000,1.464819,-5.30773663372391,0.363163633321952,8.18145386761853,0.12003502,-0.21074851,-0.08277224,105.771835,-1.4688505,-32.349384,CSO
2317422780000,1.469723,-5.32231396113913,0.37409665742376,8.23247476092186,0.13622294,-0.21502456,-0.083383106,105.79241,-1.4847418,-32.300247,CSO
2317427772000,1.474715,-5.32836380552239,0.390962406910448,8.28816882686567,0.14446963,-0.22479841,-0.089491755,105.80547,-1.508297,-32.24284,CSO
2317432809000,1.479752,-5.29750777717484,0.432103887229211,8.36016678123667,0.1591304,-0.22540927,-0.083383106,105.8145,-1.5380968,-32.188694,CSO
2317437807000,1.48475,-5.25788893086237,0.446164078304007,8.41114144364111,0.172264,-0.22999077,-0.077579886,105.82687,-1.5737563,-32.122555,CSO
2317442842000,1.489785,-5.19908482376307,0.404161270599303,8.4195417358885,0.1872302,-0.22266038,-0.079107046,105.83944,-1.6119032,-32.061977,CSO
2317448002000,1.494945,-5.13686333898305,0.356165552123629,8.42411445463609,0.1777618,-0.20677789,-0.07880162,105.84444,-1.654359,-31.994722,CSO
2317452808000,1.499751,-5.05273458050847,0.245268419820538,8.37440174327019,0.17470746,-0.1853976,-0.076052725,105.84898,-1.700457,-31.933767,CSO
2317457841000,1.504784,-4.96463219985876,0.129133324755733,8.32234097000665,0.15974127,-0.17715092,-0.074830994,105.86354,-1.7315544,-31.860533,CSO
2317462833000,1.509776,-4.91924278306805,0.0349403554801837,8.28387185770751,0.15027285,-0.1685988,-0.063224554,105.87331,-1.7638997,-31.795938,CSO
2317467838000,1.514781,-4.89876126015383,-0.0469857949898515,8.25314946640316,0.1423316,-0.15974127,-0.05467244,105.88351,-1.7915233,-31.73617,CSO
2317472805000,1.519748,-4.90059321886162,-0.108106977338363,8.17033650004775,0.14660765,-0.15271631,-0.05497787,105.92033,-1.7945737,-31.66507,CSO
2317477883000,1.524826,-4.90988196765352,-0.163839217911374,8.06816108776621,0.14019357,-0.16126843,-0.04886922,105.951836,-1.794766,-31.594292,CSO
2317482917000,1.52986,-4.93977738126296,-0.202115909795728,7.97111181603069,0.13316862,-0.16401732,-0.048258353,106.00645,-1.7857416,-31.520744,CSO
2317487805000,1.534748,-4.97860885144131,-0.231239575784944,7.87888685261302,0.1301143,-0.16432275,-0.050396383,106.059265,-1.7761538,-31.447866,CSO
2317492789000,1.539732,-5.00607448272285,-0.242179879041577,7.83366368653739,0.1441642,-0.18051068,-0.04886922,106.12073,-1.7620099,-31.376453,CSO
2317497809000,1.544752,-5.02909361240124,-0.246016403325353,7.8068079885085,0.1469131,-0.18967366,-0.05222898,106.183556,-1.7431281,-31.308977,CSO
2317502803000,1.549746,-5.0572623106935,-0.24899697,7.79475994771755,0.15760323,-0.18875736,-0.043676864,106.24237,-1.7266821,-31.253046,CSO
2317508915000,1.555858,-5.11472466805974,-0.24899697,7.84401321321085,0.1685988,-0.2003638,-0.030848695,106.30019,-1.7110331,-31.192472,CSO
2317513711000,1.560654,-5.15981456758993,-0.24899697,7.8826615543931,0.183565,-0.20952678,-0.027183503,106.36,-1.6991773,-31.141813,CSO
2317517814000,1.564757,-5.21011575320052,-0.215345009316414,7.93298784041577,0.19120082,-0.22266038,-0.025045475,106.415344,-1.6896614,-31.088009,CSO
2317522788000,1.569731,-5.2885103446427,-0.124572312765353,8.01963427416197,0.19822577,-0.24465153,-0.020158553,106.46794,-1.6842835,-31.030458,CSO
2317527826000,1.574769,-5.36352889581743,-0.0375318746379729,8.10223645600486,0.2098322,-0.2660318,-0.022602014,106.515236,-1.6808424,-30.96875,CSO
2317532819000,1.579762,-5.37182748365151,-0.0250838542405415,8.10638587990281,0.22021692,-0.26511553,-0.020463986,106.55874,-1.679826,-30.908894,CSO
2317537804000,1.584747,-5.38011277513016,-0.0126557785984033,8.11052865541479,0.21899518,-0.27000242,-0.017104227,106.58919,-1.6988282,-30.853184,CSO
2317542917000,1.58986,-5.3751693667326,-0.00258069556626166,8.11855125242536,0.22937989,-0.2724459,-0.012217305,106.61794,-1.7228855,-30.800072,CSO
2317547778000,1.594721,-5.36639997072619,0.00618879842017519,8.12732092314213,0.23273966,-0.27366763,-0.007330383,106.64521,-1.7445495,-30.747532,CSO
2317552811000,1.599754,-5.36765538228062,0.000289938920623944,8.14463921957123,0.22327125,-0.2837469,-0.003970624,106.66782,-1.7688097,-30.691893,CSO
2317557843000,1.604786,-5.37506124587367,-0.0145219533695251,8.16685692634855,0.22266038,-0.2687807,0.004276057,106.686584,-1.7965146,-30.64464,CSO
2317562998000,1.609941,-5.38042126839058,-0.0302253954517332,8.18941529900056,0.23396139,-0.2761111,0.0143553335,106.70199,-1.8273666,-30.584972,CSO
2317567804000,1.614747,-5.35486548633299,-0.0521304321012136,8.20766929289284,0.23426682,-0.30695978,0.016493361,106.717186,-1.8544369,-30.524553,CSO
2317572765000,1.619708,-5.32848549574046,-0.0747419358086777,8.22651200277624,0.24740042,-0.3222314,0.03604105,106.72689,-1.8868785,-30.465868,CSO
2317577892000,1.624835,-5.33525110265167,-0.101283676291683,8.19580679469667,0.25137106,-0.3491095,0.06078109,106.734535,-1.9172297,-30.396938,CSO
2317582834000,1.629777,-5.37328107332262,-0.129806323065488,8.11974685335476,0.26542094,-0.3585779,0.070554934,106.74058,-1.9529021,-30.330667,CSO
2317587853000,1.634796,-5.379267548772,-0.138662296062444,8.07534014169235,0.27214047,-0.36926803,0.07941248,106.75156,-1.9868886,-30.251162,CSO
2317592835000,1.639778,-5.35554704647509,-0.129174050559809,8.06110748364323,0.2910773,-0.3827071,0.08399397,106.76087,-2.0269456,-30.170609,CSO
2317597798000,1.644741,-5.339108152655,-0.114998387870068,8.06359416908929,0.29718593,-0.39003745,0.0852157,106.770256,-2.06209,-30.097612,CSO
2317602837000,1.64978,-5.32956449692475,-0.0959110614614852,8.08268163003065,0.3109304,-0.39095375,0.09468412,106.77553,-2.1044185,-30.024803,CSO
2317607813000,1.654756,-5.26961142472293,-0.0665151268823529,8.11798047570332,0.30940324,-0.39370266,0.11301007,106.78075,-2.148973,-29.948292,CSO
2317612823000,1.659766,-5.155081628815,-0.0256116302352941,8.17115502685422,0.32253686,-0.4175264,0.106901415,106.79123,-2.1969664,-29.8681,CSO
2317617796000,1.664739,-5.0480785399425,0.0167483493348393,8.2182038750385,0.31520647,-0.44165558,0.116980694,106.79109,-2.2470467,-29.788132,CSO
2317622795000,1.669738,-4.98417382677893,0.070821562203409,8.22803505349625,0.32742378,-0.45845437,0.122783914,106.79473,-2.3021398,-29.70615,CSO
2317627791000,1.674734,-4.91798127953092,0.112911075676211,8.23940400487359,0.3399465,-0.45937067,0.13561209,106.78937,-2.36419,-29.60227,CSO
2317632813000,1.679756,-4.84107079509595,0.10192385596558,8.25771602497715,0.34116822,-0.49113566,0.15424347,106.78125,-2.4261303,-29.488258,CSO
2317637830000,1.684773,-4.76423688422175,0.0909475753426744,8.27600981328054,0.344528,-0.50701815,0.15210545,106.77645,-2.5001376,-29.376684,CSO
2317642860000,1.689803,-4.7418898331599,0.110822262457475,8.32772576125675,0.3463606,-0.49846604,0.16554448,106.76096,-2.5764298,-29.26666,CSO
2317647788000,1.694731,-4.76077900410246,0.15332281571743,8.4032828395037,0.36102137,-0.514654,0.18234327,106.74622,-2.654505,-29.1491,CSO
2317653498000,1.700441,-4.78169657445228,0.187940829041961,8.47761877311548,0.35888332,-0.52381694,0.19120082,106.73773,-2.7238436,-29.026943,CSO
2317657860000,1.704803,-4.79720856238396,0.207330927339398,8.52803324006684,0.35918877,-0.50671273,0.18753563,106.72816,-2.7955906,-28.912008,CSO
2317662839000,1.709782,-4.8452372315494,0.25256388356606,8.59934604419089,0.35369098,-0.50793445,0.22388211,106.69445,-2.877212,-28.786453,CSO
2317667820000,1.714763,-4.93595024911709,0.330317879937517,8.69005861070361,0.355829,-0.5516113,0.22021692,106.67617,-2.9523337,-28.65858,CSO
2317672843000,1.719786,-5.02680998579894,0.393656855234982,8.75975471638741,0.35124752,-0.56107974,0.22785273,106.64174,-3.0356815,-28.535795,CSO
2317677845000,1.724788,-5.11490339256232,0.398550924871271,8.74507271189211,0.3399465,-0.6084218,0.2284636,106.61332,-3.11382,-28.394558,CSO
2317682822000,1.729765,-5.20320703117106,0.40222588,8.73615792633526,0.33750305,-0.5852089,0.23609942,106.56717,-3.212579,-28.271732,CSO
2317687840000,1.734783,-5.29425570751534,0.40222588,8.74482918788344,0.33353242,-0.59498274,0.23762658,106.52571,-3.3044665,-28.131128,CSO
2317693033000,1.739976,-5.3830884288774,0.400072159660266,8.74889405225258,0.33414328,-0.591623,0.23793201,106.472595,-3.401001,-28.000446,CSO
2317697791000,1.744734,-5.3957084616322,0.370625603980798,8.69000084425775,0.34422258,-0.60139686,0.22449298,106.42536,-3.494536,-27.86826,CSO
2317702681000,1.749624,-5.40867860878877,0.340362119896603,8.62947377677253,0.3585779,-0.6035349,0.20922135,106.38409,-3.5912712,-27.751068,CSO
2317707728000,1.754671,-5.37119145653244,0.311365497335828,8.5953036055922,0.3594942,-0.59559363,0.2012801,106.3459,-3.683681,-27.638145,CSO
2317712698000,1.759641,-5.32433047789702,0.283248890581865,8.56718740986512,0.3866777,-0.602924,0.19883664,106.31225,-3.782437,-27.52437,CSO
2317717691000,1.764634,-5.2883222623034,0.293044949546088,8.59613038851284,0.41783184,-0.59437186,0.20158553,106.28844,-3.881768,-27.414188,CSO
2317722690000,1.769633,-5.25496356607605,0.312107043193311,8.6390199773044,0.4288274,-0.6001751,0.20586158,106.26616,-3.9800913,-27.301588,CSO
2317727817000,1.77476,-5.23640596020449,0.261507474563232,8.72575286976375,0.4465425,-0.634689,0.22204952,106.243866,-4.086303,-27.170689,CSO
2317732684000,1.779627,-5.22252563758189,0.196732366718285,8.81828867599762,0.46181414,-0.63804877,0.21502456,106.22772,-4.189422,-27.051418,CSO
2317737690000,1.784633,-5.24560114337386,0.151969387550487,8.82439772540942,0.47525316,-0.6389651,0.21288654,106.20985,-4.302172,-26.916405,CSO
2317742727000,1.78967,-5.27952738546167,0.113196456308651,8.80501086757761,0.48197266,-0.65026605,0.20830505,106.19604,-4.4127603,-26.782106,CSO
2317747701000,1.794644,-5.21623289467525,0.208745249935635,8.86017096313634,0.50243664,-0.6554584,0.20280726,106.19582,-4.515212,-26.639036,CSO
2317752714000,1.799657,-5.12727609991223,0.33983934565828,8.93508192246928,0.5183192,-0.66339964,0.20433442,106.19553,-4.6156416,-26.496607,CSO
2317757752000,1.804695,-5.05120359454653,0.384142348502272,8.98270590525588,0.5216789,-0.66889745,0.19914207,106.195045,-4.7099495,-26.348553,CSO
2317762826000,1.809769,-4.97919309780676,0.398544457875914,9.02111180428769,0.5366451,-0.66431594,0.20158553,106.19191,-4.8096924,-26.205593,CSO
2317767722000,1.814665,-4.92476351496437,0.395676342861758,9.08332496883611,0.5476407,-0.66675943,0.19700404,106.1829,-4.93079,-26.04529,CSO
2317772724000,1.819667,-4.87469836627078,0.386573596330641,9.15614648484561,0.54367006,-0.67011917,0.18448131,106.176,-5.0476213,-25.891562,CSO
2317777854000,1.824797,-4.82718656789366,0.405048003355828,9.22182979468303,0.57940567,-0.64751714,0.19639318,106.15926,-5.180429,-25.72896,CSO
2317782734000,1.829677,-4.78417919775051,0.438498292680982,9.27917328752556,0.605062,-0.67011917,0.19181168,106.15363,-5.3024073,-25.559141,CSO
2317787722000,1.834665,-4.68401606064245,0.47536441455719,9.32749053287301,0.627664,-0.6844745,0.19394971,106.15069,-5.43325,-25.383541,CSO
2317792768000,1.839711,-4.55344822275593,0.514051156838787,9.3710134821375,0.6462954,-0.6936375,0.19394971,106.15063,-5.5648584,-25.20943,CSO
2317797740000,1.844683,-4.41716202765519,0.5267244,9.3790367677258,0.6627888,-0.70066243,0.19425514,106.14927,-5.705544,-25.02367,CSO
2317802759000,1.849702,-4.27574996763754,0.5267244,9.36960934627832,0.6918049,-0.6921103,0.19120082,106.14892,-5.8495317,-24.846544,CSO
2317808102000,1.855045,-4.1586740878301,0.612988166009234,9.40308762982456,0.69027776,-0.6921103,0.21227567,106.13218,-5.9959927,-24.641008,CSO
2317812802000,1.859745,-4.07139504443213,0.729360066193906,9.45296122631579,0.6954701,-0.7049385,0.2144137,106.122955,-6.144446,-24.442242,CSO
2317817815000,1.864758,-3.98943679168477,0.848796872627986,9.46697237604716,0.6969972,-0.7122689,0.21502456,106.11022,-6.29605,-24.217972,CSO
2317822761000,1.869704,-3.92085307680215,0.961470185005688,9.43757925307684,0.6957755,-0.7464773,0.22937989,106.09466,-6.445445,-23.989944,CSO
2317827827000,1.87477,-3.87311938717229,1.09046264278804,9.44868502137951,0.70524395,-0.73853606,0.24129178,106.0651,-6.6204357,-23.753054,CSO
2317832779000,1.879722,-3.84559245657347,1.22809743949889,9.49456323904421,0.729984,-0.72356987,0.2669481,106.02897,-6.797135,-23.516312,CSO
2317838519000,1.885462,-3.80479516814211,1.35142010209049,9.49341848846796,0.73548174,-0.72326446,0.28955013,105.978195,-6.9903355,-23.272167,CSO
2317842808000,1.889751,-3.76851340206105,1.41995216788694,9.45713689076455,0.73914695,-0.7263188,0.30176744,105.92384,-7.1855783,-23.039352,CSO
2317847782000,1.894725,-3.71712560833591,1.48844093803643,9.40364089441185,0.7360926,-0.7275405,0.321926,105.8442,-7.406892,-22.797323,CSO
2317852761000,1.899704,-3.65333251030153,1.54241976453638,9.33494022506947,0.7473936,-0.7147123,0.33017266,105.76615,-7.626805,-22.567083,CSO
2317857820000,1.904763,-3.60431502554327,1.56610546355318,9.29234283911552,0.75625116,-0.7110472,0.35308012,105.66881,-7.8633766,-22.325901,CSO
2317862833000,1.909776,-3.5722848605223,1.55695401513534,9.27861585760579,0.77366084,-0.7101309,0.36254853,105.575096,-8.098266,-22.096268,CSO
2317867800000,1.914743,-3.53258797330902,1.55314330222425,9.270349,0.79473567,-0.70554936,0.37110063,105.47492,-8.35294,-21.853954,CSO
2317872767000,1.91971,-3.48055373564266,1.55747948869644,9.270349,0.79320854,-0.72021013,0.37934732,105.375435,-8.600495,-21.614672,CSO
2317877753000,1.924696,-3.42209002942107,1.5610195,9.27881095845196,0.7959574,-0.72601336,0.40011674,105.26838,-8.8518505,-21.373014,CSO
2317882780000,1.929723,-3.33578561556469,1.5610195,9.32450189844986,0.7959574,-0.7290677,0.42180246,105.161705,-9.0964575,-21.136097,CSO
2317887775000,1.934718,-3.29411878500268,1.56981661408677,9.35779769121585,0.788627,-0.73456544,0.44623706,105.05541,-9.342424,-20.886442,CSO
2317892787000,1.93973,-3.35839166720229,1.59981058402071,9.36208240983753,0.7910705,-0.75747293,0.46914452,104.9468,-9.586517,-20.638714,CSO
2317897934000,1.944877,-3.42345609938991,1.6352392652616,9.3672515287946,0.79351395,-0.7611381,0.48624873,104.83707,-9.827708,-20.37861,CSO
2317902900000,1.949843,-3.47621082906267,1.71876767905343,9.38044025711777,0.7965683,-0.7834347,0.50701815,104.724556,-10.065884,-20.114668,CSO
2317908800000,1.955743,-3.53039685283971,1.81575774926378,9.39408248464451,0.79443026,-0.8008443,0.52626044,104.60809,-10.313345,-19.847363,CSO
2317912829000,1.959772,-3.5011781448212,1.86445562986117,9.38758930281868,0.795652,-0.82772243,0.5500842,104.48902,-10.558296,-19.579102,CSO
2317917770000,1.964713,-3.46534552225494,1.92417670904501,9.37962633151031,0.79626286,-0.85154617,0.54733527,104.37694,-10.818601,-19.311945,CSO
2317922753000,1.969696,-3.37610978323699,1.98136173264475,9.35492395773714,0.8008443,-0.8564331,0.5549711,104.25837,-11.076562,-19.050034,CSO
2317927782000,1.974725,-3.23463209479769,2.03612727101298,9.3138494227234,0.8078693,-0.86101454,0.56413406,104.144684,-11.328295,-18.790876,CSO
2317932785000,1.979728,-3.07666918304708,2.08582285109905,9.27054608738987,0.8155051,-0.8875872,0.58246,104.01897,-11.593574,-18.512533,CSO
2317937751000,1.984694,-2.89467997731601,2.12814596947584,9.22399066601406,0.8176431,-0.88789266,0.6010914,103.892456,-11.853073,-18.249134,CSO
2317942774000,1.989717,-2.71570145552597,2.16576841392429,9.17781195206392,0.8231409,-0.89736104,0.6203337,103.76209,-12.127978,-17.953314,CSO
2317947824000,1.994767,-2.56390625579228,2.1749681171771,9.13641338348868,0.8155051,-0.8903361,0.6444628,103.627304,-12.3946905,-17.670618,CSO
2317952947000,1.99989,-2.42219900837974,2.18387854772386,9.09869911075753,0.8197812,-0.8921687,0.66248333,103.48805,-12.673194,-17.360775,CSO
2317957785000,2.004728,-2.41400802163882,2.1879740624768,9.10689031132326,0.81061816,-0.91324353,0.6789767,103.34685,-12.940608,-17.056534,CSO
2317962805000,2.009748,-2.40550889939008,2.19222364578803,9.11538965544064,0.8151997,-0.9117164,0.68386364,103.2009,-13.213123,-16.737633,CSO
2317967804000,2.014747,-2.35567157514435,2.20339742511729,9.09306639787081,0.8188649,-0.92087936,0.68936145,103.05617,-13.477137,-16.419703,CSO
2317972730000,2.019673,-2.29608515210213,2.21616591577048,9.06327307524359,0.8151997,-0.93187493,0.6963864,102.913414,-13.733909,-16.111889,CSO
2317977810000,2.024753,-2.23021476159707,2.24720454988317,9.01905536635172,0.8072584,-0.9324858,0.70829827,102.7717,-13.991796,-15.793962,CSO
2317982833000,2.029776,-2.16179464300518,2.29118889360967,8.96529655958549,0.80909103,-0.9272934,0.7122689,102.6343,-14.244299,-15.485497,CSO
2317987796000,2.034739,-2.06527343944456,2.36957054813846,8.8949027466291,0.7965683,-0.91813046,0.7134906,102.49434,-14.492527,-15.168686,CSO
2317992811000,2.039754,-1.94928786377541,2.47105793946468,8.81274667146307,0.79443026,-0.9129381,0.72112644,102.35497,-14.738146,-14.862154,CSO
2317997803000,2.044746,-1.84340774733536,2.53747644714503,8.73089641211458,0.78954333,-0.9120218,0.7296785,102.212616,-14.987075,-14.548787,CSO
2318002802000,2.049745,-1.74317570411115,2.58303651869052,8.64888840702322,0.79626286,-0.90133166,0.74097955,102.06981,-15.232763,-14.249314,CSO
2318007826000,2.054769,-1.64067109207161,2.63705095907928,8.62191851278772,0.79412484,-0.89552844,0.7516697,101.92172,-15.497504,-13.928065,CSO
2318012829000,2.059772,-1.53698418774346,2.69832048450718,8.64548369594728,0.77824235,-0.89766645,0.7657196,101.77305,-15.754362,-13.617202,CSO
2318017807000,2.06475,-1.47650138820894,2.76890816211647,8.68707201842617,0.7846564,-0.8918633,0.7867944,101.62287,-16.0278,-13.302806,CSO
2318022837000,2.06978,-1.46021496161778,2.8503405076494,8.74814606499873,0.7733554,-0.9092729,0.78954333,101.47967,-16.28471,-12.992422,CSO
2318027795000,2.074738,-1.45494940911901,2.89437145531298,8.81989450309119,0.7449502,-0.8775079,0.818254,101.31457,-16.547594,-12.677487,CSO
2318032797000,2.07974,-1.52898828639876,2.67225467851623,8.97722750386399,0.7357872,-0.86070913,0.8677341,101.149445,-16.807219,-12.362583,CSO
2318038049000,2.084992,-1.60452931178437,2.46564150225658,9.12549637317175,0.7189884,-0.8775079,0.8518516,100.98079,-17.061775,-12.042211,CSO
2318042884000,2.089827,-1.65483856773924,2.50821079807773,9.11388631174258,0.70646566,-0.8753699,0.84604836,100.797005,-17.31226,-11.737295,CSO
2318047850000,2.094793,-1.70651090798161,2.5519334708901,9.10196168608441,0.70005155,-0.8775079,0.8491027,100.636894,-17.50739,-11.425548,CSO
2318052812000,2.099755,-1.73617487210166,2.62215762117302,9.11649057262952,0.69058317,-0.89858276,0.8570439,100.48249,-17.692717,-11.119877,CSO
2318057832000,2.104775,-1.75497273564027,2.70674815431085,9.14468746608016,0.6808093,-0.89949906,0.8533788,100.3327,-17.870556,-10.83016,CSO
2318062820000,2.109763,-1.78013318708626,2.77196814821265,9.19142863682656,0.6609562,-0.9071349,0.8585711,100.17217,-18.052317,-10.530626,CSO
2318067822000,2.114765,-1.80940494814136,2.82563305197067,9.24997226082086,0.6560693,-0.9324858,0.8723156,100.01595,-18.230774,-10.235749,CSO
2318072799000,2.119742,-1.84410253082601,2.83614188056239,9.2730720172232,0.65240407,-0.95203346,0.88178396,99.84963,-18.416609,-9.929495,CSO
2318077832000,2.124775,-1.88222211016696,2.8234352361775,9.27730716731107,0.6423248,-0.97127575,0.88422745,99.68805,-18.594528,-9.626441,CSO
2318082831000,2.129774,-1.92972462419512,2.81180101349129,9.31520520738676,0.6444628,-0.9966267,0.8894198,99.51805,-18.776287,-9.3190775,CSO
2318087805000,2.134748,-1.99279542946341,2.80184251089895,9.40815210968641,0.6374379,-1.0076222,0.89369583,99.352394,-18.947847,-9.02079,CSO
2318092830000,2.139773,-2.05651291970732,2.79178190062021,9.50205202606272,0.6432411,-1.0421361,0.89369583,99.18659,-19.119995,-8.699954,CSO
2318097810000,2.144753,-2.11020242992905,2.76784743117609,9.54634939238873,0.6478226,-1.0403035,0.9056077,99.01832,-19.285866,-8.395322,CSO
2318102793000,2.149736,-2.15466423220813,2.73022594188347,9.54292918232638,0.66156703,-1.0387764,0.89827734,98.86276,-19.450464,-8.093923,CSO
2318109058000,2.156001,-2.21056493284598,2.68292539393679,9.53862903862969,0.67073005,-1.0641272,0.88270026,98.71317,-19.602436,-7.7919507,CSO
2318112832000,2.159775,-2.2089204417102,2.77784282509189,9.61490490191526,0.6795876,-1.103528,0.8741482,98.568726,-19.754017,-7.496882,CSO
2318117808000,2.164751,-2.20431083087638,2.91152158740569,9.72092575856065,0.6960809,-1.0910053,0.852157,98.433136,-19.905106,-7.221858,CSO
2318122803000,2.169746,-2.16023063075304,3.04659933189474,9.81368187935223,0.67164636,-1.1016954,0.84757555,98.30248,-20.036991,-6.9312105,CSO
2318127824000,2.174767,-2.09404051562753,3.18287297157895,9.89933973279352,0.6579019,-1.1078042,0.8414669,98.179665,-20.171803,-6.657265,CSO
2318132835000,2.179778,-2.04893037631777,3.30349197631777,9.96168120483556,0.62980205,-1.0955868,0.87964594,98.034805,-20.312052,-6.369796,CSO
2318137786000,2.184729,-2.09877324352005,3.35333484352005,9.9189586622616,0.627664,-1.1621711,0.9059132,97.90664,-20.451113,-6.0712767,CSO
2318142825000,2.189768,-2.14950202716624,3.40406362716624,9.87547676122541,0.605062,-1.2162327,0.8906415,97.76238,-20.595448,-5.757774,CSO
2318147803000,2.194746,-2.25371219957618,3.41322038117835,9.95467967025637,0.6533204,-1.278541,0.88147855,97.62112,-20.756168,-5.4321423,CSO
2318152849000,2.199792,-2.41151492002362,3.38300289416383,10.1527725954283,0.6246097,-1.2275337,0.86590147,97.48322,-20.883904,-5.135829,CSO
2318157912000,2.204855,-2.56984927864934,3.35268360427986,10.3515328966859,0.6221663,-1.2223413,0.84238315,97.35191,-21.043058,-4.822005,CSO
2318162870000,2.209813,-2.78711374572334,3.3423057,10.324442405755,0.61453044,-1.2250903,0.83260936,97.220245,-21.188463,-4.5303683,CSO
2318167810000,2.214753,-3.03689951622668,3.3423057,10.1787337063534,0.6301075,-1.2144,0.8668178,97.084465,-21.336395,-4.2514997,CSO
2318172796000,2.219739,-2.99981443589871,3.32021243516385,9.98580735769613,0.6407976,-1.2938126,0.795652,96.99761,-21.45348,-3.970099,CSO
2318177823000,2.224766,-2.44046134399206,3.25806199177756,9.70852163197617,0.68508536,-1.2620476,0.7180721,96.89329,-21.582384,-3.7271643,CSO
2318182803000,2.229746,-1.76924033198693,3.29463005118305,9.4668106986437,0.7058548,-1.2134838,0.63591075,96.815765,-21.720247,-3.4879515,CSO
2318187810000,2.234753,-0.872026975408376,3.51774665052965,9.28641841738442,0.72601336,-1.2195925,0.5516113,96.76335,-21.865416,-3.2584267,CSO
2318192790000,2.239733,-0.0864805995971803,3.86977257401813,9.23487718932528,0.7993172,-1.2831224,0.48502702,96.6973,-22.025196,-2.9736707,CSO
2318198640000,2.245583,0.573624681369587,4.60322295166163,9.48876424370594,0.86437434,-1.3332134,0.44715336,96.64681,-22.183722,-2.7057123,CSO
2318202778000,2.249721,0.896771826418693,4.99034760324273,9.5985001196948,0.9443977,-1.3264939,0.46028697,96.55881,-22.402546,-2.3273952,CSO
2318207826000,2.254769,1.03125207903354,5.22472734255285,9.60618445795581,0.97035944,-1.2153164,0.4981606,96.46991,-22.618858,-1.9783819,CSO
2318212817000,2.25976,1.16421383434271,5.45646055945001,9.61378202773804,0.97494096,-1.0748174,0.5537493,96.33896,-22.931042,-1.5633605,CSO
2318217827000,2.26477,0.972306166838768,5.42893478396739,9.68326621603261,0.97219205,-0.95630956,0.600786,96.19294,-23.241388,-1.1827713,CSO
2318222774000,2.269717,0.714825365061594,5.34739935163044,9.76480164836956,0.9923506,-0.8579602,0.61666846,96.029976,-23.552958,-0.8437561,CSO
2318227848000,2.274791,0.397414874419035,5.23500580531432,9.8716694803259,0.99204516,-0.8561276,0.61086524,95.84252,-23.898296,-0.47738543,CSO
2318232917000,2.27986,0.0468457535172669,5.10466581659106,9.99302042986761,1.029308,-0.8906415,0.5891795,95.65209,-24.252972,-0.13822009,CSO
2318237806000,2.284749,-0.415287028719571,4.69688540389314,9.78400042842078,1.0775663,-0.9505063,0.56596667,95.44491,-24.57735,0.17311823,CSO
2318242818000,2.289761,-1.03536322068723,3.94604503517884,9.18501555523332,1.1517864,-1.0238101,0.49510628,95.26641,-24.913507,0.47795054,CSO
2318247827000,2.29477,-1.53529965968528,3.3209094860622,8.66093935724991,1.2180653,-1.0778717,0.42821655,95.09891,-25.223425,0.7493188,CSO
2318252817000,2.29976,-1.49948978190333,3.25645169857625,8.47114679186961,1.2583824,-1.0955868,0.35338554,94.960045,-25.540995,1.0110681,CSO
2318259356000,2.306299,-1.45256377171975,3.17198487044586,8.22243865859873,1.289842,-1.1630874,0.2565634,94.90078,-25.796213,1.221969,CSO
2318262913000,2.309856,-1.26240760800401,3.20626888631896,8.13459321145436,1.3176364,-1.1688906,0.21930063,94.840965,-26.056412,1.4130396,CSO
2318267821000,2.314764,-0.92296786661986,3.29112884627884,8.0355900396991,1.3158038,-1.1682798,0.1337795,94.82628,-26.312317,1.5951377,CSO
2318272809000,2.319752,-0.502002782959344,3.4449100420171,8.00431530430989,1.3005321,-1.1786644,0.052839845,94.82338,-26.575201,1.7917591,CSO
2318277828000,2.324771,-0.00716880982725529,3.66297245556622,8.03786330393474,1.2809844,-1.146594,-0.017104227,94.833435,-26.831167,1.9614048,CSO
2318282808000,2.329751,0.468160474207547,3.888624687247,8.04528945763293,1.2394456,-1.1414018,-0.07819075,94.786156,-27.073511,2.172754,CSO
2318287807000,2.33475,0.891065215962264,4.14729451240137,7.96317209365352,1.2092078,-1.0980303,-0.12950343,94.746254,-27.3091,2.3510447,CSO
2318293602000,2.340545,1.37369252067904,4.44490943959519,7.86151305894973,1.1319333,-1.0393872,-0.16646078,94.687004,-27.547096,2.5920444,CSO
2318297800000,2.344743,1.60244072230202,4.62490805785841,7.68526440863725,1.0665708,-0.95081174,-0.20005837,94.63129,-27.775923,2.7993636,CSO
2318302900000,2.349843,1.88033872808507,4.84358193902621,7.47114622936293,0.99173975,-0.8594874,-0.23151793,94.5625,-28.032978,3.051415,CSO
2318307869000,2.354812,2.09435731294399,5.18526343214109,7.21465869067405,0.9465357,-0.8008443,-0.25595254,94.49391,-28.276123,3.276767,CSO
2318312893000,2.359836,2.29307643298364,5.5707785739881,6.94042643532959,0.9245446,-0.732122,-0.28191432,94.42108,-28.501484,3.4643214,CSO
2318317821000,2.364764,2.40349489264343,5.86157293860271,6.73814398296576,0.9071349,-0.6603453,-0.28893927,94.35228,-28.776522,3.6870465,CSO
2318322806000,2.369749,2.34459247399753,5.97937754524985,6.66819725991672,0.88270026,-0.6062838,-0.3005457,94.2839,-29.039757,3.8861752,CSO
2318327877000,2.37482,2.28467388524059,6.09921448814004,6.59704383311999,0.8903361,-0.52839845,-0.30176744,94.186424,-29.408678,4.0944595,CSO
2318332827000,2.37977,2.17013466000855,6.20760399451668,6.57323158250642,0.90408057,-0.46395215,-0.30207285,94.08564,-29.767706,4.2852154,CSO
2318337770000,2.384713,2.03650262121471,6.31289002136869,6.56513271591104,0.91599244,-0.42332962,-0.31245756,93.97982,-30.123894,4.455658,CSO
2318342885000,2.389828,1.81492567299697,6.34049451853683,6.58786112265388,0.9437868,-0.38637227,-0.30024028,93.8218,-30.507925,4.604342,CSO
2318347803000,2.394746,1.48224029269425,6.25019423221998,6.65439828804238,0.97433007,-0.39706242,-0.30726522,93.67325,-30.89221,4.745901,CSO
2318352823000,2.399766,1.18290147747525,6.26007884158416,6.7416453490099,1.0064005,-0.37965274,-0.30665436,93.45032,-31.285557,4.8570046,CSO
2318357872000,2.404815,0.939095922772277,6.41522774257426,6.85689891089109,1.0140363,-0.38240165,-0.29443705,93.234764,-31.676079,4.972132,CSO
2318362984000,2.409927,0.698195345076266,6.55473100915192,6.97172263270287,1.0412198,-0.3933972,-0.2828306,93.02732,-32.055283,5.039306,CSO
2318367859000,2.414802,0.484557784826113,6.64018627913362,7.07616779743746,1.0735956,-0.41996986,-0.27580565,92.82462,-32.43329,5.109822,CSO
2318372819000,2.419762,0.282731791895298,6.71969170190979,7.14284871055662,1.1093313,-0.45356745,-0.25595254,92.6143,-32.826237,5.1549177,CSO
2318377823000,2.424766,0.121764230668042,6.77947956114203,7.10145669827255,1.1438452,-0.52381694,-0.24862215,92.41911,-33.222473,5.2130203,CSO
2318382852000,2.429795,-0.0143062882485644,6.81677742502051,7.08322275553733,1.1786644,-0.54611355,-0.23976462,92.222824,-33.62592,5.252297,CSO
2318387792000,2.434735,-0.039003579335148,6.75679833157581,7.16437116183161,1.2235631,-0.58459806,-0.22449298,92.04067,-34.034805,5.3127437,CSO
2318392942000,2.439885,-0.0647507552654933,6.69426951958386,7.24896919673354,1.235475,-0.6478226,-0.23915374,91.915596,-34.463593,5.3609586,CSO
2318397832000,2.444775,-0.0292149088786199,6.65253047079013,7.2599412208527,1.2666291,-0.66339964,-0.22479841,91.77989,-34.900993,5.4123893,CSO
2318402832000,2.449775,0.0649439014538792,6.62685063525206,7.20430200919735,1.2800682,-0.7098254,-0.23732115,91.67048,-35.329823,5.4770246,CSO
2318407956000,2.454899,0.167478435589283,6.6295469517965,7.17422688651851,1.2974777,-0.7275405,-0.23762658,91.56501,-35.736687,5.533341,CSO
2318412846000,2.459789,0.279895044695679,6.70207393685148,7.21049024651541,1.2913691,-0.7244862,-0.24617869,91.46914,-36.133415,5.589909,CSO
2318417801000,2.464744,0.393805944107171,6.775564982035,7.24723563481493,1.2977833,-0.73853606,-0.2501493,91.34294,-36.52331,5.663373,CSO
2318422797000,2.46974,0.553372662215312,6.81585514186066,7.24561781985041,1.2910637,-0.71929383,-0.24281894,91.2116,-36.900574,5.7265224,CSO
2318427848000,2.474791,0.736309066224052,6.84024660296664,7.22529160933692,1.2999213,-0.72265357,-0.25992316,91.09465,-37.27812,5.790727,CSO
2318432794000,2.479737,0.915408288453529,6.89957191032009,7.22334491454686,1.289842,-0.7165449,-0.26419923,90.95663,-37.647617,5.8732395,CSO
2318437806000,2.484749,1.09681585985345,7.04395755993058,7.26406898985731,1.2910637,-0.7458665,-0.25534168,90.82853,-38.016266,5.960941,CSO
2318442795000,2.489738,1.27739095436946,7.18768062575395,7.30460618293868,1.2596041,-0.7641924,-0.23762658,90.69501,-38.373665,6.067919,CSO
2318447795000,2.494738,1.32267656827749,7.30415274534433,7.2175179115676,1.2428054,-0.768163,-0.22510384,90.56521,-38.729034,6.1750956,CSO
2318452826000,2.499769,1.31050763054386,7.40961683001347,7.07554680191952,1.2257011,-0.77640975,-0.21594086,90.438194,-39.068737,6.285985,CSO
2318457834000,2.504777,1.28989046290736,7.50916224697595,6.96779529354632,1.2153164,-0.7693848,-0.2003638,90.3076,-39.422005,6.4147015,CSO
2318462804000,2.509747,1.25263671642949,7.59721654397324,6.92715491678526,1.2324207,-0.77182823,-0.17684549,90.178116,-39.771355,6.5457892,CSO
2318467956000,2.514899,1.21401874824961,7.68849536452256,6.8850263008752,1.2406673,-0.7846564,-0.16432275,90.05268,-40.148838,6.667617,CSO
2318472794000,2.519737,1.17493472370466,7.78759276059187,6.81484948198485,1.2498302,-0.78893244,-0.14660765,89.92129,-40.523502,6.7890644,CSO
2318477839000,2.524782,1.13160719196891,7.90313276143882,6.71375202522917,1.2592987,-0.8032878,-0.12217305,89.79153,-40.893116,6.914768,CSO
2318482826000,2.529769,1.091677614173,7.98477022089421,6.55487385052601,1.2773192,-0.8359691,-0.096516706,89.66892,-41.287006,7.0420365,CSO
2318488058000,2.535001,1.05263153351841,8.03845846075394,6.33035902691408,1.2904528,-0.85062987,-0.058948494,89.53916,-41.67325,7.1710453,CSO
2318492921000,2.539864,1.02332908972016,8.06805749571673,6.14596923438035,1.2953397,-0.85154617,-0.032070424,89.41581,-42.084698,7.3036523,CSO
2318497838000,2.544781,1.00091850262707,8.07702191776128,5.9846128201028,1.2968669,-0.86193085,-0.01282817,89.29204,-42.489517,7.4422326,CSO
2318502815000,2.549758,0.991432272683877,8.10290958587433,5.84166374275694,1.312444,-0.8576548,0.0070249503,89.167786,-42.92797,7.574715,CSO
2318507833000,2.554776,1.00547700207501,8.15908821013151,5.73398748409157,1.3295482,-0.86437434,0.0070249503,89.04899,-43.359043,7.706713,CSO
2318512806000,2.559749,1.02707204400164,8.21265916053683,5.63006661663764,1.3286319,-0.86162543,0.011301007,88.92179,-43.803226,7.83447,CSO
2318517811000,2.564754,1.06635649974388,8.26176466612027,5.53185540036881,1.3283265,-0.8558222,0.015882496,88.79628,-44.243996,7.9585476,CSO
2318523692000,2.570635,1.15866455023226,8.31427890026414,5.37376172487476,1.312444,-0.8445212,0.013133603,88.67397,-44.695293,8.089582,CSO
2318527838000,2.574781,1.2635427541124,8.34682758702979,5.22548559925312,1.2922854,-0.8390234,0.016798794,88.55041,-45.136135,8.218164,CSO
2318532849000,2.579792,1.3701016635786,8.38959833346407,5.07014297614528,1.2751812,-0.8341365,0.0076358155,88.4329,-45.58626,8.3497925,CSO
2318537826000,2.584769,1.37384054308127,8.44942110825228,5.03649274828993,1.2409728,-0.83260936,-0.0012217305,88.31505,-46.017326,8.477074,CSO
2318542813000,2.589756,1.37758693489959,8.50936408150298,5.00277490896611,1.2082914,-0.8549059,-0.014966198,88.20586,-46.46917,8.627585,CSO
2318547822000,2.594765,1.3790601,8.56139299521404,4.99469049813879,1.1612549,-0.86009824,-0.03145956,88.095795,-46.89985,8.766773,CSO
2318552798000,2.599741,1.3790601,8.60785197952672,5.00313761426039,1.1429288,-0.84788096,-0.044898596,87.98942,-47.32207,8.899582,CSO
2318557809000,2.604752,1.36406438925521,8.65827428679245,4.99367425445879,1.0977248,-0.86254174,-0.048258353,87.89742,-47.733173,9.039683,CSO
2318563059000,2.610002,1.31912861219464,8.7181886735849,4.9487383731281,1.0512991,-0.87689704,-0.08124508,87.81139,-48.133858,9.163241,CSO
2318567803000,2.614746,1.27020059898315,8.7532015,4.90434398865455,0.99387777,-0.88361657,-0.102319926,87.73079,-48.51746,9.285625,CSO
2318572809000,2.619752,1.20249295250918,8.7532015,4.8501778997552,0.9584476,-0.8906415,-0.13194689,87.66115,-48.889786,9.397149,CSO
2318577827000,2.62477,1.12917423298698,8.74747508645054,4.79896735476125,0.91996306,-0.8961393,-0.15088372,87.59707,-49.252945,9.496836,CSO
2318582804000,2.629747,1.0367258029371,8.72106140689942,4.75934672051353,0.8753699,-0.90224797,-0.19028452,87.5435,-49.60125,9.583049,CSO
2318588045000,2.634988,0.938389551557662,8.68687142038097,4.72052127456132,0.82802784,-0.893085,-0.22693644,87.4984,-49.942562,9.662955,CSO
2318592837000,2.63978,0.83934504488599,8.59643945115886,4.71190866966313,0.8045095,-0.8970556,-0.28008172,87.46693,-50.275745,9.730468,CSO
2318597831000,2.644774,0.736125456756123,8.50219544984517,4.70293301255513,0.8038987,-0.89888823,-0.33353242,87.47294,-50.611164,9.783305,CSO
2318602821000,2.649764,0.647223486705136,8.41401395872822,4.67198199944971,0.79717916,-0.8949176,-0.37720928,87.48409,-50.93521,9.823367,CSO
2318607816000,2.654759,0.559477573127484,8.32626779700398,4.63907715062672,0.7788532,-0.86926126,-0.41996986,87.497574,-51.253456,9.845842,CSO
2318613028000,2.659971,0.513002034670464,8.11303571196094,4.66104497664768,0.75808376,-0.829555,-0.47036624,87.55107,-51.56834,9.843903,CSO
2318617800000,2.664743,0.554835317408462,7.69005508665582,4.78654488795769,0.7635816,-0.7984009,-0.54367006,87.608505,-51.884247,9.822668,CSO
2318622820000,2.669763,0.665750710587295,7.37410310531362,4.91777633779465,0.7788532,-0.83016586,-0.63285637,87.71918,-52.202175,9.780669,CSO
2318627839000,2.674782,0.910593471877747,7.31649298603676,5.04739873019377,0.78893244,-0.84513205,-0.7125743,87.82532,-52.518894,9.715436,CSO
2318632809000,2.679752,1.22027626098045,7.24406509069614,5.18835926834797,0.7498371,-0.88056225,-0.7840455,87.95756,-52.758995,9.662183,CSO
2318637817000,2.68476,1.66876061258147,7.13987163321054,5.35597471521678,0.68661255,-0.93218035,-0.8585711,88.10631,-52.996082,9.595635,CSO
2318642806000,2.689749,2.09407726872769,7.04343220668467,5.45620506311373,0.57543504,-0.9618073,-0.90224797,88.21554,-53.16433,9.563513,CSO
2318647831000,2.694774,2.4422261075914,6.97380253585415,5.30766180735025,0.43463063,-1.0720685,-0.9251554,88.36082,-53.306717,9.541807,CSO
2318652838000,2.699781,2.76341625208463,6.89719599794648,5.1213669869944,0.3631594,-1.2000448,-0.956615,88.532135,-53.399254,9.574066,CSO
2318657841000,2.704784,2.93236806020535,6.77793593472309,4.70892551991288,0.27580565,-1.289842,-1.0112875,88.72372,-53.449947,9.606415,CSO
2318662831000,2.709774,3.07810043629597,6.64855151694396,4.30504298577058,0.23426682,-1.3399329,-1.0815369,88.96388,-53.51661,9.689718,CSO
2318667805000,2.714748,3.14066843456217,6.48170373934326,3.92963547528021,0.21502456,-1.3429873,-1.1560625,89.21756,-53.568005,9.76337,CSO
2318672760000,2.719703,3.20299743162872,6.31549329744308,3.55566197015762,0.21197024,-1.3121386,-1.2299771,89.530846,-53.679913,9.847172,CSO
2318677849000,2.724792,3.17252989715476,6.15477068179401,3.34576295145364,0.19364429,-1.271516,-1.314582,89.84906,-53.786186,9.907592,CSO
2318682828000,2.729771,3.13449174056018,5.99839159847545,3.15557234500975,0.19456059,-1.2104294,-1.3970488,90.15924,-53.89951,9.9409895,CSO
2318687837000,2.73478,2.97794982010204,5.85714132133581,3.11131983573284,0.22999077,-1.1285735,-1.4819591,90.493225,-54.07727,9.961188,CSO
2318692818000,2.739761,2.76554727346939,5.72438981632653,3.13787013673469,0.28130344,-1.0647382,-1.5671748,90.822655,-54.262676,9.9543085,CSO
2318697798000,2.744741,2.53682410149665,5.66230705277668,3.21111958428515,0.32284227,-1.0103711,-1.6383406,91.155014,-54.477448,9.918487,CSO
2318702865000,2.749808,2.2883665304746,5.66708517989366,3.33057031751674,0.33964106,-0.98563105,-1.7165314,91.48597,-54.70267,9.85611,CSO
2318707821000,2.754764,1.94579303173862,5.72371242549248,3.41092936366257,0.3652974,-1.0088439,-1.779756,91.804596,-54.91861,9.760627,CSO
2318712826000,2.759769,1.49506387304551,5.83557206273595,3.45369925123207,0.38240165,-1.0384709,-1.8573358,92.12508,-55.139137,9.642621,CSO
2318717825000,2.764768,1.04487504900817,5.94729760251218,3.49641786620907,0.4083634,-1.0687088,-1.9404135,92.412796,-55.338043,9.488804,CSO
2318722796000,2.769739,0.628219572784555,6.02374698166362,3.46517401188166,0.41447207,-1.0968086,-1.9886718,92.70509,-55.5334,9.333202,CSO
2318727817000,2.77476,0.231012521302469,6.07455245075401,3.37741907565075,0.42821655,-1.1643091,-2.0485365,93.02013,-55.73905,9.170258,CSO
2318732844000,2.779787,-0.145237825156545,6.17249831735659,3.25817102355537,0.46517387,-1.2357804,-2.1178699,93.384575,-55.978195,8.908935,CSO
2318737831000,2.784774,-0.496484642401765,6.31801497434335,3.1076365580374,0.516792,-1.3197744,-2.189952,93.76731,-56.220554,8.651856,CSO
2318742812000,2.789755,-0.696116824598831,6.58566118646693,3.02726757652351,0.5561928,-1.3756685,-2.259896,94.284004,-56.533882,8.304272,CSO
2318747797000,2.79474,-0.789108968648548,6.93991694469901,2.99627022599944,0.571159,-1.4767667,-2.2876904,94.825584,-56.84553,7.974108,CSO
2318752814000,2.799757,-0.822896605143853,7.28333470177274,2.98831808705803,0.5852089,-1.5699236,-2.3328943,95.436295,-57.226944,7.5703516,CSO
2318757841000,2.804784,-0.776260332868352,7.60978846161,3.01163619884723,0.6035349,-1.6756034,-2.3805418,96.06909,-57.60289,7.1791124,CSO
2318762999000,2.809942,-0.581727634849231,8.02125346603077,3.03610801305641,0.6044512,-1.7568485,-2.4284947,96.72903,-58.02573,6.7684126,CSO
2318767816000,2.814759,-0.184287221353846,8.51805394584615,3.05976521405128,0.5873469,-1.8182404,-2.4297166,97.39965,-58.434433,6.372131,CSO
2318772802000,2.819745,0.291864594915388,9.04689378315624,3.04509670484061,0.56413406,-1.9049833,-2.4016168,98.08656,-58.862965,5.992944,CSO
2318777833000,2.824776,0.865446934885872,9.60151450983865,2.97399150885478,0.52290064,-1.9862283,-2.3600779,98.774414,-59.265816,5.6270194,CSO
2318782826000,2.829769,1.21293938729901,9.93077980036134,2.86420065943993,0.4447099,-2.0726657,-2.2925773,99.425896,-59.67648,5.3649898,CSO
2318787799000,2.834742,1.20433497421861,9.90496692050587,2.6921121732159,0.40133846,-2.1206186,-2.2446244,100.07197,-60.06989,5.115642,CSO
2318792846000,2.839789,1.23495890174721,9.91263757169841,2.52327971201007,0.3200934,-2.060143,-2.2525656,100.61093,-60.469643,4.9939985,CSO
2318797798000,2.844741,1.45144022351645,10.080597127184,2.38517959408154,0.25137106,-1.9547688,-2.2495112,101.12758,-60.843838,4.8838143,CSO
2318802877000,2.84982,1.67347346932945,10.2528642076184,2.24353773241776,0.22082779,-1.8729129,-2.2162192,101.64531,-61.237263,4.7645693,CSO
2318807825000,2.854768,1.94766184644559,10.3843374296724,2.07419595196228,0.17837265,-1.7996091,-2.195755,102.126144,-61.595078,4.6277075,CSO
2318812848000,2.859791,2.25986913408376,10.4965371194605,1.88394466948585,0.1020145,-1.7061466,-2.1777346,102.56397,-61.920677,4.4835854,CSO
2318817811000,2.864754,2.53755073279303,10.5488278632923,1.77896345025614,0.03268129,-1.6081028,-2.171015,102.922905,-62.270287,4.3963284,CSO
2318822818000,2.869761,2.80152169458674,10.5708253190229,1.71663696200015,-0.016798794,-1.5082263,-2.1642957,103.24368,-62.591118,4.2970257,CSO
2318827818000,2.874761,3.07027095538514,10.5885206223625,1.65585272220998,-0.042760566,-1.3753631,-2.1407773,103.56419,-62.948322,4.2075844,CSO
2318832818000,2.879761,3.46791823103974,10.4992529755529,1.63150694642827,-0.050701816,-1.2366967,-2.121535,103.84646,-63.284515,4.101379,CSO
2318837823000,2.884766,3.86596315397,10.4098960610965,1.60713682487077,-0.054367006,-1.1737776,-2.1169536,104.21925,-63.65229,3.982892,CSO
2318842884000,2.889827,4.03957423364047,10.3467241589882,1.62234967692107,-0.060170226,-1.0467176,-2.1126773,104.52754,-64.00424,3.841943,CSO
2318848777000,2.89572,4.11806659627956,10.2878540930111,1.66159596069193,-0.056199603,-0.91782504,-2.1013765,104.80813,-64.34608,3.6949177,CSO
2318852797000,2.89974,4.14523354542199,10.2541482997442,1.70336368465473,-0.05131268,-0.795652,-2.0830505,105.12613,-64.687195,3.5661442,CSO
2318857831000,2.904774,4.14112364705882,10.2212689411765,1.77734267058824,-0.06261369,-0.68477994,-2.062892,105.40438,-65.014145,3.426427,CSO
2318862952000,2.909895,4.13209360106341,10.1846353079914,1.85562201741132,-0.08857546,-0.56505036,-2.025629,105.67138,-65.32244,3.2784314,CSO
2318867808000,2.914751,4.04721040506309,10.099752227601,1.97741112170463,-0.12675454,-0.49327368,-1.9715676,105.911095,-65.613525,3.13381,CSO
2318872765000,2.919708,3.96056172249028,10.0131036630426,2.10173331898262,-0.15210545,-0.44868052,-1.9281962,106.14346,-65.87706,2.9769099,CSO
2318877827000,2.92477,3.70526045911597,9.89537731483715,2.21303872302257,-0.18020524,-0.39706242,-1.9339994,106.34933,-66.1209,2.814179,CSO
2318882860000,2.929803,3.28995742938135,9.75002136067551,2.30855843677408,-0.22510384,-0.35460728,-1.9556851,106.53773,-66.344406,2.6566367,CSO
2318887803000,2.934746,2.81704192468659,9.61930047858337,2.43794676452152,-0.26542094,-0.31123585,-1.9651535,106.734695,-66.51736,2.467248,CSO
2318892880000,2.939823,2.04495036055161,9.53802763769327,2.72748109444212,-0.27091873,-0.28710666,-1.9572122,106.92182,-66.681404,2.277863,CSO
2318897781000,2.944724,1.41105714243315,9.47597045663542,2.97105155861865,-0.24923302,-0.28099802,-1.9578232,107.11146,-66.805176,2.0125723,CSO
2318902855000,2.949798,1.06105535593488,9.45679238875185,3.12447690271337,-0.26267207,-0.30298916,-1.9388863,107.29508,-66.91058,1.7608061,CSO
2318907802000,2.954745,0.719871198129562,9.43915810127737,3.26912504166667,-0.26511553,-0.3436117,-1.9291124,107.476295,-66.95918,1.4080383,CSO
2318912857000,2.9598,0.37141582709854,9.42443433759124,3.40163625,-0.2968805,-0.38087448,-1.9004018,107.65395,-66.988106,1.0762706,CSO
2318917855000,2.964798,0.0463451200330537,9.4185983496059,3.51622206519197,-0.32498032,-0.4279111,-1.8750509,107.84969,-66.9787,0.7030472,CSO
2318922895000,2.969838,-0.231827891713705,9.43496179735571,3.58985612773964,-0.34483343,-0.48533243,-1.8509218,108.0505,-66.956154,0.35290614,CSO
2318927834000,2.974777,-0.50442640461395,9.45099732680736,3.66201458704975,-0.3576616,-0.552833,-1.8368717,108.29118,-66.89874,-0.038751077,CSO
2318932875000,2.979818,-0.850479891371056,9.44264446267682,3.76456045586507,-0.34880406,-0.61850107,-1.7980819,108.5365,-66.83616,-0.40010715,CSO
2318937812000,2.984755,-1.18169015394964,9.43061793756468,3.86167314122111,-0.3549127,-0.65148777,-1.7944167,108.78875,-66.760506,-0.7524404,CSO
2318942834000,2.989777,-1.35588625325974,9.39743791790272,3.89070581000345,-0.35827246,-0.7101309,-1.7974709,109.095276,-66.6671,-1.1482178,CSO
2318947858000,2.994801,-1.53015172576751,9.36424468437392,3.91975004097965,-0.34880406,-0.74036866,-1.7650951,109.42352,-66.54768,-1.5881454,CSO
2318952706000,2.999649,-1.59941965964034,9.37815821875958,3.94810831973025,-0.31887165,-0.7495316,-1.7168368,109.75625,-66.426834,-2.0095427,CSO
2318957694000,3.004637,-1.63846662267293,9.40744303330949,3.9773935420047,-0.2941316,-0.77182823,-1.6881261,110.09497,-66.30169,-2.4121377,CSO
2318962697000,3.00964,-1.63508577228497,9.43825093983493,3.9314102465682,-0.2761111,-0.80848014,-1.6557503,110.44885,-66.16571,-2.8312027,CSO
2318967703000,3.014646,-1.6194662694179,9.46949005430061,3.86372573414422,-0.25900686,-0.84971356,-1.6371188,110.80442,-66.03136,-3.2333477,CSO
2318972687000,3.01963,-1.48100980687432,9.44928934728697,3.79736967979367,-0.24770586,-0.8542951,-1.6093245,111.1635,-65.89127,-3.6302729,CSO
2318977714000,3.024657,-1.33296692578117,9.42541147128261,3.73051152724928,-0.23273966,-0.8555168,-1.5900823,111.527504,-65.75296,-4.010705,CSO
2318982686000,3.029629,-1.12188921617647,9.33009654295665,3.66164056393189,-0.21074851,-0.84940815,-1.5497651,111.8836,-65.62794,-4.377891,CSO
2318987677000,3.03462,-0.904542175735294,9.22835952767028,3.59227454883901,-0.19150625,-0.82802784,-1.5085317,112.22943,-65.5036,-4.732263,CSO
2318992709000,3.039652,-0.6690294826979,9.10959219426494,3.5775939677706,-0.15393804,-0.8023715,-1.4703526,112.5665,-65.397446,-5.0577483,CSO
2318997676000,3.044619,-0.433687004523425,8.98951958319871,3.57279106332795,-0.124005646,-0.7791586,-1.4159856,112.88719,-65.29533,-5.3619404,CSO
2319002723000,3.049666,-0.247238408191733,8.90920478872479,3.54190748416787,-0.103847094,-0.78038037,-1.3573426,113.20809,-65.203674,-5.62933,CSO
2319007771000,3.054714,-0.0687358397025396,8.83519139823487,3.50707764800072,-0.08032878,-0.7684685,-1.2996159,113.50836,-65.123085,-5.879716,CSO
2319012790000,3.059733,0.0758401006751901,8.74106328403594,3.45440776890117,-0.06780604,-0.7620544,-1.2412782,113.82483,-65.04266,-6.0854173,CSO
2319017770000,3.064713,0.202969867627505,8.63747643242176,3.39319718226873,-0.0711658,-0.75686204,-1.1704178,114.12656,-64.96852,-6.2686815,CSO
2319022759000,3.069702,0.290871675807274,8.53416981011666,3.32916125983727,-0.07452556,-0.7467828,-1.0891727,114.428085,-64.90521,-6.4109116,CSO
2319027815000,3.074758,0.357324441834134,8.42974390677385,3.26270843929027,-0.09682214,-0.73548174,-1.0122037,114.71721,-64.84055,-6.532601,CSO
2319032758000,3.079701,0.404398529432836,8.27351175309169,3.19126153074627,-0.10873401,-0.7287622,-0.926988,115.002815,-64.791756,-6.614119,CSO
2319037756000,3.084699,0.440118601358209,8.07960267398721,3.11471865268657,-0.12095132,-0.71929383,-0.8750645,115.27724,-64.74033,-6.683125,CSO
2319042755000,3.089698,0.407502957912857,8.00264026929413,3.02797797051314,-0.14508049,-0.70341134,-0.79504114,115.54129,-64.69597,-6.7185903,CSO
2319047822000,3.094765,0.347550298216786,7.97066550020591,2.9360505041677,-0.1423316,-0.6945538,-0.73426,115.79888,-64.65862,-6.74384,CSO
2319052821000,3.099764,0.287363194913672,7.94329391114326,2.84849177181521,-0.103847094,-0.6948592,-0.68111473,116.05265,-64.629,-6.7507033,CSO
2319057876000,3.104819,0.224110685207653,7.92522182616892,2.767167129958,-0.07727446,-0.68752885,-0.63529986,116.29408,-64.60156,-6.744191,CSO
2319062819000,3.109762,0.163488265803119,7.90896002533244,2.68361218358366,-0.04428773,-0.6713409,-0.600786,116.52701,-64.60352,-6.745395,CSO
2319067804000,3.114747,0.108682509101693,7.89982573890749,2.57856784200708,-0.0033597588,-0.64568454,-0.5714644,116.74919,-64.618,-6.737154,CSO
2319072887000,3.11983,0.0578740451938537,7.89294161904956,2.4787401766358,0.040317107,-0.5885687,-0.5503896,116.951935,-64.65348,-6.744541,CSO
2319077828000,3.124771,0.0626892500590211,7.91220241839829,2.45947932700722,0.08552113,-0.52106804,-0.52473325,117.13986,-64.70253,-6.7467566,CSO
2319082793000,3.129736,0.0729847283893637,7.93142585954416,2.44940518594492,0.14385876,-0.4392121,-0.50976706,117.30427,-64.78244,-6.7709794,CSO
2319087807000,3.13475,0.132266340803419,7.94966624871795,2.52236721880342,0.1881465,-0.36163223,-0.49846604,117.44832,-64.8711,-6.7963185,CSO
2319093102000,3.140045,0.194821337608466,7.96417977213527,2.60845552723218,0.23976462,-0.2837469,-0.46853364,117.56948,-64.98333,-6.824231,CSO
2319097810000,3.144753,0.249667995128538,7.90202035090423,2.82784210386019,0.28802297,-0.2098322,-0.43493605,117.6686,-65.10586,-6.856128,CSO
2319102778000,3.149721,0.307543567464926,7.83642816639364,3.05934433680156,0.3313944,-0.13927728,-0.38973203,117.75175,-65.231094,-6.874611,CSO
2319107859000,3.154802,0.29967344900453,7.75592325250184,3.23002499612346,0.35918877,-0.07696902,-0.34147367,117.81269,-65.36591,-6.8905,CSO
2319112876000,3.159819,0.2338766593353,7.66481996542716,3.34137348746445,0.39767328,-0.018936822,-0.2779437,117.84863,-65.517944,-6.897643,CSO
2319117872000,3.164815,0.130785845534176,7.59942173061459,3.42278439773119,0.45051312,0.04337143,-0.22540927,117.88916,-65.621346,-6.8880405,CSO
2319122831000,3.169774,0.0080338435992246,7.54827510022975,3.48757016515652,0.48472157,0.12064589,-0.17715092,117.90329,-65.733185,-6.8710575,CSO
2319127873000,3.174816,-0.116772688716973,7.49627241614015,3.55344026787048,0.53786683,0.18997909,-0.1337795,117.9101,-65.83311,-6.8631763,CSO
2319132803000,3.179746,-0.34589054642788,7.47337291196515,3.62533222447241,0.5919284,0.22693644,-0.10995574,117.901726,-65.943184,-6.8527293,CSO
2319137770000,3.184713,-0.59455193357212,7.45495346803485,3.69900961552759,0.6068946,0.2950479,-0.07086037,117.86008,-66.05988,-6.8381386,CSO
2319142847000,3.18979,-0.866828720376088,7.46842819612686,3.79002597754701,0.64568454,0.35308012,-0.049480084,117.81607,-66.15761,-6.8641405,CSO
2319147806000,3.194749,-1.13785261473477,7.49064325422397,3.88332931434185,0.677755,0.3921755,-0.015577064,117.75341,-66.26011,-6.8815913,CSO
2319152809000,3.199752,-1.35350637705196,7.55906205967383,4.01853351305588,0.691194,0.4297437,0.009773844,117.686005,-66.33356,-6.958341,CSO
2319157850000,3.204793,-1.53850743815168,7.65371389908208,4.17772057499332,0.70157874,0.42241332,0.03756821,117.61649,-66.41633,-7.023644,CSO
2319162896000,3.209839,-1.70396889141151,7.74906029250166,4.31098667274623,0.70921457,0.39064834,0.05100725,117.55116,-66.458755,-7.153987,CSO
2319167805000,3.214748,-1.83766656974121,7.84264856960849,4.40457490331785,0.7162395,0.3313944,0.07086037,117.49177,-66.5057,-7.2691875,CSO
2319172800000,3.219743,-1.93064827295174,7.97231019427609,4.46592415491957,0.70952,0.25534168,0.09407325,117.459076,-66.50877,-7.4173875,CSO
2319177823000,3.224766,-1.9171510040404,8.18826706060606,4.44342870673401,0.7147123,0.15210545,0.14385876,117.44448,-66.52113,-7.540711,CSO
2319182839000,3.229782,-1.90365881886473,8.37296435018356,4.39401525425021,0.7312057,0.09040806,0.20158553,117.43982,-66.51659,-7.676669,CSO
2319187833000,3.234776,-1.89015226544291,8.39097293137532,4.20042185466441,0.7528914,0.03634648,0.26419923,117.4543,-66.52059,-7.7845716,CSO
2319193144000,3.240087,-1.8803572842072,8.408437,4.00937882072015,0.8020661,-0.028405234,0.31642818,117.479256,-66.57513,-7.854863,CSO
2319197863000,3.244806,-1.91366439162982,8.408437,3.97607176298168,0.8561276,-0.043066,0.3640757,117.49849,-66.64181,-7.9077234,CSO
2319202878000,3.249821,-1.94160509932688,8.41527543983402,3.92948083264177,0.9300423,-0.050396383,0.4092797,117.51243,-66.77414,-7.9383044,CSO
2319207880000,3.254823,-1.92393680846473,8.46386333195021,3.81463684979253,1.0164797,-0.061086524,0.44868052,117.526665,-66.92565,-7.955405,CSO
2319213208000,3.260151,-1.90427224252943,8.51584429650589,3.69279776358526,1.1023064,-0.07849618,0.48624873,117.53611,-67.10123,-7.9669485,CSO
2319217812000,3.264755,-1.8674315346221,8.56608140292442,3.59902143526016,1.1679744,-0.077579886,0.5158757,117.54032,-67.29373,-7.9709673,CSO
2319222812000,3.269755,-1.82742207772883,8.62063951154577,3.49717920206608,1.2024882,-0.056505036,0.5491679,117.52772,-67.533295,-7.956665,CSO
2319227828000,3.274771,-1.78571471847657,8.6574335,3.35159971223111,1.2076806,-0.03390302,0.57848936,117.512405,-67.779526,-7.936447,CSO
2319232811000,3.279754,-1.74108297703419,8.6574335,3.11852295532578,1.2116512,0.042760566,0.59712076,117.47512,-68.0312,-7.9186635,CSO
2319237794000,3.284737,-1.70456240712613,8.68261710170009,2.92801971682785,1.2226468,0.1328632,0.6249151,117.414055,-68.32164,-7.881518,CSO
2319243516000,3.290459,-1.67666947747124,8.75513877705385,2.78297642437137,1.2437216,0.2275473,0.65240407,117.33032,-68.61134,-7.8485003,CSO
2319247794000,3.294737,-1.70387554186499,8.84583985090836,2.75300812259838,1.278541,0.31948254,0.68752885,117.20942,-68.95516,-7.8050666,CSO
2319252852000,3.299795,-1.79155176901522,8.99521411610914,2.80821166423544,1.3090842,0.42424592,0.7312057,117.05769,-69.29994,-7.763144,CSO
2319257965000,3.304908,-1.88018137546424,9.14621265663337,2.8640154816317,1.3521502,0.51068336,0.75411314,116.87417,-69.683014,-7.716965,CSO
2319262875000,3.309818,-1.9249382,9.222465,2.8921957,1.389413,0.591623,0.7797695,116.661736,-70.06955,-7.668175,CSO
2319267860000,3.314803,-1.9249382,9.222465,2.8921957,1.4114041,0.62980205,0.8005389,116.43849,-70.457214,-7.6190357,CSO
2319272795000,3.319738,-1.98585591938227,9.35300284028932,2.9734193056495,1.4199562,0.6264423,0.80481493,116.206764,-70.83459,-7.59103,CSO
2319277884000,3.324827,-2.08589150309843,9.56736459221972,3.10680005077705,1.4077389,0.589485,0.78954333,115.97666,-71.20398,-7.5631986,CSO
2319282830000,3.329773,-2.16939114644733,9.68307480677716,3.04401260032819,1.38025,0.51923543,0.75808376,115.76185,-71.56459,-7.533144,CSO
2319287850000,3.334793,-2.24433655849196,9.73435352190679,2.84284306110929,1.3552046,0.4260785,0.6939429,115.57032,-71.90879,-7.5116153,CSO
2319292802000,3.339745,-2.28697294277463,9.77520551738009,2.64139098982981,1.3347405,0.3286455,0.6065892,115.41211,-72.21669,-7.510687,CSO
2319297863000,3.344806,-2.13199468234141,9.75520843362558,2.41642246643631,1.3185526,0.22602014,0.5161811,115.28839,-72.503654,-7.5202284,CSO
2319302703000,3.349646,-1.97968110017305,9.71926407397794,2.18270093782176,1.350623,0.12736541,0.43035457,115.1818,-72.82359,-7.558836,CSO
2319307738000,3.354681,-1.80236621817002,9.60453076768332,1.85414682128488,1.4104879,0.08674286,0.3747658,115.09323,-73.1302,-7.6094503,CSO
2319312705000,3.359648,-1.60569763247473,9.467522593993,1.59004869353616,1.4566082,0.084910266,0.32803464,115.018616,-73.48024,-7.6413994,CSO
2319317690000,3.364633,-1.3643971278577,9.28190644848367,1.44619650783437,1.5201381,0.09682214,0.30024028,114.95473,-73.834526,-7.6807876,CSO
2319322690000,3.369633,-1.10951682222619,9.11260099583333,1.30878280265873,1.5925257,0.10995574,0.28405234,114.873726,-74.25516,-7.694054,CSO
2319327715000,3.374658,-0.818293515529762,8.98847302708333,1.18942898271825,1.6380352,0.13316862,0.28496864,114.78792,-74.67096,-7.711546,CSO
2319332695000,3.379638,-0.544517375613724,8.896853,1.10427387106959,1.7229455,0.160963,0.32436943,114.6873,-75.15005,-7.6750617,CSO
2319337691000,3.384634,-0.313304129292848,8.896853,1.11583452493557,1.7788396,0.19120082,0.38637227,114.57893,-75.623955,-7.634113,CSO
2319344196000,3.391139,-0.00825160632703003,8.92112420088988,1.14068184048943,1.8530598,0.22876903,0.48288897,114.454025,-76.17449,-7.5144787,CSO
2319347694000,3.394637,0.192969995437152,9.1596092028921,1.24501893159066,1.858863,0.22021692,0.5152648,114.33543,-76.70879,-7.396244,CSO
2319353041000,3.399984,0.493685555182954,9.5259375602805,1.40202875376247,1.863139,0.21044308,0.61178154,114.19823,-77.30618,-7.177448,CSO
2319357768000,3.404711,0.611712812528095,9.88815928751236,1.48749680653601,1.8777997,0.20005837,0.69027776,114.06539,-77.89763,-6.957172,CSO
2319362717000,3.40966,0.735283131250562,10.2673924857502,1.57697880213072,1.9068159,0.22174409,0.7623598,113.922295,-78.51914,-6.654982,CSO
2319367736000,3.414679,0.848520727066849,10.7113803238745,1.5927366073397,1.9052887,0.2593123,0.8210029,113.7773,-79.13552,-6.3398952,CSO
2319372710000,3.419653,0.956831420545703,11.1706178234652,1.58407175909959,1.8777997,0.32528573,0.8881981,113.61736,-79.75379,-6.0097485,CSO
2319377787000,3.42473,0.967405323889724,11.6334599904762,1.59107577075689,1.824349,0.35308012,0.9275989,113.46098,-80.37773,-5.63743,CSO
2319382768000,3.429711,0.900455041253133,12.0829833809524,1.61020440867168,1.7794504,0.37965274,0.93554014,113.28805,-80.98975,-5.265316,CSO
2319387742000,3.434685,0.723335038693089,12.4009288865854,1.43740275174797,1.7479908,0.4541783,0.89980453,113.092186,-81.61277,-4.8708677,CSO
2319392773000,3.439716,0.458927592174797,12.6212682804878,1.11423810284553,1.6352862,0.5589417,0.8356637,112.884346,-82.188095,-4.4934163,CSO
2319397761000,3.444704,0.311932305516494,12.8695793017233,0.76588143203742,1.4553864,0.6835582,0.743423,112.65715,-82.71906,-4.151431,CSO
2319402755000,3.449698,0.241287437240768,13.1380297923191,0.398528142576071,1.2284501,0.79504114,0.6478226,112.40931,-83.18753,-3.8401184,CSO
2319407789000,3.454732,0.267214000810573,13.4184904405286,0.137138192572687,1.031446,0.8689558,0.5742133,112.13208,-83.62686,-3.6031063,CSO
2319412756000,3.459699,0.36500430167303,13.7025478947626,-0.039815702081253,0.8866709,0.91904676,0.5510005,111.8348,-84.00701,-3.3868873,CSO
2319417786000,3.464729,0.383361713210821,13.8835174577425,-0.138718975869403,0.79901177,0.95294976,0.55680364,111.507614,-84.39732,-3.1958284,CSO
2319422777000,3.46972,0.329856675425373,13.9682336302239,-0.16547149941791,0.72204274,0.9602802,0.5503896,111.17875,-84.74043,-3.0198448,CSO
2319427780000,3.474723,0.263888421152592,13.9680449476286,-0.18195933,0.68691796,0.9486737,0.5467244,110.84517,-85.11383,-2.8202255,CSO
2319432770000,3.479713,0.178453512876223,13.8323541010622,-0.18195933,0.61208695,0.915687,0.5338962,110.52057,-85.44713,-2.6299503,CSO
2319437756000,3.484699,0.0347961015704388,13.5677250178984,-0.0539994794168591,0.5540548,0.86193085,0.5222898,110.20852,-85.76616,-2.4534636,CSO
2319442803000,3.489746,-0.174503027282525,13.1584289562163,0.215763831315435,0.49754974,0.7693848,0.49449542,109.92164,-86.05457,-2.2886038,CSO
2319447764000,3.494707,-0.43334535338128,12.6956269707182,0.48622686448988,0.4529566,0.6805039,0.4596761,109.652664,-86.31331,-2.1451497,CSO
2319452753000,3.499696,-0.772062049520189,12.140917114456,0.766036305783417,0.40103304,0.59773165,0.42424592,109.41213,-86.545746,-2.012157,CSO
2319457806000,3.504749,-1.148557635995,11.4747562374201,0.987893392558584,0.36560285,0.52198434,0.40775254,109.20816,-86.696884,-1.9259483,CSO
2319462793000,3.509736,-1.55903770490707,10.695896593183,1.13524524833248,0.3200934,0.45753807,0.37140608,109.027374,-86.82129,-1.8564917,CSO
2319467811000,3.514754,-1.972069384434,9.91219543120546,1.28351306711599,0.29901853,0.38881573,0.34513888,108.88365,-86.85862,-1.8529537,CSO
2319472752000,3.519695,-2.21067334691788,9.43512571001433,1.3215994,0.27550024,0.33658674,0.32436943,108.75523,-86.879326,-1.857657,CSO
2319477776000,3.524719,-2.39296028199877,9.05577204054884,1.3215994,0.25595254,0.24678956,0.30115658,108.65856,-86.891045,-1.869078,CSO
2319482789000,3.529732,-2.50002307678994,8.78158606667928,1.34291958595479,0.25961772,0.18875736,0.28619036,108.58284,-86.80961,-1.9781458,CSO
2319487789000,3.534732,-2.5860721167975,8.53702586616854,1.37009290478578,0.24862215,0.1441642,0.25534168,108.52945,-86.71324,-2.0958583,CSO
2319492811000,3.539754,-2.57453210525114,8.37952042808219,1.35755606175799,0.23548855,0.10323623,0.23701571,108.50003,-86.605934,-2.23157,CSO
2319497791000,3.544734,-2.51555160410959,8.26609609589041,1.32579742876712,0.23426682,0.081855945,0.23579398,108.4774,-86.49517,-2.3693898,CSO
2319502786000,3.549729,-2.4229019698181,8.23112635638895,1.29576374024253,0.21563543,0.07086037,0.2406809,108.4703,-86.36609,-2.5181434,CSO
2319507831000,3.554774,-2.30355216425631,8.25644274721162,1.26683042543604,0.19975294,0.046120327,0.24587326,108.47257,-86.23629,-2.665408,CSO
2319513046000,3.559989,-2.18018066058837,8.28261221760611,1.23692215254884,0.17623462,0.0061086523,0.2593123,108.47425,-86.11866,-2.791754,CSO
2319517832000,3.564775,-2.01119560302661,8.33231955250863,1.14744077883404,0.15332718,-0.03573562,0.2761111,108.482765,-85.99962,-2.9143577,CSO
2319522762000,3.569705,-1.83377273414585,8.38506744810075,1.05153655651026,0.13439035,-0.059864793,0.27855456,108.49695,-85.87673,-3.0359638,CSO
2319527784000,3.574727,-1.70422286178742,8.42773977258135,0.878507729322343,0.12889257,-0.112399206,0.2773328,108.5287,-85.782814,-3.122067,CSO
2319533017000,3.57996,-1.57377050587419,8.47122384581345,0.691526046423427,0.12034045,-0.17837265,0.28221974,108.57033,-85.68704,-3.2044876,CSO
2319537793000,3.584736,-1.48213569976761,8.58296939794855,0.546092086530171,0.1518,-0.2507602,0.2660318,108.62482,-85.63185,-3.2578237,CSO
2319542819000,3.589762,-1.40113618596041,8.74111138640917,0.407235684512381,0.18753563,-0.3051272,0.27947086,108.691505,-85.58356,-3.3001876,CSO
2319547768000,3.594711,-1.31473079812886,8.9707192776699,0.282678932031774,0.23609942,-0.35460728,0.29229903,108.76143,-85.58976,-3.314793,CSO
2319552698000,3.599641,-1.18138239150927,9.72497098640777,0.245174703276258,0.28924468,-0.40133846,0.2846632,108.844955,-85.601265,-3.3307865,CSO
2319557710000,3.604653,-1.04581601950574,10.4917680582524,0.207046671932921,0.3555236,-0.45906523,0.2657264,108.93591,-85.66391,-3.3226626,CSO
2319562723000,3.609666,-1.02021401173333,10.9714455316667,0.20561723297,0.40011674,-0.50946164,0.26236662,109.03635,-85.73159,-3.3123605,CSO
2319568267000,3.61521,-1.02198024904336,11.3896810773665,0.215663384192497,0.4437936,-0.550695,0.27122417,109.1488,-85.806595,-3.3038921,CSO
2319572720000,3.619663,-1.06117323423009,11.4609409827889,0.244167364963656,0.48380527,-0.5687156,0.2565634,109.24741,-85.91734,-3.2646976,CSO
2319579705000,3.626648,-1.12550000983188,11.5532407891041,0.284296035147904,0.5015204,-0.5873469,0.23090707,109.35709,-86.03831,-3.2161415,CSO
2319582742000,3.629685,-1.18739567267504,11.3613639822303,0.247158650368163,0.5225952,-0.5867361,0.22021692,109.46405,-86.16118,-3.1691685,CSO
2319587730000,3.634673,-1.28905374520111,11.0462235434135,0.186163828082571,0.5216789,-0.5907067,0.17684549,109.582695,-86.25778,-3.1448421,CSO
2319592738000,3.639681,-1.35508633638119,10.587446484986,0.125730146539732,0.52320606,-0.5766568,0.12461651,109.69365,-86.347435,-3.127416,CSO
2319597722000,3.644665,-1.41038900634354,10.089722599691,0.0658189305320073,0.5128214,-0.54336464,0.08827003,109.803116,-86.41242,-3.136763,CSO
2319602696000,3.649639,-1.34692083046695,9.7073234169583,-0.0554795965335466,0.5183192,-0.51007247,0.03023783,109.906586,-86.454414,-3.167272,CSO
2319607722000,3.654665,-1.23141308840116,9.37042612908709,-0.204677068391561,0.52778757,-0.48808134,-0.008857546,110.00138,-86.48412,-3.2025568,CSO
2319612710000,3.659653,-1.02405565939551,9.23041537601909,-0.298913864457149,0.54336464,-0.47342056,-0.03604105,110.10176,-86.491425,-3.2617767,CSO
2319617678000,3.664621,-0.778078905368861,9.17365135772519,-0.369868694689799,0.5708536,-0.45173484,-0.03970624,110.19155,-86.488205,-3.3246944,CSO
2319622660000,3.669603,-0.55407023584062,9.22311113334658,-0.411987305253378,0.57818395,-0.43157628,-0.04917465,110.26818,-86.49397,-3.375988,CSO
2319627673000,3.674616,-0.339405695707472,9.32328844674086,-0.440609248918919,0.59620446,-0.4089743,-0.04153884,110.33542,-86.49504,-3.423079,CSO
2319632665000,3.679608,-0.144469708712438,9.47070762606965,-0.412054269868657,0.59681535,-0.37384954,-0.03573562,110.375534,-86.52812,-3.427246,CSO
2319637670000,3.684613,0.0415347567004975,9.64240352855721,-0.354822124749254,0.5852089,-0.32345316,-0.029932396,110.40254,-86.55161,-3.4297595,CSO
2319642696000,3.689639,0.16959927011876,9.81757495954427,-0.2372767862605,0.54000485,-0.24801129,-0.015882496,110.417274,-86.60941,-3.3866036,CSO
2319647668000,3.694611,0.266145908882881,9.99227856753886,-0.090158095419523,0.4914411,-0.1777618,-0.0106901415,110.4174,-93.34583,-3.3457634,CSO
2319652663000,3.699606,0.33195617694132,10.1558848799027,0.0392651985101855,0.41325033,-0.11911872,-0.018936822,110.41265,-93.27688,-3.272148,CSO
2319657699000,3.704642,0.37594717576163,10.3122974154252,0.156574528697679,0.33536503,-0.07086037,-0.014966198,110.390274,-93.211006,-3.1956081,CSO
2319662671000,3.709614,0.384154868869565,10.4339729565217,0.283223652521739,0.24862215,-0.028710667,-0.0033597588,110.364204,-93.127754,-3.1025205,CSO
2319667665000,3.714608,0.370292094233816,10.535633426087,0.417230482042512,0.18936823,-0.009773844,-0.0018325958,110.33143,-93.0489,-3.0135143,CSO
2319672663000,3.719606,0.324129013539723,10.5770666070733,0.526587930738083,0.11728613,0.0027488936,0.014966198,110.299416,-92.946945,-2.9074829,CSO
2319677672000,3.724615,0.250366489809329,10.5672314060482,0.615102968457201,0.06414085,-0.014049901,0.02076942,110.271484,-92.848656,-2.8069012,CSO
2319682667000,3.72961,0.116272238776728,10.5041941846842,0.654033555077076,0.02565634,-0.032070424,0.02443461,110.25572,-92.74493,-2.7078407,CSO
2319687663000,3.734606,-0.0597886147886623,10.4042677254102,0.658791953167578,0.004581489,-0.032070424,0.019242255,110.24085,-92.643364,-2.6123116,CSO
2319692713000,3.739656,-0.29264294178515,10.2730845185624,0.621853261157188,-0.0033597588,-0.048258353,0.016187929,110.23735,-92.54476,-2.522251,CSO
2319697680000,3.744623,-0.560353844826224,10.1227905922196,0.556099705163902,0.016187929,-0.054367006,0.013439035,110.23231,-92.451385,-2.435937,CSO
2319702717000,3.74966,-0.821785118666667,9.95846590452555,0.484700151540633,0.021685716,-0.07544186,-0.009773844,110.2444,-92.401085,-2.3921442,CSO
2319707730000,3.754673,-1.07409275066667,9.78558839153285,0.40994232417129,0.045814894,-0.105374254,-0.03359759,110.261375,-92.35528,-2.3504145,CSO
2319712720000,3.759663,-1.30112405900387,9.6384075085822,0.339627450983232,0.07422013,-0.11484267,-0.049480084,110.28369,-92.36943,-2.366722,CSO
2319717725000,3.764668,-1.50561577574164,9.51476181158845,0.273048745119556,0.08979719,-0.14813483,-0.06352998,110.321106,-92.390076,-2.3887873,CSO
2319722725000,3.769668,-1.65658273045938,9.4364158441546,0.205363593181932,0.11362094,-0.1957823,-0.08032878,110.36763,-92.464966,-2.4639492,CSO
2319727768000,3.774711,-1.75385067512228,9.40399303471756,0.135886502840702,0.14782938,-0.24556783,-0.092240654,110.42353,-92.541115,-2.5401492,CSO
2319732701000,3.779644,-1.8100165,9.40255662364919,0.0611967935982852,0.18417588,-0.2874121,-0.09285152,110.49511,-92.65606,-2.6544898,CSO
2319737698000,3.784641,-1.8100165,9.44529599097973,-0.0242819981866571,0.21013765,-0.3378085,-0.106901415,110.58216,-92.77648,-2.7739642,CSO
2319742737000,3.78968,-1.79816362602796,9.49627836266447,-0.106774303510691,0.24312437,-0.37904188,-0.103847094,110.67806,-92.91004,-2.9049835,CSO
2319747707000,3.79465,-1.72966504039885,9.58434770271382,-0.170380129520148,0.2782491,-0.40469822,-0.102319926,110.782394,-93.04688,-3.0381153,CSO
2319752758000,3.799701,-1.617959197645,9.68680461102713,-0.22026655,0.30482176,-0.42943826,-0.09285152,110.89386,-93.18243,-3.166908,CSO
2319758939000,3.805882,-1.30712940011139,9.8657674035325,-0.22026655,0.32742378,-0.43066,-0.08246681,111.00405,-93.31736,-3.292683,CSO
2319762888000,3.809831,-1.10854229924417,9.98010554745803,-0.22026655,0.344528,-0.4269948,-0.07696902,111.11237,-93.43892,-3.401035,CSO
2319767766000,3.814709,-0.941176447041795,10.0640197524878,-0.210930593003438,0.35308012,-0.4373795,-0.062308256,111.2231,-93.55559,-3.501866,CSO
2319772774000,3.819717,-0.797997346480912,10.1291011000543,-0.197914314429166,0.3399465,-0.41996986,-0.038179077,111.32289,-93.66767,-3.5964255,CSO
2319777785000,3.824728,-0.655028891734391,10.1918803480494,-0.173885607552032,0.33536503,-0.39675698,-0.031154128,111.41437,-93.7183,-3.6257632,CSO
2319782781000,3.829724,-0.512772025213082,10.2522316139292,-0.139399095956392,0.30726522,-0.37201694,-0.021991149,111.4986,-93.76058,-3.647087,CSO
2319787773000,3.834716,-0.390864388196938,10.3068448900019,-0.112304393217161,0.2782491,-0.35216382,-0.010079277,111.57839,-93.77129,-3.6354096,CSO
2319792786000,3.839729,-0.318275413917029,10.3476765377055,-0.103230770366282,0.2312125,-0.32498032,-0.0061086523,111.647354,-93.77971,-3.623633,CSO
2319797801000,3.844744,-0.25857377,10.3749417798114,-0.103664635905343,0.19394971,-0.30573806,-0.005497787,111.71453,-93.75046,-3.5748324,CSO
2319802795000,3.849738,-0.25857377,10.3395738452579,-0.147874815384359,0.1704314,-0.26267207,0.0015271631,111.766014,-93.717545,-3.52412,CSO
2319808028000,3.854971,-0.263411191057224,10.30150063853,-0.193229226965934,0.12950343,-0.2275473,-0.004886922,111.810486,-93.669106,-3.4625263,CSO
2319812861000,3.859804,-0.341083137799966,10.2510132664877,-0.220414401837557,0.121256754,-0.21471913,-0.009773844,111.8485,-93.6213,-3.4001625,CSO
2319817780000,3.864723,-0.420137204844773,10.1996275054539,-0.248083318699446,0.09193522,-0.17348573,-0.013439035,111.85963,-93.57237,-3.3390756,CSO
2319822829000,3.869772,-0.528537277868313,10.136225781893,-0.255436678312757,0.07788532,-0.14630222,-0.02565634,111.870926,-93.52957,-3.2835076,CSO
2319827874000,3.874817,-0.652804228243827,10.0666364429012,-0.250466003827161,0.07574729,-0.124311075,-0.04734206,111.871925,-93.49019,-3.2330499,CSO
2319832830000,3.879773,-0.769267779714533,9.97909032439446,-0.239428447768166,0.060170226,-0.111177474,-0.051923547,111.86791,-93.46863,-3.2019877,CSO
2319837873000,3.884816,-0.885318896251442,9.88160735063437,-0.225502312814302,0.044898596,-0.12186762,-0.053450707,111.86447,-93.452515,-3.1770084,CSO
2319842920000,3.889863,-0.984765510209933,9.80309558762601,-0.234220368695089,0.040927973,-0.12583824,-0.061086524,111.85726,-93.46185,-3.1804767,CSO
2319847900000,3.894843,-1.07297877452141,9.73693569120503,-0.256273690529918,0.036651913,-0.13897185,-0.04734206,111.855896,-93.46415,-3.1783848,CSO
2319852695000,3.899638,-1.12485697848812,9.68600811220302,-0.281262344591793,0.053145275,-0.15485434,-0.049785517,111.86403,-93.49705,-3.2081652,CSO
2319858201000,3.905144,-1.13624571732181,9.64614788304536,-0.31542858487689,0.06047566,-0.1777618,-0.038179077,111.87787,-93.52055,-3.229572,CSO
2319862696000,3.909639,-1.10825372901435,9.65519205320574,-0.349151133680383,0.08307768,-0.1872302,-0.040011674,111.891556,-93.57146,-3.2749465,CSO
2319867688000,3.914631,-1.05335524801914,9.69179081760766,-0.390324977707177,0.09865474,-0.21533,-0.019547688,111.91689,-93.61258,-3.3100603,CSO
2319872686000,3.919629,-0.977314451824667,9.72747343719632,-0.418913258463765,0.11636983,-0.22540927,-0.0076358155,111.93706,-93.66082,-3.347026,CSO
2319877723000,3.924666,-0.877576280037217,9.76238198738757,-0.433873986835522,0.12858713,-0.23548855,0.007941248,111.964836,-93.703125,-3.3766205,CSO
2319882683000,3.929626,-0.776962408633418,9.80858515590026,-0.427755879662282,0.15882497,-0.2312125,0.014660766,111.98812,-93.741425,-3.39362,CSO
2319887682000,3.934625,-0.673561843128804,9.86498512438641,-0.404255760284704,0.15393804,-0.24312437,0.03604105,112.01851,-93.76892,-3.40193,CSO
2319893083000,3.940026,-0.574952711605418,9.90123053211832,-0.39264908,0.16157386,-0.23365596,0.04337143,112.04222,-93.788155,-3.3934028,CSO
2319897712000,3.944655,-0.499897678710288,9.91447580639379,-0.39264908,0.16432275,-0.21166481,0.042455133,112.06517,-93.80345,-3.3814838,CSO
2319902705000,3.949648,-0.423901861598929,9.95735684099921,-0.373563816520619,0.14569137,-0.2012801,0.044898596,112.08742,-93.7939,-3.3462095,CSO
2319907713000,3.954656,-0.352588442994647,10.028670204996,-0.335529992603093,0.13622294,-0.19700404,0.026267206,112.10445,-93.792656,-3.318029,CSO
2319912704000,3.959647,-0.27399197471547,10.120543464684,-0.262928118747498,0.12522738,-0.16035213,0.034513887,112.1102,-93.7706,-3.269001,CSO
2319917706000,3.964649,-0.187235658002097,10.2346969144981,-0.15334118835764,0.11484267,-0.11453723,0.038789943,112.11159,-93.75425,-3.2274187,CSO
2319922779000,3.969722,-0.141435447139987,10.3506457995407,-0.0898713354913405,0.09193522,-0.08857546,0.03145956,112.113495,-93.71907,-3.1711438,CSO
2319927856000,3.974799,-0.160044743469524,10.4669535979811,-0.0991759885140178,0.051618114,-0.071776666,0.023823744,112.10512,-93.68037,-3.1149595,CSO
2319932768000,3.979711,-0.213444950309698,10.4934207443376,-0.10534488,0.018936822,-0.035124753,0.00580322,112.08869,-93.61824,-3.0488207,CSO
2319937777000,3.98472,-0.346486162095775,10.3293362863086,-0.10534488,-0.013133603,0.003970624,0.004581489,112.06749,-93.54958,-2.9817376,CSO
2319942817000,3.98976,-0.476532349917937,10.1797394039524,-0.114079646655502,-0.034208454,0.042760566,-0.0143553335,112.04304,-93.493095,-2.93143,CSO
2319947784000,3.994727,-0.584080157286049,10.1160073286719,-0.169845181331435,-0.07086037,0.06627888,-0.03023783,112.012726,-93.43037,-2.8819053,CSO
2319952805000,3.999748,-0.692797197913247,10.0515823739742,-0.226216985158265,-0.1020145,0.08032878,-0.044898596,111.97414,-93.39772,-2.870076,CSO
2319957882000,4.004825,-0.817780275153374,9.98824127026154,-0.254498930566677,-0.12034045,0.09040806,-0.06658431,111.93076,-93.36809,-2.8649228,CSO
2319963680000,4.010623,-0.965695080674847,9.91652542072974,-0.276910259914433,-0.12889257,0.10170906,-0.074830994,111.88414,-93.336784,-2.86017,CSO
2319967776000,4.014719,-1.05974168192446,9.86993582598921,-0.299421615505396,-0.13744467,0.100792766,-0.073303826,111.84379,-93.33585,-2.8828576,CSO
2319972791000,4.019734,-1.15044147464029,9.82242636780575,-0.342611977097122,-0.12858713,0.09773844,-0.07941248,111.801476,-93.34073,-2.9094198,CSO
2319977942000,4.024885,-1.23652920183478,9.77605149694203,-0.384193362615212,-0.122478485,0.08735373,-0.08460484,111.762146,-93.375145,-2.9675357,CSO
2319982847000,4.02979,-1.24866828461538,9.75581969230769,-0.396332453846154,-0.09040806,0.070554934,-0.076358154,111.72608,-93.41255,-3.0223289,CSO
2319987767000,4.03471,-1.2608444899733,9.73552601671117,-0.408508667680248,-0.064446285,0.050701816,-0.061086524,111.696686,-93.47168,-3.094822,CSO
2319992811000,4.039754,-1.26079557827395,9.74675060863025,-0.358315893986086,-0.048258353,0.02687807,-0.050701816,111.67346,-93.53208,-3.164922,CSO
2319997849000,4.044792,-1.25625972056971,9.76942989715145,-0.285742118618971,-0.027794369,-0.01160644,-0.036957346,111.66036,-93.5906,-3.2284873,CSO
2320002800000,4.049743,-1.29471865109135,9.78522122224986,-0.178259850663516,-0.018325957,-0.043982297,-0.021380283,111.6531,-93.64927,-3.2896826,CSO
2320007878000,4.054821,-1.36124948229588,9.79731766811765,-0.0451981598345874,0.01160644,-0.061086524,0.004886922,111.65253,-93.70555,-3.3427646,CSO
2320012833000,4.059776,-1.42616879474535,9.80912111224426,0.084640492795846,0.028099801,-0.10629055,0.013744468,111.67268,-93.7546,-3.3965142,CSO
2320017948000,4.064891,-1.4652514,9.816227,0.130893008736897,0.021991149,-0.14905111,0.014966198,111.69687,-93.79883,-3.443988,CSO
2320022797000,4.06974,-1.4652514,9.816227,0.0583110495836199,0.015882496,-0.1685988,0.039095376,111.727104,-93.83587,-3.481551,CSO
2320027807000,4.07475,-1.47621279759036,9.82499607228916,-0.0181151639036145,0.031154128,-0.2012801,0.05131268,111.77681,-93.877335,-3.5417683,CSO
2320033643000,4.080586,-1.5029340659017,9.84637297532989,-0.108967539778925,0.03634648,-0.25228736,0.06627888,111.837006,-93.909676,-3.5932584,CSO
2320037802000,4.084745,-1.52046510633175,9.87285821799445,-0.169306024326199,0.008552114,-0.26816985,0.061391957,111.89583,-93.94829,-3.6465375,CSO
2320043620000,4.090563,-1.54254912054102,9.92806810939358,-0.246599929934602,-0.009773844,-0.30970868,0.03940081,111.9757,-93.98859,-3.699877,CSO
2320047768000,4.094711,-1.53674484943457,9.95765091760905,-0.279197183521809,-0.022602014,-0.32559118,0.016798794,112.05206,-94.04068,-3.7616808,CSO
2320052813000,4.099756,-1.49566415353286,9.9781912441119,-0.283305248822379,-0.011301007,-0.33444872,-0.004886922,112.13694,-94.09797,-3.8282804,CSO
2320058063000,4.105006,-1.440580087964,9.99526449876265,-0.285356521068616,-0.0012217305,-0.32711834,-0.028405234,112.22056,-94.16727,-3.9036994,CSO
2320062817000,4.10976,-1.22890070678665,9.95429453745782,-0.258043053104612,0.01282817,-0.31398472,-0.032070424,112.30368,-94.237045,-3.977878,CSO
2320067815000,4.114758,-1.00635683907012,9.91122178470191,-0.229327715939258,0.026572637,-0.29871312,-0.048258353,112.37535,-94.305305,-4.0494223,CSO
2320072799000,4.119742,-0.826268450461838,9.86706312153622,-0.217170504769081,0.022296581,-0.2837469,-0.053145275,112.44224,-94.36965,-4.117081,CSO
