timestamp,rel_time,acc_x,acc_y,acc_z,gyro_x,gyro_y,gyro_z,azimuth,pitch,roll,label
4127956438000,0,2.91673963090553,-9.07012497737852,0.51913006209125,0.044898596,-0.055588737,-0.007330383,108.401,-29.898596,51.83776,STD
4127961499000,0.005061,2.91649743595827,-9.07073046790793,0.527001444537339,0.040011674,-0.055283304,-0.01038471,107.96436,-29.08736,52.4764,STD
4127966494000,0.010056,2.91625839945133,-9.07132806229528,0.534770177064154,0.044898596,-0.051923547,-0.004886922,107.491356,-28.27198,53.11173,STD
4127971412000,0.014974,2.91602304779144,-9.0719164445169,0.542419151351817,0.046120327,-0.047036625,-0.0030543262,106.99145,-27.456232,53.738914,STD
4127976399000,0.019961,2.91578439412576,-9.07251308179613,0.550175441464175,0.04062254,-0.03970624,-0.0021380284,106.45878,-26.638132,54.359238,STD
4127981410000,0.024972,2.91554459193632,-9.07311259039974,0.557969058819905,0.035430185,-0.047036625,-0.0021380284,105.89932,-25.8192,54.974205,STD
4127986395000,0.029957,2.91530603398095,-9.07370898840193,0.565722238328649,0.028099801,-0.054367006,-0.00030543262,105.305,-24.998016,55.580486,STD
4127991372000,0.034934,2.91506785886683,-9.074304429296,0.573462975422935,0.026572637,-0.06414085,-0.004276057,104.683975,-24.177933,56.178875,STD
4127996412000,0.039974,2.91482666887785,-9.07490740741657,0.581301696531073,0.03023783,-0.08552113,-0.011911872,104.037445,-23.357761,56.77155,STD
4128001400000,0.044962,2.914587967357,-9.07550416433431,0.589059541945238,0.028405234,-0.110872045,-0.015882496,103.36185,-22.536697,57.35734,STD
4128006376000,0.049938,2.91434984009804,-9.07609948558986,0.596798723737717,0.03268129,-0.14202617,-0.025045475,102.6659,-21.720179,57.935936,STD
4128011491000,0.055053,2.91410506097232,-9.07671143659913,0.604754092481392,0.03390302,-0.16890424,-0.028710667,101.94078,-20.902897,58.50859,STD
4128016447000,0.060009,2.91386789081649,-9.07730436508436,0.612462168237728,0.033292156,-0.18845193,-0.03726278,101.19263,-20.089964,59.072342,STD
4128022134000,0.065696,2.91359573854122,-9.07798474932478,0.621307169615105,0.035430185,-0.21624629,-0.04795292,100.42146,-19.27961,59.630856,STD
4128026377000,0.069939,2.91339268911201,-9.07849237554811,0.627906315182928,0.035124753,-0.22204952,-0.04428773,99.6072,-18.46813,60.17766,STD
4128031409000,0.074971,2.91315188196428,-9.07909439656055,0.635732593876609,0.049480084,-0.22602014,-0.042455133,98.76727,-17.662806,60.714954,STD
4128036398000,0.07996,2.91291313258828,-9.07969127311681,0.643491994592581,0.047647487,-0.22540927,-0.044593163,97.88641,-16.856747,61.238922,STD
4128041374000,0.084936,2.91267500532932,-9.08028659437236,0.65123117638506,0.051923547,-0.21746802,-0.043676864,96.95973,-16.053022,61.748684,STD
4128046377000,0.089939,2.91243558598113,-9.08088514586784,0.659012351326333,0.05467244,-0.20525073,-0.041233405,95.988655,-15.250487,62.2421,STD
4128051397000,0.094959,2.91219535309528,-9.0814857312181,0.666819966398327,0.062308256,-0.18661933,-0.040317107,94.969574,-14.450712,62.716137,STD
4128056407000,0.099969,2.91195559876099,-9.08208512018319,0.67461202845225,0.0720821,-0.16798794,-0.03726278,93.90055,-13.651971,63.17125,STD
4128061420000,0.104982,2.91171570086124,-9.08268486806383,0.682408756411594,0.064751714,-0.15332718,-0.03940081,92.78587,-12.85512,63.604652,STD
4128066374000,0.109936,2.91147862641572,-9.08327755727203,0.690113721564315,0.05497787,-0.14080444,-0.044898596,91.62358,-12.061148,64.015686,STD
4128071351000,0.114913,2.9112404513016,-9.0838729981661,0.697854458658602,0.047647487,-0.1255328,-0.043676864,63.513676,-11.26751,64.403885,STD
4128076402000,0.119964,2.91099873490589,-9.08447729231034,0.705710288086618,0.03145956,-0.1151481,-0.03970624,64.02255,-10.474703,64.769875,STD
4128081375000,0.124937,2.9107607512124,-9.08507225465035,0.713444803973676,0.024740042,-0.10934488,-0.045814894,64.46723,-9.623283,65.2073,STD
4128086352000,0.129914,2.91052257609828,-9.08566769554441,0.721185541067962,0.00580322,-0.11636983,-0.050701816,64.9008,-8.768981,65.62209,STD
4128091408000,0.13497,2.91028062042679,-9.08627258788124,0.729049147005015,-0.00580322,-0.119729586,-0.052534413,65.31409,-7.9174557,66.00897,STD
4128096381000,0.139943,2.9100426367333,-9.08686755022124,0.736783662892072,-0.01160644,-0.10934488,-0.046120327,65.70986,-7.0657005,66.36804,STD
4128101427000,0.144989,2.90980115961338,-9.08747124617291,0.744631715811053,-0.016798794,-0.10720685,-0.048563786,66.08711,-6.2178917,66.70197,STD
4128106444000,0.150006,2.909561070293,-9.08807147260762,0.752434664977626,-0.035430185,-0.10445796,-0.051923547,66.44667,-5.369087,67.005035,STD
4128111496000,0.155058,2.90931930604214,-9.08867588639038,0.76029204970745,-0.03145956,-0.09468412,-0.046120327,66.77705,-4.5231795,67.27666,STD
4128116364000,0.159926,2.90908634714008,-9.0892582866862,0.767863258904754,-0.03848451,-0.08399397,-0.04337143,67.0913,-3.6787038,67.51663,STD
4128121403000,0.164965,2.90884520500626,-9.08986114516826,0.775700424711085,-0.039095376,-0.0693332,-0.03970624,67.37657,-2.836756,67.72216,STD
4128126381000,0.169943,2.90860698203698,-9.09045670570084,0.783442717107179,-0.029932396,-0.053450707,-0.043676864,67.63507,-1.9997662,67.89268,STD
4128131403000,0.174965,2.90836665344082,-9.09105753032813,0.791253442782787,-0.02321288,-0.04184427,-0.036957346,67.86613,-1.1621851,68.02873,STD
4128136431000,0.179993,2.90812603771372,-9.09165907278651,0.799073500269239,-0.025961773,-0.032070424,-0.036651913,68.07053,-0.33105943,68.12857,STD
4128141421000,0.184983,2.90788724048256,-9.09225606898128,0.806834456287019,-0.017104227,-0.025045475,-0.039095376,68.24167,0.49525464,68.194016,STD
4128146434000,0.189996,2.90764734258281,-9.09285581686192,0.814631184246363,-0.004581489,-0.008857546,-0.028710667,68.382675,1.3208963,68.22207,STD
4128151425000,0.194987,2.9074084974965,-9.09345293269521,0.822393695565949,-0.014966198,-0.007941248,-0.026572637,68.50001,2.1409512,68.22118,STD
4128156417000,0.199979,2.90716960455503,-9.09405016816702,0.830157762187343,-0.009468411,-0.010995574,-0.028710667,68.58071,2.9551957,68.18589,STD
4128161895000,0.205457,2.90690745400748,-9.0947055479576,0.838677705487022,-0.006414085,-0.005497787,-0.03023783,68.63573,3.7669518,68.11762,STD
4128166467000,0.210029,2.90668866023176,-9.09525253525269,0.845788545349404,-0.009773844,-0.0036651916,-0.02107485,68.66133,4.5763335,68.02136,STD
4128171411000,0.214973,2.90645206433781,-9.09584402807572,0.853477957484053,-0.023518313,-0.0125227375,-0.019242255,68.661934,5.3792386,67.89861,STD
4128176475000,0.220037,2.90620972582507,-9.09644987752068,0.861354005835563,-0.029932396,-0.020463986,-0.010995574,68.63137,6.180808,67.74653,STD
4128181434000,0.224996,2.90597241210377,-9.09704316492146,0.86906674749732,-0.04337143,-0.034208454,-0.013439035,68.57985,6.976975,67.57269,STD
4128186422000,0.229984,2.90573371058293,-9.0976399218392,0.876824592911486,-0.044593163,-0.043066,-0.010079277,68.497826,7.7708874,67.373024,STD
4128191420000,0.234982,2.90549453051052,-9.0982378751421,0.884597991343722,-0.04337143,-0.044593163,-0.016187929,68.39451,8.557229,67.15203,STD
4128196435000,0.239997,2.90525453690045,-9.09883786229978,0.892397829906681,-0.051618114,-0.05009095,-0.0125227375,68.26574,9.342493,66.91,STD
4128201415000,0.244977,2.90501621822086,-9.09943366210939,0.900143232906389,-0.0720821,-0.049480084,-0.0036651916,68.115,10.122849,66.6451,STN
4128206412000,0.249974,2.90477708600361,-9.10003149577378,0.907915076036818,-0.070554934,-0.03634648,-0.006414085,67.94,10.893719,66.359085,STN
4128211531000,0.255093,2.90453211545726,-9.10064392533711,0.915876665987722,-0.05955936,-0.013439035,-0.00061086525,43.17408,11.664308,66.04912,STN
4128216446000,0.260008,2.90429690736285,-9.10123194864319,0.923520974369964,-0.04550946,0.0036651916,0.00030543262,41.836514,12.426219,65.72085,STN
4128221438000,0.265,2.90405801442138,-9.10182918411499,0.931285040991358,-0.035430185,0.020463986,-0.00580322,40.56669,13.180843,65.37133,STN
4128226500000,0.270062,2.90381577161896,-9.10243479428292,0.939157978739253,-0.0067195175,0.047036625,-0.01038471,39.364178,13.926465,65.00069,STN
4128231379000,0.274941,2.90358228631018,-9.10301851060242,0.946746296256437,0.0033597588,0.06811147,-0.00580322,38.22231,14.667423,64.61401,STN
4128236451000,0.280013,2.90333956495619,-9.1036253171555,0.954634787022404,0.035430185,0.09590584,-0.014049901,37.159412,15.392167,64.21133,STN
4128241422000,0.284984,2.90310167697301,-9.10422004021847,0.962366192305847,0.07238753,0.112704635,-0.008246681,36.145947,16.113928,63.793232,STN
4128246433000,0.289995,2.90286187478357,-9.10481954882208,0.970159809661577,0.093767814,0.13041973,-0.004581489,35.20274,16.824795,63.36205,STN
4128251417000,0.294979,2.90262336468335,-9.10541582718576,0.977911433868514,0.10903945,0.1423316,-0.009468411,34.316544,17.525301,62.92178,STN
4128256392000,0.299954,2.90238528527955,-9.10601102880279,0.985649060359186,0.14019357,0.1600467,-0.003970624,33.482758,18.219244,62.46771,STN
4128261399000,0.304961,2.90214567451073,-9.10661005885234,0.993436456507687,0.15760323,0.1731803,0.003970624,32.700512,18.90585,62.00743,STN
4128266408000,0.30997,2.9019059680316,-9.10720932817891,1.0012269632598,0.17165314,0.17134771,0.0067195175,31.964327,19.583143,61.542355,STN
4128271393000,0.314955,2.89672705620464,-9.13665941624183,1.06484865471721,0.18203785,0.1740966,0.01038471,31.274931,20.254799,61.06858,STN
4128276423000,0.319985,2.8851703247426,-9.20335138969192,1.20064022676983,0.17989981,0.17256944,0.010995574,30.624228,20.919594,60.593502,STN
4128281432000,0.324994,2.87366184206002,-9.26976492746756,1.33586487575821,0.1881465,0.17379116,0.013744468,30.017002,21.601303,60.054646,STN
4128286444000,0.330006,2.86214646669466,-9.33621824176813,1.47117051375577,0.18600847,0.17287487,0.009773844,29.447802,22.275394,59.518326,STN
4128291381000,0.334943,2.85080340839881,-9.40167714294568,1.60445142652392,0.17989981,0.17928895,0.01282817,28.913727,22.944336,58.979343,STN
4128296423000,0.339985,2.83921910620564,-9.46852822249545,1.74056695461325,0.16676621,0.19456059,0.01282817,28.41886,23.605032,58.441914,STN
4128301402000,0.344964,2.82777955035087,-9.53454399502189,1.87498171350987,0.1704314,0.2180789,0.01038471,27.961424,24.257385,57.903652,STN
4128306407000,0.349969,2.81628025791199,-9.60090449743098,2.01009837715268,0.1591304,0.24648413,0.017715093,27.539131,24.907904,57.36193,STN
4128311449000,0.355011,2.80469595571883,-9.66775557698075,2.14621390524201,0.16798794,0.28985557,0.032070424,27.159676,25.549702,56.815166,STN
4128316413000,0.359975,2.79329086327795,-9.73357246688258,2.28022371909274,0.16401732,0.32620203,0.038789943,26.81591,26.186562,56.268066,STN
4128321408000,0.36497,2.78181454644835,-9.79980038087527,2.41507041937164,0.18112154,0.3857614,0.05497787,26.51712,26.81907,55.707882,STN
4128326386000,0.369948,2.7703772881545,-9.86580289456007,2.54945818193187,0.19853121,0.44501534,0.08002335,26.252003,27.448616,55.142338,STN
4128331407000,0.374969,2.7588412347408,-9.93237553843539,2.68500678695696,0.22418754,0.50671273,0.098043874,26.031265,28.07032,54.56913,STN
4128336435000,0.379997,2.74728909840061,-9.9990409942022,2.82074436633679,0.23671028,0.55680364,0.11881329,25.842089,28.691387,53.98699,STN
4128341442000,0.385004,2.73578521083988,-10.0654280142946,2.95591502265239,0.26725355,0.61391956,0.13683382,25.694809,29.304096,53.39593,STN
4128347224000,0.390786,2.72250071356085,-10.1420906366581,3.11200783967192,0.2929099,0.66553766,0.16310102,25.574684,29.915998,52.797188,STN
4128351441000,0.395003,2.71281189913233,-10.1980031718547,3.22585139023771,0.321926,0.69913524,0.1881465,25.481503,30.520897,52.194958,STN
4128356384000,0.399946,2.70145505547092,-10.2635416260821,3.35929428102421,0.35155296,0.7156286,0.20647246,25.411516,31.12025,51.589725,STN
4128361426000,0.404988,2.68987075327775,-10.3303927056319,3.49540980911354,0.3662137,0.73273283,0.22204952,25.36286,31.716143,50.981205,STN
4128366405000,0.409967,2.67843119742298,-10.3964084781583,3.62982456801016,0.37140608,0.7272351,0.24007004,25.319788,32.307407,50.376293,STN
4128371395000,0.414957,2.66696636839801,-10.4625700979428,3.76453628660709,0.39614612,0.72112644,0.24587326,25.294529,32.887768,49.775734,STN
4128376514000,0.420076,2.65520515401347,-10.5304421082988,3.90273053259861,0.40561453,0.6960809,0.23732115,25.271198,33.46249,49.18589,STN
4128381449000,0.425011,2.64386669083948,-10.5958744917931,4.03595745269398,0.41996986,0.6844745,0.22937989,25.260412,34.02759,48.601166,STN
4128386445000,0.430007,2.63238807644895,-10.6621156646274,4.17083114930926,0.41874814,0.6582073,0.22876903,25.246325,34.58545,48.0305,STN
4128391397000,0.434959,2.6210105547392,-10.7277734484296,4.30451700712329,0.4279111,0.6310238,0.21868975,25.242125,35.128212,47.47355,STN
4128396392000,0.439954,2.60953423790959,-10.7940013624223,4.43936370740219,0.43951756,0.6215554,0.21380283,25.243994,35.66447,46.92429,STN
4128401409000,0.444971,2.5980073747396,-10.860520970931,4.57480432708171,0.45173484,0.61636305,0.19822577,25.251951,36.186718,46.390934,STN
4128406405000,0.449967,2.58652876034907,-10.9267621437654,4.70967802369699,0.4813618,0.6151413,0.18692477,25.26741,36.697796,45.865868,STN
4128411424000,0.454986,2.57499730205722,-10.9933082699574,4.8451726360493,0.52106804,0.6249151,0.1826487,25.295528,37.19658,45.349304,STN
4128417236000,0.460798,2.56164387795038,-11.0703686575701,5.0020753431606,0.57818395,0.6429357,0.17715092,25.336884,37.67896,44.84201,STN
4128421410000,0.464972,2.55205385864172,-11.1257110625762,5.11475805126152,0.6414085,0.6704246,0.18020524,25.391571,38.149437,44.338093,STN
4128426415000,0.469977,2.54055456620284,-11.1920715649853,5.24987471490434,0.72418076,0.70554936,0.18692477,25.462236,38.602436,43.83818,STN
4128431411000,0.474973,2.52907595181231,-11.2583127378196,5.38474841151962,0.81031275,0.6960809,0.18570304,25.534,39.038513,43.349236,STN
4128436404000,0.479966,2.51760423010456,-11.324514134129,5.51954111912573,0.9605856,0.6560693,0.18509217,25.611141,39.449932,42.86516,STN
4128441438000,0.485,2.50603830839881,-11.3912591429457,5.65544067652392,1.110553,0.5821546,0.17470746,25.680473,39.84014,42.397312,STN
4128446392000,0.489954,2.4946561915672,-11.4569434444311,5.78918052701074,1.310306,0.47708577,0.15577064,25.731773,40.19401,41.94899,STN
4128451408000,0.49497,2.48313162595814,-11.5234497940982,5.92459415035387,1.5409076,0.36132678,0.118507855,25.764023,40.509045,41.52676,STN
4128456406000,0.499968,2.47164841644575,-11.5897174846158,6.05952183964194,1.7739527,0.23762658,0.0842994,25.76509,40.785458,41.131126,STN
4128461430000,0.504992,2.46010547034927,-11.6563299050161,6.1951514336762,1.992337,0.12339478,0.034513887,25.743793,41.012157,40.769978,STN
4128466387000,0.509949,2.44871646083488,-11.7220539830265,6.32897227317219,2.2162192,-0.02076942,-0.0067195175,25.679266,41.19272,40.44297,STN
4128471402000,0.514964,2.433833758082,-11.6942015803853,6.3546213976401,2.3780985,-0.226631,-0.06688975,25.572304,41.328545,40.163757,STN
4128476437000,0.519999,2.41431824490347,-11.5378365227245,6.2310231391234,2.5042422,-0.46670106,-0.10995574,25.41395,41.42635,39.921394,STN
4128481443000,0.525005,2.39491513487928,-11.3823720781069,6.10813676729924,2.5024095,-0.5897904,-0.11575896,25.675129,41.5786,39.24015,STN
4128486353000,0.529915,2.37588411805572,-11.2298889732182,5.98760698590558,2.4623978,-0.806953,-0.12614368,25.809937,41.678783,38.650497,STN
4128491418000,0.53498,2.35625232575199,-11.0725922468921,5.86327229287934,2.291661,-1.1154399,-0.15332718,25.858484,41.770195,38.12772,STN
4128496451000,0.540013,2.33674456451513,-10.9162893004757,5.7397231299966,2.0518963,-1.421178,-0.18997909,25.825573,41.853683,37.66926,STN
4128501432000,0.544994,2.31743835376194,-10.7616012464124,5.61745045359705,1.7996091,-1.5577064,-0.21594086,25.738192,41.94542,37.26012,STN
4128506428000,0.54999,2.29807400344616,-10.6064473580165,5.49480955994274,1.6187929,-1.5549575,-0.23457226,25.594397,42.042774,36.90477,STN
4128511396000,0.554958,2.27881818031389,-10.4521630270416,5.37285600516399,1.4862351,-1.4150693,-0.2452624,25.44498,42.15622,36.572414,STN
4128516412000,0.559974,2.2593763105813,-10.2963880262022,5.24972415516998,1.3927728,-1.1905763,-0.24220806,25.314596,42.279583,36.24483,STN
4128521434000,0.564996,2.23991118502368,-10.1404266916297,5.12644501827407,1.3817772,-0.86254174,-0.23396139,25.249903,42.397655,35.896717,STN
4128526387000,0.569949,2.22071350145401,-9.98660819498741,5.00485968075009,1.4425583,-0.52931476,-0.19700404,25.238905,42.51428,35.520695,STN
4128531406000,0.574968,2.20126000380891,-9.83074002728145,4.88165418730513,1.5335772,-0.2837469,-0.15485434,25.287151,42.618248,35.119328,STN
4128536403000,0.579965,2.18189177752229,-9.67555508326338,4.75898874583383,1.645671,-0.15393804,-0.0870483,25.376926,42.70935,34.684586,STN
4128541368000,0.58493,2.16264758230253,-9.52136391915498,4.63710883450604,1.7849482,-0.07696902,-0.040927973,25.507982,42.771324,34.23015,STN
4128546418000,0.58998,2.1430739295614,-9.36453302716153,4.51314235873456,1.9297233,-0.023518313,0.0021380284,25.645985,42.813755,33.759003,STN
4128551400000,0.594962,2.12376384283737,-9.20981391747612,4.39084513451803,2.0305161,0.022907447,0.03573562,25.785646,42.834595,33.28314,STN
4128556388000,0.59995,2.1044305002883,-9.05490847405764,4.26840062339959,2.0851886,0.049480084,0.06566802,25.916033,42.833996,32.807396,STN
4128561398000,0.60496,2.08501188638076,-8.89931980695128,4.14541606030749,2.1010711,0.039095376,0.10262536,26.030396,42.819332,32.335186,STN
4128566411000,0.609973,2.0655816445607,-8.74363797297838,4.02235785376444,2.0705278,-0.007941248,0.14385876,26.125204,42.800003,31.871004,STN
4128571398000,0.61496,2.04625217798247,-8.58876358518208,3.89993789046299,1.9956968,-0.09101892,0.1591304,26.196125,42.779144,31.426064,STN
4128576368000,0.61993,2.02698860290852,-8.43441714296279,3.77793524005027,1.8374827,-0.14172074,0.16371189,26.248934,42.778748,30.989973,STN
4128581407000,0.624969,2.00745758584662,-8.27792786281329,3.65423879026562,1.7574593,-0.2406809,0.16065755,26.258486,42.771183,30.58762,STN
4128586441000,0.630003,1.98794594863893,-8.12159386077467,3.5306650795659,1.5534303,-0.31856623,0.14844026,26.255753,42.81338,30.203524,STN
4128591357000,0.634919,1.96889167599033,-7.96892442215294,3.40998801127034,1.328021,-0.36713,0.1301143,26.232153,42.86845,29.844915,STN
4128596415000,0.639977,1.94928701548247,-7.81184508518208,3.28582515296298,1.0934488,-0.3811799,0.10598512,26.1976,42.95864,29.508318,STN
4128601397000,0.644959,1.92997692875844,-7.65712597549666,3.16352792874645,0.88422745,-0.35460728,0.09040806,26.16061,43.08324,29.184845,STN
4128606379000,0.649941,1.91066684203442,-7.50240686581125,3.04123070452992,0.6768387,-0.32589662,0.08368854,26.122158,43.24844,28.875801,STN
4128611489000,0.655051,1.89086063104289,-7.34371263648719,2.91579135973938,0.52290064,-0.2742785,0.083383106,26.097378,43.439045,28.568487,STN
4128616416000,0.659978,1.87176372271505,-7.19070158602151,2.79484426545699,0.3979787,-0.20189096,0.0720821,26.08852,43.658257,28.26449,STN
4128621397000,0.664959,1.85245751196187,-7.03601353195827,2.67257158905744,0.31642818,-0.129198,0.06383542,26.09242,43.895267,27.958658,STN
4128626411000,0.669973,1.83302339417096,-6.88030064236319,2.54948883469741,0.25442538,-0.04428773,0.056505036,26.120218,44.14651,27.648048,STN
4128631406000,0.674968,1.81366291982602,-6.72517780958948,2.42687248886008,0.20158553,0.0033597588,0.059253927,26.157036,44.407215,27.338577,STN
4128636399000,0.679961,1.79431019742275,-6.57011708806012,2.30430523865671,0.16707164,0.058643065,0.07422013,26.216787,44.67176,27.01948,STN
4128641360000,0.684922,1.77508150608636,-6.41605014644042,2.18252351859685,0.13622294,0.1301143,0.09285152,26.291939,44.941727,26.695433,STN
4128646414000,0.689976,1.75549234946187,-6.25909503195827,2.05845885155744,0.11942416,0.19608775,0.106901415,26.37815,45.21159,26.368048,STN
4128651403000,0.694965,1.73615513094196,-6.10415853291762,1.93598979262202,0.09682214,0.267559,0.116675265,26.481524,45.485714,26.03175,STN
4128656368000,0.69993,1.71691093572221,-5.94996736880921,1.81410988129422,0.06719518,0.3222314,0.13744467,26.592909,45.763283,25.68905,STN
4128661396000,0.704958,1.69742255433955,-5.79381970050366,1.6906834574964,0.023823744,0.37782016,0.14752395,26.723166,46.042564,25.341866,STN
4128666485000,0.710047,1.67769773873566,-5.63577763924531,1.56575961686253,-0.025045475,0.42210788,0.16798794,26.8588,46.329052,24.987999,STN
4128671399000,0.714961,1.6432299382206,-5.56363089339594,1.49778994205715,-0.086132,0.4615087,0.1908954,27.005344,46.624077,24.630459,STN
4128676375000,0.719937,1.58538215841443,-5.61029000371666,1.50731221083924,-0.1591304,0.464563,0.19608775,27.15396,46.927166,24.278875,STN
4128681366000,0.724928,1.52735999824308,-5.65708976650015,1.51686318420971,-0.19120082,0.4596761,0.2049453,27.200626,47.16439,24.1441,STN
4128686359000,0.729921,1.46931458735638,-5.70390828294535,1.52641798485863,-0.25534168,0.42821655,0.20311269,27.244558,47.425846,24.015173,STN
4128691389000,0.734951,1.41083903823559,-5.75107374213208,1.53604359015886,-0.3145956,0.37140608,0.2098322,27.279873,47.697464,23.887884,STN
4128696383000,0.739945,1.35278200199121,-5.79790163540813,1.545600304447,-0.3726278,0.28893927,0.22021692,27.302816,47.984444,23.770205,STN
4128701363000,0.744925,1.29488772075432,-5.84459825305225,1.55513022778599,-0.42821655,0.19181168,0.2321288,27.30874,48.286167,23.662817,STN
4128706380000,0.749942,1.23656330128335,-5.89164181343791,1.5647309557763,-0.47678033,0.11362094,0.23732115,27.30071,48.600124,23.565176,STN
4128711381000,0.754943,1.17842488753522,-5.93853534452992,1.57430106553901,-0.50976706,0.06352998,0.2415972,27.276218,48.9247,23.47619,STN
4128716365000,0.759927,1.12048410486762,-5.98526946949745,1.58383864343491,-0.5320636,0.060170226,0.24587326,27.246119,49.258045,23.390797,STN
4128721388000,0.76495,1.06208993325057,-6.03236929086822,1.59345085326057,-0.552833,0.10445796,0.24495697,27.219114,49.597313,23.305645,STN
4128726449000,0.770011,1.00325399804176,-6.07982543181137,1.60313578137676,-0.5561928,0.1731803,0.258396,27.197954,49.939716,23.212381,STN
4128731388000,0.77495,0.945836356469677,-6.12613759939055,1.61258724550754,-0.53969944,0.26175576,0.2657264,27.19833,50.279724,23.110445,STN
4128736409000,0.779971,0.887465435567989,-6.17321866709961,1.62219562805475,-0.5271767,0.35430184,0.2782491,27.218115,50.62322,22.992765,STN
4128742612000,0.786174,0.815353341890798,-6.23138314887601,1.63406593216555,-0.5177083,0.4541783,0.28680122,27.265945,50.962845,22.859812,STN
4128746441000,0.790003,0.770839847341393,-6.26728703420921,1.64139325675692,-0.5195409,0.57543504,0.2843578,27.346825,51.30104,22.709793,STN
4128751414000,0.794976,0.713026943608252,-6.31391801403737,1.65090978462134,-0.51159966,0.698219,0.2773328,27.456991,51.63419,22.544586,STN
4128756426000,0.799988,0.654760650925667,-6.36091469026876,1.66050094441553,-0.49754974,0.83077675,0.27885997,27.603748,51.966084,22.359682,STN
4128761662000,0.805224,0.593890278123189,-6.41001177661105,1.67052075939604,-0.49235737,0.9459248,0.28680122,27.781246,52.296745,22.161093,STN
4128766339000,0.809901,0.539518480262764,-6.45386721450694,1.67947085004996,-0.49021935,1.0491611,0.3042109,27.991375,52.625626,21.944172,STN
4128771326000,0.814888,0.48154282152213,-6.50062946996703,1.68901416886352,-0.48808134,1.094976,0.3051272,28.220419,52.95059,21.723473,STN
4128776324000,0.819886,0.423439283847038,-6.54749487056649,1.69857853770856,-0.48533243,1.162782,0.31337386,28.48077,53.27808,21.481287,STN
4128781319000,0.824881,0.36537062224498,-6.59433214067339,1.70813716563593,-0.4896085,1.2266175,0.32498032,28.753511,53.606144,21.235153,STN
4128786338000,0.8299,0.307022952058647,-6.64139445472075,1.71774172090469,-0.5174029,1.258077,0.3268129,29.037674,53.937363,20.98766,STN
4128791306000,0.834868,0.249268175113897,-6.68797855039464,1.72724868057298,-0.5314528,1.2614367,0.33108896,29.330778,54.267548,20.735075,STN
4128796322000,0.839884,0.190955381000599,-6.73501273394945,1.73684749492407,-0.5580254,1.2458596,0.33658674,29.628376,54.60594,20.483608,STN
4128801345000,0.844907,0.132561209383555,-6.78211255532021,1.74645970474973,-0.61850107,1.1869112,0.34055737,29.916546,54.95412,20.240805,STN
4128806326000,0.849888,0.07465530278899,-6.82881854979518,1.75599154172794,-0.6872234,1.0757337,0.3277292,30.189974,55.30651,20.013933,STN
4128811364000,0.854926,0.016086750806774,-6.87605902362873,1.76563245614197,-0.77518797,0.93645644,0.3118467,30.441912,55.675114,19.802439,STN
4128816345000,0.859907,-0.041819155787791,-6.92276501810371,1.77516429312019,-0.8741482,0.77457714,0.28344148,30.66394,56.05497,19.618916,STN
4128821337000,0.864899,-0.0998529413168148,-6.96957415771805,1.78471718012988,-0.9654725,0.61453044,0.26145032,30.852957,56.448338,19.459265,STN
4128826370000,0.869932,-0.15836336651064,-7.01676774739734,1.79434852634779,-1.0595458,0.44012842,0.23060162,31.002699,56.85453,19.33496,STN
4128831357000,0.874919,-0.216339025251274,-7.06353000285743,1.80389184516135,-1.1554517,0.28710666,0.20830505,31.119923,57.27491,19.23411,STN
4128836345000,0.879907,-0.274326309349585,-7.11030163514837,1.81343707761415,-1.2476922,0.1572978,0.18478674,31.203903,57.704662,19.16222,STN
4128841324000,0.884886,-0.332208965228794,-7.15698887596163,1.82296508731392,-1.3219124,0.064751714,0.17867808,31.26052,58.14475,19.106918,STN
4128846348000,0.88991,-0.390614762203517,-7.20409807416325,1.8325792107788,-1.382388,0.022602014,0.18448131,31.300678,58.59324,19.064627,STN
4128851429000,0.894991,-0.449683204565891,-7.25174175172345,1.84230241167949,-1.4239268,-0.017104227,0.22510384,31.316256,59.051422,19.025703,STN
4128856413000,0.899975,-0.50762398723349,-7.29847587669098,1.85183998957538,-1.4590516,-0.018936822,0.2770274,31.332457,59.516495,18.982256,STN
4128861416000,0.904978,-0.565785651696973,-7.3453881614447,1.86141392661655,-1.4712689,-0.009162978,0.30818152,31.342611,59.98071,18.936522,STN
4128866447000,0.910009,-0.624272826175442,-7.39256299746228,1.871041445556,-1.4850134,-0.01985312,0.33567044,31.344984,60.45303,18.880365,STN
4128871415000,0.914977,-0.617920601631518,-7.43084534881619,1.89408347705588,-1.4553864,-0.024129177,0.34666604,31.35446,60.91253,18.818256,STN
4128876426000,0.919988,-0.500249647675075,-7.4550505886398,1.94081634037844,-1.4333953,-0.049480084,0.3436117,31.357908,61.37018,18.755987,STN
4128881380000,0.924942,-0.38391719788457,-7.47898049446423,1.98701761854647,-1.3875804,-0.069027774,0.34055737,31.258133,62.081203,18.30778,STN
4128886439000,0.930001,-0.265119082525232,-7.50341759449769,2.03419813252548,-1.325883,-0.08399397,0.3191771,31.159992,62.76903,17.872715,STN
4128891425000,0.934987,-0.148035191799464,-7.52750207379534,2.08069784446448,-1.2534955,-0.082161374,0.29657507,31.06636,63.433258,17.444386,STN
4128896446000,0.940008,-0.0301294125507511,-7.55175561782934,2.12752396834047,-1.1792754,-0.06841691,0.25809056,30.980385,64.0664,17.03167,STN
4128901436000,0.944998,0.0870484082919253,-7.57585941881114,2.17406098450083,-1.0998629,-0.08155051,0.21594086,30.894266,64.66796,16.633718,STN
4128906441000,0.950003,0.204578467073006,-7.60003567610853,2.22073789149134,-0.9957104,-0.086437434,0.16279559,30.823183,65.229416,16.25219,STN
4128911526000,0.955088,0.323987128192246,-7.62459836708899,2.26816088290927,-0.8906415,-0.12064589,0.11209377,30.747541,65.757065,15.890411,STN
4128916459000,0.960021,0.439826444868984,-7.6484268340716,2.31416631391509,-0.77457714,-0.14569137,0.048258353,30.68263,66.239,15.551054,STN
4128921432000,0.964994,0.556605062714802,-7.67244851789576,2.36054478713463,-0.6441574,-0.16768251,0.018325957,30.613472,66.68425,15.223703,STN
4128926440000,0.970002,0.674205569083563,-7.69663926645626,2.40724967229117,-0.50946164,-0.19700404,0.013133603,30.541529,67.08898,14.91418,STN
4128931422000,0.974984,0.791195529692424,-7.72070442406975,2.45371208000879,-0.3436117,-0.22082779,0.02565634,30.468676,67.44983,14.613632,STN
4128936399000,0.979961,0.908068077655149,-7.74474542957806,2.5001278574497,-0.15943582,-0.28527406,0.062002823,30.377022,67.774666,14.318143,STN
4128941418000,0.98498,1.02592689184541,-7.76898931276999,2.546935329215,0.045814894,-0.36835176,0.11759156,30.273216,68.05865,14.021787,STN
4128946444000,0.990006,1.14395008374026,-7.79326700890918,2.59380808336771,0.27672195,-0.48563787,0.1572978,30.142519,68.29439,13.732536,STN
4128951412000,0.994974,1.26061128893994,-7.81726454062814,2.64013992631053,0.5357288,-0.6239988,0.19181168,29.980993,68.48169,13.4429035,STN
4128956432000,0.999994,1.37849358565942,-7.8415132542411,2.68695672413118,0.78984874,-0.87109387,0.19333886,29.758307,68.61365,13.175222,STN
4128961502000,1.005064,1.49755000884026,-7.86600348890598,2.73423982471897,0.9776898,-1.4932601,0.183565,29.392593,68.70047,12.949306,STN
4128966439000,1.010001,1.6134832556339,-7.88985127757275,2.78028255994617,0.90010995,-1.9248364,0.17379116,29.014757,68.784645,12.733102,STN
4128971420000,1.014982,1.73044973371354,-7.91391160476521,2.82673564160845,0.59559363,-2.6829202,0.17654006,28.374886,68.87469,12.6002865,STN
4128976382000,1.019944,1.84697004373786,-7.93788015395794,2.87301152821921,0.3943135,-3.0390546,0.1908954,27.731846,68.955605,12.47342,STN
4128981445000,1.025007,1.9658620892141,-7.96233657567555,2.9202293464196,-0.0030543262,-2.9987376,0.20463985,26.992792,69.14891,12.376675,STN
4128986436000,1.029998,2.08306339258601,-7.9864452070784,2.96677568863531,-0.35216382,-2.7269025,0.22021692,26.223589,69.37671,12.285799,STN
4128991413000,1.034975,2.19993594054873,-8.01048621258671,3.01319146607622,-0.5928447,-2.3545802,0.23579398,25.498709,69.668564,12.177974,STN
4128996419000,1.039981,2.31748948185904,-8.03466730030513,3.05987769912207,-0.7360926,-1.953547,0.23884831,24.863676,70.01265,12.043179,STN
4129001440000,1.045002,2.43539526110775,-8.05892084433913,3.10670382299806,-0.77396625,-1.541213,0.22449298,24.342007,70.38049,11.87742,STN
4129006432000,1.049994,2.55262004700888,-8.08303430616301,3.15325949126911,-0.75777835,-1.1585059,0.19761491,23.930552,70.75969,11.685499,STN
4129011541000,1.055103,2.67259228882957,-8.10771292724839,3.20090630801526,-0.68966687,-0.79168135,0.17104226,23.636286,71.12602,11.468625,STN
4129016438000,1.06,2.78758623445414,-8.13136749907363,3.24657600102875,-0.6243043,-0.44898596,0.16279559,23.447565,71.48084,11.229739,STN
4129021436000,1.064998,2.90495191553063,-8.15550994342374,3.29318762563186,-0.54244834,-0.13408493,0.15057829,23.35991,71.804596,10.977723,STN
4129026435000,1.069997,3.02234107913635,-8.17965721819489,3.33980857629031,-0.47586402,0.14935656,0.13439035,23.363413,72.10858,10.710581,STN
4129031419000,1.074981,3.13937800480366,-8.20373203665047,3.38628963611862,-0.41813725,0.3454443,0.13775012,23.432373,72.39127,10.429616,STN
4129036433000,1.079995,3.25711940634779,-8.2279517677372,3.43305047760721,-0.37140608,0.47678033,0.1423316,23.56529,72.65294,10.142039,STN
4129041405000,1.084967,3.37387454166438,-8.25196862114031,3.4794196247714,-0.3371976,0.54061574,0.13683382,23.735674,72.89752,9.852228,STN
4129046434000,1.089996,3.49196818114691,-8.27626080854262,3.52632035709014,-0.3417791,0.535118,0.1151481,23.924742,73.133026,9.566334,STN
4129051429000,1.094991,3.60926341463572,-8.30038876162962,3.57290400352721,-0.36865717,0.5204572,0.05681047,24.132355,73.353874,9.293344,STN
4129056409000,1.099971,3.72620641018612,-8.32444425840104,3.61934775913415,-0.39858958,0.45234573,0.006414085,24.324417,73.56959,9.033043,STN
4129061424000,1.104986,3.84397129425947,-8.34866881990881,3.66611792667809,-0.43768495,0.344528,-0.049480084,24.505611,73.77932,8.798638,STN
4129067163000,1.110725,3.97873752949317,-8.37639060624841,3.71964015829018,-0.47891834,0.24220806,-0.10323623,24.672522,73.98509,8.585955,STN
4129071379000,1.114941,4.04287402196133,-8.51498514433702,3.72699157016575,-0.52626044,0.19608775,-0.13103059,24.827057,74.19325,8.388709,STN
4129076376000,1.119938,4.04759524041042,-8.92101850907656,3.670335765588,-0.5589417,0.094989546,-0.1957823,24.943594,74.390205,8.23043,STN
4129081750000,1.125312,4.00208969455587,-9.6559456217765,3.27694183438395,-0.627664,-0.0070249503,-0.25686884,25.032883,74.11737,8.608126,STN
4129086428000,1.12999,3.87372215759312,-10.8190340362942,2.35113894821568,-0.7058548,-0.095294975,-0.32925636,25.098259,73.84807,9.000737,STN
4129091749000,1.135311,3.73232391603121,-12.1058542691193,1.3095541690524,-0.754724,-0.13072516,-0.408058,25.01939,73.630394,9.334311,STN
4129096516000,1.140078,3.68482213391304,-12.6385533217391,0.573276014782609,-0.75625116,-0.10354166,-0.49174652,24.936049,73.41153,9.68028,STN
4129101407000,1.144969,3.6360847275065,-13.1851090310665,-0.182154329780751,-0.69974613,-0.022602014,-0.5488624,24.73154,73.52889,9.916469,STN
4129106431000,1.149993,3.58172210039291,-13.7427489180642,-0.944040944513656,-0.5671884,0.06872234,-0.59620446,24.543991,73.60229,10.1632805,STN
4129111385000,1.154947,3.51807001303306,-14.2837912333493,-1.66239966679444,-0.36102137,0.13316862,-0.6258314,24.375069,73.62767,10.410278,STN
4129116403000,1.159965,3.4424690323512,-14.7614080862171,-2.3120309266759,-0.09040806,0.1432479,-0.65240407,24.059526,73.829216,10.578267,STN
4129121393000,1.164955,3.32434501623492,-14.9645811117263,-2.65695315635752,0.19120082,0.14538592,-0.6582073,23.766659,73.959045,10.744119,STN
4129126377000,1.169939,3.18838067339919,-15.1538559262657,-2.92282825974599,0.4841107,0.15149458,-0.65301496,23.273027,74.174225,10.812828,STN
4129131421000,1.174983,2.96683531869818,-15.2816709218557,-2.82483697073558,0.74128497,0.17898351,-0.66553766,22.80282,74.305405,10.895696,STN
4129137280000,1.180842,2.71082382838802,-15.4541409843081,-2.64307286349501,0.9456194,0.27091873,-0.68600166,22.055733,74.45122,10.849909,STN
4129141369000,1.184931,2.54323646476462,-15.7744187631954,-1.95037878365193,1.065349,0.42455134,-0.7119634,21.362875,74.52889,10.828005,STN
4129146338000,1.1899,2.33958236600095,-16.1636240171184,-1.10860894194484,1.0519099,0.49846604,-0.78893244,20.177586,74.58547,10.631472,STN
4129151434000,1.194996,1.94285874952112,-16.9178561290453,1.03688850775784,0.8304713,0.37598756,-0.9089675,19.035446,74.60861,10.505675,STN
4129156378000,1.19994,1.51324937357597,-17.7341140679504,3.42360759806936,0.35888332,0.183565,-1.0326678,17.942928,74.64073,10.44421,STN
4129161458000,1.20502,1.1813861945995,-18.0823858065491,4.77727114601511,-0.2742785,0.1685988,-1.0735956,17.092127,74.671074,10.404497,STN
4129166341000,1.209903,0.884549583979849,-18.3179702619647,5.85624864060453,-0.9260717,0.3155119,-1.0403035,16.253042,74.77912,10.404158,STN
4129171401000,1.214963,0.744516021946328,-17.6494083662496,4.99439110533855,-1.1695015,0.96852684,-0.82894415,15.782845,74.77777,10.258607,STN
4129176348000,1.21991,0.640451589483335,-16.8168926608729,3.76371612149747,-1.4361442,1.9281962,-0.46211955,15.434633,74.95218,10.050139,STN
4129181445000,1.225007,0.338791891327275,-15.5556759061575,2.44159674224446,-1.3790283,2.9028316,-0.06811147,15.310649,75.074005,9.682312,STN
4129186334000,1.229896,-0.0150072130182784,-14.2121958798121,1.15548920328806,-1.0806206,3.6474764,0.24251351,15.376745,75.24737,9.210443,STN
4129191423000,1.234985,-0.179373983659726,-12.9699332566705,0.758400522770744,-0.6722572,3.9938369,0.42485678,15.619791,75.53337,8.683078,STN
4129196419000,1.239981,-0.284507428064455,-11.7934403400649,0.628235323214398,-0.301462,3.998724,0.5030475,15.965385,75.778336,8.089902,STN
4129201574000,1.245136,0.304643689405761,-10.5502869767321,1.34306823538275,-0.040317107,3.739717,0.5329799,16.381039,76.08036,7.4728303,STN
4129206377000,1.249939,0.937252224390624,-9.3885151850186,2.11095151009774,0.09162979,3.2876768,0.56107974,16.744675,76.315704,6.855606,STN
4129211437000,1.254999,1.52130210147998,-8.75030448285775,2.41443201709966,0.122478485,2.7094927,0.5876524,17.025269,76.481125,6.270421,STN
4129216439000,1.260001,2.03644499064097,-8.56158922710818,2.33282517531942,0.10293079,2.1013765,0.6032294,17.173891,76.607864,5.715205,STN
4129221434000,1.264996,2.38536404614094,-8.52901456711409,2.07541926442953,0.062002823,1.520749,0.59956425,16.919744,76.46955,5.263966,STN
4129226445000,1.270007,2.6627075287006,-8.56480061800895,1.73992309884415,0.043066,1.031446,0.5708536,16.526634,76.309654,4.852542,STN
4129231422000,1.274984,2.8871884194065,-8.68630218423897,1.38392901247322,0.03481932,0.63194007,0.5012149,15.793646,76.07971,4.523709,STN
4129236433000,1.279995,3.07109197169107,-8.87963657934558,1.00669109462514,0.03756821,0.32070425,0.40133846,14.965179,75.83281,4.2475467,STN
4129241433000,1.284995,3.24300444733096,-9.02452159667853,0.72392932341637,0.046120327,0.10873401,0.25717425,13.942129,75.58995,4.06129,STN
4129246448000,1.29001,3.4044260239917,-9.12422322726374,0.529273823623962,0.040317107,-0.053145275,0.1301143,12.870532,75.337654,3.9287791,STN
4129251434000,1.294996,3.52776229775581,-9.08284304394464,0.446052435467128,0.04428773,-0.1591304,0.033292156,11.763084,75.12356,3.8806274,STN
4129256498000,1.30006,3.61406437253584,-8.89345820519031,0.477217062456747,0.03145956,-0.25167647,-0.037873644,10.639626,74.90752,3.8830311,STN
4129261437000,1.304999,3.69823616308453,-8.70874815017301,0.507612420415225,-0.0027488936,-0.3042109,-0.08582657,9.465939,74.70609,3.9394424,STN
4129266449000,1.310011,3.78365203962432,-8.52130802145329,0.538457031487889,-0.028099801,-0.40133846,-0.093767814,8.275749,74.505104,4.0259614,STN
4129271383000,1.314945,3.84089733022892,-8.3244080669145,0.59615294216396,-0.054061573,-0.4783075,-0.12858713,7.1331873,74.32024,4.1520185,STN
4129276414000,1.319976,3.8644645777343,-8.1075887992565,0.690421981402856,-0.124005646,-0.55771995,-0.15027285,5.979801,74.15677,4.293365,STN
4129281356000,1.324918,3.86791007992256,-7.95430377316554,0.780863874835431,-0.1908954,-0.63041294,-0.16401732,4.6619244,73.920494,4.46087,STN
4129286433000,1.329995,3.83966918141336,-7.89311515972894,0.870293460503388,-0.28405234,-0.71776664,-0.17623462,3.3456736,73.71299,4.6527863,STN
4129291334000,1.334896,3.7957199306544,-7.88547042869214,0.948726080893813,-0.36346483,-0.8045095,-0.17379116,1.9520286,73.47439,4.8537917,STN
4129296471000,1.340033,3.71257943528307,-7.99170538285607,1.01339090794761,-0.45570546,-0.88056225,-0.19120082,0.57056165,73.26697,5.0813046,STN
4129301381000,1.344943,3.60491865857349,-8.11328016776451,1.06779132951832,-0.54305923,-0.9419542,-0.21991149,359.1919,73.06965,5.3214774,STN
4129306408000,1.34997,3.37698948054755,-8.32138948250309,1.09256622330177,-0.63132924,-0.99021256,-0.2574797,357.82825,72.89936,5.583312,STN
4129311371000,1.354933,3.12128941165221,-8.51025040202738,1.10594155368377,-0.7415904,-1.0112875,-0.30604348,356.58026,72.78436,5.860882,STN
4129316402000,1.359964,2.76883203108998,-8.65123354352597,1.08580114996342,-0.83016586,-0.99265605,-0.34483343,355.35483,72.685776,6.151883,STN
4129321329000,1.364891,2.4204725176998,-8.76469337462643,1.07862194458691,-0.9224065,-0.91324353,-0.39095375,354.30966,72.67081,6.4354405,STN
4129326398000,1.36996,2.05543864464475,-8.83021214209968,1.09734162036055,-1.0054842,-0.7788532,-0.41386122,353.29922,72.67268,6.718255,STN
4129331351000,1.374913,1.68022915245161,-8.86797388734491,1.14251924397022,-1.0735956,-0.58062744,-0.4083634,352.4787,72.753586,6.953311,STN
4129336432000,1.379994,1.24072166903226,-8.82933559305211,1.268092817866,-1.1511755,-0.312763,-0.37751472,351.72107,72.85422,7.1704307,STN
4129341393000,1.384955,0.811085208334661,-8.7723555791277,1.44167526057968,-1.2321151,-0.010995574,-0.312763,351.13928,73.0257,7.306815,STN
4129346443000,1.390005,0.372196267395685,-8.65591611251042,1.77308114816187,-1.3020593,0.3381139,-0.24373524,350.64575,73.21342,7.4082694,STN
4129351387000,1.394949,-0.0568546398496653,-8.53795105356056,2.12299963298844,-1.3542882,0.7309003,-0.18295415,350.33685,73.44532,7.40362,STN
4129356466000,1.400028,-0.491057611029824,-8.37512422824102,2.74963344284845,-1.3582588,1.1404854,-0.13713925,350.12723,73.68497,7.3573346,STN
4129361477000,1.405039,-0.878323821329938,-8.23984021506219,3.35806389567133,-1.2947289,1.3368785,-0.095294975,350.03986,73.90616,7.206958,STN
4129366452000,1.410014,-0.999640056272647,-8.26783634423661,3.89932094762511,-1.2269229,1.6756034,-0.07086037,350.10413,74.1269,7.010407,STN
4129371455000,1.415017,-1.11007765686081,-8.30100155774926,4.40074596317868,-1.0525209,1.9312505,-0.051618114,350.24268,74.23067,6.719115,STN
4129376442000,1.420004,-1.10064833769003,-8.38586621796644,4.45732192743337,-0.8179486,2.062892,-0.030543262,350.43762,74.29878,6.406611,STN
4129381583000,1.425145,-1.08494774419297,-8.4613591509468,4.48684710961226,-0.50335294,2.1025982,-0.017715093,350.66287,74.20354,6.043356,STN
4129386436000,1.429998,-1.00951289160956,-8.41106911794409,4.22282518027051,-0.17715092,2.0793853,-0.0009162979,350.90335,74.03853,5.668433,STN
4129392509000,1.436071,-0.919116241564399,-8.34120204506959,3.85563821286022,0.15210545,1.9892827,0.034208454,351.11868,73.77922,5.2843943,STN
4129396425000,1.439987,-0.915440226112527,-8.20151296657518,3.11675779811802,0.5305365,1.9700404,0.05100725,351.34512,73.41156,4.8965073,STN
4129401337000,1.444899,-0.910829248610076,-8.02629520519506,2.18994967829837,0.60994893,2.1618521,0.06719518,351.60464,73.08433,4.511821,STN
4129406490000,1.450052,-0.898410678501027,-7.8314484288501,2.06589618973306,0.57360244,2.6422975,0.059864793,351.93588,72.68181,4.1045117,STN
4129411440000,1.455002,-0.884504779557055,-7.64140131752713,2.16787277230859,0.28344148,2.6963592,0.04550946,352.19852,72.32684,3.7123652,STN
4129416454000,1.460016,-0.870419087172191,-7.44889703143151,2.27116783999218,-0.010079277,2.4920247,0.058337633,352.55856,72.16198,3.3281248,STN
4129421394000,1.464956,-0.856541280953359,-7.25923385366676,2.37293840926958,-0.28619036,2.1594086,0.087659165,352.89468,72.06998,2.9507043,STN
4129426435000,1.469997,-0.74008970684634,-7.201759,2.31833753396515,-0.49021935,1.7629571,0.10048734,353.1525,72.03595,2.5992146,STN
4129431430000,1.474992,-0.581887326681969,-7.201759,2.19791481250802,-0.602924,1.3637567,0.09468412,353.31573,72.04982,2.2768853,STN
4129436431000,1.479993,-0.423494913628511,-7.201759,2.07734743913322,-0.63285637,1.0671816,0.09621128,353.3804,72.02945,1.9753208,STN
4129441445000,1.485007,-0.264690762648699,-7.201759,1.95646665327015,-0.60048056,0.8677341,0.09254608,353.36322,72.018074,1.7057651,STN
4129446399000,1.489961,-0.144887539344713,-7.25189391655589,1.81195790148036,-0.5412266,0.745561,0.09101892,353.2861,72.003105,1.4570553,STN
4129451427000,1.494989,-0.0430551247018127,-7.32948036175227,1.65193549749245,-0.4550946,0.69027776,0.081855945,353.1744,71.96695,1.2256302,STN
4129456413000,1.499975,0.0327888514092719,-7.34893536746303,1.75668490395336,-0.34116822,0.657291,0.06566802,352.99945,71.94256,1.0674419,STN
4129462478000,1.50604,0.10988087608741,-7.33792222904816,2.04302679023512,-0.2932153,0.46883908,0.045814894,352.7695,71.91015,0.93391615,STN
4129466436000,1.509998,0.249470359885932,-7.31879239391635,2.34726450418251,-0.11728613,0.3717115,0.03359759,352.55005,71.84171,0.82165587,STN
4129471414000,1.514976,0.471019493893114,-7.28858117059569,2.79036270910435,-0.04337143,0.1518,0.028099801,352.24866,71.787766,0.7431586,STN
4129476429000,1.519991,0.734434640464704,-7.29094363394703,3.03435802023235,0.1001819,-0.053145275,0.016798794,351.89462,71.60433,0.6820929,STN
4129481429000,1.524991,1.01729788748646,-7.30980117062125,3.17578964374323,0.24465153,-0.22937989,0.013744468,351.49188,71.40173,0.6405975,STN
4129486350000,1.529912,1.29130250815896,-7.36507826362066,3.11635344753312,0.3921755,-0.35063666,0.018936822,350.95908,71.038414,0.63638437,STN
4129491390000,1.534952,1.56928545459781,-7.44384004361682,2.93566456137454,0.52106804,-0.41355577,0.010079277,350.40485,70.6474,0.6523953,STN
4129496382000,1.539944,1.77410956448066,-7.53046333952484,2.71879875253289,0.64476824,-0.43157628,-0.00030543262,349.74405,70.16487,0.72153986,STN
4129501441000,1.545003,1.92155910100137,-7.62559220734341,2.46670763027685,0.7480045,-0.45906523,-0.022296581,349.0805,69.66539,0.8090713,STN
4129506416000,1.549978,2.01144513958292,-7.61991523112215,2.39985845844091,0.8222246,-0.49632803,-0.056505036,348.37064,69.18264,0.9665892,STN
4129511453000,1.555015,2.04976755594836,-7.51931858804369,2.50524505342602,0.8756753,-0.5384777,-0.09712757,347.67072,68.691055,1.1405052,STN
4129516425000,1.559987,2.07814028834331,-7.41738383820359,2.55223228075848,0.8961393,-0.5699373,-0.13652839,346.98453,68.26718,1.3670484,STN
4129521425000,1.564987,2.09725575740519,-7.31224940706587,2.54267459612774,0.88361657,-0.5699373,-0.17012598,346.31213,67.84931,1.6077158,STN
4129526400000,1.569962,2.06581983452497,-7.25237333752671,2.42831304766854,0.8332202,-0.51893,-0.20372356,345.63873,67.40641,1.8624985,STN
4129531378000,1.57494,1.98245859663882,-7.23847986235671,2.20601652614144,0.77518797,-0.40011674,-0.22510384,345.0003,66.98249,2.1180081,STN
4129536417000,1.579979,1.87280597257921,-7.28191337138486,1.97531866392261,0.70952,-0.20769419,-0.23884831,344.39667,66.57315,2.3709884,STN
4129541392000,1.584954,1.73172030556707,-7.39948449047478,1.74017598378245,0.6453791,-0.021991149,-0.2510656,343.8389,66.19202,2.617504,STN
4129546337000,1.589899,1.58137565622353,-7.51322160163874,1.52136417624747,0.59559363,0.15943582,-0.25167647,343.39734,65.90171,2.836916,STN
4129551428000,1.59499,1.41080761150801,-7.62543760924323,1.31937577501381,0.56199604,0.29901853,-0.24556783,343.00165,65.63226,3.0409276,STN
4129556404000,1.599966,1.25842231038747,-7.72709364863974,1.14421136150041,0.5589417,0.36193767,-0.23915374,342.69382,65.44907,3.215817,STN
4129561576000,1.605138,1.1484855286131,-7.8056198533959,1.03741558003044,0.56016344,0.43249258,-0.2049453,342.42343,65.27927,3.3641202,STN
4129566366000,1.609928,1.0466685942165,-7.87834617218593,0.938507654036401,0.5867361,0.46761733,-0.19028452,342.21112,65.16573,3.4872806,STN
4129571431000,1.614993,0.933334701233574,-7.95048704573972,0.831464945434506,0.62980205,0.42149702,-0.15577064,341.99048,65.05154,3.597485,STN
4129576402000,1.619964,0.761798629930055,-7.97066774637558,0.700290307011445,0.6731735,0.3042109,-0.11728613,341.75906,64.93281,3.707126,STN
4129581406000,1.624968,0.57946310195335,-7.98533551907815,0.583435000298299,0.70952,0.13164146,-0.071776666,341.5297,64.85159,3.7931266,STN
4129586433000,1.629995,0.355772892966267,-7.97638787017006,0.529749345096181,0.75319684,-0.0729984,-0.02107485,341.2567,64.75993,3.886039,STN
4129591561000,1.635123,0.123333397639338,-7.97298267205407,0.469358288426878,0.79473567,-0.21624629,0.020158553,340.97647,64.689644,3.9562445,STN
4129596398000,1.63996,-0.148914700195906,-8.04104464913312,0.342309169786463,0.82253003,-0.2742785,0.035430185,340.66318,64.61403,4.034986,STN
4129601757000,1.645319,-0.438026902868357,-8.12746388257134,0.214932112163997,0.84238315,-0.25900686,0.056505036,340.36145,64.54463,4.06471,STN
4129606401000,1.649963,-0.532382879077119,-8.33976517757505,0.271545703800785,0.8744536,-0.23579398,0.0842994,340.04514,64.46718,4.0956755,STN
4129611435000,1.654997,-0.632421956056352,-8.58333334022502,0.369742663333013,0.8784242,-0.1853976,0.09987647,339.77036,64.42868,4.0657177,STN
4129616406000,1.659968,-0.714825418537359,-8.92210275968843,0.735980244615828,0.90316427,-0.17134771,0.12095132,339.4893,64.37845,4.0300293,STN
4129621657000,1.665219,-0.790788607458038,-9.27775637977755,1.13997507688574,0.8854492,-0.18997909,0.129198,339.22263,64.34761,3.970922,STN
4129626380000,1.669942,-0.74505427028817,-9.57502983164813,1.67964024307381,0.84329945,-0.23548855,0.17165314,338.94717,64.32034,3.900905,STN
4129631555000,1.675117,-0.683303284879593,-9.89739344660846,2.28700911422815,0.77213365,-0.27580565,0.22021692,338.68518,64.2614,3.7994552,STN
4129636392000,1.679954,-0.505530991071668,-10.1640521564809,3.02031984706898,0.7098254,-0.29810223,0.2843578,338.41025,64.21529,3.6892908,STN
4129641746000,1.685308,-0.29547333146988,-10.4726659295181,3.80656157204819,0.6618725,-0.2724459,0.35185838,338.1406,64.108185,3.558084,STN
4129646409000,1.689971,0.188755397903614,-11.0465665272088,3.91416788144578,0.6554584,-0.2284636,0.43157628,337.86188,64.011246,3.4119751,STN
4129651727000,1.695289,0.733128354866855,-11.6876615551213,4.04346302314823,0.68203104,-0.15210545,0.5222898,337.58328,63.788143,3.2601876,STN
4129656387000,1.699949,1.04949458171408,-11.9756358330455,4.29087759790057,0.7483099,-0.109650314,0.5714644,337.30353,63.561523,3.1033542,STN
4129661457000,1.705019,1.393695605344,-12.2889469036626,4.56006040777061,0.81092364,-0.00061086525,0.67103547,336.96936,63.36301,3.0086,STN
4129666404000,1.709966,1.75551319375,-12.6846568125,5.02722484466912,0.9407325,0.08002335,0.7696902,336.635,63.13312,2.9035184,STN
4129671382000,1.714944,2.12667250772059,-13.1073658786765,5.55303379205234,1.0974194,0.1337795,0.86376345,336.3118,62.885452,2.768207,STN
4129676365000,1.719927,2.42909126012036,-13.6481793809428,6.6060313223671,1.2504412,0.15882497,0.9263771,335.94897,62.570362,2.6893575,STN
4129681359000,1.724921,2.72650820381143,-14.1998400631896,7.70455554162487,1.3952162,0.10873401,0.9615019,335.575,62.22325,2.6001124,STN
4129686360000,1.729922,3.09654360118196,-14.7605095519468,8.6185014818236,1.5225816,-0.0720821,0.9483683,335.13126,61.790554,2.586295,STN
4129691379000,1.734941,3.47370026450139,-15.3238574062376,9.52081329380215,1.6401732,-0.37293324,0.8894198,334.65195,61.33286,2.6001287,STN
4129696383000,1.739945,3.8170837496679,-15.5571480939114,9.21105979686347,1.7201965,-0.7079928,0.80573124,334.09192,60.723515,2.6949747,STN
4129701373000,1.744935,4.15653927143911,-15.7599395763838,8.7922510302583,1.8072448,-1.0134255,0.72112644,333.48633,60.103264,2.839158,STN
4129706376000,1.749938,4.38399730257341,-15.654541890977,8.14321768147357,1.9172006,-1.2315043,0.63132924,332.7885,59.365524,3.1018445,STN
4129711379000,1.754941,4.57329468903364,-15.4447796969568,7.41672385114789,2.035403,-1.5076154,0.5555819,332.0358,58.634285,3.4223588,STN
4129716378000,1.75994,4.55586506594267,-15.1316450334605,6.59232186660796,2.1398609,-1.9214766,0.4801401,331.19055,57.986973,3.875911,STN
4129721387000,1.764949,4.50893209343509,-14.803113735838,5.75222107063888,2.1621575,-2.3738225,0.41325033,330.30475,57.352898,4.3789544,STN
4129726387000,1.769949,4.40599155172414,-14.3837029655172,4.85511066896552,2.150551,-2.702468,0.3390302,329.3428,56.772232,4.9789147,STN
4129731339000,1.774901,4.29288586395707,-13.9501305882938,3.95497653004074,2.1132884,-2.8927524,0.2415972,328.3442,56.208775,5.6338854,STN
4129736426000,1.779988,4.25940546139285,-13.4208454649796,3.09155676877553,2.03693,-2.898861,0.14752395,327.33826,55.749435,6.3220296,STN
4129741406000,1.784968,4.24515046567699,-12.8839069953173,2.26001485585334,1.9483547,-2.7693577,0.06719518,326.35162,55.313396,7.024262,STN
4129746401000,1.789963,4.19421860530923,-12.3725711627022,1.70186334538535,1.9043725,-2.5980098,0.009773844,325.37274,54.952763,7.7336774,STN
4129751378000,1.79494,4.13526227559467,-11.8691767359657,1.20753880266413,1.8955148,-2.5164595,-0.018936822,324.42334,54.613575,8.436697,STN
4129756377000,1.799939,4.08281292645686,-11.59582923742,0.960318757945703,1.9007072,-2.3893993,-0.089491755,323.5164,54.325108,9.145729,STN
4129761464000,1.805026,4.03226764823621,-11.4147085508387,0.812895026136953,1.9431623,-2.2913556,-0.1777618,322.6367,54.032948,9.847042,STN
4129766493000,1.810055,4.08161333123871,-11.2900784754065,0.697641815796025,2.0305161,-2.287385,-0.2779437,321.76505,53.736755,10.569281,STN
4129771401000,1.814963,4.26562426233688,-11.2428957558723,0.626868445942582,2.0751092,-2.278833,-0.38881573,320.93848,53.440067,11.289497,STN
4129776364000,1.819926,4.56712697430262,-11.2225476631445,0.576077737704987,2.0427334,-2.1099286,-0.45020768,320.16318,53.147224,11.985515,STN
4129781409000,1.824971,5.04700967717667,-11.2429686120034,0.555657193981403,1.9297233,-1.7318029,-0.4373795,319.44897,52.869568,12.64522,STN
4129786611000,1.830173,5.53107362277324,-11.3227973158304,0.644465843908985,1.7476854,-1.1624765,-0.36377025,318.78036,52.60499,13.283211,STN
4129791367000,1.834929,5.96511055770128,-11.4423789906651,0.812765838751459,1.5381587,-0.46609017,-0.26267207,318.22906,52.390312,13.818569,STN
4129796382000,1.839944,6.27758683896661,-11.5179903641376,1.20987744225467,1.3582588,0.3268129,-0.108123146,317.7545,52.20469,14.291576,STN
4129801401000,1.844963,6.4150161098744,-11.5327147458389,1.87248432572858,1.2217305,0.98929626,0.07269296,317.39917,52.082993,14.631769,STN
4129806392000,1.849954,6.44790660895522,-11.4403960059701,2.68908155014925,1.1160508,1.3478742,0.24678956,317.07654,51.970123,14.931273,STN
4129811414000,1.854976,6.37612349014925,-11.2394030734328,3.67011805683582,0.94134337,1.3732251,0.4166101,316.80994,51.934574,15.127473,STN
4129816399000,1.859961,6.16901544140187,-10.9385235672897,4.31703010186916,0.72204274,1.171945,0.5861252,316.55176,51.874508,15.260949,STN
4129821363000,1.864925,5.82246746719626,-10.5342173654206,4.62359189626168,0.4841107,0.9089675,0.7333437,316.2679,51.884953,15.359971,STN
4129826366000,1.869928,5.44123450962528,-10.0905940585704,4.72850199024877,0.2968805,0.70524395,0.82986045,315.98343,51.8254,15.415627,STN
4129831406000,1.874968,4.9953959614989,-9.57382662286134,4.43972025329065,0.17195857,0.57696223,0.87689704,315.64844,51.827095,15.473575,STN
4129836588000,1.88015,4.56829541047281,-9.10406519101655,4.13539223522459,0.105068825,0.4831944,0.87109387,315.31265,51.803467,15.490247,STN
4129841395000,1.884957,4.20552377246651,-8.73403831646966,3.84517481875493,0.07880162,0.4007276,0.82344633,314.95883,51.805283,15.521982,STN
4129846407000,1.889969,3.82728132401891,-8.34823122364066,3.54258074940898,0.08002335,0.3555236,0.7602218,314.62997,51.823185,15.519499,STN
4129851410000,1.894972,3.48981306599494,-7.88823887594433,3.24352493028194,0.087964594,0.21991149,0.7144069,314.2723,51.84388,15.552039,STN
4129856407000,1.899969,3.15682388673414,-7.42118925407555,2.94513209624074,0.10598512,0.08155051,0.6236934,313.92914,51.84987,15.616633,STN
4129861417000,1.904979,2.7874381510222,-6.86419997792922,2.59365576856452,0.13836098,-0.04337143,0.537256,313.61026,51.877785,15.6534815,STN
4129866335000,1.909897,2.40953017667619,-6.27921895950758,2.22610132479666,0.15027285,-0.09712757,0.4578435,313.29413,51.89694,15.721021,STN
4129871400000,1.914962,2.05430371258184,-5.83111047955214,1.91202741022867,0.15088372,-0.13530666,0.37782016,312.9778,51.898697,15.800052,STN
4129876350000,1.919912,1.71245006185596,-5.41728784932157,1.6151546006642,0.16768251,-0.13500121,0.30176744,312.67368,51.88532,15.899162,STN
4129881412000,1.924974,1.35666946046149,-5.00933891362644,1.40808332959152,0.16646078,-0.11209377,0.24617869,312.40356,51.88315,15.98083,STN
4129886341000,1.929903,1.00831798252261,-4.61682995353913,1.23636072999688,0.13836098,-0.05955936,0.19853121,312.15408,51.876465,16.073606,STN
4129891369000,1.934931,0.69679942316053,-4.30945854639175,1.12421840810015,0.08582657,-0.02687807,0.14508049,311.93094,51.88382,16.14362,STN
4129896379000,1.939941,0.395306324868925,-4.02209803092784,1.02529095301915,0.018936822,0.048563786,0.089491755,311.73984,51.896763,16.210066,STN
4129901400000,1.944962,0.0311738421861234,-3.68552897564244,0.857092562617474,-0.084910266,0.122783914,0.03176499,311.60352,51.939407,16.236837,STN
4129906403000,1.949965,-0.346992252359581,-3.3381438615547,0.672406808434288,-0.2003638,0.20799962,-0.03268129,311.4984,51.994553,16.26452,STN
4129911479000,1.955041,-0.435248992210108,-3.16131715332179,0.575190978119014,-0.31490102,0.29718593,-0.08368854,311.45462,52.08091,16.243011,STN
4129916449000,1.960011,-0.352801022095985,-3.08856884162421,0.531542031614021,-0.44501534,0.37995818,-0.1328632,311.43958,52.1925,16.223682,STN
4129921407000,1.964969,-0.174540040603612,-3.06759948887833,0.535276113606464,-0.5681047,0.45662177,-0.15790866,311.4862,52.34702,16.13828,STN
4129926379000,1.969941,0.0517711970579848,-3.07212580484791,0.56243347063308,-0.7067711,0.5143485,-0.17989981,311.55475,52.532578,16.053373,STN
4129931414000,1.974976,0.34447349164871,-3.1379031485816,0.641012765815953,-0.8509353,0.54428095,-0.19853121,311.62912,52.74139,15.984427,STN
4129936395000,1.979957,0.683956478531185,-3.25106406379361,0.758888797936147,-0.97494096,0.5403103,-0.20738874,311.70947,52.97794,15.915025,STN
4129941368000,1.98493,1.03009298447875,-3.40034144631,0.918400384087545,-1.0852021,0.5183192,-0.22174409,311.75214,53.207138,15.902721,STN
4129946411000,1.989973,1.38753728403468,-3.58417004681751,1.11754798487207,-1.2034045,0.44226643,-0.22296582,311.77725,53.46811,15.89948,STN
4129951397000,1.994959,1.67067596506036,-3.77360676826654,1.29750525563496,-1.2522738,0.31429017,-0.21471913,311.73145,53.680664,15.983076,STN
4129956408000,1.99997,1.91630003833897,-3.96825210690488,1.46897867532593,-1.353372,0.15088372,-0.23151793,311.6595,53.928932,16.090666,STN
4129961442000,2.005004,2.10653390356959,-4.17400884487193,1.59336260421767,-1.4407257,-0.02687807,-0.22937989,311.48193,54.106922,16.29128,STN
4129966404000,2.009966,2.25318578549532,-4.38421010873367,1.68135370274663,-1.5265522,-0.19181168,-0.22388211,311.26743,54.304386,16.51582,STN
4129971398000,2.01496,2.32822664816985,-4.54365712127005,1.67092781762898,-1.5964963,-0.33261612,-0.2003638,310.94678,54.45674,16.808939,STN
4129976371000,2.019933,2.3602546505428,-4.67176870077817,1.60229664332789,-1.6624697,-0.43066,-0.18875736,310.59772,54.62648,17.116001,STN
4129981403000,2.024965,2.37239659562665,-4.75480716704799,1.48574490467706,-1.706452,-0.5006041,-0.16187929,310.20248,54.80299,17.44489,STN
4129986398000,2.02996,2.36755390317878,-4.79839144964568,1.33077864521158,-1.7458528,-0.52870387,-0.13744467,309.79343,54.99311,17.772343,STN
4129991376000,2.034938,2.35726685590313,-4.76517174460141,1.22038090292634,-1.7617353,-0.5143485,-0.116675265,309.3605,55.22311,18.086632,STN
4129996407000,2.039969,2.34268132185671,-4.67279644180626,1.14259133724521,-1.7708983,-0.47250426,-0.09437868,308.92505,55.460114,18.387743,STN
4130001398000,2.04496,2.34210919007335,-4.53586286772411,1.13775057839383,-1.7376062,-0.41447207,-0.06811147,308.4809,55.721127,18.674913,STN
4130006389000,2.049951,2.35121613659141,-4.36738449978089,1.18328535853101,-1.6978999,-0.35827246,-0.05955936,308.04742,55.97733,18.949371,STN
4130011513000,2.055075,2.38584766862146,-4.13356340928528,1.27656828032987,-1.6313156,-0.31795537,-0.0711658,307.62057,56.214222,19.217958,STN
4130016412000,2.059974,2.4431680136123,-3.85173773549175,1.41031591823458,-1.5375478,-0.31031954,-0.08277224,307.1999,56.431557,19.475985,STN
4130021396000,2.064958,2.48982105385198,-3.57088815246072,1.54847244578838,-1.4443909,-0.34880406,-0.10903945,306.7774,56.576298,19.754799,STN
4130026368000,2.06993,2.52587318302101,-3.29599052637706,1.68817454043157,-1.3362677,-0.41416663,-0.13225232,306.354,56.69298,20.03234,STN
4130031337000,2.074899,2.54918002341204,-3.10362348887058,1.79795208771737,-1.2330315,-0.52656585,-0.12889257,305.92413,56.715824,20.340397,STN
4130036395000,2.079957,2.55361343494417,-3.03268881177009,1.86445335328574,-1.135904,-0.6389651,-0.11575896,305.48456,56.717033,20.652205,STN
4130041335000,2.084897,2.5687870570935,-3.0736957410847,1.88858925325097,-1.0598512,-0.70341134,-0.087659165,305.16046,56.74042,20.924196,STN
4130046412000,2.089974,2.62478502222804,-3.52676969818867,1.76132128598053,-1.029308,-0.84421575,-0.06994407,304.7866,56.751537,21.214836,STN
4130051333000,2.094895,2.73506385718152,-4.16665012615015,1.58432465374361,-0.95569867,-0.99265605,-0.021685716,304.42587,56.74453,21.487688,STN
4130056399000,2.099961,2.97820362528816,-5.28995562732284,1.2779685987371,-0.86926126,-1.138042,0.0711658,304.02112,56.73927,21.757332,STN
4130061379000,2.104941,3.1618176352627,-6.57037485218996,1.0387185217442,-0.74464476,-1.2232577,0.20891592,303.4836,56.719154,22.043024,STN
4130066402000,2.109964,3.22722107580849,-8.24283677614839,0.931269834573177,-0.5708536,-1.1658363,0.37720928,302.93582,56.69969,22.290257,STN
4130071393000,2.114955,3.23065500522108,-9.81280192168374,0.937411395644933,-0.39522982,-0.92087936,0.516792,302.2994,56.83201,22.488506,STN
4130077098000,2.12066,3.03502395663253,-11.3096076505121,1.31047540268132,-0.2733622,-0.4990769,0.6246097,301.71802,56.965816,22.618713,STN
4130082850000,2.126412,2.79143053711564,-12.7640731714463,1.78021816629051,-0.22296582,0.36102137,0.68416905,301.2658,57.31754,22.559443,STN
4130086409000,2.129971,2.44914519518584,-13.4380578292266,2.45773138889119,-0.28130344,0.6762278,0.6743952,300.78452,57.66398,22.504562,STN
4130091359000,2.134921,1.97308100789937,-14.3754627339787,3.40004396317424,-0.31520647,1.2113458,0.61422503,300.62817,58.107388,22.197937,STN
4130096406000,2.139968,1.29229045083539,-14.3194376866041,6.21683237441424,-0.4914411,1.251052,0.44318274,300.44727,58.55014,21.950682,STN
4130101336000,2.144898,0.610808094532872,-14.1794066782007,9.12480186685121,-0.94897914,0.92149025,0.24251351,300.33298,59.02206,21.71543,STN
4130106412000,2.149974,0.275340396408021,-13.3643785614647,10.0067439930253,-1.4950926,0.5149594,0.08460484,300.3753,59.515495,21.371464,STN
4130111469000,2.155031,-0.0155299548735833,-12.4730018491718,10.6353991944202,-1.9520199,0.2648101,-0.003970624,300.3886,60.039764,21.091293,STN
4130116476000,2.160038,-0.0377554005970853,-11.4932289137608,9.82548534971863,-2.205529,0.18295415,-0.06872234,300.85602,60.270313,20.675127,STN
4130121343000,2.164905,-0.015336893450291,-10.5247492866625,8.80095949396373,-2.2675319,0.23273966,-0.07238753,301.27017,60.544586,20.300526,STN
4130126361000,2.169923,0.00777715398398346,-9.52622231547304,7.74464744461546,-2.1853704,0.3631594,-0.044593163,301.80573,60.69112,19.934034,STN
4130131407000,2.174969,0.0310201757762012,-8.52212365133952,6.68244126665384,-2.0103576,0.49754974,0.010079277,302.3278,60.835564,19.57346,STN
4130137089000,2.180651,0.298989656844568,-7.97117542521284,5.10121413879559,-1.7427986,0.59864795,0.073303826,302.8621,60.95386,19.207684,STN
4130141348000,2.18491,0.569781478480669,-7.7258699322815,3.80459912907131,-1.4385877,0.6310238,0.0852157,303.3909,61.027725,18.84898,STN
4130146575000,2.190137,0.927145225981549,-7.52541279746835,2.40742037096117,-1.2840388,0.6789767,0.082161374,303.74658,61.193993,18.602257,STN
4130151380000,2.194942,1.38622478133448,-7.86602039240506,2.13592173745977,-0.9789116,0.66767573,0.084910266,304.0873,61.26177,18.357067,STN
4130156399000,2.199961,1.86342296778188,-8.2339468727654,1.99990852392889,-0.7147123,0.6038403,0.0711658,304.18423,61.4998,18.225811,STN
4130161441000,2.205003,2.33601401366224,-8.63902496963947,2.29407223851992,-0.5152648,0.49021935,0.0711658,304.2618,61.684666,18.09876,STN
4130166377000,2.209939,2.74845531073391,-9.03029946644427,2.70292395247253,-0.39950588,0.30940324,0.08246681,304.24084,61.844337,18.0487,STN
4130171374000,2.214936,3.01609187532378,-9.41062499990188,3.4776614407967,-0.36987892,0.045814894,0.087964594,304.16568,61.975204,18.02267,STN
4130176401000,2.219963,3.25764410015575,-9.76333303747688,4.29910041831013,-0.3903429,-0.27580565,0.086437434,304.02817,62.03114,18.075623,STN
4130181459000,2.225021,3.39910074746423,-10.0085246710795,5.27986680501314,-0.4810564,-0.6731735,0.049480084,303.79956,62.0884,18.172365,STN
4130186416000,2.229978,3.50925536994493,-10.2228456687648,6.18216378206137,-0.6429357,-1.1276573,0.022602014,303.53546,62.06121,18.317427,STN
4130191432000,2.234994,3.47618489378442,-10.307884332022,6.79633026121164,-0.8405506,-1.6358972,-0.01282817,303.15173,62.05394,18.51873,STN
4130196461000,2.240023,3.42787921005382,-10.3860313812329,7.33375642571341,-1.0308352,-2.0705278,-0.01863139,302.77615,61.942505,18.758003,STN
4130201444000,2.245006,3.28733735627095,-10.4199554549609,7.38706546755357,-1.1991285,-2.3558018,-0.0067195175,302.30606,61.87202,19.031702,STN
4130206408000,2.24997,3.15212956641984,-10.4462438702828,7.35837518598448,-1.2852604,-2.434298,0.019547688,301.85175,61.756012,19.304108,STN
4130211543000,2.255105,3.0380605508966,-10.4330817965028,6.88893737079133,-1.2712106,-2.2617285,0.058948494,301.39233,61.668823,19.5642,STN
4130217001000,2.260563,2.92188731741725,-10.4209118524145,6.37016134655453,-1.1139128,-1.7837266,0.09712757,301.01706,61.6047,19.755074,STN
4130221435000,2.264997,2.94492775756918,-10.453168661096,5.49001585911015,-0.83260936,-1.040609,0.124005646,300.7694,61.524597,19.888226,STN
4130226483000,2.270045,2.99022909677419,-10.4907230537634,4.54228961612903,-0.4896085,-0.11362094,0.12583824,300.65564,61.490932,19.931053,STN
4130231422000,2.274984,3.22427537767628,-10.5357319177848,4.15521315055667,-0.16768251,0.7825184,0.07422013,300.7489,61.401833,19.907183,STN
4130236775000,2.280337,3.48679034292964,-10.5929142279692,3.75674376387235,0.012217305,1.3939945,0.02443461,300.91205,61.39682,19.82669,STN
4130241431000,2.284993,3.88277507773983,-10.8017849233922,3.80896157404118,0.027183503,1.5131133,-0.014966198,301.19012,61.35226,19.716646,STN
4130246358000,2.28992,4.30180789311994,-11.0228128263882,3.86421869403728,-0.012217305,1.4239268,-0.08674286,301.5229,61.29387,19.630356,STN
4130251383000,2.294945,4.58830893844864,-11.2387915368284,3.27063246909396,-0.13744467,1.0781772,-0.13072516,301.81165,61.248825,19.562124,STN
4130256417000,2.299979,4.8621508039296,-11.454273831083,2.615207497253,-0.30451632,0.7687739,-0.12522738,302.0819,61.21747,19.505564,STN
4130261398000,2.30496,4.86245058171811,-11.661819982085,1.51436742598316,-0.4089743,0.5186246,-0.115453534,302.2502,61.158867,19.54306,STN
4130266338000,2.3099,4.78586512089359,-11.8660478776171,0.294104913162098,-0.42821655,0.35705075,-0.124005646,302.3541,61.116062,19.605316,STN
4130271394000,2.314956,4.53839967871454,-11.94601647927,-0.644235434021028,-0.3631594,0.3200934,-0.16157386,302.3434,61.151768,19.726675,STN
4130276371000,2.319933,4.27838114656814,-12.012202878298,-1.5377537609512,-0.17287487,0.3494149,-0.21197024,302.30823,61.15827,19.86111,STN
4130281408000,2.32497,4.0793276064441,-11.829261322205,-2.01574674972826,0.057726767,0.3857614,-0.23854288,302.12936,61.275745,20.012697,STN
4130286380000,2.329942,3.88986217336956,-11.6213116684783,-2.44088855353261,0.28802297,0.43463063,-0.26511553,301.9707,61.33777,20.170914,STN
4130291390000,2.334952,3.74445754320397,-11.3802019727791,-2.50541376518301,0.5122105,0.47342056,-0.2855795,301.74402,61.46273,20.318584,STN
4130296393000,2.339955,3.60786607336767,-11.1334561659923,-2.50100759170498,0.70066243,0.4718934,-0.30879238,301.52686,61.53604,20.471415,STN
4130301406000,2.344968,3.51166787492076,-11.0452718347861,-2.3436521082607,0.86315256,0.38331795,-0.33505958,301.26804,61.60394,20.630514,STN
4130306405000,2.349967,3.4357970576664,-11.0357877969493,-2.11129788515254,1.0036516,0.23609942,-0.37048978,300.99835,61.628193,20.802607,STN
4130312566000,2.356128,3.45593578448293,-11.3755723801181,-1.7634344289118,1.1133019,0.06261369,-0.41813725,300.71536,61.612038,20.985497,STN
4130316362000,2.359924,3.49596870677746,-11.6703607184903,-1.53415485085594,1.2034045,-0.122478485,-0.4810564,300.39337,61.560833,21.195385,STN
4130321403000,2.364965,3.63453897058824,-12.3523911176471,-1.18400321470588,1.2779301,-0.3023783,-0.5729916,300.07364,61.46481,21.42054,STN
4130326391000,2.369953,3.81758142046396,-13.1835026702568,-0.81297133061309,1.3197744,-0.50823987,-0.68233645,299.70184,61.34174,21.684446,STN
4130331408000,2.37497,4.0005575007701,-14.1458399987678,-0.264334221331759,1.351234,-0.72356987,-0.7968737,299.31458,61.182953,21.968555,STN
4130336384000,2.379946,4.1816033773488,-15.1489313962419,0.347306997438135,1.3387111,-0.8402451,-0.91324353,298.90848,61.00247,22.288029,STN
4130341381000,2.384943,4.04363308406807,-15.9892631105583,2.3004779550204,1.3170254,-1.1725558,-0.97310835,298.40002,60.81337,22.6332,STN
4130346423000,2.389985,3.808183976734,-16.7869066074236,4.67418815998607,1.1676689,-1.7592919,-1.0894781,297.8013,60.612778,23.051783,STN
4130351404000,2.394966,3.2659003258937,-16.6757921014753,6.52471022583696,0.7651087,-2.626415,-1.1768318,297.07098,60.456196,23.481955,STN
4130356441000,2.400003,2.62266123045205,-16.2880236058256,8.24457658407414,0.09590584,-3.4348953,-1.1566733,296.18732,60.367367,23.949127,STN
4130361432000,2.404994,2.17758762529692,-15.3914837991067,8.06841265120292,-0.6731735,-3.7873645,-0.9654725,295.47366,60.283775,24.27432,STN
4130366415000,2.409977,1.83364205711095,-14.2288509068115,6.91062415957771,-1.3038919,-3.579365,-0.63071835,294.675,60.324238,24.565022,STN
4130371406000,2.414968,1.39418153914851,-13.2366139254271,5.42546835731718,-1.647809,-2.8667905,-0.2434298,294.1829,60.402424,24.660728,STN
4130376392000,2.419954,0.910768805911597,-12.3258989190093,3.78963413837115,-1.6765196,-1.7623463,0.105068825,293.8429,60.595703,24.62812,STN
4130381417000,2.424979,0.419203503762355,-11.6342213132399,2.02234868312154,-1.4639386,-0.43890667,0.34697145,293.64542,60.893158,24.491413,STN
4130386401000,2.429963,-0.0732942265819485,-11.2039338145976,0.135304784261975,-1.063211,0.9645562,0.47494772,293.7848,61.21458,24.201445,STN
4130391477000,2.435039,-0.13445387097394,-10.651644632288,-0.653593796073322,-0.57940567,2.182927,0.4914411,294.04974,61.625507,23.81673,STN
4130396441000,2.440003,0.0580269721267668,-10.04620509548,-0.776081614288869,-0.112704635,3.0106494,0.5235115,294.60455,62.006603,23.318895,STN
4130402066000,2.445628,0.287271211199655,-9.37677293430971,-0.871555437157011,0.28924468,3.4281757,0.5946773,295.18903,62.462208,22.759823,STN
4130406410000,2.449972,0.690474779409864,-9.19757100538445,-0.0651482913805729,0.5390886,3.5170567,0.6789767,295.91568,62.874416,22.152931,STN
4130411459000,2.455021,1.14805204068814,-8.9944028505201,0.854803269733947,0.589485,3.3487632,0.72143185,296.6742,63.198948,21.59814,STN
4130416359000,2.459921,1.42966647957592,-8.87237015898179,1.49312939655931,0.5131268,3.0079005,0.7049385,297.39984,63.504658,21.044949,STN
4130421542000,2.465104,1.7233763484026,-8.74747556149224,2.13823297828743,0.32559118,2.5573874,0.62796944,298.1401,63.687565,20.567251,STN
4130426374000,2.469936,1.95046515312969,-8.67795863970957,2.40239742623936,0.10995574,2.0790799,0.49632803,298.77087,63.867012,20.14197,STN
4130431580000,2.475142,2.19149440761527,-8.58856406975707,2.65849783979177,-0.10354166,1.6136005,0.36926803,299.3484,63.958355,19.812885,STN
4130436424000,2.479986,2.38009042022806,-8.3631684509172,2.61709871507189,-0.28955013,1.3991868,0.3100141,299.85916,64.06572,19.523232,STN
4130441655000,2.485217,2.57596927678261,-8.12233108617391,2.559430834,-0.3643811,0.9859365,0.18081611,300.2178,64.08262,19.38621,STN
4130446406000,2.489968,2.67707914071498,-7.92890382973913,2.37919161911111,-0.5705481,0.6203337,0.15088372,300.5201,64.16507,19.254953,STN
4130451775000,2.495337,2.78775733920495,-7.71546118881909,2.17662157953159,-0.636827,0.3210097,0.106595986,300.72708,64.160934,19.24368,STN
4130456421000,2.499983,2.80772058918701,-7.63960123077889,2.02490170514178,-0.7296785,0.059253927,0.07513642,300.83838,64.19522,19.265766,STN
4130461863000,2.505425,2.83110414631192,-7.55074417273869,1.84718763789483,-0.7852673,-0.16432275,0.01985312,300.86105,64.20574,19.364864,STN
4130466430000,2.509992,2.82984634965371,-7.56627839162038,1.75848639576905,-0.8170323,-0.39584067,-0.01863139,300.80576,64.2238,19.489773,STN
4130471375000,2.514937,2.82335135342522,-7.60524769080436,1.67730057056161,-0.8304713,-0.5870415,-0.081855945,300.7038,64.22886,19.650084,STN
4130476339000,2.519901,2.81683140170061,-7.64436672035932,1.59580280790647,-0.8258898,-0.7651087,-0.14813483,300.52087,64.23348,19.849424,STN
4130481412000,2.524974,2.77279479791847,-7.6860977829575,1.5416654734497,-0.79717916,-0.92057395,-0.20341812,300.29324,64.221504,20.07359,STN
4130486719000,2.530281,2.71738724515759,-7.72643044045845,1.49099625318052,-0.7742717,-1.0552697,-0.2602286,300.02563,64.191635,20.324974,STN
4130491396000,2.534958,2.66177324810888,-7.67937249449857,1.42254820183381,-0.74128497,-1.1673635,-0.3036,299.70648,64.162735,20.589012,STN
4130496347000,2.539909,2.60290112936008,-7.62955767935053,1.3500901513276,-0.70188415,-1.2324207,-0.32375857,299.36218,64.134186,20.852674,STN
4130501404000,2.544966,2.50310575120311,-7.5710201547177,1.3126893777662,-0.66553766,-1.2568552,-0.3539964,299.00186,64.08527,21.131262,STN
4130506415000,2.549977,2.39854384977264,-7.51191978651004,1.28086615735127,-0.63255095,-1.2479976,-0.3640757,298.63287,64.02803,21.406725,STN
4130511508000,2.55507,2.24821988636657,-7.42499736715486,1.24098545670902,-0.6044512,-1.1945469,-0.37812558,298.26633,63.969036,21.677172,STN
4130516396000,2.559958,2.09194643110058,-7.33425795849666,1.20065687742839,-0.5681047,-1.1001683,-0.38759398,297.9159,63.90042,21.940187,STN
4130521413000,2.564975,2.00027305119716,-7.27865527795842,1.279322290403,-0.5403103,-0.9669997,-0.3933972,297.60406,63.841805,22.178265,STN
4130526393000,2.569955,1.91568694892108,-7.22696391821854,1.36860762058331,-0.5015204,-0.79901177,-0.3817908,297.33115,63.776836,22.400581,STN
4130531415000,2.574977,1.89320721444773,-7.13287080113412,1.55095056892505,-0.4596761,-0.7012733,-0.36957347,297.07892,63.725304,22.59502,STN
4130536363000,2.579925,1.87918763713018,-7.03473375991124,1.74255093843195,-0.43127087,-0.46700647,-0.3585779,296.91818,63.672104,22.76245,STN
4130541361000,2.584923,1.88515806013157,-6.97117536614173,1.89326868659424,-0.32253686,-0.15424347,-0.33414328,296.8274,63.60906,22.89455,STN
4130546350000,2.589912,1.89468236097877,-6.91402971023622,2.03613329875411,-0.18936823,0.22235495,-0.29901853,296.82556,63.544662,22.998377,STN
4130551396000,2.594958,1.91202752721704,-6.87323812816025,2.07878821499417,-0.03726278,0.6988298,-0.25686884,296.99402,63.452427,23.062006,STN
4130556345000,2.599907,1.93046226347725,-6.83636875188643,2.1018316714119,0.1151481,1.2635747,-0.20555615,297.29874,63.354637,23.079678,STN
4130561438000,2.605,1.86519630914106,-6.73705448220299,1.69828226541425,0.2321288,1.9694295,-0.14019357,297.80817,63.235367,23.040762,STN
4130566373000,2.609935,1.77978114325121,-6.62466608873775,1.19478247111196,0.28069258,2.7220156,-0.06078109,298.49188,63.12219,22.936266,STN
4130571413000,2.614975,1.64268976642936,-6.61547722890805,1.02763656884588,0.2565634,3.3844988,0.01160644,299.36304,63.011776,22.77005,STN
4130576373000,2.619935,1.48551222546877,-6.65358100029079,1.01811066330091,0.2012801,3.8747182,0.07513642,300.38974,62.916435,22.533525,STN
4130581430000,2.624992,1.26625608551669,-6.67176380367592,1.0939678617967,0.12064589,4.1902304,0.121256754,301.46735,62.903538,22.239492,STN
4130586390000,2.629952,1.02572234133065,-6.68067245483871,1.20532609435484,0.074830994,4.3032403,0.14049901,302.61194,62.901566,21.90685,STN
4130591422000,2.634984,0.780569622819337,-6.61945840927276,1.56616209335278,0.04642576,4.266894,0.13805555,303.7958,62.941795,21.517414,STN
4130596452000,2.640014,0.534643856451344,-6.50402373496562,2.11824028235049,0.01160644,4.132198,0.11636983,304.96747,62.988655,21.122036,STN
4130601426000,2.644988,0.310124620148148,-6.34613463953954,2.69996917252252,-0.053450707,3.8163805,0.092240654,306.09106,63.064537,20.691198,STN
4130606477000,2.650039,0.0922306910074074,-6.16213525427427,3.3100721818018,-0.16279559,3.302032,0.0729984,307.1045,63.14838,20.290997,STN
4130611442000,2.655004,-0.0836251976736926,-5.94781468760191,3.56452017926029,-0.30085114,2.6801713,0.038789943,308.08347,63.193657,19.88453,STN
4130616532000,2.660094,-0.243559209113343,-5.71033683584212,3.64206398618016,-0.4269948,2.0894647,0.0018325958,308.91235,63.2493,19.525766,STN
4130621433000,2.664995,-0.278465042070621,-5.56056759527858,3.41930131077323,-0.516792,1.5176947,-0.03634648,309.66467,63.23535,19.18931,STN
4130626427000,2.669989,-0.249760487208162,-5.45053374472342,3.03178984011203,-0.5235115,1.260215,-0.05222898,310.32965,63.223137,18.881052,STN
4130631409000,2.674971,-0.227300913036477,-5.38665742810854,2.59224393440016,-0.45631635,0.8332202,-0.051923547,310.81403,63.187405,18.634592,STN
4130636437000,2.679999,-0.208156811782129,-5.34836916562966,2.11842757328297,-0.40011674,0.5122105,-0.062308256,311.25272,63.146988,18.40923,STN
4130641423000,2.684985,-0.183486294764746,-5.3989123875379,1.70025652659689,-0.267559,0.24984388,-0.0720821,311.53406,63.129646,18.235008,STN
4130646437000,2.689999,-0.155303897057615,-5.50224777386286,1.31040000209332,-0.09590584,0.0421497,-0.08002335,311.7394,63.088787,18.089348,STN
4130651423000,2.694985,-0.131505966521421,-5.65671539472309,1.01560933833072,0.07696902,-0.099571034,-0.093767814,311.83987,63.08963,17.984308,STN
4130656445000,2.700007,-0.110566082439916,-5.84936227089864,0.785270624804075,0.25045475,-0.19792034,-0.1160644,311.89594,63.050346,17.900026,STN
4130661423000,2.704985,-0.0720629537027173,-6.08921394186424,0.586934765482299,0.441961,-0.27916542,-0.14508049,311.86456,63.034664,17.847158,STN
4130666421000,2.709983,0.0108468722355743,-6.45194472523547,0.462570029821371,0.63224554,-0.35246924,-0.16890424,311.81042,62.979603,17.807737,STN
4130671394000,2.714956,0.0858509381174743,-6.81608220276065,0.449429284704846,0.81061816,-0.42149702,-0.19761491,311.6921,62.932682,17.79175,STN
4130676371000,2.719933,0.151175726989721,-7.18470050425844,0.580078881938326,0.96974856,-0.48655418,-0.20922135,311.55603,62.849556,17.784283,STN
4130681369000,2.724931,0.225369797722878,-7.54422161241539,0.780107904438213,1.1087204,-0.54428095,-0.21685717,311.37985,62.763214,17.79745,STN
4130686370000,2.729932,0.313358446855541,-7.88691419446915,1.09038368727519,1.2189816,-0.57635134,-0.22602014,311.19528,62.648785,17.81791,STN
4130692194000,2.735756,0.386801598694899,-8.29189408700674,1.5685685507411,1.3020593,-0.5907067,-0.20769419,311.00247,62.520252,17.828308,STN
4130696401000,2.739963,0.410067985016362,-8.59047933224254,2.0338962366795,1.3417655,-0.57818395,-0.17867808,310.80957,62.380314,17.838854,STN
4130701363000,2.744925,0.42336459478211,-8.94747750946101,2.61325739635895,1.319469,-0.5693264,-0.15699236,310.65204,62.214725,17.836573,STN
4130706457000,2.750019,0.390729872098624,-9.32977042861238,3.30791090020069,1.2302825,-0.5751296,-0.13652839,310.49252,62.06302,17.827703,STN
4130711383000,2.754945,0.3583956212939,-9.70459842144177,3.93866984214418,1.0867293,-0.5705481,-0.13408493,310.41672,61.874718,17.778854,STN
4130716412000,2.759974,0.32091200232902,-10.1169182007005,4.34630417270162,0.89980453,-0.5119051,-0.12156218,310.35193,61.723576,17.718248,STN
4130721385000,2.764947,0.2873042,-10.4966069762771,4.69101354663203,0.68539083,-0.3924809,-0.092240654,310.40732,61.54538,17.590761,STN
4130726405000,2.769967,0.2873042,-10.6048288316883,4.46624463303896,0.50976706,-0.2996294,-0.07941248,310.47076,61.40113,17.464228,STN
4130736418000,2.77998,0.2873042,-10.8206904727706,4.01791572232035,0.3903429,0.14905111,-0.03145956,310.8686,61.165176,17.051994,STN
4130741383000,2.784945,0.2873042,-10.9277266305628,3.79560941634632,0.42332962,0.33628133,0.0125227375,311.0818,61.113556,16.811005,STN
4130746722000,2.790284,0.329420690444402,-10.9647775943875,3.58087358971363,0.5308419,0.42394048,0.06780604,311.3209,61.063587,16.548832,STN
4130751402000,2.794964,0.402395579478019,-10.9304366768509,3.41346056337516,0.6914995,0.41722095,0.13500121,311.57382,60.999516,16.268568,STN
4130756381000,2.799943,0.497227698083538,-10.9492110575793,3.33933654092511,0.8762862,0.364992,0.20616703,311.7706,60.960274,15.996145,STN
4130761579000,2.805141,0.624855711891892,-11.0608855981199,3.43505759153937,1.0891727,0.24678956,0.28893927,311.9351,60.88549,15.718363,STN
4130766368000,2.80993,0.888100760176196,-11.5516832595289,4.16436293538296,1.3112222,0.11759156,0.37323865,312.03937,60.790592,15.461138,STN
4130771401000,2.814963,1.29973383171521,-12.4269452152104,5.52491856893204,1.529912,-0.026267206,0.45540005,312.09637,60.655106,15.204912,STN
4130776358000,2.81992,1.70228774047913,-13.2825802289739,6.72246722897388,1.7330247,-0.20097467,0.53878313,312.10013,60.46755,14.968581,STN
4130781412000,2.824974,2.10538217405922,-14.1385337961135,7.57842079611351,1.9046779,-0.41141775,0.6044512,312.04688,60.242607,14.744121,STN
4130786368000,2.82993,2.52409701548712,-14.929561352976,8.21562982173527,2.0210476,-0.5897904,0.64568454,312.09128,59.824986,14.53085,STN
4130791385000,2.834947,2.99361012044221,-15.6362016679499,8.4669854339157,2.125811,-0.7284568,0.6771441,312.07678,59.38253,14.334008,STN
4130796949000,2.840511,3.49144853502732,-16.2299946459128,8.46040663230595,2.251344,-0.79168135,0.67011917,312.0806,58.85319,14.179121,STN
4130801399000,2.844961,3.86046293869704,-16.4628253798577,8.09139195340687,2.3738225,-0.7883216,0.64843345,312.05615,58.31404,14.037571,STN
4130806341000,2.849903,4.17536265778656,-16.5315136786561,7.67745725881423,2.4990497,-0.73792523,0.6227771,311.9697,57.75979,13.966982,STN
4130811417000,2.854979,4.33387971754941,-16.2721225549407,7.24513815083004,2.6212227,-0.67256266,0.6078109,311.88614,57.189156,13.900273,STN
4130816335000,2.859897,4.42919095821354,-15.9766847955785,6.83878748730049,2.7296515,-0.700357,0.5873469,311.7117,56.65464,13.923476,STN
4130821397000,2.864959,4.41477301521761,-15.5874015892733,6.4446983167245,2.8127291,-0.7996226,0.5546656,311.54175,56.10516,13.953585,STN
4130826358000,2.86992,4.39755964681522,-15.2221145900217,5.97368214421219,2.845105,-1.144456,0.5357288,311.23935,55.56242,14.078604,STN
4130831418000,2.87498,4.3736695817393,-14.8828750672451,5.31909381232499,2.842356,-1.5531249,0.4981606,310.90912,55.01486,14.23858,STN
4130836364000,2.879926,4.36440139453689,-14.5495889172838,4.61310927660864,2.805704,-1.981036,0.42485678,310.46832,54.48083,14.487027,STN
4130841392000,2.884954,4.38755814667693,-14.2068688405309,3.74241476746177,2.7281241,-2.3448062,0.29901853,309.96448,53.961845,14.805556,STN
4130846540000,2.890102,4.42384033906438,-13.840178162585,2.93841974378249,2.6151142,-2.5146267,0.16493362,309.3589,53.498272,15.204681,STN
4130851439000,2.895001,4.49418731507397,-13.44623495002,2.42254152794882,2.5192082,-2.6795604,0.04337143,308.69174,53.05012,15.6788225,STN
4130856426000,2.899988,4.572093679435,-13.101824147175,1.93115245167439,2.4086416,-2.8612928,-0.064751714,307.92877,52.68639,16.249208,STN
4130861454000,2.905016,4.6713255293062,-12.940572396531,1.54662961087069,2.2828035,-3.00057,-0.12492194,307.1532,52.352833,16.845419,STN
4130866338000,2.9099,4.76771541688992,-12.7839388344496,1.1731193573931,2.1444426,-3.0601294,-0.1777618,306.30847,52.05061,17.522905,STN
4130871419000,2.914981,5.09565251160656,-12.7469681337705,0.699747435547541,2.000889,-2.910162,-0.22907446,305.49353,51.783134,18.189114,STN
4130876501000,2.920063,5.44554970531336,-12.7242872181627,0.282006479672804,1.861001,-2.4611762,-0.25870144,304.74594,51.553593,18.809391,STN
4130881431000,2.924993,5.72028332574645,-12.6882567860345,0.538724832310407,1.7654005,-1.8606955,-0.2443461,304.03525,51.37418,19.412848,STN
4130886748000,2.93031,6.01076366811149,-12.6535225547333,0.829269541351273,1.7379116,-1.2327261,-0.1572978,303.3554,51.232307,19.999777,STN
4130891426000,2.934988,6.14423898972609,-12.7094958025949,1.37178160285248,1.7345519,-0.6032294,0.006414085,302.81354,51.12663,20.455519,STN
4130896521000,2.940083,6.28961238938972,-12.7704585426237,1.96265354670639,1.6560557,-0.032375857,0.21166481,302.40378,51.025124,20.817068,STN
4130901420000,2.944982,6.10458209499413,-12.6838522706799,2.6386428241221,1.5268577,0.44898596,0.43401974,302.10516,50.969284,21.0407,STN
4130906807000,2.950369,5.85360551555173,-12.5505376096277,3.36294124471241,1.3301591,0.73853606,0.6243043,301.87872,50.97804,21.156979,STN
4130911437000,2.954999,5.51836675203369,-12.2407600797205,3.73212802430855,1.0812315,0.84299403,0.77671516,301.74213,51.000675,21.177162,STN
4130916841000,2.960403,5.12721412580101,-11.8760746020236,4.15678619449129,0.8194757,0.7993172,0.89369583,301.6816,51.041233,21.08083,STN
4130921430000,2.964992,4.80194830795391,-11.39846907448,4.18149001021173,0.5564982,0.74281216,0.97035944,301.6292,51.15683,20.944817,STN
4130926413000,2.969975,4.44875598493536,-10.8798575373806,4.20831483342702,0.44501534,0.5864306,0.98868537,301.609,51.26374,20.754131,STN
4130931420000,2.974982,4.16041897608863,-10.3049036014771,3.97196457233839,0.27855456,0.41263947,0.98899084,301.56253,51.45062,20.56595,STN
4130936346000,2.979908,3.89345703776137,-9.72573196268943,3.67332915327067,0.13927728,0.23793201,0.93431836,301.48486,51.646877,20.41557,STN
4130941875000,2.985437,3.65193667997022,-8.94638502606106,3.24199511690246,0.03726278,0.064446285,0.8585711,301.36743,51.823975,20.274704,STN
4130946407000,2.989969,3.47188327509839,-8.26772200319115,2.85880461023295,-0.03145956,-0.10354166,0.75747293,301.2226,52.009518,20.182976,STN
4130951357000,2.994919,3.33342996165808,-7.58218592553759,2.55314654644571,-0.06658431,-0.2180789,0.66553766,301.04636,52.18585,20.124817,STN
4130956407000,2.999969,3.20450818229074,-6.8946028928381,2.26522120478941,-0.08827003,-0.18173242,0.6032294,300.87988,52.36113,20.088175,STN
4130961423000,3.004985,3.01210073048421,-6.24575973905187,1.98955613291036,-0.08093964,-0.30757064,0.54733527,300.65683,52.51053,20.132103,STN
4130966441000,3.010003,2.77306263861537,-5.621333745772,1.7212479874429,-0.08093964,-0.57604593,0.45937067,300.42276,52.649662,20.215622,STN
4130971398000,3.01496,2.55494582312022,-4.97779036107689,1.26966832373619,-0.032986723,-0.73731434,0.36285394,300.16983,52.72048,20.357422,STN
4130976431000,3.019993,2.34506860063721,-4.30720730641461,0.691226585174172,0.013744468,-0.7483099,0.28191432,299.8993,52.779613,20.533325,STN
4130981418000,3.02498,2.13554739820036,-3.70251860119976,0.153027858182364,0.08735373,-0.63255095,0.2180789,299.64468,52.79389,20.734922,STN
4130986437000,3.029999,1.92409936694661,-3.11623085536893,-0.375592340383923,0.15974127,-0.40958515,0.1704314,299.42654,52.787884,20.93585,STN
4130991429000,3.034991,1.70131227360285,-2.61651797824019,-0.489453378573127,0.22815818,-0.13500121,0.12461651,299.20316,52.741005,21.169905,STN
4130996421000,3.039983,1.47392855326992,-2.14753911688466,-0.451556105041617,0.2501493,0.09682214,0.102319926,299.031,52.68658,21.380932,STN
4131001417000,3.044979,1.25968065003879,-1.80048420597362,-0.210139948890613,0.20922135,0.2733622,0.09682214,298.8812,52.588867,21.641626,STN
4131006451000,3.050013,1.04930113968192,-1.50127768601629,0.117117139903026,0.092240654,0.3585779,0.07727446,298.773,52.502247,21.88603,STN
4131011462000,3.055024,0.879342579720416,-1.30376862580332,0.455292971894962,-0.06291912,0.38087448,0.08124508,298.73,52.390907,22.10958,STN
4131016435000,3.059997,0.731394357275993,-1.16044383056985,0.797423249573828,-0.2648101,0.34055737,0.06872234,298.697,52.31507,22.333357,STN
4131021422000,3.064984,0.630970486209474,-1.09870573424274,1.03572857902924,-0.47708577,0.32559118,0.056199603,298.71143,52.234722,22.497719,STN
4131026408000,3.06997,0.564050055433056,-1.09424437529665,1.20079902308231,-0.57604593,0.28985557,0.030543262,298.71368,52.171967,22.673471,STN
4131031401000,3.074963,0.553566633208312,-1.17550378868728,1.27032151109985,-0.7828238,0.2593123,-0.0027488936,298.7716,52.14084,22.808683,STN
4131036434000,3.079996,0.61464120813482,-1.36605651041561,1.2190188385707,-0.9761627,0.25167647,-0.021991149,298.8284,52.126972,22.945053,STN
4131041400000,3.084962,0.674902749776989,-1.55407256765839,1.16839911439432,-1.1753048,0.24770586,-0.048258353,298.8999,52.138577,23.066744,STN
4131046467000,3.090029,0.736389908758236,-1.74591255196148,1.1167498710593,-1.3762794,0.22693644,-0.04917465,298.96362,52.19266,23.187601,STN
4131051413000,3.094975,0.827757608244865,-1.97619153940867,1.03014289175513,-1.5415184,0.19608775,-0.06383542,299.02087,52.272694,23.316189,STN
4131056439000,3.100001,0.951922597033436,-2.25317500278797,0.905977902966564,-1.7055358,0.14538592,-0.067500606,299.06393,52.394455,23.445896,STN
4131061450000,3.105012,1.04307449052339,-2.5478331871134,0.775254283029342,-1.8356501,0.09896017,-0.051923547,299.07883,52.645462,23.52242,STN
4131066432000,3.109994,1.09982904141554,-2.8599830935567,0.638097472283902,-1.9425515,0.05955936,-0.022296581,299.07758,52.921707,23.603308,STN
4131071397000,3.114959,1.12365494265032,-3.16298050165042,0.483860282244957,-2.037541,0.058948494,0.007941248,299.02875,53.257465,23.691446,STN
4131076419000,3.119981,1.10972925316089,-3.46006211977608,0.30746808935624,-2.1126773,0.083383106,0.04886922,298.96692,53.610462,23.772057,STN
4131081436000,3.124998,1.07987984555135,-3.72499837706563,0.1465054327296,-2.1801782,0.08368854,0.094989546,298.8507,54.03439,23.839703,STN
4131086539000,3.130101,1.02483991264462,-3.94515800419781,0.00640381905395721,-2.223855,0.0888809,0.13744467,298.7342,54.465828,23.89424,STN
4131091387000,3.134949,1.01119324373002,-4.05296333805827,-0.0556336485533839,-2.2504275,0.07422013,0.15393804,298.56448,54.961285,23.933636,STN
4131096394000,3.139956,1.04622921062197,-4.0354453774774,-0.0293566880180838,-2.2766948,0.023823744,0.1695151,298.37772,55.461857,23.966127,STN
4131101333000,3.144895,1.1122656192608,-4.01642597542946,-0.00841024123321187,-2.302962,-0.095294975,0.16493362,298.14175,55.999683,23.99533,STN
4131106436000,3.149998,1.28525827557522,-3.99098588672566,-0.00332221977345133,-2.3133466,-0.24037547,0.16249016,297.87924,56.529736,24.027792,STN
4131111382000,3.154944,1.47775212809,-3.96813649702351,-0.018714921957421,-2.3176227,-0.38331795,0.14874569,297.58502,57.03505,24.083601,STN
4131116433000,3.159995,1.72666699815357,-3.94861377810514,-0.0772831194834023,-2.3197608,-0.4392121,0.11881329,297.27414,57.52298,24.14879,STN
4131121336000,3.164898,1.95788159269888,-3.97479084087848,-0.162938450815032,-2.3240368,-0.54550266,0.09315695,296.89233,57.966507,24.26864,STN
4131126435000,3.169997,2.1771376470571,-4.09395185792094,-0.310697964626647,-2.3157902,-0.63804877,0.04520403,296.50143,58.37973,24.403097,STN
4131131346000,3.174908,2.41985978508434,-4.33401119088488,-0.497781373068955,-2.2730296,-0.70341134,-0.013133603,296.03842,58.708485,24.617847,STN
4131136420000,3.179982,2.75061816308573,-4.89965582558943,-0.804571730756634,-2.193617,-0.766025,-0.06780604,295.55023,59.00197,24.847088,STN
4131141366000,3.184928,3.13939219438147,-5.68290091840922,-1.14073204765488,-2.0702224,-0.82772243,-0.100792766,294.97714,59.226685,25.143389,STN
4131146441000,3.190003,3.72828078364276,-7.15037282333399,-1.59189662186828,-1.8973475,-0.91904676,-0.10751228,294.3759,59.40885,25.445282,STN
4131151393000,3.194955,4.25692640148699,-8.54411793819703,-1.90519714995353,-1.6514742,-1.0009027,-0.03940081,293.65012,59.60173,25.757711,STN
4131156429000,3.199991,4.63044533581165,-9.82528889699504,-1.77073021658922,-1.3206906,-1.0118983,0.042455133,292.91687,59.74399,26.056164,STN
4131161481000,3.205043,5.00515098636927,-11.1105302956939,-1.63583606500929,-0.9443977,-1.031446,0.11178834,291.99805,59.975178,26.322517,STN
4131166368000,3.20993,5.24682298365724,-12.3819831988737,-0.954620229631184,-0.5815437,-1.1099422,0.13530666,291.0646,60.152287,26.568213,STN
4131171360000,3.214922,5.4263122840106,-13.6964761317359,0.0484064437257067,-0.23304509,-1.2311989,0.12339478,290.11966,60.276802,26.79497,STN
4131176379000,3.219941,5.30696728850375,-14.2948086250722,1.7935130440208,0.093462385,-1.3093897,0.06566802,289.16956,60.424656,26.954588,STN
4131181420000,3.224982,5.12103728883112,-14.7363916826497,3.70859051660312,0.48655418,-1.1881329,-0.0106901415,288.2668,60.50437,27.10748,STN
4131186394000,3.229956,4.81029512888035,-14.2546276713119,6.93991310860163,0.9950995,-0.6740898,-0.095294975,287.67007,60.539787,27.15568,STN
4131192029000,3.235591,4.4109364779433,-13.3677398683325,11.0994686458433,1.4340062,-0.77091193,-0.19028452,286.93976,60.514423,27.254002,STN
4131196379000,3.239941,4.44733357431766,-12.3469245972908,12.7348209737134,0.90377516,-1.3316863,-0.26939157,286.63562,60.445568,27.265963,STN
4131201400000,3.244962,4.61199213403162,-11.0490279557861,14.0617753442441,-0.43890667,-1.0451905,-0.27458394,286.56055,60.415054,27.243639,STN
4131206398000,3.24996,4.6281086641791,-9.89461884552239,13.2728204238806,-1.4602734,-0.22571471,-0.21655174,287.22357,60.10297,27.174368,STN
4131211456000,3.255018,4.57509025522388,-8.79087340940299,11.4846558698507,-2.053729,0.7806858,-0.15027285,287.9866,59.90444,27.071808,STN
4131216429000,3.259991,4.23795915617967,-8.01725974704734,9.92903931464708,-2.3359487,1.2757921,-0.106595986,289.06702,59.644867,26.972738,STN
4131221402000,3.264964,3.76848094760532,-7.38833595731424,8.46745662434669,-2.3762658,2.1230621,-0.002443461,290.48215,59.476337,26.737486,STN
4131226362000,3.269924,3.20195824672703,-7.03292222343636,7.11211113880737,-2.314874,2.7476718,0.08246681,291.71103,59.41134,26.549576,STN
4131231408000,3.27497,2.53308870735769,-6.92731121313352,5.82969205807056,-2.1050417,3.1722233,0.12889257,293.0922,59.354927,26.28709,STN
4131236876000,3.280438,1.93283873265968,-7.03826646396568,4.46347579898951,-1.863139,3.4370334,0.10751228,294.3829,59.395702,25.999992,STN
4131241389000,3.284951,1.4961053543756,-7.23603266329838,3.34692148156339,-1.5610662,3.5860844,0.053450707,295.73752,59.401638,25.67727,STN
4131246417000,3.289979,1.16559978710692,-7.51570941849057,2.20070205672956,-1.237613,3.6215146,0.0036651916,296.94534,59.492256,25.31407,STN
4131251372000,3.294934,0.991505680319706,-7.84897508342767,1.16608564325996,-0.86437434,3.4144313,-0.028099801,298.1064,59.51702,24.963959,STN
4131256412000,3.299974,0.964434678247776,-8.08778195473499,0.520059993227947,-0.4364632,3.0301971,-0.038789943,299.07813,59.680504,24.56927,STN
4131261392000,3.304954,1.03956186829596,-8.25571358131023,0.157681870789103,-0.029932396,2.5244007,-0.042760566,299.94247,59.778225,24.209787,STN
4131266396000,3.309958,1.20523487795321,-8.34502157266502,0.0612782685875975,0.32253686,1.9257526,-0.036957346,300.5187,59.938725,23.884525,STN
4131271399000,3.314961,1.48777161810919,-8.33135016378163,0.311915712295606,0.5152648,1.303281,-0.005192355,300.93097,60.061443,23.60287,STN
4131276359000,3.319921,1.72970340587192,-8.3775432679803,0.65855973697537,0.55863625,0.70432764,0.0033597588,301.1175,60.188957,23.392075,STN
4131281410000,3.324972,1.89650494264039,-8.54911056009852,1.21615348612315,0.4615087,0.1160644,-0.010079277,301.12192,60.30919,23.237354,STN
4131286401000,3.329963,2.00960816099906,-8.76741180583133,1.68755864147769,0.2773328,-0.36957347,-0.029626964,301.00974,60.38475,23.161009,STN
4131291366000,3.334928,2.0046391138677,-9.0953690202738,1.97576363452816,0.06169739,-0.7535023,-0.037873644,300.75558,60.48172,23.131569,STN
4131296411000,3.339973,2.00721608154403,-9.50107678437877,2.08304410797145,-0.17348573,-0.9947941,-0.04734206,300.47803,60.551712,23.13865,STN
4131301398000,3.34496,2.02161882629674,-10.0147753823884,1.9006091907117,-0.3912592,-1.0989466,-0.049480084,300.13043,60.654526,23.168272,STN
4131306386000,3.349948,1.99471765849966,-10.5802427680661,1.74406638465244,-0.5852089,-1.1166617,-0.052839845,299.77463,60.788055,23.188913,STN
4131311379000,3.354941,1.90539283450005,-11.224321604562,1.62653368790679,-0.7247916,-1.1065824,-0.08735373,299.40305,60.938335,23.224289,STN
4131316379000,3.359941,1.82977381489444,-11.8803411567273,1.92244031406752,-0.79168135,-1.1093313,-0.118507855,298.98648,61.15867,23.241602,STN
4131321402000,3.364964,1.7782953215877,-12.558921140286,2.95200993586925,-0.95111716,-1.2501358,-0.18173242,298.54218,61.394684,23.285892,STN
4131326336000,3.369898,1.88171393933183,-13.0814115037918,3.8963805220332,-1.1746938,-1.6276505,-0.22693644,298.00098,61.707176,23.308933,STN
4131331425000,3.374987,2.35619184528592,-13.2761974377946,4.71048482232015,-1.4752395,-2.091908,-0.19700404,297.39548,62.048023,23.342424,STN
4131336327000,3.379889,2.79848939150879,-13.4620030254542,4.72137065081123,-1.7632625,-2.3032675,-0.10873401,296.88956,62.37458,23.3101,STN
4131341383000,3.384945,3.226571573652,-13.6501709096473,3.25836417231128,-1.8634444,-2.1438315,-0.05681047,296.36255,62.70366,23.28504,STN
4131346389000,3.389951,3.62156568057581,-13.8377837129463,1.93420479417559,-1.7354681,-1.7977765,-0.0421497,295.94403,62.93866,23.285397,STN
4131351402000,3.394964,3.94892763649967,-14.0287444028791,0.902105456458945,-1.4144585,-1.3994923,-0.071776666,295.5938,63.151905,23.269508,STN
4131356396000,3.399958,4.295241254848,-14.2129540337067,-0.051778089616,-0.99082345,-1.0421361,-0.11942416,295.11176,63.404488,23.304737,STN
4131361418000,3.40498,4.73129998816,-14.3719877834667,-0.68791097272,-0.5161811,-0.711658,-0.1908954,294.75406,63.580967,23.328447,STN
4131366348000,3.40991,5.12092076317868,-14.5961457048371,-1.15629307354393,-0.06994407,-0.42363504,-0.2657264,294.34656,63.736988,23.39577,STN
4131371399000,3.414961,5.43130675751234,-14.982934630997,-1.27567228679171,0.30757064,-0.18387043,-0.3399465,294.03802,63.813847,23.463882,STN
4131376378000,3.41994,5.5651313040399,-15.5102722097058,-0.721589271947029,0.6093381,0.0143553335,-0.42241332,293.73563,63.81719,23.595291,STN
4131381407000,3.424969,5.26237947648982,-16.4144907090772,1.54703111164194,0.8246681,0.183565,-0.4978552,293.50873,63.76365,23.73093,STN
4131386341000,3.429903,4.96534676280278,-17.3016281272316,3.77279626825916,0.98532563,0.33658674,-0.54183745,293.31842,63.66066,23.889105,STN
4131391390000,3.434952,4.18775214355384,-16.9187160048286,5.93083585255432,1.1099422,0.43401974,-0.52687126,293.16943,63.532284,24.042118,STN
4131396385000,3.439947,3.36084038522453,-16.3828400560116,8.05124118563013,1.1047498,0.4813618,-0.42760566,293.05396,63.411987,24.174675,STN
4131401398000,3.44496,2.76411160594952,-15.3907167758413,8.07973211688702,0.9465357,0.5204572,-0.2874121,293.3181,63.274,24.134258,STN
4131407434000,3.450996,2.11897421869195,-14.0889152120743,7.54792787741873,0.7309003,0.6230826,-0.17134771,293.60477,63.162888,24.06661,STN
4131411415000,3.454977,1.9788077381579,-13.3585742631579,6.43766218092105,0.5323691,0.70341134,-0.1255328,294.2043,63.004425,23.878746,STN
4131416340000,3.459902,1.80540409167957,-12.4550502306502,5.06412323210139,0.45356745,0.8353582,-0.060170226,294.80896,62.89775,23.638544,STN
4131421399000,3.464961,1.73737786779792,-11.7238820491708,3.66399298949094,0.35155296,0.82253003,-0.0076358155,295.37704,62.820942,23.394789,STN
4131426346000,3.469908,1.70540380231392,-11.0706972823949,2.29824252395874,0.38240165,0.6123924,0.037873644,295.90643,62.74302,23.142113,STN
4131431375000,3.474937,1.64352660938741,-10.5988199186703,1.19095189901735,0.49632803,0.3032946,0.07452556,296.2303,62.734043,22.929586,STN
4131436401000,3.479963,1.5680514416475,-10.2164120378424,0.214806392745139,0.70280045,-0.06291912,0.10995574,296.46594,62.712395,22.726892,STN
4131441373000,3.484935,1.5076991014905,-10.0111251621376,-0.292745831609561,0.91721416,-0.44715336,0.12644911,296.4388,62.73913,22.596668,STN
4131446456000,3.490018,1.45018520826138,-9.8518562889212,-0.677646778860311,1.1224649,-0.7806858,0.13897185,296.31607,62.741352,22.483463,STN
4131451402000,3.494964,1.39519592038349,-9.81635913588995,-0.735050859616507,1.2669345,-1.0445796,0.14202617,295.99606,62.772717,22.420214,STN
4131456423000,3.499985,1.34007537610463,-9.86646867403085,-0.564678293895373,1.3368785,-1.2800682,0.14905111,295.58704,62.788292,22.376757,STN
4131461383000,3.504945,1.29248996064104,-9.94795239910337,-0.138851339148717,1.3316863,-1.4963144,0.15302174,295.0612,62.819633,22.362331,STN
4131466408000,3.50997,1.24785311816964,-10.0471450083479,0.426548413453571,1.2260065,-1.7009543,0.15027285,294.47253,62.857964,22.364946,STN
4131471400000,3.514962,1.1858733687632,-10.0946142752545,0.83185891687344,1.0134255,-1.8668042,0.15607607,293.8544,62.91558,22.364,STN
4131476373000,3.519935,1.11727514586134,-10.1220534020549,1.17485006003457,0.6936375,-1.9663752,0.15088372,293.2005,63.00542,22.3761,STN
4131481393000,3.524955,1.08871513697601,-10.0714437395202,1.25075108096359,0.31215215,-1.964848,0.15241088,292.5966,63.114574,22.362633,STN
4131486396000,3.529958,1.0839159452697,-9.9754599053939,1.1691647467872,-0.0842994,-1.8668042,0.13836098,291.99832,63.271114,22.352875,STN
4131491395000,3.534957,1.07912059061451,-9.87955281229028,1.08764364254019,-0.45845437,-1.7110336,0.13591751,291.47064,63.468037,22.312874,STN
4131496438000,3.54,1.07428302839685,-9.7828015679371,1.00540500906997,-0.7806858,-1.5060883,0.13133603,290.99286,63.710564,22.26415,STN
4131501430000,3.544992,1.07561695668901,-9.57132990352667,0.850222824628388,-1.0216721,-1.255328,0.13469578,290.5737,63.99297,22.197248,STN
4131506422000,3.549984,1.08026160699505,-9.29729514747887,0.655147366278053,-1.2082914,-1.1129965,0.13652839,290.18777,64.30631,22.123337,STN
4131511399000,3.554961,1.0508848103912,-8.97647636674817,0.497794917677262,-1.3454307,-0.80939645,0.1414153,289.9101,64.64173,22.02987,STN
4131516367000,3.559929,0.997568442909536,-8.62265010268949,0.366927503349633,-1.4019357,-0.45356745,0.1469131,289.69403,64.98288,21.922892,STN
4131521400000,3.564962,0.939872131641934,-8.28602392134036,0.276229213174725,-1.4926492,-0.06261369,0.15607607,289.55505,65.334,21.81252,STN
4131526381000,3.569943,0.880501425227382,-7.96633547283868,0.212291537780756,-1.5592335,0.33292156,0.17165314,289.52597,65.68131,21.678904,STN
4131531398000,3.57496,0.823815411894318,-7.69800008748342,0.213072475492196,-1.6249015,0.768163,0.1957823,289.61572,66.028625,21.530329,STN
4131536398000,3.57996,0.770084462185045,-7.47819166149138,0.271688047255942,-1.6798794,1.1960741,0.21594086,289.82227,66.37481,21.361128,STN
4131541376000,3.584938,0.754157059804267,-7.31683409956798,0.373319846730735,-1.7119498,1.6050484,0.23396139,290.14264,66.71429,21.177073,STN
4131546388000,3.58995,0.766852992267678,-7.19833918653677,0.50874275220067,-1.738828,1.9593502,0.23457226,290.57367,67.05021,20.978872,STN
4131551384000,3.594946,0.830165811016949,-7.06423438008475,0.729338762175141,-1.7284433,2.2143865,0.23273966,291.1064,67.37205,20.768593,STN
4131556406000,3.599968,1.01305533083442,-6.8917956291721,1.15259736362234,-1.6924021,2.3582454,0.23487769,291.70813,67.686935,20.551306,STN
4131561411000,3.604973,1.23591900565106,-6.72715904919976,1.64223780936574,-1.6352862,2.3811526,0.22113322,292.36737,67.96876,20.343534,STN
4131566405000,3.609967,1.50524470531516,-6.57123346235922,2.20923931090694,-1.5476271,2.2678373,0.19608775,293.02347,68.23455,20.142756,STN
4131571374000,3.614936,1.79317229388884,-6.44940186317781,2.82110303494034,-1.4471397,2.019215,0.15821409,293.69196,68.41463,19.994898,STN
4131576410000,3.619972,2.11129796245029,-6.36987053152585,3.50413773246678,-1.3161092,1.6126842,0.092240654,294.27417,68.56399,19.875944,STN
4131581381000,3.624943,2.42997914629349,-6.30454959806354,4.12738059177005,-1.1484267,1.1111639,0.014660766,294.81625,68.562584,19.860895,STN
4131586336000,3.629898,2.75542644483106,-6.2614757805648,4.6634112424004,-0.9550878,0.548557,-0.09010262,295.2155,68.519844,19.889786,STN
4131591383000,3.634945,3.1133838292923,-6.23304715072645,5.09507348242462,-0.69027776,-0.038179077,-0.20586158,295.52048,68.23386,20.093252,STN
4131596423000,3.639985,3.51303334967974,-6.22927687483206,5.34391177019216,-0.37415496,-0.6072,-0.32375857,295.66742,67.906204,20.336512,STN
4131601336000,3.644898,3.90261233651773,-6.22560160390564,5.58647972808936,-0.016493361,-0.8854492,-0.43188173,295.8408,67.551216,20.565542,STN
4131606356000,3.649918,3.99212810463043,-6.21604794768478,4.85762465883933,0.38912117,-1.3796391,-0.47952923,295.78323,67.14742,20.83857,STN
4131611407000,3.654969,4.01391958499212,-6.20515220750394,3.90813811930045,0.602924,-1.7427986,-0.5564982,295.69302,66.696754,21.149645,STN
4131616407000,3.659969,4.03549103654793,-6.19436648172604,2.96823855531422,1.0253373,-1.9721785,-0.61117065,295.54135,66.13644,21.506477,STN
4131621327000,3.664889,4.05671734487885,-6.18375332756058,2.04337738435177,1.3961325,-1.8741345,-0.63529986,295.38577,65.54979,21.871733,STN
4131626397000,3.669959,4.07859079675644,-6.17281660162178,1.09031922646974,1.6276505,-1.0424415,-0.62980205,295.38992,64.926895,22.207472,STN
4131631435000,3.674997,4.10032619134408,-6.16194890432796,0.143276425797213,1.5219707,-0.16584991,-0.57787853,295.44073,64.31183,22.517347,STN
4131636405000,3.679967,3.86151812532146,-6.14813948961424,-0.165202285580613,1.3261884,0.66920286,-0.5030475,295.74258,63.69508,22.755503,STN
4131641399000,3.684961,3.46204362511265,-6.13237043653149,-0.0916148552889328,1.0824533,1.3402383,-0.42332962,296.2518,63.11685,22.917768,STN
4131646421000,3.689983,2.94566399553014,-6.12547003375949,0.181406067193502,0.84757555,1.8154916,-0.3494149,296.5285,62.744175,23.181177,STN
4131651409000,3.694971,2.40382455110064,-6.12087822566567,0.50283622696203,0.6392705,2.065641,-0.3155119,296.926,62.42604,23.389694,STN
4131656426000,3.699988,1.9374919279072,-6.08928338150892,0.728410501795497,0.45906523,2.1682663,-0.32803464,297.42947,62.191856,23.498621,STN
4131661438000,3.705,1.50237128106053,-6.04717491132664,0.915559168051467,0.30176744,2.1933117,-0.32284227,297.96906,62.004753,23.573385,STN
4131666410000,3.709972,1.10832659753201,-5.99491121042865,0.962035471780479,0.16432275,2.1450534,-0.31795537,298.584,61.899155,23.52821,STN
4131671421000,3.714983,0.729861454221562,-5.9370285347931,0.939772809454444,0.06505715,2.0497584,-0.29718593,299.18198,61.819115,23.475874,STN
4131676386000,3.719948,0.391094101407496,-5.91676025238302,0.850246561931326,0.0021380284,1.9764545,-0.26297748,299.81277,61.79549,23.339746,STN
4131681384000,3.724946,0.0851985200847054,-5.93231403704506,0.694706414455156,-0.010079277,1.9401081,-0.21624629,300.41638,61.78804,23.197275,STN
4131686366000,3.729928,-0.137404620736936,-6.01541685733267,0.57007303812593,0.021991149,1.9190332,-0.1685988,301.0133,61.837326,22.98751,STN
4131691378000,3.73494,-0.318263346939415,-6.13440307916708,0.460605938671294,0.09621128,1.9101756,-0.1255328,301.59384,61.891396,22.767092,STN
4131696370000,3.739932,-0.470747649195073,-6.35239135397689,0.500287345392915,0.2171626,1.8658879,-0.08552113,302.14078,61.987274,22.499825,STN
4131701365000,3.744927,-0.607774735875108,-6.6264454891817,0.623611715773895,0.33567044,1.8316795,-0.055283304,302.6805,62.07798,22.222683,STN
4131706377000,3.749939,-0.76565015624051,-6.94484274612815,0.883733112329183,0.38912117,1.6966782,-0.04886922,303.16324,62.2006,21.923325,STN
4131711367000,3.754929,-0.939795044387084,-7.29796977659682,1.25620976563417,0.5030475,1.5143349,-0.035430185,303.61484,62.299744,21.62046,STN
4131716375000,3.759937,-0.959417604586301,-7.60569527539726,1.81151215309589,0.5861252,1.2986995,-0.02107485,304.03748,62.415825,21.287317,STN
4131721387000,3.764949,-0.861387361057534,-7.87826728420423,2.50489684994271,0.68569624,1.0919216,-0.004886922,304.40503,62.50939,20.965677,STN
4131726445000,3.770007,-0.762457398613699,-8.15334095151183,3.20464541272229,0.7791586,0.8735373,0.008552114,304.76212,62.590614,20.5976,STN
4131731446000,3.775008,-0.664642305260274,-8.42531473763387,3.89650831554172,0.8555168,0.6600399,0.008552114,305.05774,62.651783,20.248705,STN
4131736367000,3.779929,-0.498613490029228,-8.6199362852689,4.54821271831644,0.9089675,0.43463063,0.01160644,305.28336,62.698006,19.918404,STN
4131741425000,3.784987,-0.272084322143414,-8.76151691971941,5.19476467653936,0.8943067,0.22571471,0.01282817,305.45123,62.737442,19.609087,STN
4131746426000,3.789988,-0.0387342180193775,-8.8739770557318,5.45829715557747,0.8454375,0.041233405,-0.0018325958,305.75397,62.61095,19.271032,STN
4131751378000,3.79494,0.201172879914259,-8.95936774217611,5.36477407335162,0.7883216,-0.089491755,-0.026572637,306.00842,62.479534,18.95556,STN
4131756360000,3.799922,0.449226312828047,-9.02383454479688,5.15692460464107,0.7583892,-0.1777618,-0.04520403,306.309,62.242016,18.672926,STN
4131761391000,3.804953,0.733432055085142,-8.98093526099054,4.37401819051753,0.80664754,-0.24617869,-0.0571159,306.57367,61.992554,18.411753,STN
4131766333000,3.809895,0.929446921630966,-8.97396432318677,3.6409177057873,0.89736104,-0.30818152,-0.06414085,306.78107,61.731876,18.22248,STN
4131771405000,3.814967,0.98420852986847,-9.02872610296881,2.95183385114619,1.0363328,-0.37995818,-0.06352998,306.96255,61.449978,18.04658,STN
4131776359000,3.819921,0.983798513650213,-9.1124940828763,2.40233506191347,1.2027937,-0.42302418,-0.06169739,307.0118,61.21576,17.956814,STN
4131781415000,3.824977,0.811676683546618,-9.29445154296161,2.23513104680073,1.3713925,-0.4129449,-0.043676864,307.0532,60.955822,17.866423,STN
4131786338000,3.8299,0.66666087897773,-9.52877650147572,2.23196397123692,1.5421293,-0.34574974,-0.015882496,306.98083,60.75733,17.818722,STN
4131791383000,3.834945,0.58023749316698,-9.9263243965656,2.66840208875771,1.6853772,-0.22082779,0.035430185,306.9232,60.537178,17.753351,STN
4131796386000,3.839948,0.504060433872413,-10.3311641920079,3.11978423822238,1.8203784,-0.1423316,0.10048734,306.84387,60.33712,17.647915,STN
4131801406000,3.844968,0.654821567731386,-10.9902054983424,4.01573590097662,1.919644,0.019547688,0.13347405,306.82016,60.11702,17.515314,STN
4131807553000,3.851115,0.845221496278231,-11.814040079737,5.12323095372707,1.9474384,0.2049453,0.2883284,306.85904,59.892517,17.26551,STN
4131811399000,3.854961,1.0678327149613,-12.6302810925671,6.0019597404305,2.0152445,0.21502456,0.34025195,306.90143,59.62266,17.040192,STN
4131816390000,3.859952,1.35671794440674,-13.6895267751034,7.14229655125649,2.0378466,0.13500121,0.4370741,307.04535,59.30176,16.715588,STN
4131821399000,3.864961,1.64003937356379,-14.6472767125587,7.70821378777101,2.0631974,-0.023823744,0.52290064,307.15897,58.9683,16.39898,STN
4131826351000,3.869913,1.91959147451294,-15.5854345720851,8.21993597324408,2.0769417,-0.16737708,0.57879484,307.2411,58.640354,16.083513,STN
4131831414000,3.874976,2.30476008392929,-16.2331486069707,8.27368910616714,2.118786,-0.32406402,0.6258314,307.3471,58.239265,15.752708,STN
4131836332000,3.879894,2.68794578718361,-16.8339463259341,8.28315018029329,2.1135938,-0.45875978,0.6563747,307.40683,57.853058,15.442895,STN
4131841907000,3.885469,2.95119360265644,-16.9625805160415,7.95537727387522,2.083356,-0.58551437,0.679893,307.41702,57.476345,15.160611,STN
4131846487000,3.890049,3.15632778000187,-17.0323262348705,7.66408738892526,2.019826,-0.6588182,0.6924158,307.3968,57.114853,14.899694,STN
4131851383000,3.894945,3.29296892547083,-16.7987016561115,7.14288703203471,1.9746219,-0.6627888,0.70249504,307.29114,56.795044,14.706249,STN
4131856379000,3.899941,3.41222983806315,-16.4850887332903,6.55983326135524,1.9822577,-0.6056729,0.69974613,307.1819,56.480194,14.524022,STN
4131861447000,3.905009,3.54794034949851,-16.0576657920203,5.98707270320732,2.0555615,-0.59040123,0.6918049,307.00867,56.198437,14.403404,STN
4131866392000,3.909954,3.68886919783974,-15.5774644887027,5.43901616766229,2.180789,-0.66675943,0.66828656,306.83282,55.900303,14.297374,STN
4131871361000,3.914923,3.85274596742221,-15.1414838390319,5.12331206945832,2.3264804,-0.88514376,0.6001751,306.58112,55.607674,14.276558,STN
4131876426000,3.919988,4.0251182984345,-14.7082234860738,4.85776543446984,2.4810293,-1.237613,0.5131268,306.28867,55.278404,14.299327,STN
4131881362000,3.924924,4.14438632449167,-14.3440400220701,4.56567314335343,2.5848763,-1.6325374,0.4025602,305.8957,54.924946,14.435077,STN
4131886400000,3.929962,4.24791230849086,-13.9940238524573,4.25509591202616,2.6758952,-2.0131063,0.30207285,305.43756,54.53347,14.638815,STN
4131891369000,3.934931,4.3802784959905,-13.7079574852985,3.9670197044451,2.7119362,-2.3393085,0.21502456,304.89642,54.11295,14.962528,STN
4131896420000,3.939982,4.52394471755272,-13.43499196436,3.67968686128106,2.6929994,-2.4535403,0.1160644,304.33994,53.681522,15.332785,STN
4131901401000,3.944963,4.78709488580621,-13.2600716302044,3.22160590094625,2.6090055,-2.5375342,0.06383542,303.70996,53.26704,15.783653,STN
4131906413000,3.949975,5.09140329379258,-13.1147297956094,2.70382755374716,2.5561657,-2.4526238,-0.013744468,303.12213,52.846924,16.24619,STN
4131911383000,3.954945,5.33099317439472,-12.8649888760088,2.41343255561262,2.3722951,-2.1713204,-0.062002823,302.52426,52.48236,16.733482,STN
4131916411000,3.959973,5.53791463583482,-12.5520834878944,2.24688591836285,2.1169536,-1.8148806,-0.07666359,301.98053,52.15599,17.19408,STN
4131921394000,3.964956,5.59621560946518,-12.0993433278184,2.00775414605618,1.8102992,-1.4724907,-0.053450707,301.4413,51.91878,17.682297,STN
4131926386000,3.969948,5.600814338207,-11.5934932500962,1.74103320908042,1.4966198,-1.1566733,0.004886922,300.9853,51.75821,18.100449,STN
4131931409000,3.974971,5.55628992114836,-10.9602849747321,1.42880473161931,1.2302825,-0.85918194,0.083383106,300.58832,51.65361,18.49477,STN
4131936399000,3.979961,5.48581273306459,-10.2649092673287,1.09521251177859,1.0241156,-0.5299256,0.17684549,300.26892,51.62614,18.805237,STN
4131942040000,3.985602,5.33332831168909,-9.33150062924282,0.884817891825668,0.88697636,-0.19394971,0.25595254,300.00104,51.63373,19.082142,STN
4131946369000,3.989931,5.18761316312512,-8.5571295613577,0.789062307230368,0.79779,0.086132,0.3304781,299.78836,51.694347,19.287514,STN
4131951414000,3.994976,4.98123466738555,-7.72149865731177,0.872264838970866,0.7293731,0.31245756,0.41172317,299.62936,51.770916,19.455881,STN
4131956427000,3.999989,4.75417952879304,-6.93134691346954,1.07207338369277,0.66737026,0.4474588,0.48258355,299.5061,51.877422,19.576431,STN
4131961366000,4.004928,4.53871277767804,-6.21555103102932,1.33224793111909,0.6102544,0.49480084,0.54458636,299.47617,51.96566,19.66744,STN
4131966405000,4.009967,4.32693053341313,-5.54651109962099,1.65954811954917,0.5580254,0.45814893,0.5717699,299.44696,52.07275,19.742622,STN
4131971395000,4.014957,4.11864897072019,-4.96707274285714,1.91717610466352,0.49296826,0.3662137,0.58001655,299.37915,52.112637,19.797153,STN
4131976369000,4.019931,3.91243663990555,-4.47028857142857,2.10932846824085,0.40530908,0.28588495,0.5644395,299.30322,52.172,19.856146,STN
4131981348000,4.02491,3.70520829015228,-4.03540888203046,2.26851220015228,0.29138273,0.22602014,0.54183745,299.2299,52.183052,19.890566,STN
4131986397000,4.029959,3.49412277368528,-3.66723641713706,2.39123626968528,0.11789699,0.18203785,0.49266282,299.1479,52.223297,19.946762,STN
4131991419000,4.034981,3.28709664371175,-3.40444227356367,2.47084259595262,-0.055283304,0.11942416,0.41813725,299.07745,52.234634,19.99595,STN
4131996473000,4.040035,3.08164246347483,-3.24199019950642,2.50906665153011,-0.23976462,0.09468412,0.32986724,299.01703,52.279392,20.062853,STN
4132001404000,4.044966,2.915596959289,-3.13792126765253,2.49015456443052,-0.43157628,0.015882496,0.28160888,298.9539,52.329,20.127504,STN
4132006441000,4.050003,2.78332053462932,-3.09067957466458,2.40984393792968,-0.52778757,-0.09132435,0.16768251,298.90335,52.37316,20.238573,STN
4132011433000,4.054995,2.67492921064206,-3.06250113662871,2.27201148564697,-0.7144069,-0.18234327,0.06994407,298.86606,52.468006,20.34079,STN
4132016398000,4.05996,2.59557217186334,-3.05783313000196,2.06194879901826,-0.88270026,-0.23090707,-0.009162978,298.82834,52.562916,20.476154,STN
4132021374000,4.064936,2.50932289336228,-3.06951852859624,1.81837739861071,-1.0555751,-0.2302962,-0.053145275,298.77182,52.684616,20.63037,STN
4132026401000,4.069963,2.41178371893874,-3.10667642480463,1.52111481094067,-1.2281445,-0.17745635,-0.07666359,298.72586,52.831867,20.797037,STN
4132031346000,4.074908,2.31306269027445,-3.14547218366182,1.25924607432861,-1.3875804,-0.08002335,-0.09010262,298.66605,53.02177,20.971493,STN
4132036432000,4.079994,2.205401653951,-3.19033090976239,1.0573816476165,-1.5262468,0.046120327,-0.087964594,298.62762,53.239674,21.134241,STN
4132041350000,4.084912,2.09932660153094,-3.22663833677524,0.866039710247557,-1.6447546,0.16737708,-0.08032878,298.5668,53.504044,21.301292,STN
4132046443000,4.090005,1.97752222551574,-3.22134244625407,0.69127700412595,-1.7482964,0.2837469,-0.069027774,298.53345,53.790134,21.447882,STN
4132051349000,4.094911,1.87193912787291,-3.21637945271701,0.544629573152529,-1.8356501,0.37598756,-0.04520403,298.4862,54.105846,21.589317,STN
4132056419000,4.099981,1.79023815796298,-3.21157356644561,0.443704837351282,-1.8939877,0.441961,-0.017715093,298.4546,54.432045,21.713106,STN
4132061447000,4.105009,1.71925219016636,-3.19691046395315,0.362175618043114,-1.9660698,0.48655418,0.0067195175,298.3919,54.775253,21.83065,STN
4132066412000,4.109974,1.67244752272862,-3.15946676910129,0.324731903642091,-2.0436497,0.51251596,0.020463986,298.33307,55.12602,21.936642,STN
4132071385000,4.114947,1.6421875166419,-3.10657103818722,0.282081792659732,-2.1178699,0.50640726,0.05467244,298.269,55.519367,22.0127,STN
4132076378000,4.11994,1.65995017905832,-3.00887651081909,0.22435324413633,-2.2186625,0.4596761,0.07971791,298.1942,55.92468,22.0901,STN
4132081391000,4.124953,1.6755057380618,-2.9109103708743,0.162802350675386,-2.3194554,0.39522982,0.108123146,298.10855,56.35015,22.155312,STN
4132086403000,4.129965,1.67129234957865,-2.81400239176615,0.0701077393723666,-2.3970351,0.33078352,0.14721853,297.99942,56.78613,22.218145,STN
4132091419000,4.134981,1.66707559845506,-2.71701707189256,-0.0226608500721559,-2.4724772,0.3005457,0.1777618,297.84842,57.207047,22.307043,STN
4132096437000,4.139999,1.67038881676068,-2.62821995628525,-0.110746780379936,-2.5066855,0.23609942,0.18906279,297.66183,57.625614,22.402462,STN
4132101405000,4.144967,1.67518107526189,-2.54195925322321,-0.197007494951249,-2.5244007,0.17348573,0.22296582,297.4555,58.052643,22.486889,STN
4132106428000,4.14999,1.68192581679209,-2.62004116580591,-0.214679496611087,-2.5360072,0.09743301,0.23090707,297.2265,58.490883,22.578009,STN
4132111432000,4.154994,1.68899713259554,-2.72846805735084,-0.219393709607988,-2.5127943,0.00030543262,0.2171626,296.96732,58.912548,22.674782,STN
4132116404000,4.159966,1.69602322815405,-2.83620157149181,-0.224077775759185,-2.4810293,-0.13988814,0.18753563,296.6909,59.350372,22.773836,STN
4132121362000,4.164924,1.70302953985539,-2.94363173301854,-0.228748652665388,-2.425746,-0.28955013,0.12370021,296.38434,59.75184,22.89571,STN
4132126385000,4.169947,1.71163310330415,-3.29600094606044,-0.285535422778876,-2.3506095,-0.4596761,0.05955936,296.0414,60.131435,23.032654,STN
4132131445000,4.175007,1.72075644096771,-3.72479819730773,-0.358522171719853,-2.2473733,-0.63316184,0.005192355,295.65497,60.467064,23.196224,STN
4132136404000,4.179966,1.81824133393873,-4.31249973812145,-0.514682634857824,-2.1111503,-0.81397796,-0.021380283,295.16208,60.73557,23.400942,STN
4132141382000,4.184944,1.96254698783709,-4.99029904925702,-0.715835980280682,-1.9404135,-0.9746355,0.0021380284,294.622,60.967102,23.614182,STN
4132146425000,4.189987,2.15616878557912,-5.93003058681892,-0.915167779732463,-1.6865989,-1.0928379,0.06078109,294.07983,61.25767,23.774282,STN
4132151407000,4.194969,2.40004562318651,-7.13903698982055,-1.10715598474388,-1.4187346,-1.1633929,0.15485434,293.49725,61.51911,23.921816,STN
4132157291000,4.200853,2.36180395541383,-9.29492869577664,-0.603032124189342,-1.1435398,-1.178359,0.2501493,292.83575,61.82194,24.034332,STN
4132161473000,4.205035,2.2293628524093,-11.0620721106859,-0.00893890322562363,-0.9025534,-1.0983357,0.32650748,292.17825,62.09545,24.118347,STN
