timestamp,rel_time,acc_x,acc_y,acc_z,gyro_x,gyro_y,gyro_z,azimuth,pitch,roll,label
7640430473000,0,1.66592110219144,9.75140548904279,-0.249440267808558,-0.031154128,0.01282817,0.03940081,96.366135,-79.31836,10.378946,STD
7640435515000,0.005042,1.66616203218506,9.75020083907472,-0.249199337814945,-0.034208454,0.009773844,0.0290161,96.35815,-79.38136,10.330953,STD
7640440489000,0.010016,1.66519903532376,9.74933025918497,-0.247972861595637,-0.032070424,-0.0061086523,0.02565634,96.35739,-79.43864,10.288676,STD
7640445460000,0.014987,1.6573600261146,9.75028046136151,-0.241084034967641,-0.033292156,0.002443461,0.02321288,96.34996,-79.49601,10.244941,STD
7640450552000,0.020079,1.64933020618036,9.75125379257918,-0.234027526178715,-0.04184427,-0.009773844,0.0125227375,96.32776,-79.61088,10.13823,STD
7640455474000,0.025001,1.64156846743011,9.75219462844982,-0.227206603896881,-0.046120327,-0.008246681,0.022907447,96.29909,-79.71873,10.0383415,STD
7640460467000,0.029994,1.63369476536184,9.75314903590657,-0.220287289603261,-0.042455133,-0.022602014,0.01740966,96.279076,-79.83187,9.933044,STD
7640465479000,0.035006,1.62579110127888,9.75410707519622,-0.213341645052967,-0.048258353,-0.018020526,0.012217305,96.2532,-79.93912,9.832439,STD
7640471477000,0.041004,1.61633256632886,9.75525358749857,-0.205029598761533,-0.043066,-0.015882496,0.016798794,96.23225,-80.04389,9.735184,STD
7640475474000,0.045001,1.61002950460907,9.75601761045163,-0.199490544238882,-0.03940081,-0.011301007,0.018936822,96.20946,-80.14817,9.6376705,STD
7640480465000,0.049992,1.60215895643709,9.75697163561018,-0.192574001551228,-0.040927973,-0.0021380284,0.014660766,96.184814,-80.25078,9.541562,STD
7640485519000,0.055046,1.59418906053221,9.75793770316203,-0.185570153275651,-0.038789943,-0.005497787,0.015271631,96.16253,-80.349655,9.449553,STD
7640490473000,0.06,1.58637685944144,9.75888465580388,-0.178704885298365,-0.046731193,0.010995574,0.028710667,96.13185,-80.443245,9.361747,STD
7640495482000,0.065009,1.57847792620291,9.75984212164623,-0.171763398157019,-0.035430185,0.013439035,0.0290161,96.10645,-80.53936,9.2725725,STD
7640500493000,0.07002,1.57057583906811,9.76079996978679,-0.164819139409707,-0.035430185,0.02076942,0.027183503,96.07494,-80.62911,9.18839,STD
7640505473000,0.075,1.56272263732567,9.76175189230524,-0.157917840554865,-0.026267206,0.028710667,0.035430185,96.042625,-80.71501,9.109089,STD
7640510469000,0.079996,1.55484420441298,9.76270687320929,-0.150994368852297,-0.02565634,0.014049901,0.027183503,96.015076,-80.80347,9.026643,STD
7640515476000,0.085003,1.54694842507073,9.76366395675344,-0.144055653316917,-0.03359759,0.020158553,0.033292156,95.979225,-80.88358,8.952284,STD
7640520662000,0.090189,1.53877037201124,9.76465525598651,-0.136868879047598,-0.03604105,0.018020526,0.03573562,95.95025,-80.96528,8.876656,STD
7640525599000,0.095126,1.53098497903887,9.76559895909365,-0.130027169721021,-0.038179077,-0.0012217305,0.022907447,95.924736,-81.047134,8.800364,STD
7640530459000,0.099986,1.52332101107336,9.76652794372009,-0.123292167224127,-0.03634648,-0.005192355,0.022907447,95.89544,-81.12282,8.73016,STD
7640535499000,0.105026,1.51537319244245,9.76749133518455,-0.116307720190311,-0.032375857,-0.0036651916,0.018325957,95.87035,-81.20135,8.656996,STD
7640540484000,0.110011,1.50751210595931,9.7684442134485,-0.109399492320554,-0.03848451,0.002443461,0.025961773,95.845055,-81.27398,8.589227,STD
7640545466000,0.114993,1.49965575032059,9.76939651826515,-0.102495421859747,-0.05009095,-0.006414085,0.01985312,95.82384,-81.34967,8.518214,STD
7640550511000,0.120038,1.49170004694899,9.7703608654751,-0.0955040458110165,-0.047647487,0.008552114,0.019242255,95.793945,-81.42012,8.452548,STD
7640555472000,0.124999,1.48387680722123,9.77130915616065,-0.0886290772128497,-0.06566802,0.013133603,0.021991149,95.769714,-81.48784,8.388079,STD
7640560471000,0.129998,1.47599364346412,9.772264710512,-0.0817014481013328,-0.06658431,0.02321288,0.016187929,95.73979,-81.557205,8.32265,STD
7640565501000,0.135028,1.46806159431463,9.77322619048546,-0.0747308590973459,-0.04520403,0.03970624,0.03481932,95.706696,-81.61727,8.266691,STD
7640570549000,0.140076,1.4601011600986,9.77419111114271,-0.0677353256396669,-0.056199603,0.04550946,0.04184427,95.67415,-81.67887,8.207518,STD
7640575483000,0.14501,1.45232049797065,9.77513424080256,-0.0608977737220384,-0.05497787,0.049480084,0.04184427,95.637566,-81.737114,8.153166,STD
7640580468000,0.149995,1.44445941148751,9.77608711906651,-0.0539895458522821,-0.050396383,0.04642576,0.04062254,95.60165,-81.79183,8.101957,STD
7640585501000,0.155028,1.4365226314936,9.77704917248726,-0.0470147994393465,-0.03268129,0.04153884,0.044898596,95.56543,-81.84411,8.053791,STD
7640590485000,0.160012,1.42866312195859,9.77800185960211,-0.0401079573725731,-0.034208454,0.030848695,0.04428773,95.53215,-81.89595,8.005363,STD
7640595471000,0.164998,1.42080045852731,9.77895492901516,-0.0331983436998338,-0.03390302,0.031154128,0.043066,95.49735,-81.946144,7.959335,STD
7640600488000,0.170015,1.41288890970366,9.77991392405032,-0.0262457701346247,-0.03390302,0.046731193,0.032070424,95.46152,-81.99775,7.911648,STD
7640605477000,0.175004,1.40502151542795,9.78086756691067,-0.0193319990529368,-0.02107485,0.045814894,0.045814894,95.430435,-82.04179,7.872135,STD
7640610509000,0.180036,1.39708631238218,9.78182942918232,-0.0123586384429841,-0.028099801,0.056505036,0.049480084,95.39192,-82.08948,7.8278217,STD
7640615460000,0.184987,1.38927884213583,9.78277580837687,-0.00549752787464634,-0.017715093,0.05681047,0.04184427,95.35692,-82.136345,7.78552,STD
7640620506000,0.190033,1.38132156181609,9.78374034673593,0.00149523397706691,-0.021991149,0.043982297,0.040927973,95.322914,-82.17809,7.7473893,STD
7640625501000,0.195028,1.37344470585153,9.78469513649087,0.00841731987665225,-0.036957346,0.046120327,0.030543262,95.28489,-82.22336,7.7054963,STD
7640630458000,0.199985,1.36562777391634,9.78564266258002,0.0152867452628874,-0.030848695,0.026572637,0.022907447,95.2571,-82.267426,7.665516,STD
7640635505000,0.205032,1.35766891664845,9.78660739208818,0.0222808929175835,-0.03390302,0.036957346,0.021380283,95.220345,-82.31045,7.6254067,STD
7640640424000,0.209951,1.35029173907097,9.78733206851267,0.0275124693701134,-0.040927973,0.052534413,0.0143553335,95.187996,-82.35588,7.582911,STD
7640645463000,0.21499,1.34956800691476,9.78419588072147,0.00435302324181647,-0.05131268,0.07666359,0.007330383,95.15043,-82.40017,7.541153,STD
7640650511000,0.220038,1.34884298212322,9.78105409148353,-0.0188477872474955,-0.057726767,0.082161374,0.0027488936,95.10662,-82.49049,7.4486566,STD
7640655478000,0.225005,1.34812959104961,9.77796271526625,-0.0416763184876722,-0.06536258,0.086437434,0.004581489,95.05651,-82.57937,7.3570476,STD
7640660470000,0.229997,1.34741260932232,9.7748557794747,-0.0646197507306685,-0.057726767,0.055588737,0.008246681,95.01532,-82.66811,7.2660213,STD
7640665471000,0.234998,1.34669433495971,9.7717432422364,-0.0876045473346798,-0.030848695,0.004886922,0.0061086523,94.97901,-82.75719,7.175191,STD
7640670521000,0.240048,1.34596902291587,9.76860020823252,-0.110814549904217,0.013133603,-0.07696902,0.009162978,94.96082,-82.843414,7.088522,STD
7640675551000,0.245078,1.34524658339499,9.76546962188806,-0.133932631671499,0.0571159,-0.16035213,0.0070249503,94.957886,-82.93141,7.001399,STD
7640680474000,0.250001,1.34453951187186,9.76240563052151,-0.156558937146714,0.098043874,-0.2012801,0.0009162979,94.966194,-83.01984,6.915577,STD
7640685498000,0.255025,1.34381793410786,9.75927877847488,-0.179649442673319,0.11911872,-0.21105394,0.0061086523,94.98911,-83.104996,6.8340783,STD
7640690474000,0.260001,1.34310325039893,9.75618180081085,-0.202519338274511,0.0842994,-0.18020524,0.0021380284,95.011635,-83.192245,6.749678,STD
7640695465000,0.264992,1.34238641229779,9.75307548740227,-0.225458174477394,0.056199603,-0.13408493,-0.00580322,95.03193,-83.278496,6.6670766,STD
7640700476000,0.270003,1.3416667016737,9.74995672633426,-0.248488931482533,0.056199603,-0.100792766,-0.012217305,95.04652,-83.36351,6.5851893,STD
7640705472000,0.274999,1.34094914544182,9.74684730101082,-0.271450747885981,0.06688975,-0.08399397,-0.0033597588,95.05217,-83.44414,6.5068583,STD
7640710458000,0.279985,1.34023302547142,9.74374409951709,-0.2943666038883,0.105374254,-0.071776666,0.00030543262,95.04935,-83.527306,6.4267077,STD
7640715447000,0.284974,1.33951647462257,9.74063903087444,-0.317296248010958,0.14385876,-0.06688975,-0.0012217305,95.04356,-83.6081,6.349139,STD
7640720515000,0.290042,1.33878857730808,9.73748479397708,-0.340588979302526,0.18478674,-0.06963864,-0.009468411,95.03622,-83.6894,6.272195,STD
7640726114000,0.295641,1.33798441450939,9.73400007172209,-0.366322207893979,0.21746802,-0.071776666,-0.026267206,95.02708,-83.77263,6.193904,STD
7640730469000,0.299996,1.33735892263793,9.7312895938831,-0.386337962585135,0.21533,-0.092240654,-0.032375857,95.02365,-83.85336,6.1179533,STD
7640735513000,0.30504,1.33663447235098,9.72815029417705,-0.409520388913996,0.21502456,-0.1328632,-0.045814894,95.026375,-83.93972,6.0368614,STD
7640740472000,0.309999,1.33592223028655,9.72506389702354,-0.43231215183327,0.21227567,-0.17654006,-0.058948494,95.03542,-84.02535,5.955866,STD
7640745466000,0.314993,1.33520496130696,9.72195571646604,-0.455264776156492,0.20525073,-0.21746802,-0.057726767,95.0548,-84.108246,5.8770385,STD
7640750535000,0.320062,1.33447692036633,9.71880085718571,-0.478562103488172,0.19242255,-0.23609942,-0.05100725,95.079666,-84.190765,5.79793,STD
7640755509000,0.325036,1.3337625239097,9.71570512428763,-0.501422807009138,0.19028452,-0.25167647,-0.04917465,95.11461,-84.27203,5.7196937,STD
7640760463000,0.32999,1.333050999976,9.71262183904897,-0.524191589727849,0.18387043,-0.24373524,-0.04917465,95.14728,-84.34941,5.6446223,STD
7640765450000,0.334977,1.33233473637945,9.70951801517227,-0.547112041770281,0.17562376,-0.22418754,-0.046731193,95.180145,-84.42336,5.572525,STD
7640770465000,0.339992,1.33161445125077,9.70639676457238,-0.570161182935872,0.17867808,-0.18784106,-0.037873644,95.20504,-84.49344,5.503968,STD
7640775473000,0.345,1.33089517150513,9.70327987065328,-0.593178151820672,0.1872302,-0.15271631,-0.032070424,95.22386,-84.56162,5.436906,STD
7640780459000,0.349986,1.33017905153472,9.70017666915955,-0.616094007822992,0.19303341,-0.12492194,-0.029626964,95.23367,-84.62632,5.372993,STD
7640785479000,0.355006,1.32945804827531,9.6970523066448,-0.639166129189146,0.19639318,-0.09621128,-0.014966198,95.23255,-84.68406,5.315749,STD
7640790470000,0.359997,1.32874121017417,9.69394599323622,-0.662104965392029,0.2098322,-0.0842994,-0.023518313,95.22784,-84.74596,5.2540445,STD
7640795592000,0.365119,1.32800555704773,9.69075814765842,-0.685645882849687,0.22143865,-0.09315695,-0.022296581,95.22046,-95.20085,5.2006865,STD
7640800486000,0.370013,1.32730265068288,9.68771220539803,-0.708138903161631,0.22693644,-0.12889257,-0.022602014,95.21708,-95.14655,5.1458225,STD
7640805475000,0.375002,1.32658609983403,9.68460713675538,-0.731068547284289,0.23304509,-0.16462818,-0.03176499,95.21588,-95.091866,5.0901,STD
7640810464000,0.379991,1.32586954898518,9.68150206811274,-0.753998191406947,0.22204952,-0.21502456,-0.038179077,95.22869,-95.03955,5.036386,STD
7640815445000,0.384972,1.32515414714551,9.67840197853386,-0.776891067208702,0.22999077,-0.26175576,-0.043676864,95.25009,-94.98696,4.981655,STD
7640820562000,0.390089,1.32441921214981,9.67521724487092,-0.800409004465796,0.24098633,-0.30115658,-0.055588737,95.28309,-94.93248,4.924589,STD
7640825509000,0.395036,1.32370869359915,9.67213831631306,-0.823145614903717,0.23579398,-0.31703907,-0.06780604,95.321815,-94.87807,4.8672442,STD
7640830465000,0.399992,1.32299688241317,9.66905378630847,-0.845923589702654,0.258396,-0.31337386,-0.0711658,95.36516,-94.82551,4.810467,STD
7640835450000,0.404977,1.32228090606891,9.6659512071977,-0.86883484966486,0.27091873,-0.29046643,-0.074830994,95.406395,-94.77113,4.7516503,STD
7640840482000,0.410009,1.32311094787321,9.66380873841116,-0.893405069742926,0.2828306,-0.26633725,-0.073303826,95.44508,-94.719955,4.6949162,STD
7640845470000,0.414997,1.34938133390661,9.67789920250475,-0.941408221651335,0.30176744,-0.25778514,-0.06963864,95.48061,-94.67109,4.639276,STD
7640850516000,0.420043,1.37595718954505,9.69215350920408,-0.989969549744726,0.31703907,-0.21288654,-0.07391469,95.466934,-94.608505,4.556653,STD
7640855471000,0.424998,1.40205377390661,9.70615075250475,-1.03765511865134,0.3304781,-0.18325958,-0.06780604,95.45428,-94.55667,4.4792223,STD
7640860461000,0.429988,1.42833469337466,9.72024686634336,-1.0856775180144,0.34605515,-0.15882497,-0.060170226,95.429306,-94.51118,4.402355,STD
7640865609000,0.435136,1.45544775418058,9.734789310039,-1.13522046629517,0.3707952,-0.15393804,-0.04428773,95.40066,-94.47748,4.3308277,STD
7640870504000,0.440031,1.48122833550245,9.7486170609889,-1.18232861156214,0.3912592,-0.1518,-0.027794369,95.36504,-94.45328,4.2629266,STD
7640875472000,0.444999,1.50739338718928,9.76265102763224,-1.23013928892401,0.40958515,-0.17623462,-0.017715093,95.33488,-94.43994,4.1987205,STD
7640880464000,0.449991,1.53368484009199,9.77675279121588,-1.27818093574173,0.43799037,-0.19486602,-0.010079277,95.3017,-94.43969,4.1395936,STD
7640885503000,0.45503,1.56022382870913,9.79098732380762,-1.32667489774383,0.44165558,-0.22602014,-0.0012217305,95.278336,-94.447975,4.0843797,STD
7640890474000,0.460001,1.58640468054795,9.80502976506849,-1.37451444628767,0.46578476,-0.24098633,-0.0021380284,95.25471,-94.46731,4.029426,STD
7640895468000,0.464995,1.61270666688531,9.81913717839716,-1.42257534056004,0.4636467,-0.26236662,-0.0067195175,95.240875,-94.49107,3.9764743,STD
7640900485000,0.470012,1.63912978772123,9.83330956379362,-1.47085758056094,0.4654793,-0.28160888,-0.018325957,95.22957,-94.521965,3.9219587,STD
7640905475000,0.475002,1.66541070718928,9.84740567763224,-1.51887997992401,0.45631635,-0.29932398,-0.026572637,95.22283,-94.55588,3.867752,STD
7640910464000,0.479991,1.69168635994001,9.86149896659834,-1.56689275555974,0.4550946,-0.33017266,-0.032375857,95.224075,-94.593834,3.811466,STD
7640915457000,0.484984,1.71798307956004,9.87560355505449,-1.61494402610479,0.4541783,-0.3726278,-0.048563786,95.23229,-94.63057,3.750446,STN
7640920552000,0.490079,1.74481700434757,9.88999628050695,-1.66397691683722,0.45234573,-0.43951756,-0.044898596,95.255226,-94.67438,3.6936893,STN
7640925464000,0.494991,1.77068711986401,9.90387205428957,-1.71124866546875,0.46181414,-0.49877146,-0.03359759,95.286674,-94.72195,3.635066,STN
7640930468000,0.499995,1.79704177337466,9.91800771634337,-1.7594057970144,0.4841107,-0.5546656,-0.027794369,95.33479,-94.77476,3.5760036,STN
7640935685000,0.505212,1.82451823767623,9.93274507624237,-1.80961278248075,0.50518554,-0.6065892,-0.02565634,95.397194,-94.83402,3.519232,STN
7640940460000,0.509987,1.84966681291871,9.94623384249075,-1.85556608046845,0.5354234,-0.65026605,-0.035430185,95.47134,-94.90113,3.4608266,STN
7640945444000,0.514971,1.87591613208279,9.96031300709429,-1.90353073746755,0.5580254,-0.66981375,-0.040317107,95.55162,-94.97505,3.4048386,STN
7640950574000,0.520101,1.9029343919768,9.97480460308469,-1.95290045865643,0.5925393,-0.7199047,-0.045814894,95.65093,-95.05824,3.3454692,STN
7640955370000,0.524897,1.92819356828317,9.98835269165583,-1.99905585491801,0.6041457,-0.7809912,-0.052839845,95.756714,-95.14247,3.284589,STN
7640960411000,0.529938,1.95474309033497,10.0025928739926,-2.04756906437476,0.63255095,-0.8197812,-0.048563786,95.86827,-95.241005,3.225724,STN
7640965366000,0.534893,1.98083967469653,10.0165901172933,-2.09525463328137,0.6704246,-0.8668178,-0.051923547,95.99696,-95.34362,3.1622424,STN
7640970423000,0.53995,2.00747346422558,10.0308754975902,-2.14392182237536,0.70921457,-0.9101892,-0.049480084,96.133354,-95.45625,3.1017869,STN
7640975367000,0.544894,2.03351211469653,10.0448416672933,-2.19150153028137,0.7672467,-0.94959,-0.048258353,96.27926,-95.5828,3.0399501,STN
7640980357000,0.549884,2.05979303416458,10.0589377811319,-2.23952392964444,0.8335256,-0.9954049,-0.05467244,96.43644,-95.72088,2.9763162,STN
7640985396000,0.554923,2.08633202278172,10.0731723137236,-2.28801789164654,0.89766645,-1.0629056,-0.046731193,96.60847,-95.87554,2.9164004,STN
7640990365000,0.559892,2.11250234118588,10.0872091052395,-2.33583819273573,0.9819659,-1.1530081,-0.033292156,96.796844,-96.0517,2.8551557,STN
7640995358000,0.564885,2.13879906080592,10.1013136936956,-2.38388946328077,1.0815369,-1.2137892,-0.033292156,96.9926,-96.24704,2.791905,STN
7641000561000,0.570088,2.16620179106489,10.1160115053795,-2.43396171656454,1.1749994,-1.2260065,-0.043066,97.19658,-96.46222,2.7290418,STN
7641005452000,0.574979,2.19196130551745,10.1298279568393,-2.48103136692221,1.2302825,-1.2073752,-0.05497787,97.40505,-96.69168,2.6651719,STN
7641010468000,0.579995,2.21837915963604,10.1439975173633,-2.52930398319578,1.29198,-1.1450669,-0.040927973,97.60097,-96.947136,2.607307,STN
7641015467000,0.584994,2.24470747956004,10.1581190550545,-2.57741299610479,1.3753631,-1.0729848,-0.047036625,97.78372,-97.21718,2.5417695,STN
7641020591000,0.590118,2.27169413915008,10.1725937018098,-2.62672497492971,1.455081,-1.0839803,-0.061086524,97.96853,-97.500694,2.4776378,STN
7641025512000,0.595039,2.29761165512249,10.1864948994451,-2.67408333710719,1.5467108,-1.1557571,-0.08124508,98.14572,-97.80554,2.4105177,STN
7641030476000,0.600003,2.32375563994001,10.2005175665983,-2.72185551955974,1.6468927,-1.2507466,-0.10934488,98.32774,-98.1289,2.3360631,STN
7641035554000,0.605081,2.35050003053295,10.2148622692181,-2.77072480692761,1.7486018,-1.3790283,-0.14569137,98.53412,-98.471535,2.2497659,STN
7641040585000,0.610112,2.37279668802233,10.2200334757145,-2.81618376741615,1.8454239,-1.50731,-0.18600847,98.76131,-98.833694,2.1508384,STN
7641045462000,0.614989,2.3431193260897,10.114643821821,-2.8241288936014,1.9333885,-1.5674802,-0.22327125,98.998856,-99.21454,2.0404944,STN
7641051216000,0.620743,2.30810527225324,9.99030261441823,-2.83350274147304,1.9682078,-1.68385,-0.23854288,99.25317,-99.808846,1.9826378,STN
7641055477000,0.625004,2.28217637350504,9.89822442798391,-2.84044434136547,2.043955,-1.7244726,-0.2602286,99.49605,-100.425995,1.9106436,STN
7641060462000,0.629989,2.25184181348163,9.79050094538004,-2.8485654104722,2.0934353,-1.5714508,-0.25595254,99.712494,-101.03521,1.8441621,STN
7641065465000,0.634992,2.22139772044308,9.68238849132445,-2.85671580339918,2.1245892,-1.2837334,-0.2938262,99.89374,-101.64622,1.7641835,STN
7641070535000,0.640062,2.19054592118156,9.57282819908742,-2.8649753461015,2.0864103,-1.0027353,-0.37751472,100.02612,-102.23858,1.6804657,STN
7641075610000,0.645137,2.15966369608249,9.46315985922491,-2.87324303430946,2.0115793,-0.8417723,-0.43676865,100.10558,-102.817696,1.6025816,STN
7641080464000,0.649991,2.13012629300252,9.35826722440862,-2.88115069116885,1.9333885,-0.70066243,-0.49602258,100.10222,-103.37144,1.5178064,STN
7641085527000,0.655054,2.09931708991354,9.24885819884726,-2.8893988301633,1.8872682,-0.54428095,-0.5180137,100.04406,-103.9027,1.439658,STN
7641090468000,0.659995,2.06925027726045,9.14208553534762,-2.89744821882054,1.8570304,-0.32498032,-0.48747048,99.92497,-104.40705,1.375488,STN
7641095465000,0.664992,2.03884269522695,9.0341027384426,-2.90558883714077,1.8423696,-0.02443461,-0.42546764,99.73745,-104.89438,1.3331428,STN
7641100492000,0.670019,2.00825255816823,8.9254716557847,-2.91377832849474,1.8075503,0.25900686,-0.3549127,99.49419,-105.36001,1.3186911,STN
7641105470000,0.674997,1.97796059431736,8.81789943985651,-2.92188799389359,1.777007,0.54641896,-0.29535335,99.168625,-105.81573,1.3429362,STN
7641110463000,0.67999,1.94757735295389,8.71000308105187,-2.93002209580932,1.738828,0.81336707,-0.24465153,98.77406,-106.25293,1.4057974,STN
7641115468000,0.684995,1.91712108958033,8.60184740794609,-2.93817574693854,1.6982054,0.97494096,-0.2049453,98.33272,-106.67444,1.4970745,STN
7641121503000,0.69103,1.88039710367435,8.47143392399135,-2.94800737222622,1.6511687,1.0299188,-0.17287487,97.85079,-107.07733,1.61301,STN
7641125469000,0.694996,1.85626332934078,8.38573054746037,-2.95446838728686,1.606881,0.9923506,-0.12767084,97.3547,-107.46437,1.7484462,STN
7641130469000,0.699996,1.82583749180476,8.27768292198007,-2.96261389291046,1.5457945,0.9049969,-0.08368854,96.86038,-107.828094,1.8916538,STN
7641135526000,0.705053,1.79506479972082,8.16840355356928,-2.97085225729817,1.4999796,0.79137594,-0.036651913,96.388275,-108.17939,2.0411367,STN
7641140468000,0.709995,1.76499190190022,8.06160928054455,-2.97890327505654,1.4306464,0.7101309,0.003970624,95.93497,-108.50256,2.194359,STN
7641145467000,0.714994,1.7345721495317,7.95358326458934,-2.98704715157901,1.3362677,0.70280045,0.017104227,95.49458,-108.80123,2.3476257,STN
7641150532000,0.720059,1.70375077610771,7.84413101997779,-2.99529854877572,1.3014483,0.7119634,0.025045475,95.07527,-109.093765,2.502725,STN
7641155447000,0.724974,1.6738421778098,7.73792020413064,-3.00330558080371,1.2366967,0.75625116,0.03176499,94.64977,-109.34745,2.661391,STN
7641160438000,0.729965,1.64347110678134,7.6300670643762,-3.01143642451719,1.1759156,0.75411314,0.032986723,94.23494,-109.58879,2.8149467,STN
7641165444000,0.734971,1.61300875824027,7.52188978174532,-3.01959170474754,1.099252,0.7153232,0.03573562,93.81916,-109.80439,2.9688473,STN
7641170488000,0.740015,1.58231517333393,7.41289133716078,-3.02780889082063,1.0100657,0.63438356,0.028710667,93.41492,-109.99602,3.1135216,STN
7641175435000,0.744962,1.55221184967579,7.30598901651057,-3.03586805408461,0.90469146,0.5467244,0.019242255,93.02336,-110.15899,3.2511878,STN
7641180452000,0.749979,1.52168256429215,7.19757402910363,-3.04404125442733,0.795652,0.44409904,0.008857546,92.6572,-110.29346,3.3748002,STN
7641185464000,0.754991,1.49118370474604,7.08926708932217,-3.05220630926443,0.68203104,0.3436117,0.014049901,92.31495,-110.395836,3.4892175,STN
7641190615000,0.760142,1.45983900691643,6.97795642555235,-3.06059780915786,0.57604593,0.26328292,0.015882496,91.99381,-110.46819,3.5895498,STN
7641195487000,0.765014,1.43019207082133,6.87267481928434,-3.0685347898375,0.47525316,0.17348573,0.017104227,91.7029,-110.51002,3.6780841,STN
7641200452000,0.769979,1.39997921414805,6.7653835271824,-3.07662327692173,0.35643986,0.0888809,0.021991149,91.43294,-110.517525,3.7585785,STN
7641205463000,0.77499,1.36948643976945,6.65709819692603,-3.0847867026577,0.2406809,0.011301007,0.02565634,91.18546,-110.49835,3.8289719,STN
7641210471000,0.779998,1.33901192089337,6.54887769524496,-3.0929452410903,0.12797627,-0.07544186,0.027794369,90.963715,-110.44819,3.889182,STN
7641215504000,0.785031,1.30838527282961,6.44011695543648,-3.10114450705101,0.03390302,-0.1441642,0.016798794,90.75729,-110.37211,3.9392962,STN
7641220691000,0.790218,1.27682150896974,6.32802834876321,-3.10959465458493,-0.064751714,-0.1853976,0.0125227375,90.56794,-110.26603,3.9844387,STN
7641225388000,0.794915,1.2482394771884,6.22652840938701,-3.11724654256774,-0.14538592,-0.22204952,0.0036651916,90.39464,-110.14054,4.0178123,STN
7641230375000,0.799902,1.21789274682997,6.11876170773295,-3.12537086987672,-0.22815818,-0.24373524,-0.005192355,90.22836,-109.98984,4.0462723,STN
7641235399000,0.804926,1.18732086527378,6.01019545365034,-3.13355547392731,-0.30787608,-0.25045475,-0.019242255,90.06702,-109.8202,4.0677614,STN
7641240453000,0.80998,1.15937040900604,5.90995622239842,-3.14285321027168,-0.3885103,-0.24587326,-0.018325957,89.90961,-109.631516,4.0889096,STN
7641245368000,0.814895,1.16711635508448,5.92427448220234,-3.16515213919325,-0.4792238,-0.22632557,-0.02321288,89.748695,-109.4209,4.1045446,STN
7641250544000,0.820071,1.17527363217541,5.93935308092973,-3.18863520248888,-0.5290093,-0.20922135,-0.02076942,89.52704,-109.32008,4.00292,STN
7641255467000,0.824994,1.18303218610097,5.95369464614126,-3.21097042671693,-0.59773165,-0.1685988,-0.01282817,89.292816,-109.19128,3.9054058,STN
7641260590000,0.830117,1.1911059362047,5.9686188465432,-3.23421303360711,-0.679893,-0.1301143,0.0070249503,89.05503,-109.04846,3.8130383,STN
7641265468000,0.834995,1.19879357099017,5.98282931883689,-3.25634409673618,-0.763887,-0.087964594,0.022907447,88.80491,-108.88923,3.7255847,STN
7641270562000,0.840089,1.20682161764806,5.99766903713622,-3.27945513314035,-0.84757555,-0.06688975,0.05131268,88.55254,-108.71232,3.6480742,STN
7641275552000,0.845079,1.2146857622933,6.01220578513654,-3.30209433056021,-0.9239337,-0.043982297,0.089491755,88.29019,-108.51907,3.5809107,STN
7641280458000,0.849985,1.22241752454371,6.02649782635689,-3.32435242726198,-1.01312,-0.03390302,0.13744467,88.02883,-108.304886,3.5240579,STN
7641285493000,0.85502,1.23035258832904,6.04116566727505,-3.34719578578082,-1.0961977,-0.018936822,0.18173242,87.76288,-108.07716,3.4780135,STN
7641290473000,0.86,1.23820097316538,6.05567328351585,-3.36978961406758,-1.1835514,-0.010995574,0.21838433,87.4997,-107.82998,3.4418788,STN
7641295467000,0.864994,1.24607142173419,6.07022168421998,-3.39244695914069,-1.248914,0.0018325958,0.2657264,87.235985,-107.573555,3.420861,STN
7641300470000,0.869997,1.25395605413101,6.08479630350767,-3.41514513643359,-1.3267993,0.0021380284,0.30787608,86.97643,-107.29604,3.4062457,STN
7641305475000,0.875002,1.26184383848962,6.09937674914727,-3.43785238755311,-1.3921618,0.0009162979,0.33414328,86.716774,-107.01092,3.3991518,STN
7641310468000,0.879995,1.26971271107753,6.11392223667544,-3.4605051957129,-1.4633276,-0.0030543262,0.35796702,86.46146,-106.710304,3.4004486,STN
7641315467000,0.884994,1.27759103955079,6.12848520325933,-3.48318522535256,-1.5079209,-0.010079277,0.37659842,86.20951,-106.40606,3.4048245,STN
7641320631000,0.890158,1.28572940487104,6.14352884387529,-3.50661384568847,-1.566564,-0.008552114,0.3921755,85.95848,-106.085464,3.4127939,STN
7641325539000,0.895066,1.29346431908324,6.15782671144755,-3.52888101621686,-1.5946637,-0.03848451,0.4071417,85.72007,-105.76847,3.42023,STN
7641330473000,0.9,1.3012402087986,6.17220032159456,-3.55126614649133,-1.6423112,-0.09193522,0.4016439,85.48807,-105.43597,3.4221866,STN
7641335454000,0.904981,1.30909016961582,6.18671085101131,-3.5738645116914,-1.6869044,-0.16187929,0.37934732,85.269554,-105.103004,3.4177525,STN
7641340466000,0.909993,1.31698898584066,6.20131168888257,-3.5966035212041,-1.7189748,-0.20677789,0.36713,85.05999,-104.76731,3.4103076,STN
7641345461000,0.914988,1.32486101039036,6.21586300276265,-3.61926540319051,-1.7568485,-0.3210097,0.35918877,84.88851,-104.42319,3.3860424,STN
7641350506000,0.920033,1.3328118339846,6.23055997544033,-3.64215413084246,-1.7715092,-0.43066,0.32406402,84.72628,-104.08076,3.346578,STN
7641355475000,0.925002,1.34064288303114,6.24503554674566,-3.6646980530828,-1.7993035,-0.5561928,0.27152961,84.59934,-103.72911,3.2900064,STN
7641360461000,0.929988,1.34850072375282,6.25956064204217,-3.68731910284942,-1.8133535,-0.64843345,0.20586158,84.49118,-103.380486,3.2142649,STN
7641365444000,0.934971,1.35635383653183,6.27407699781082,-3.70992654187611,-1.8096883,-0.72784597,0.14172074,84.41175,-103.032104,3.116861,STN
7641370533000,0.94006,1.36437400328526,6.28890215023039,-3.73301489371372,-1.7559321,-0.77732605,0.07819075,84.34611,-102.69588,2.9978364,STN
7641376235000,0.945762,1.37336024632478,6.30551307950851,-3.75888437341073,-1.6994271,-0.8002335,0.021991149,84.29214,-102.36428,2.8606846,STN
7641380464000,0.949991,1.3800250695121,6.31783290060938,-3.77807097980123,-1.6401732,-0.7993172,-0.018020526,84.24278,-102.051895,2.7102087,STN
7641385459000,0.954986,1.3878970940618,6.33238421448946,-3.80073286178764,-1.565953,-0.73731434,-0.051618114,84.17989,-101.76288,2.5498376,STN
7641390468000,0.959995,1.39579118234397,6.34697631283287,-3.82345826056041,-1.5204436,-0.64965516,-0.069027774,84.10822,-101.487564,2.3863077,STN
7641395458000,0.964985,1.40365532698921,6.36151306083318,-3.84609745798027,-1.4807373,-0.4999932,-0.077579886,84.00029,-101.23651,2.2249005,STN
7641400496000,0.970023,1.41159511871721,6.3761896412792,-3.86895442723904,-1.4511104,-0.28893927,-0.08277224,83.84971,-101.00124,2.0697443,STN
7641405478000,0.975005,1.41944665551533,6.3907030838719,-3.89155732935242,-1.4373659,-0.057421334,-0.0842994,83.651215,-100.77907,1.9241885,STN
7641410462000,0.979989,1.42730134427523,6.40522235281651,-3.91416930529242,-1.4395039,0.18753563,-0.10995574,83.38843,-100.56608,1.7838418,STN
7641415444000,0.984971,1.43515288107334,6.41973579540921,-3.9367722074058,-1.4144585,0.39584067,-0.16340645,83.07015,-100.370316,1.6466216,STN
7641420519000,0.990046,1.44315098409431,6.43452016336545,-3.95979704245706,-1.3552046,0.55863625,-0.23273966,82.69483,-100.18928,1.5089887,STN
7641425467000,0.994994,1.45094893754214,6.44893455797579,-3.98224568951788,-1.2556335,0.67011917,-0.2837469,82.27503,-100.03323,1.3705605,STN
7641430461000,0.999988,1.45881938611094,6.46348295867991,-4.00490303459099,-1.1267409,0.6988298,-0.28405234,81.83343,-99.90977,1.2324218,STN
7641435449000,1.004976,1.46668037879441,6.47801388032833,-4.02753315818423,-0.95539325,0.6780604,-0.24098633,81.37561,-99.83441,1.097224,STN
7641440822000,1.010349,1.4775688813141,6.50560659464495,-4.05124079442676,-0.7849618,0.61117065,-0.18142697,80.92501,-99.80336,0.9680647,STN
7641446230000,1.015757,1.55058171159331,6.83945321454582,-4.05794869718499,-0.6203337,0.5357288,-0.13958271,80.48519,-99.826385,0.84716034,STN
7641450496000,1.020023,1.60817652186904,7.10280189806969,-4.06324010124686,-0.52290064,0.49541172,-0.12522738,79.947044,-99.97471,0.6939659,STN
7641455472000,1.024999,1.67535696629754,7.40998029685422,-4.06941216561907,-0.49418998,0.40286562,-0.1337795,79.44519,-100.154175,0.54398835,STN
7641460455000,1.029982,1.74263191697826,7.71759081959202,-4.07559291255772,-0.5164866,0.30818152,-0.16279559,78.95422,-100.3492,0.3944039,STN
7641465447000,1.034974,1.81002837569753,8.02575693026975,-4.08178482279609,-0.5861252,0.21197024,-0.20799962,78.48764,-100.54054,0.23735318,STN
7641470518000,1.040045,1.87849140497746,8.33879986842014,-4.08807472199856,-0.67256266,0.1282817,-0.23640485,78.042656,-100.72247,0.076991625,STN
7641475542000,1.045069,1.94631989227826,8.64894140288426,-4.09430632396922,-0.75900006,0.030848695,-0.26633725,77.625175,-100.8866,-0.09791933,STN
7641480463000,1.04999,2.01275778758226,8.95272454203592,-4.10041016817654,-0.82741696,-0.064751714,-0.2751948,77.22939,-101.03375,-0.27490422,STN
7641485447000,1.054974,2.08004623915614,9.26039679676704,-4.10659215548183,-0.86009824,-0.160963,-0.2855795,76.858574,-101.16957,-0.46173257,STN
7641490469000,1.059996,2.1478477246706,9.57041486724451,-4.11282127671922,-0.86467975,-0.22174409,-0.28008172,76.50421,-101.29685,-0.64559793,STN
7641495463000,1.06499,2.21527118517622,9.87870444190889,-4.11901566769085,-0.84482664,-0.2764165,-0.28588495,76.17304,-101.42514,-0.836306,STN
7641500457000,1.069984,2.28269464568184,10.1869940165733,-4.12521005866248,-0.7974846,-0.30848694,-0.2837469,75.852486,-101.56237,-1.021145,STN
7641505470000,1.074997,2.35037462315774,10.4964564991108,-4.13142801660016,-0.729984,-0.31887165,-0.2773328,75.54019,-101.713196,-1.2039813,STN
7641510461000,1.079988,2.41775758098384,10.8045608777952,-4.13761868647189,-0.655153,-0.3390302,-0.27305678,75.23869,-101.88114,-1.3849303,STN
7641515604000,1.085131,2.48719267457222,11.122048519465,-4.14399789207203,-0.5421429,-0.36896262,-0.25961772,74.94278,-102.07934,-1.5583817,STN
7641520583000,1.09011,2.55441362168024,11.4294121142295,-4.15017367754415,-0.41630468,-0.44318274,-0.22876903,74.66518,-102.30146,-1.7253153,STN
7641525539000,1.095066,2.62132404824529,11.7353558731475,-4.15632093458368,-0.2415972,-0.5815437,-0.20861048,74.41293,-102.56808,-1.8929965,STN
7641530467000,1.099994,2.68785644980149,12.0395711362525,-4.16243346135744,-0.05100725,-0.7828238,-0.20250183,74.19872,-102.871666,-2.0604837,STN
7641535499000,1.105026,2.75579294424768,12.3502065266632,-4.16867498626118,0.16798794,-1.0638218,-0.23151793,74.0427,-103.22955,-2.242172,STN
7641540485000,1.110012,2.82310839760791,12.658002245381,-4.17485945429973,0.3827071,-1.2144,-0.24617869,73.905426,-103.63366,-2.4188905,STN
7641545463000,1.11499,2.89031584382276,12.9653041081521,-4.18103399940522,0.4868596,-1.566564,-0.31612277,73.89402,-104.06569,-2.6471395,STN
7641550520000,1.120047,2.95858986059827,13.277482798396,-4.18730653347481,0.72295904,-1.924531,-0.42485678,73.91826,-104.58996,-2.8979611,STN
7641555478000,1.125005,3.02552728894966,13.5835500213007,-4.1934562712476,0.99112886,-2.2336287,-0.5177083,74.01811,-105.1464,-3.1814442,STN
7641560464000,1.129991,3.0928427423099,13.8913457400184,-4.19964073928616,1.284955,-2.4749205,-0.6059783,74.18475,-105.771614,-3.5109296,STN
7641565489000,1.135016,3.16068473050387,14.2015490064759,-4.20587358162345,1.5293012,-2.5830436,-0.66523224,74.388016,-106.44936,-3.866863,STN
7641570563000,1.14009,3.22918826246332,14.5147771406062,-4.21216720192583,1.6621643,-2.3958135,-0.6988298,74.56335,-107.16749,-4.23029,STN
7641575549000,1.145076,3.29650371582356,14.822572859324,-4.21835166996438,1.5861117,-1.8463402,-0.6737844,74.660545,-107.87933,-4.565816,STN
7641580465000,1.149992,3.36287410666169,15.1260473385091,-4.22444931233854,1.2266175,-1.0528263,-0.5696318,74.63607,-108.529434,-4.843537,STN
7641585569000,1.155096,3.43178266541632,15.4411274324392,-4.23078014363994,0.4810564,-0.3848451,-0.43554693,74.49504,-109.032295,-5.0604033,STN
7641590474000,1.160001,3.49800454642955,15.7439228596976,-4.23686414198112,-0.48472157,0.1255328,-0.3436117,74.18274,-109.35842,-5.1960444,STN
7641595471000,1.164998,3.56546850961469,16.052397630342,-4.24306225405265,-1.3066407,0.4914411,-0.31978795,73.73315,-109.506905,-5.260701,STN
7641600471000,1.169998,3.63297297547934,16.3610575969663,-4.24926408722409,-1.7085901,0.6569856,-0.33505958,73.205414,-109.50078,-5.2805023,STN
7641605475000,1.175002,3.70053144491669,16.6699644915639,-4.25547088186206,-1.6924021,0.61422503,-0.35918877,72.638855,-109.3877,-5.2826157,STN
7641610475000,1.180002,3.76803591078134,16.9786244581883,-4.2616727150335,-1.3078625,0.3378085,-0.32711834,72.0979,-109.27015,-5.281886,STN
7641615472000,1.184999,3.83549987396647,17.2870992288326,-4.26787082710503,-0.44684792,-0.21685717,-0.21105394,71.65299,-109.291084,-5.2956815,STN
7641620531000,1.190058,3.90380089252833,17.5994013830631,-4.27414584190789,1.3439035,-1.4074335,-0.15393804,71.456314,-109.68059,-5.40136,STN
7641625523000,1.19505,3.9711973512476,17.9075674937408,-4.28033775214626,4.0265183,-2.7577512,-0.010079277,71.47211,-110.5361,-5.521644,STN
7641630483000,1.20001,4.03816178138534,18.2137581806321,-4.28648997065232,5.4082956,-2.862209,0.5137377,71.512245,-111.48239,-5.5180492,STN
7641635513000,1.20504,4.10607127404518,18.5242701070562,-4.29272901482279,4.678006,-2.4007003,1.0421361,71.77591,-112.54685,-5.5483994,STN
7641640413000,1.20994,4.17222565059254,18.8267568743481,-4.29880681133079,3.1462615,-0.9981538,1.1398746,71.82003,-113.73401,-5.465776,STN
7641645468000,1.214995,2.92787233382985,17.129147148668,-4.05605346479519,2.413834,0.4364632,1.0186177,71.76545,-114.895226,-5.241951,STN
7641650492000,1.220019,1.38885285165664,14.9791140441134,-3.7574377078583,1.2993103,1.3494014,0.67164636,71.46291,-115.517395,-4.9499593,STN
7641655493000,1.22502,0.621851780207972,12.3312694473484,-1.79335585663778,0.729984,1.6621643,0.31948254,71.22439,-115.45587,-4.303348,STN
7641660386000,1.229913,0.146761662772964,9.55787990464471,0.728276243162912,0.57360244,1.5506815,0.118202426,70.81693,-115.26207,-3.688274,STN
7641665471000,1.234998,-0.38696587159571,7.46282859025024,2.44349865762106,0.6020077,1.2052372,0.04520403,70.29398,-115.17568,-3.510823,STN
7641670557000,1.240084,-0.977937143007258,6.4919471134655,2.86562101008558,0.6444628,0.80664754,-0.05009095,69.77715,-115.072525,-3.4120584,STN
7641675552000,1.245079,-1.2358901979405,6.61095510594966,2.59544606704806,0.56016344,0.5369505,-0.22296582,69.495445,-114.69164,-3.5767205,STN
7641680481000,1.250008,-1.26876531857527,7.46571035116904,1.85810243633469,0.39370266,0.5305365,-0.44684792,69.23001,-114.31358,-3.795983,STN
7641685472000,1.254999,-0.98334425186915,9.46524653877229,0.895231808601833,0.18417588,0.7171558,-0.67011917,68.87878,-113.940285,-4.2717485,STN
7641690473000,1.26,-0.450091963066312,12.3485844468421,-0.237339472657405,-0.13225232,0.8912524,-0.79351395,68.52652,-113.51522,-4.782963,STN
7641695465000,1.264992,-0.365938538569045,14.4565277604279,-0.716197359191285,-0.52564955,0.7635816,-0.7629707,67.99899,-113.13966,-5.4216857,STN
7641700472000,1.269999,-0.676545152056139,15.891906254392,-0.622074162341741,-0.91232723,0.31245756,-0.63713247,67.51753,-112.71454,-6.0753903,STN
7641705498000,1.275025,-1.04128859577692,16.9835750411194,-0.606066345898161,-1.1746938,-0.23548855,-0.5174029,66.254486,-112.42542,-7.1428733,STN
7641710467000,1.279994,-1.45475548126894,17.7143538929077,-0.66856715884017,-1.3093897,-0.623388,-0.40622538,65.12249,-112.14406,-8.145167,STN
7641715461000,1.284988,-1.58624926831634,17.560639482134,-0.82315703710779,-1.3115277,-0.7831292,-0.29016098,63.869175,-111.93678,-9.35724,STN
7641720660000,1.290187,-1.44333080127685,16.5257132551717,-1.07449634452143,-1.207986,-0.840856,-0.24740042,62.758873,-111.81562,-10.492975,STN
7641725495000,1.295022,-1.17071375504217,15.5438719837798,-1.43133366565947,-1.063211,-0.90010995,-0.24953845,62.00202,-111.66368,-11.423302,STN
7641730472000,1.299999,-0.755439522420984,14.514521915006,-1.91729290005561,-0.945314,-1.0283916,-0.2012801,61.31399,-111.57447,-12.272848,STN
7641735474000,1.305001,-0.339255689501633,13.4867563916342,-2.69206957898009,-0.9251554,-1.1148291,-0.12034045,60.68148,-111.56541,-13.002216,STN
7641740468000,1.309995,0.0739546214224002,12.4738873186176,-4.02744439476346,-0.9575313,-1.2479976,-0.07147124,60.114506,-111.5979,-13.703579,STN
7641745402000,1.314929,0.578866382953893,11.7463630482112,-5.03761478685671,-1.135904,-1.1951579,0.013133603,59.18905,-111.83473,-14.480831,STN
7641750502000,1.320029,1.23295474032906,11.367925875837,-5.65899861123015,-1.3866642,-0.9080512,0.064446285,58.261597,-112.06243,-15.21107,STN
7641755412000,1.324939,1.81738931921708,11.0519073155397,-5.95870488149466,-1.6041322,-0.462425,0.16462818,57.610588,-112.11156,-15.501741,STN
7641760458000,1.329985,2.32853295765125,10.8226096132859,-5.67685929448399,-1.7101172,0.05131268,0.30848694,56.866745,-112.120476,-15.733626,STN
7641765451000,1.334978,2.69629433427239,10.5558737378236,-5.27279136999306,-1.6954565,0.55680364,0.44532076,56.166485,-111.95972,-15.638305,STN
7641770599000,1.340126,2.77454275974606,10.193974597659,-4.58322711093146,-1.6224581,0.9621128,0.52473325,55.357456,-111.778656,-15.493327,STN
7641775452000,1.344979,2.79626225031132,9.85943183386792,-3.97068573884906,-1.4660766,1.2730432,0.56688297,54.514496,-111.49212,-15.183795,STN
7641780460000,1.349987,2.70124589151887,9.52913675311321,-3.42321051741509,-1.2635747,1.4834863,0.5879578,53.593193,-111.225044,-14.842624,STN
7641785434000,1.354961,2.59396541610543,9.18841826442172,-2.91985347621236,-1.0354166,1.6038266,0.6047566,52.658985,-110.9381,-14.488356,STN
7641790466000,1.359993,2.42671572620767,8.78611550483069,-2.59439470438983,-0.8045095,1.6603317,0.6392705,51.687332,-110.69123,-14.117205,STN
7641795569000,1.365096,2.24391175331285,8.383691218744,-2.29059936849433,-0.6414085,1.676825,0.6597345,50.701847,-110.46328,-13.790196,STN
7641800468000,1.369995,1.91052967568658,8.06382424678318,-2.31312531296332,-0.5222898,1.6710218,0.6356053,49.705482,-110.27948,-13.46542,STN
7641805819000,1.375346,1.54755934627191,7.72204553538607,-2.32718233628612,-0.4718934,1.6542231,0.57879484,48.696682,-110.14147,-13.207616,STN
7641810462000,1.379989,1.25688263111132,7.58302624142113,-2.12075965896731,-0.48563787,1.5546521,0.5177083,47.709927,-110.021286,-12.96442,STN
7641815451000,1.384978,0.944544459253434,7.43364712068214,-1.89895420190431,-0.5305365,1.3271047,0.47311515,46.70495,-110.00109,-12.843277,STN
7641820514000,1.390041,0.471972663316562,7.33536396094055,-1.47348989872677,-0.63346726,0.98868537,0.43860126,45.755516,-109.97371,-12.750666,STN
7641825844000,1.395371,-0.0521507714303317,7.24102181164391,-0.991296362840127,-0.75716746,0.58093286,0.39003745,44.88557,-109.94202,-12.695594,STN
7641830463000,1.39999,-0.531497343018463,7.22725425637394,-0.725904552251636,-0.8530733,0.1881465,0.33964106,44.009373,-109.98041,-12.80386,STN
7641835475000,1.405002,-1.05195100197323,7.21318800028329,-0.439889477264824,-0.9447031,0.025045475,0.31429017,43.184063,-109.99812,-12.929423,STN
7641840939000,1.410466,-1.53899107603887,7.27316016074013,-0.506852053975605,-0.99296147,-0.3359759,0.26175576,42.15632,-110.26056,-13.451411,STN
7641845430000,1.414957,-1.93022848238578,7.33095650819723,-0.604661410204672,-1.047023,-0.40378192,0.2501493,41.11203,-110.5031,-13.944021,STN
7641850507000,1.420034,-1.99738672520749,7.28035437438938,-0.851904773852502,-1.0522153,-0.45356745,0.24190263,40.397587,-110.66685,-14.419966,STN
7641855438000,1.424965,-2.03322130898743,7.22212320497984,-1.10274671063979,-1.0415252,-0.462425,0.23426682,39.69984,-110.83527,-14.892233,STN
7641860480000,1.430007,-2.06986255243064,7.16258121427555,-1.35923526170074,-1.0054842,-0.5137377,0.20922135,39.18575,-110.982185,-15.3350315,STN
7641865452000,1.434979,-2.10599509158169,7.10386586763102,-1.61216288484136,-0.95356065,-0.6160576,0.1731803,38.692066,-111.14816,-15.781194,STN
7641870481000,1.440008,-1.84630231483686,6.99191169029652,-2.08712502379637,-0.90041536,-0.7507534,0.15485434,38.2266,-111.331635,-16.228867,STN
7641875416000,1.444943,-1.47459915334254,6.86131330630248,-2.6396565717292,-0.8350528,-0.8558222,0.15790866,37.785732,-111.53779,-16.678928,STN
7641880454000,1.449981,-1.08144933991255,6.66048066339788,-3.25330875021861,-0.7507534,-0.8707884,0.18875736,37.244003,-111.89308,-17.199238,STN
7641885428000,1.454955,-0.690405993664674,6.44795709311145,-3.86962707298117,-0.66706485,-0.8188649,0.21594086,36.720684,-112.26015,-17.712732,STN
7641890469000,1.459996,-0.274450559677419,6.15718068352535,-4.40658869942396,-0.57971114,-0.66828656,0.23304509,35.93368,-112.78021,-18.285736,STN
7641895480000,1.465007,0.152769519354839,5.81540471476749,-4.87904386478844,-0.4709771,-0.4886922,0.25289822,35.140484,-113.29994,-18.828596,STN
7641900463000,1.46999,0.422841437625165,5.5999632363499,-5.03706463304364,-0.32345316,-0.2996294,0.2669481,34.682785,-113.55487,-19.010294,STN
7641905471000,1.474998,0.622186661127905,5.44139309586246,-5.05065643776686,-0.16218472,-0.1328632,0.2883284,34.181736,-113.822205,-19.171528,STN
7641910561000,1.480088,0.652712459031952,5.29894208621744,-4.84150653411368,0.004581489,-0.00061086525,0.3155119,33.77751,-113.9965,-19.149614,STN
7641915446000,1.484973,0.558979338658652,5.17560879179585,-4.48137390783507,0.160963,0.08399397,0.3494149,33.341187,-114.19264,-19.111126,STN
7641920474000,1.490001,0.342971637970633,5.10415449532334,-4.00928393402394,0.2947425,0.119729586,0.3539964,32.92634,-114.36331,-19.005297,STN
7641925469000,1.494996,0.0687424636842,5.06085528532636,-3.48969190696973,0.40133846,0.112704635,0.34269542,32.502182,-114.55748,-18.890903,STN
7641930462000,1.499989,-0.217953415815418,5.06300923057941,-3.01533297198697,0.47311515,0.09101892,0.31520647,32.062992,-114.781555,-18.820375,STN
7641935503000,1.50503,-0.513398522228013,5.08683543174415,-2.55786961107492,0.5119051,0.019547688,0.29810223,31.641237,-115.022194,-18.753786,STN
7641940471000,1.509998,-0.73243095768605,5.17348957366677,-2.22450558734559,0.52626044,-0.103847094,0.27030787,31.152529,-115.34551,-18.834166,STN
7641945461000,1.514988,-0.914810601494426,5.29347629617355,-1.95093606650598,0.5555819,-0.2489276,0.23060162,30.689638,-115.68277,-18.928026,STN
7641950511000,1.520038,-1.03973839412313,5.51999818973881,-1.7770238254291,0.5491679,-0.42271876,0.18997909,30.063519,-116.16413,-19.251965,STN
7641955465000,1.524992,-1.13267811445896,5.79439156175373,-1.6575299256903,0.5018258,-0.5873469,0.16676621,29.482515,-116.637535,-19.58525,STN
7641960466000,1.529993,-1.24938734098996,6.29017063116986,-1.55991151916311,0.4260785,-0.71959925,0.13652839,28.712873,-117.256516,-20.128672,STN
7641965444000,1.534971,-1.38680176295597,6.98671984166584,-1.48409669296293,0.31887165,-0.82924956,0.11484267,28.002365,-117.84527,-20.669676,STN
7641970552000,1.540079,-1.41965822348877,7.44148213805412,-1.39807601450777,0.21471913,-0.91965765,0.07574729,27.408113,-118.34816,-21.176388,STN
7641975489000,1.545016,-1.35160891203224,7.64109364114373,-1.3073435044905,0.11881329,-1.024421,0.023518313,26.86005,-118.82721,-21.688667,STN
7641980575000,1.550102,-1.2498921330924,7.77378170720844,-1.24213561959367,0.036957346,-1.1566733,-0.026267206,26.458473,-119.17198,-22.124763,STN
7641985440000,1.554967,-1.11336786863645,7.81018813971479,-1.21483079521391,0.0027488936,-1.320996,-0.058948494,26.101046,-119.5077,-22.570566,STN
7641990410000,1.559937,-0.981158941407474,7.75193637753667,-1.17793477443239,0.01740966,-1.4926492,-0.0852157,25.784523,-119.80606,-23.007164,STN
7641995460000,1.564987,-0.859693032576853,7.52358038999397,-1.12448975283303,0.092240654,-1.6313156,-0.11026118,25.510405,-120.11011,-23.452118,STN
7642000468000,1.569995,-0.704250908596407,7.29738505711404,-1.22037447569411,0.19242255,-1.7119498,-0.1142318,25.215115,-120.42496,-23.904861,STN
7642005464000,1.574991,-0.492808549341916,7.07215300350658,-1.55592429531175,0.28252518,-1.7531832,-0.12614368,24.954458,-120.75145,-24.362274,STN
7642010385000,1.579912,-0.229391640613788,6.92132194504132,-1.99688682491433,0.3930918,-1.7443258,-0.11759156,24.682905,-121.10265,-24.818283,STN
7642015444000,1.584971,0.180779847436001,6.94573684628099,-2.72933590161258,0.5143485,-1.6954565,-0.073303826,24.423588,-121.456604,-25.255072,STN
7642020529000,1.590056,0.515837346719978,6.96089865667154,-3.32816706052824,0.67103547,-1.5900823,0.016493361,24.151274,-121.81564,-25.621058,STN
7642025535000,1.595062,0.686712718938951,6.9565172857887,-3.6348664536008,0.85062987,-1.4153748,0.12034045,23.856695,-122.17526,-25.95054,STN
7642030443000,1.59997,0.805778299202309,6.94362707318355,-3.84477951359373,0.9773844,-1.2935071,0.21471913,23.776194,-122.33341,-25.99499,STN
7642035443000,1.60497,0.58370454881583,6.86960254468721,-3.41543683607132,1.0155635,-0.9837985,0.26908615,23.593296,-122.49089,-25.987,STN
7642040453000,1.60998,0.334762326282084,6.78362344749682,-2.97237782038119,1.0073168,-0.62980205,0.34116822,23.416826,-122.58885,-25.851383,STN
7642045461000,1.614988,-0.0308842938686997,6.64549016553155,-2.4726608295468,0.89980453,-0.258396,0.3933972,23.14743,-122.67098,-25.67478,STN
7642050485000,1.620012,-0.397699114083863,6.50691556317662,-1.97134729880559,0.7706065,0.084910266,0.42180246,22.729828,-122.80257,-25.559652,STN
7642055484000,1.625011,-0.706691459434614,6.31539756624946,-1.51955442654294,0.66431594,0.34330627,0.4202753,22.2323,-122.91312,-25.40726,STN
7642060444000,1.629971,-1.00190675051791,6.1144871683211,-1.08083170164005,0.6093381,0.5006041,0.4111123,21.668673,-123.00416,-25.222004,STN
7642065457000,1.634984,-1.2252520464499,5.93359113188928,-0.689105210768793,0.66737026,0.5552765,0.3866777,20.832485,-123.304985,-25.291697,STN
7642070608000,1.640135,-1.37956944379562,5.76992131741397,-0.33838383096976,0.788627,0.5448918,0.3747658,19.982073,-123.59275,-25.337128,STN
7642075494000,1.645021,-1.50120173767847,5.73825888451226,-0.0358010781318801,0.9633345,0.4813618,0.35002577,19.310307,-123.84502,-25.391792,STN
7642080471000,1.649998,-1.5895160667139,5.88371769004905,0.22914193067248,1.1896601,0.3912592,0.3051272,18.65226,-124.12698,-25.450888,STN
7642085485000,1.655012,-1.68907646613705,6.30535410088703,0.188237134864997,1.4086553,0.29352075,0.20861048,18.164268,-124.37369,-25.502846,STN
7642090468000,1.659995,-1.7960643273126,6.93332624505312,-0.0862099275163271,1.6114625,0.17073683,0.093767814,17.704975,-124.66733,-25.580732,STN
7642096133000,1.66566,-1.73398447310496,8.08988450414461,-1.16897299884151,1.7996091,0.024740042,-0.015882496,17.334475,-124.96145,-25.675116,STN
7642100476000,1.670003,-1.58029358409068,9.23218155258164,-2.44419184976031,1.9779817,-0.10842858,-0.08979719,16.988304,-125.30288,-25.799858,STN
7642105468000,1.674995,-1.26632746711253,10.598265338306,-4.09544266870244,2.1303926,-0.11362094,-0.13561209,16.586168,-125.68082,-25.928547,STN
7642110469000,1.679996,-0.820381788001602,12.0176195368442,-5.92717668354025,2.1612413,0.16890424,-0.18051068,16.133778,-126.07631,-26.050669,STN
7642115452000,1.684979,-0.347115873916229,13.0879228853352,-6.39809412988415,1.9480493,0.55863625,-0.21319197,15.207707,-126.62842,-26.191534,STN
7642120593000,1.69012,0.169652375843153,13.8533245763937,-5.5498142653233,1.5845845,0.7516697,-0.27183503,14.2673235,-127.14229,-26.314337,STN
7642125509000,1.695036,0.685525405194805,14.6213750692971,-4.4263619317934,1.241889,0.63621616,-0.36865717,13.442798,-127.38425,-26.025892,STN
7642130469000,1.699996,1.22707495324675,15.431344987013,-2.99007815584416,1.0253373,0.5045747,-0.44043383,12.579266,-127.58762,-25.728466,STN
7642135473000,1.705,1.71892076429541,16.2840391455708,-2.37301172289203,0.9816604,0.11789699,-0.47036624,11.784598,-127.58447,-25.408495,STN
7642140478000,1.710005,2.15094918220585,17.1759686604962,-2.67032157736965,1.0207558,-0.18051068,-0.5571091,10.995442,-127.59041,-25.136745,STN
7642145411000,1.714938,2.5146924320845,17.8815202562774,-3.44477633423675,1.2000448,-0.2742785,-0.70402217,10.171762,-127.46739,-24.884167,STN
7642150509000,1.720036,2.7968474799721,18.3485348493424,-4.97230562831806,1.4349225,-0.23457226,-0.8900307,9.388633,-127.40538,-24.691824,STN
7642155415000,1.724942,2.97618781834414,18.7077356092768,-6.04546416129676,1.690875,-0.17684549,-1.0943651,8.626554,-127.30076,-24.398563,STN
7642160477000,1.730004,3.01970900082793,18.9398498953616,-6.54354021935162,1.8994855,-0.1872302,-1.2260065,7.87174,-127.281746,-24.15323,STN
7642166203000,1.73573,3.29263418769477,18.5569267580803,-6.60928765871249,2.0635028,-0.25625798,-1.2473868,7.123493,-127.328674,-23.78852,STN
7642170486000,1.740013,3.67976365475024,17.7424939627816,-6.25137552791381,2.1951442,-0.42943826,-1.1933253,6.419805,-127.45121,-23.480219,STN
7642175416000,1.744943,4.08243406505914,16.8702140087959,-5.92187527778283,2.3118196,-0.70524395,-1.10139,5.761384,-127.63814,-23.181442,STN
7642180449000,1.749976,4.23593751198059,16.3707186535234,-6.08025176883025,2.424524,-0.9611965,-1.0192287,5.1717024,-127.86716,-22.918884,STN
7642185420000,1.754947,4.38754999651198,15.8773764299869,-6.2366772679355,2.5390613,-1.0876455,-0.95569867,4.6894293,-128.12666,-22.655825,STN
7642190482000,1.760009,4.54193792584167,15.3750029969669,-6.39596631973006,2.5824327,-1.0888673,-0.8741482,4.2721376,-128.3898,-22.402828,STN
7642195450000,1.764977,4.62624147980598,14.9707769666403,-6.50986322390616,2.5912905,-0.9822713,-0.7834347,3.873313,-128.68027,-22.15304,STN
7642200487000,1.770014,4.43046113799248,14.9325756446248,-6.44778661164126,2.5531113,-0.8689558,-0.68477994,3.5001438,-128.96341,-21.894014,STN
7642205458000,1.774985,4.15314995905707,14.8840446104218,-6.36736460421836,2.470339,-0.7825184,-0.6062838,3.1464748,-129.28247,-21.582539,STN
7642210470000,1.779997,3.47663855653598,14.7839971309181,-6.19585456118114,2.3231206,-0.768163,-0.548557,2.8070161,-129.57086,-21.257072,STN
7642215490000,1.785017,2.77191502089824,14.7060398790208,-6.05979554325309,2.1233675,-0.8023715,-0.56169057,2.470901,-129.84752,-20.968586,STN
7642220640000,1.790167,1.90883024040057,14.7409625676715,-6.10469613550475,1.8891008,-0.9611965,-0.66889745,2.165224,-130.08981,-20.71647,STN
7642225392000,1.794919,1.17096056760528,14.764058196527,-6.21811223131954,1.6319265,-1.0595458,-0.8002335,1.8081152,-130.37726,-20.606735,STN
7642230380000,1.799907,0.679212397340127,14.7441897015701,-6.68502450799626,1.4880677,-1.2495248,-0.8512407,1.5146236,-130.63632,-20.54878,STN
7642235509000,1.805036,0.259957351104361,14.6662905732087,-7.15080547842679,1.2217305,-1.3884968,-0.95569867,1.145549,-130.92125,-20.687849,STN
7642240381000,1.809908,0.0918933418613707,14.4391772087227,-7.55506755179128,1.0225884,-1.4385877,-1.0256428,0.8044607,-131.1828,-20.845041,STN
7642245376000,1.814903,-0.0688588757777778,14.1605166089744,-7.91897555683761,0.8848383,-1.3817772,-1.0601566,0.39132598,-131.50919,-21.08841,STN
7642250548000,1.820075,-0.183897997748792,13.6681488397436,-8.07082699518766,0.80573124,-1.2040154,-1.0793989,359.95804,-131.80151,-21.32557,STN
7642255496000,1.825023,-0.296128026441311,13.1849269403306,-8.20545128345317,0.7861836,-0.8888089,-1.1001683,359.47357,-132.12573,-21.540503,STN
7642260462000,1.829989,-0.442680274292651,12.5098987319077,-8.17436451297974,0.8170323,-0.42913285,-1.1386528,358.9101,-132.44026,-21.702227,STN
7642266286000,1.835813,-0.597076975436383,11.7177138013574,-8.06549101285728,0.8924741,0.19608775,-1.183246,358.2457,-132.80013,-21.798376,STN
7642270593000,1.84012,-0.526103684185068,11.1262697762164,-7.21775454937386,1.0027353,0.9120218,-1.2116512,357.45236,-133.16809,-21.797071,STN
7642275456000,1.844983,-0.445968296361725,10.4584749551668,-6.26058194154479,1.1673635,1.5497651,-1.2018774,356.51648,-133.63861,-21.74073,STN
7642280462000,1.849989,-0.412438484927755,9.66303019029181,-5.38870598545661,1.3338243,1.9275852,-1.0961977,355.50098,-134.10884,-21.58025,STN
7642285425000,1.854952,-0.389995526147889,8.85059519869676,-4.5493396533006,1.4266758,2.179567,-0.9431759,354.39566,-134.57394,-21.307457,STN
7642290469000,1.859996,-0.441439089739769,7.86523749281559,-3.87840848052863,1.5085317,2.3145685,-0.7996226,353.22885,-135.07127,-21.031654,STN
7642295382000,1.864909,-0.523066255840392,6.83769535026023,-3.30221676405756,1.5338826,2.384207,-0.6783658,352.07172,-135.5358,-20.684168,STN
7642300463000,1.86999,-0.486148734746215,5.86189266847729,-2.88822169162956,1.5140295,2.4061983,-0.53969944,350.9047,-136.01355,-20.3607,STN
7642305451000,1.874978,-0.40580095289997,4.93553035962204,-2.54792520032651,1.4419475,2.3765712,-0.3915646,349.79102,-136.44196,-19.998436,STN
7642310464000,1.879991,-0.249354155476166,4.06994340869565,-2.22036632491357,1.3500122,2.3176227,-0.23976462,348.66977,-136.91544,-19.695238,STN
7642315448000,1.884975,-0.0643316588224201,3.23484170434783,-1.9003274196857,1.212262,2.2247713,-0.09712757,347.625,-137.31573,-19.370132,STN
7642320540000,1.890067,0.167682305834526,2.55290580444699,-1.73298619479912,1.0302242,2.117259,0.031154128,346.65915,-137.70761,-19.052675,STN
7642325480000,1.895007,0.402446125244775,1.92987869918885,-1.60657489944651,0.82863873,2.0470095,0.14263703,345.7577,-138.0245,-18.71913,STN
7642330461000,1.899988,0.666855997599531,1.45114335990414,-1.50026678640321,0.6450737,1.920255,0.183565,345.00876,-138.29555,-18.37214,STN
7642335468000,1.904995,0.943596007485083,1.02899760153771,-1.40176612218527,0.5497787,1.7794504,0.2687807,344.3238,-138.5087,-18.012764,STN
7642340468000,1.909995,1.22516698472634,0.785334434181074,-1.4188467829156,0.35796702,1.6401732,0.35369098,343.8362,-138.62018,-17.575684,STN
7642345458000,1.914985,1.50871884682353,0.628892027858824,-1.49217910823529,0.18906279,1.5106697,0.43951756,343.3982,-138.70103,-17.149855,STN
7642350498000,1.920025,1.73054348204007,0.570105878120614,-1.6398496348622,0.022907447,1.4086553,0.537256,343.07654,-138.71082,-16.657915,STN
7642355497000,1.925024,1.92529365265941,0.550630855974779,-1.81512480367131,-0.11728613,1.3109168,0.61941737,342.7972,-138.67665,-16.17767,STN
7642360459000,1.929986,2.07922276774255,0.56647166567187,-1.905952388957,-0.27030787,1.2098186,0.7104363,342.56384,-138.58652,-15.646653,STN
7642365438000,1.934965,2.22079637190882,0.593873018258787,-1.9698888815056,-0.43279803,1.0922271,0.7883216,342.36923,-138.4522,-15.124677,STN
7642370560000,1.940087,2.32998119694727,0.64687299160037,-2.01206847567068,-0.60994893,0.93676186,0.8417723,342.2043,-138.2766,-14.580549,STN
7642375499000,1.945026,2.41749251994038,0.710075570893206,-2.04123888282454,-0.7996226,0.77396625,0.88606006,342.07953,-138.05112,-14.047757,STN
7642380460000,1.949987,2.42513441164669,0.817679292886159,-2.01722910079758,-0.979217,0.6053675,0.9129381,341.98532,-137.77707,-13.511021,STN
7642385495000,1.955022,2.40124699578916,0.944282828901219,-1.9718429383335,-1.1554517,0.4373795,0.9334021,341.9313,-137.45348,-12.999178,STN
7642390467000,1.959994,2.37765846914693,1.06930224917269,-1.92702466628356,-1.328021,0.31123585,0.94806284,341.90088,-137.07521,-12.489585,STN
7642395458000,1.964985,2.35397980131279,1.19479941863668,-1.88203512569603,-1.4792101,0.21594086,0.95569867,341.89972,-136.65822,-12.004139,STN
7642400476000,1.970003,2.27242877246784,1.42013065205777,-1.87550872551629,-1.6221527,0.16462818,0.9569204,341.91397,-136.20299,-11.532347,STN
7642405475000,1.975002,2.16388594301346,1.69148770105476,-1.88730687307901,-1.7455474,0.16187929,0.9624182,341.93832,-135.7157,-11.066229,STN
7642410463000,1.97999,2.05558195555227,1.96224764512297,-1.89907905952487,-1.858863,0.19486602,0.96669424,341.9571,-135.16074,-10.608191,STN
7642415440000,1.984967,1.94751681008428,2.23241048426241,-1.91082528485386,-1.9495764,0.23823744,0.9761627,341.97333,-134.58228,-10.145517,STN
7642420578000,1.990105,1.80536294253532,2.53149806432171,-1.9275337105622,-2.032654,0.30298916,0.9663888,341.9696,-133.98572,-9.67454,STN
7642425467000,1.994994,1.65270078975398,2.82756998206699,-1.946038196364,-2.1022928,0.33322698,0.947452,341.96085,-133.37347,-9.201372,STN
7642430462000,1.999989,1.41077056792781,3.1506640721552,-2.04178150282791,-2.1355848,0.37751472,0.9245446,341.8772,-132.72978,-8.77504,STN
7642435471000,2.004998,1.10982814619245,3.48864558572532,-2.18993777347746,-2.2262983,0.41722095,0.8863655,341.77594,-132.05948,-8.352924,STN
7642440467000,2.009994,0.760077258322981,3.84571250745342,-2.49544224409938,-2.2910502,0.4877759,0.8313876,341.58188,-131.40848,-7.9882708,STN
7642445463000,2.01499,0.365463271506975,4.22083936251909,-2.94364581143468,-2.3548856,0.5925393,0.77182823,341.35727,-130.74213,-7.6220655,STN
7642450512000,2.020039,-0.0319709356385185,4.64199888168889,-3.49664966198519,-2.4339926,0.7131852,0.70432764,340.94904,-130.14925,-7.40033,STN
7642455985000,2.025512,-0.461635203372839,5.1337833642963,-4.17997103639506,-2.4871378,0.84238315,0.60994893,340.4964,-129.55717,-7.1774745,STN
7642460471000,2.029998,-0.811531444499805,5.56687552069168,-4.65365718444705,-2.521041,0.9804387,0.5155703,339.79114,-129.13954,-7.138453,STN
7642465476000,2.035003,-1.20019387848769,6.07260495357562,-5.11724262016413,-2.5360072,1.0714576,0.4025602,339.05792,-128.71863,-7.0985727,STN
7642470567000,2.040094,-1.64803639643178,6.46852067027808,-5.22003457676667,-2.5561657,1.0277808,0.27977628,338.17545,-128.45111,-7.221316,STN
7642475482000,2.045009,-2.1312629029104,6.73593723262235,-4.96200109381043,-2.5411994,0.80481493,0.100792766,337.30966,-128.18933,-7.3725934,STN
7642480463000,2.04999,-2.60908287294531,6.91879424124988,-4.43166485111631,-2.5109615,0.44532076,-0.122783914,336.56433,-127.93001,-7.5891633,STN
7642485489000,2.055016,-3.07835295174027,7.00795544204933,-3.60574952811738,-2.4932466,0.027183503,-0.35460728,335.8705,-127.6783,-7.873265,STN
7642490470000,2.059997,-3.39767123486349,7.11156279911152,-2.9617319258584,-2.4764478,-0.312763,-0.5503896,335.43973,-127.273865,-8.208706,STN
7642495461000,2.064988,-3.52595785719574,7.23542579259602,-2.54590614881999,-2.450486,-0.50579643,-0.68416905,335.04654,-126.900826,-8.613228,STN
7642500458000,2.069985,-3.60060746794538,7.33458224458171,-2.23542265626355,-2.3701572,-0.5696318,-0.7696902,334.8227,-126.37863,-9.090643,STN
7642505469000,2.074996,-3.52780167802341,7.36578478803641,-2.21462103302991,-2.2214115,-0.48624873,-0.7987063,334.5977,-125.909874,-9.581229,STN
7642510384000,2.079911,-3.39519524897939,7.32192231728102,-2.21039005025763,-2.0350976,-0.3231477,-0.79412484,334.39548,-125.40036,-10.0730095,STN
7642515480000,2.085007,-3.16791026578478,7.16717499583829,-2.22973344019025,-1.8380935,-0.12034045,-0.7666359,334.1645,-124.9567,-10.535535,STN
7642520512000,2.090039,-2.87496422741936,6.97811088476703,-2.18859212724014,-1.6398678,0.07574729,-0.70921457,333.90317,-124.56575,-10.940796,STN
7642526216000,2.095743,-2.43185494320883,6.70503191166761,-2.04432396817582,-1.4905112,0.19364429,-0.68325275,333.6125,-124.23126,-11.318275,STN
7642530383000,2.09991,-1.88497018093809,6.56070536320632,-1.9368864260226,-1.3946054,0.21105394,-0.6899723,333.2992,-123.94649,-11.634574,STN
7642535441000,2.104968,-0.649639670479048,6.5267943540254,-1.80124228812881,-1.3753631,0.20616703,-0.7134906,332.96576,-123.69069,-11.926746,STN
7642540421000,2.109948,0.377685656816557,6.60079912559737,-1.88730032768579,-1.4049901,0.18142697,-0.7367035,332.61105,-123.43573,-12.157104,STN
7642545461000,2.114988,0.918022985283161,6.95951052879586,-2.55477588064911,-1.4999796,0.23243423,-0.7510588,332.2387,-123.17814,-12.374238,STN
7642550519000,2.120046,1.49014431892002,7.37905412652063,-3.53973420717269,-1.6801848,0.40653083,-0.7333437,331.6272,-122.917206,-12.379952,STN
7642555468000,2.124995,2.19516307657667,8.07924429387672,-6.03627336726439,-1.9025398,0.6365216,-0.6948592,330.9987,-122.61836,-12.360068,STN
7642560488000,2.130015,2.8337162650395,8.70513834808588,-8.36852456663966,-2.0934353,0.8173377,-0.59650993,330.37668,-122.243866,-12.185438,STN
7642565476000,2.135003,3.16269138393761,8.99057227840794,-9.88761506653838,-2.0344868,0.85154617,-0.43157628,329.75586,-121.86665,-11.972114,STN
7642570522000,2.140049,3.4211214978319,9.17656321681022,-11.0740903157113,-1.3655893,0.8378017,-0.22999077,329.25787,-121.68631,-11.57082,STN
7642575487000,2.145014,3.43053617202257,9.0212207977428,-11.0882126219186,-0.42852196,0.7678576,-0.06352998,328.79248,-121.58879,-11.152718,STN
7642580460000,2.149987,3.47787347586754,8.90064353975808,-10.8957815449137,0.41233405,0.52473325,0.004886922,328.43478,-121.75612,-10.691585,STN
7642585443000,2.15497,3.67659369775927,8.91956965159627,-9.87852328970851,1.1123856,0.1282817,0.0106901415,328.1569,-122.12648,-10.251535,STN
7642590467000,2.159994,3.91378045047212,8.97627531169864,-8.94165575784713,1.6154331,-0.3484986,-0.020463986,327.9821,-122.6716,-9.868073,STN
7642595589000,2.165116,4.32332225255939,9.20542384762946,-8.39072450832919,1.8961257,-0.8045095,-0.084910266,327.89886,-123.34024,-9.558251,STN
7642600482000,2.170009,4.75129113871595,9.58371213745136,-8.04290774572957,1.8570304,-1.0867293,-0.19608775,327.8669,-123.899765,-9.286899,STN
7642605468000,2.174995,5.35977811653697,10.7170769843385,-8.52598115742218,1.4877623,-0.95142263,-0.31978795,327.83127,-124.44273,-9.046668,STN
7642610465000,2.179992,5.91430420022491,11.8471108226033,-8.76201323418611,0.86437434,-0.40591997,-0.35521814,327.7478,-124.77722,-8.725063,STN
7642615512000,2.185039,6.04565938691781,12.9432458185737,-7.07704454484116,0.02321288,0.29229903,-0.2883284,327.59308,-124.94768,-8.368534,STN
7642620708000,2.190235,6.16947882231374,14.0776721913141,-5.31652229898952,-0.83199847,0.81153446,-0.16982053,327.323,-124.85324,-7.833483,STN
7642625515000,2.195042,5.92387432678772,15.3143116348746,-2.87340673981795,-1.4065173,0.9104946,-0.103847094,326.99722,-124.615204,-7.2721477,STN
7642630396000,2.199923,5.67448894241857,16.5699881740921,-0.392681330141145,-1.4602734,0.7150178,0.0027488936,326.62418,-123.96097,-6.627269,STN
7642635447000,2.204974,5.38502967212126,17.2873407415382,0.135373538461459,-1.0793989,0.06047566,0.013744468,326.33636,-123.305145,-6.0730247,STN
7642640447000,2.209974,5.09222414288175,17.8811995822927,0.250846190687796,-0.15577064,-0.93034774,-0.056505036,326.18488,-122.819016,-5.618728,STN
7642645464000,2.214991,4.42174799278072,18.3540708458502,0.664622619160694,1.2220359,-2.1242838,-0.15118915,326.18198,-122.207695,-5.3581786,STN
7642650518000,2.220045,3.39610754414667,18.7160620865275,1.35843821707489,2.8447995,-3.3173037,-0.23457226,326.40945,-121.971695,-5.2717805,STN
7642655469000,2.224996,2.5155600139379,18.8870145820395,0.686807209006704,3.8252382,-3.8203511,-0.16737708,326.7432,-121.920074,-5.3118567,STN
7642660477000,2.230004,1.7074722087156,18.9377846399083,-0.891291034747706,3.5094209,-3.1853569,0.0061086523,327.09335,-121.97928,-5.359273,STN
7642665531000,2.235058,0.954149577464115,18.2864749781699,-2.53933156961723,2.4306328,-1.7033978,0.13041973,327.32806,-122.06297,-5.5095334,STN
7642670553000,2.24008,0.326118361483254,16.2777335481459,-4.28439527248804,1.4056009,0.035430185,0.19242255,327.3623,-122.082016,-5.495713,STN
7642675528000,2.245055,-0.172834573208545,14.3001559131231,-5.04424145501526,0.7150178,1.2861768,0.28313604,327.24078,-122.07875,-5.392854,STN
7642680456000,2.249983,-0.427291216528993,12.3653253552391,-3.91118927808749,0.38056904,1.8368717,0.34513888,326.86832,-121.897,-5.1276937,STN
7642685442000,2.254969,-0.785856266351958,10.5479088441775,-2.82979285031854,0.29260445,1.9517145,0.33658674,326.28708,-121.92195,-4.8700404,STN
7642690463000,2.25999,-1.33324849706319,8.97603904146214,-1.86055704921149,0.34513888,1.9178114,0.23884831,325.6131,-121.88803,-4.5631385,STN
7642695413000,2.26494,-1.87987579505624,7.93397165172512,-1.13405728296058,0.38240165,1.881465,0.10445796,324.98434,-121.8306,-4.284052,STN
7642700488000,2.270015,-2.44955958440306,7.53886867790907,-0.693011757485585,0.3827071,1.8057177,-0.07727446,324.3571,-121.777954,-4.0545044,STN
7642705434000,2.274961,-2.8312469807272,7.5706437026823,-0.281968738732366,0.32375857,1.6016886,-0.2938262,323.8343,-121.7292,-3.9437382,STN
7642710458000,2.279985,-2.85036638021061,8.48837308110471,0.0956386848480032,0.19486602,1.3063353,-0.4783075,323.33237,-121.66138,-3.8965788,STN
7642715468000,2.284995,-2.67871811935943,9.78282057793594,0.284107398163701,-0.021380283,0.9868528,-0.5879578,322.919,-121.54468,-3.9877496,STN
7642720540000,2.290067,-2.08111754524657,11.9361581616675,0.0569204144687341,-0.29046643,0.84940815,-0.5681047,322.52667,-121.37703,-4.110323,STN
7642725456000,2.294983,-1.52822216828906,13.8235900680016,-0.257739328749009,-0.54641896,0.5925393,-0.5320636,322.21692,-121.05431,-4.306579,STN
7642730459000,2.299986,-1.01527823636003,15.3671712918319,-0.756434847605075,-0.66950834,0.34788775,-0.39522982,321.95615,-120.691055,-4.4899397,STN
7642735428000,2.304955,-0.519119117250541,16.4065824463688,-1.26872713481598,-0.82924956,-0.0036651916,-0.30726522,321.71576,-120.123566,-4.6211777,STN
7642740467000,2.309994,-0.0442369043692186,16.411330868333,-1.82433931446566,-0.88270026,-0.48502702,-0.28771752,321.57736,-119.56077,-4.783555,STN
7642745549000,2.315076,0.473048378880092,16.3703531559668,-2.34083453072594,-0.8567385,-0.9642508,-0.301462,321.47464,-118.93437,-4.8891377,STN
7642750520000,2.320047,1.06341558681675,16.2295732789278,-2.74955031195269,-0.86376345,-1.3252722,-0.2950479,321.4669,-118.30434,-5.0275397,STN
7642755450000,2.324977,1.59671625252232,16.0221003213618,-3.11417797259705,-0.98471475,-1.4987578,-0.2510656,321.47604,-117.72682,-5.1461596,STN
7642760475000,2.330002,1.92639745814822,15.5325738344405,-3.31897984357484,-1.20371,-1.5268577,-0.2125811,321.5371,-117.14099,-5.2846885,STN
7642765504000,2.335031,2.18819511024756,14.9236557092415,-3.52374724150311,-1.4801265,-1.4669929,-0.2003638,321.54126,-116.57856,-5.360239,STN
7642770516000,2.340043,2.27340879909261,14.009976364533,-3.72731323751849,-1.767844,-1.3432927,-0.20433442,321.5361,-115.97096,-5.4197683,STN
7642775508000,2.345035,2.3581682906995,13.0737870889826,-3.9000340782694,-1.9538525,-1.1869112,-0.20097467,321.54172,-115.35129,-5.4164824,STN
7642781045000,2.350572,2.45180910254096,11.9500954999509,-3.99367483578927,-1.9886718,-1.0210613,-0.17928895,321.51178,-114.71215,-5.3916206,STN
7642785439000,2.354966,2.52054614729503,11.0909815887647,-4.01957622460686,-1.8881844,-0.8371908,-0.13561209,321.47806,-114.12464,-5.3394,STN
7642790467000,2.359994,2.57769448182178,10.233758062704,-3.8624185781624,-1.6933185,-0.6270532,-0.08155051,321.3955,-113.567,-5.256511,STN
7642795463000,2.36499,2.61255193041659,9.39368602004532,-3.65756724800418,-1.4779885,-0.42760566,-0.013133603,321.32022,-113.0858,-5.143792,STN
7642800499000,2.370026,2.54950225501133,8.5992598729301,-3.23303271134739,-1.2800682,-0.21746802,0.063224554,321.19247,-112.65999,-4.9914236,STN
7642805415000,2.374942,2.48795495471501,7.82376365783511,-2.81861416841555,-1.1139128,0.0012217305,0.1423316,321.04395,-112.29911,-4.8008966,STN
7642810463000,2.37999,2.37492324777502,7.53588604449952,-2.5888571477427,-0.94989544,0.21868975,0.2171626,320.84738,-111.99511,-4.570695,STN
7642815581000,2.385108,2.24933941570298,7.3285492379998,-2.40269654770518,-0.82436264,0.41905355,0.2764165,320.60406,-111.729126,-4.3049593,STN
7642820580000,2.390107,2.05743858118048,7.36932823359054,-2.55381841168454,-0.72356987,0.50426924,0.31581733,320.35812,-111.4851,-4.0334516,STN
7642825569000,2.395096,1.86592162510272,7.41002565487524,-2.7046379714751,-0.64934975,0.65270954,0.3408628,320.04517,-111.263756,-3.7406518,STN
7642830448000,2.399975,1.67862733191703,7.44982575879347,-2.8521321851889,-0.61269784,0.8017606,0.37782016,319.71475,-111.06135,-3.4276605,STN
7642835622000,2.405149,1.46291266002377,7.50563320063379,-2.99857613731432,-0.5326745,0.9486737,0.40500367,319.35062,-110.89158,-3.099696,STN
7642840469000,2.409996,1.04919804061497,7.72628089973262,-3.01236661550802,-0.4783075,1.0574077,0.4361578,318.96185,-110.727,-2.7525818,STN
7642845739000,2.415266,0.588695750230085,7.97497534512788,-3.0161840443212,-0.4288274,1.0833695,0.45448375,318.5621,-110.638306,-2.454814,STN
7642850535000,2.420062,0.0455646562966358,8.30338044495371,-2.88987448861491,-0.44043383,1.0250319,0.43463063,318.15817,-110.54964,-2.1601903,STN
7642855435000,2.424962,-0.509344092717939,8.63890692309103,-2.76082594337703,-0.48747048,0.874759,0.40042216,317.7345,-110.4934,-1.9424217,STN
7642860459000,2.429986,-1.12108465089142,8.90682167228557,-2.64736549817551,-0.5549711,0.6728681,0.3454443,317.34225,-110.42726,-1.7497019,STN
7642865502000,2.435029,-1.74363880547546,9.16063183688646,-2.53722127766981,-0.6588182,0.45631635,0.2941316,316.99646,-110.33668,-1.5844285,STN
7642870539000,2.440066,-2.21328983780626,9.2074584261346,-2.52284748282849,-0.75716746,0.2657264,0.24465153,316.70508,-110.20024,-1.5395,STN
7642875413000,2.44494,-2.6379365209449,9.21228405396464,-2.52767306027086,-0.8549059,0.122478485,0.19975294,316.45816,-110.036026,-1.5232431,STN
7642880463000,2.44999,-2.75081522378086,9.00809088380494,-2.57947631246237,-0.91354895,-0.0036651916,0.18234327,316.32855,-109.82227,-1.5927202,STN
7642885427000,2.454954,-2.81759726162954,8.77912401786073,-2.63671806630544,-0.93462384,-0.108123146,0.17470746,316.22797,-109.59662,-1.6814531,STN
7642890464000,2.459991,-2.60214957910537,8.34149366326428,-2.67750761549084,-0.89858276,-0.22510384,0.18142697,316.19473,-109.38178,-1.8338227,STN
7642895383000,2.46491,-2.35701473611528,7.88893704898429,-2.71522058874212,-0.8356637,-0.34238997,0.16065755,316.18536,-109.17556,-2.002582,STN
7642900457000,2.469984,-1.88526149367704,7.44195207587549,-2.92825767290856,-0.75747293,-0.4120286,0.14263703,316.20227,-109.01109,-2.184564,STN
7642905425000,2.474952,-1.39467564978599,7.00690412256809,-3.15966619469844,-0.66950834,-0.3943135,0.13958271,316.22562,-108.87325,-2.3677526,STN
7642910461000,2.479988,-0.813480934544091,6.56372223778244,-3.56853913627275,-0.5766568,-0.30024028,0.16371189,316.24298,-108.77555,-2.5263283,STN
7642915401000,2.484928,-0.226961328125375,6.12856251752649,-4.00369870835833,-0.46639562,-0.21960606,0.20311269,316.26004,-108.711655,-2.6784723,STN
7642920504000,2.490031,0.263759747015999,5.78345190429802,-4.49873084677648,-0.41050145,0.00580322,0.24098633,316.17194,-108.71537,-2.7510977,STN
7642925484000,2.495011,0.719780034831961,5.46739832349711,-4.99087153237716,-0.26725355,0.29810223,0.30543262,316.0532,-108.77267,-2.790677,STN
7642930457000,2.499984,0.973651900656497,5.24791623877196,-5.18064740917165,-0.11575896,0.602924,0.37568212,315.94003,-108.8809,-2.7106922,STN
7642935473000,2.505,1.15452209065457,5.06240830689322,-5.25948844002703,0.036651913,0.89980453,0.4361578,315.75662,-109.02775,-2.5912478,STN
7642940488000,2.510015,1.13655233102197,4.98952878100181,-4.92614376413021,0.16157386,1.138042,0.47983465,315.5651,-109.26254,-2.3700595,STN
7642945471000,2.514998,1.0163113658335,4.97509992745414,-4.38265470393066,0.25045475,1.2883148,0.48624873,315.32184,-109.53141,-2.124353,STN
7642950523000,2.52005,0.759812630268369,5.09531458252086,-3.6320702629812,0.27030787,1.3390167,0.4981606,315.0586,-109.82903,-1.825802,STN
7642955558000,2.525085,0.439934378775756,5.27948692692733,-2.78875472729923,0.23335053,1.310306,0.48533243,314.7781,-110.13861,-1.5265247,STN
7642960491000,2.530018,0.163067548146921,5.56443149099696,-2.02910074494615,0.17195857,1.1743884,0.46486846,314.4913,-110.3704,-1.2458614,STN
7642965626000,2.535153,-0.108553010998803,5.90848410155574,-1.26856321242751,0.10629055,0.91354895,0.43401974,314.24695,-110.59141,-0.9890742,STN
7642970472000,2.539999,-0.353548505384615,6.1627599887574,-0.679443267751479,0.051923547,0.52473325,0.39645153,314.0158,-110.66388,-0.82285774,STN
7642975539000,2.545066,-0.599069058327759,6.36250555222537,-0.18424080827116,0.025045475,0.025350908,0.33933565,313.8822,-110.7239,-0.71033907,STN
7642980412000,2.549939,-0.836731994013448,6.55445379993696,0.255895335375079,0.020463986,-0.54702985,0.28099802,313.81967,-110.629234,-0.6945261,STN
7642985467000,2.554994,-1.091043600249,6.7528169816453,0.530551866710443,0.028405234,-1.1191051,0.22174409,313.88544,-110.53197,-0.7433759,STN
7642990564000,2.560091,-1.35185260463129,6.90506812665474,0.687373344084675,0.06047566,-1.6035212,0.15393804,314.08063,-110.34587,-0.86111087,STN
7642995462000,2.564989,-1.61291434957265,6.93770072307692,0.552180672820513,0.07971791,-1.9712621,0.06688975,314.38815,-110.16293,-1.0421786,STN
7643000490000,2.570017,-1.7728886983057,6.96465888533431,0.287675836658772,0.07880162,-2.180789,0.0033597588,314.7782,-109.94209,-1.2873496,STN
7643005468000,2.574995,-1.63392464053562,6.9733441304427,-0.320291769846967,0.07880162,-2.262034,-0.0036651916,315.2276,-109.73336,-1.5590737,STN
7643010526000,2.580053,-1.46153150666395,6.97770577786835,-0.988706282001223,0.115453534,-2.2656991,0.040317107,315.7342,-109.5724,-1.8834425,STN
7643015467000,2.584994,-0.926335970134502,6.92948999551661,-2.23749592093947,0.20677789,-2.2510383,0.10598512,316.2572,-109.43322,-2.2043126,STN
7643020574000,2.590101,-0.36324032764878,6.87410103492683,-3.55061093781463,0.28191432,-2.1496348,0.13805555,316.76672,-109.41756,-2.5075517,STN
7643025498000,2.595025,0.248640075980488,6.78208900917073,-4.97219774456585,0.48808134,-1.8802432,0.20433442,317.23236,-109.46599,-2.7629175,STN
7643030475000,2.600002,0.854631562811406,6.70072743571786,-6.32948457044522,0.72173727,-1.4785993,0.2959642,317.63913,-109.74451,-2.9344559,STN
7643035480000,2.605007,1.24786988102051,6.82061709054527,-6.31509786194097,0.850019,-1.0250319,0.40378192,317.96338,-110.04421,-3.053637,STN
7643040562000,2.610089,1.61571731022626,6.93464412251754,-6.22624737269044,0.8680395,-0.6053675,0.5021312,318.30072,-110.56139,-3.022561,STN
7643045462000,2.614989,1.57862511874321,6.948553712479,-5.21548306086355,0.80970186,-0.2510656,0.5900958,318.53955,-111.081764,-2.9300537,STN
7643050700000,2.620227,1.49250563747053,6.93311933967122,-4.10713123483871,0.70554936,0.01038471,0.63529986,318.67746,-111.55331,-2.7216053,STN
7643055463000,2.62499,0.877051693156793,6.56879896180211,-2.77718486451613,0.62125,0.23793201,0.62888575,318.7332,-112.00879,-2.4743836,STN
7643060409000,2.629936,0.237951292448046,6.19048097126241,-1.39614040774194,0.5705481,0.40744713,0.60048056,318.68356,-112.27019,-2.1905856,STN
7643065477000,2.635004,-0.31947902454127,5.88070431829689,-0.300039888726854,0.58246,0.5204572,0.54458636,318.5861,-112.52541,-1.9024036,STN
7643070720000,2.640247,-0.771216957638874,5.66008804902186,0.424841933599749,0.63285637,0.5497787,0.5039638,318.46603,-112.77633,-1.6133175,STN
7643075468000,2.644995,-1.05346922084467,5.61384065874805,0.731261992442652,0.7290677,0.43004912,0.44532076,318.2777,-112.811035,-1.4871366,STN
7643080457000,2.649984,-1.24852222089813,5.68814669284603,0.773059061458009,0.8793405,0.17654006,0.37873647,318.11343,-112.87392,-1.386134,STN
7643085446000,2.654973,-1.37407025509822,5.90735794471469,0.486249152881197,1.1346822,-0.183565,0.30695978,318.02747,-112.91186,-1.3576936,STN
7643090463000,2.65999,-1.42400982039289,6.28689840108097,-0.162964987364099,1.4633276,-0.605062,0.22479841,318.01627,-113.01256,-1.3848102,STN
7643095461000,2.664988,-1.60293195298642,6.91729530584299,-1.24225490626149,1.8512272,-1.0473285,0.106595986,318.1075,-113.198944,-1.5093304,STN
7643100462000,2.669989,-1.88516552584898,7.74964527231322,-2.66777380740711,2.2446244,-1.3796391,-0.0580322,318.26675,-113.48009,-1.7027643,STN
7643106134000,2.675661,-2.26194060268934,8.93219686058928,-4.51245227553886,2.547308,-1.4715744,-0.29168814,318.47552,-113.932304,-1.9943807,STN
7643110461000,2.679988,-2.5774231823512,9.95239385238284,-6.03250482927625,2.6865854,-1.255328,-0.54519725,318.66904,-114.44956,-2.3356884,STN
7643115461000,2.684988,-2.82401810566393,11.3284302595306,-7.27965169662343,2.6297748,-1.0586295,-0.6569856,318.91626,-115.19027,-2.8149633,STN
7643120498000,2.690025,-2.96731459595009,12.8903621133776,-8.08211243126052,2.5488353,-0.59040123,-0.82650065,319.00015,-115.960434,-3.3074875,STN
7643125468000,2.694995,-2.82177256184289,14.3866359454473,-8.8235006770482,2.346028,-0.21197024,-0.93584555,319.10794,-116.88138,-3.8828638,STN
7643130457000,2.699984,-2.40473981515572,15.8462504846261,-9.52013470898631,2.2192733,0.042760566,-1.0216721,319.10678,-117.7787,-4.430684,STN
7643135440000,2.704967,-1.90445210562548,16.9370293319132,-9.95777880083269,2.219579,0.25045475,-1.069625,319.0196,-118.62135,-4.906789,STN
7643140469000,2.709996,-1.31222283756778,17.6551654678544,-10.1303176165763,2.2397375,0.43585235,-1.1365148,318.85852,-119.40909,-5.35256,STN
7643145448000,2.714975,-0.728757715349478,18.2110909502374,-9.79583315930674,2.2696698,0.5882632,-1.2082914,318.60324,-120.10866,-5.6486936,STN
7643150528000,2.720055,-0.137378527163343,18.5668433984805,-8.76553993043685,2.2702806,0.6221663,-1.2675453,318.32556,-120.78406,-5.932889,STN
7643155421000,2.724948,0.492663715992604,18.6830133522451,-7.55410505763339,2.3176227,0.514654,-1.2724323,317.99573,-121.38301,-6.0888085,STN
7643160458000,2.729985,1.27242826463603,18.3109677069202,-5.83148804352879,2.411696,0.3109304,-1.2638801,317.68124,-121.98357,-6.2610607,STN
7643165438000,2.734965,2.07937399714654,17.9508862770237,-4.48628088972555,2.500577,0.029321533,-1.210735,317.37036,-122.40469,-6.3421454,STN
7643170490000,2.740017,2.94701958359259,17.5961585928862,-3.60904811592193,2.531731,-0.27122417,-1.0677924,317.1391,-122.828445,-6.4358573,STN
7643176057000,2.745584,3.79464072313741,17.0245199490859,-3.08041844102615,2.4904976,-0.49846604,-0.8542951,316.92966,-123.08421,-6.4315596,STN
7643180484000,2.750011,4.37387381534303,16.4119495975034,-3.04291404054453,2.3970351,-0.6597345,-0.61422503,316.81186,-123.328064,-6.4276876,STN
7643185412000,2.754939,4.90263004084631,15.571012197179,-3.17660672265648,2.2742512,-0.698219,-0.40194935,316.69785,-123.45953,-6.2836533,STN
7643190519000,2.760046,5.24756384428446,14.4212328523851,-3.62214642511509,2.1319196,-0.61758476,-0.22235495,316.6325,-123.554924,-6.106039,STN
7643195415000,2.764942,5.53215134473737,13.3273844261035,-4.10494510726982,1.9905044,-0.46578476,-0.08368854,316.5402,-123.652954,-5.8053074,STN
7643200573000,2.7701,5.73439676167366,12.1928381838426,-4.73141197002197,1.8680259,-0.23151793,0.02565634,316.43774,-123.71506,-5.454684,STN
7643205337000,2.774864,5.84597185395786,11.2645965684189,-5.21830664565351,1.7907515,0.017104227,0.093767814,316.30524,-123.86602,-5.0354943,STN
7643210377000,2.779904,5.79660892493352,10.5488330666803,-5.52929351086112,1.750129,0.11759156,0.11362094,316.16754,-123.993706,-4.597945,STN
7643215352000,2.784879,5.58900295616734,10.0008487416479,-5.73690615967473,1.7342464,0.25992316,0.10567969,315.97028,-124.24299,-4.101955,STN
7643220413000,2.78994,5.08565896246693,9.73493129665916,-5.76539730386989,1.7116444,0.2764165,0.030543262,315.77814,-124.482315,-3.6284246,STN
7643225353000,2.79488,4.49184950848332,9.71668632542076,-5.76542413719233,1.6954565,0.12461651,-0.1142318,315.5935,-124.80584,-3.1992006,STN
7643230375000,2.799902,3.66367876327464,10.2266897483218,-5.70459808749878,1.6887369,-0.14782938,-0.28588495,315.42258,-125.12741,-2.8161788,STN
7643235386000,2.804913,2.81009556905209,10.7252274098053,-5.61241126786597,1.6157386,-0.4728097,-0.39370266,315.30026,-125.47223,-2.563686,STN
7643240377000,2.809904,1.88409215756647,11.1929537183948,-5.43287996098646,1.4822645,-0.84238315,-0.47891834,315.23068,-125.7963,-2.4007778,STN
7643245481000,2.815008,0.978170412204473,11.5544428722045,-5.36457234962726,1.2409728,-1.1252137,-0.5720753,315.23114,-126.035095,-2.4307053,STN
7643250555000,2.820082,0.197224396276503,11.5732607362765,-5.63272836180656,0.9779953,-1.2278391,-0.68752885,315.25836,-126.22629,-2.5168173,STN
7643255457000,2.824984,-0.461343697170088,11.553434170088,-5.90908623739003,0.7351763,-1.1038336,-0.8002335,315.31128,-126.31301,-2.7804284,STN
7643260464000,2.829991,-0.723832451636364,11.3706292363636,-6.26532097454546,0.54092115,-0.8188649,-0.91965765,315.32944,-126.3422,-3.0554562,STN
7643265477000,2.835004,-0.895242148863636,11.1622739560277,-6.58777358280632,0.41874814,-0.4269948,-0.9877691,315.3196,-126.36395,-3.42845,STN
7643270464000,2.839991,-0.536573708636364,10.8083255733202,-6.71047605675889,0.3408628,-0.034208454,-0.99387777,315.23386,-126.34976,-3.7541416,STN
7643275453000,2.84498,-0.150229207700116,10.4327096339907,-6.80610165092807,0.34574974,0.3295618,-0.9288206,315.04605,-126.411224,-4.0456533,STN
7643280459000,2.849986,0.443014338075213,9.89508246268368,-6.69950308163186,0.40439278,0.62125,-0.816116,314.79407,-126.46533,-4.2632885,STN
7643285480000,2.855007,1.03820076854564,9.34368631955867,-6.58341763660983,0.50579643,0.84635377,-0.68569624,314.46838,-126.56996,-4.3514943,STN
7643290472000,2.859999,1.63279658672016,8.58605593721163,-6.31009537221665,0.59559363,0.9923506,-0.54428095,314.1192,-126.67971,-4.3719,STN
7643295538000,2.865065,2.22403632701589,7.81534118434373,-6.02737558002747,0.63132924,1.03786,-0.40225476,313.74298,-126.814354,-4.254402,STN
7643300466000,2.869993,2.6453330483814,7.04219222424956,-5.68478265399254,0.593761,1.0192287,-0.24953845,313.37897,-126.94314,-4.089355,STN
7643305751000,2.875278,3.07878342324805,6.22850121365406,-5.31680025314238,0.46273044,0.9440922,-0.106595986,313.02255,-127.067825,-3.8162565,STN
7643310457000,2.879984,3.25424463533556,5.6812294022525,-4.98258844759918,0.28221974,0.8881981,0.03359759,312.69623,-127.15991,-3.5114222,STN
7643315638000,2.885165,3.44741602076381,5.07871872335929,-4.61464298127549,0.08552113,0.70402217,0.16890424,312.43112,-127.22462,-3.1530676,STN
7643320549000,2.890076,3.60572760882971,4.67304275559115,-4.15673291380519,-0.115453534,0.44318274,0.22968534,312.21097,-127.23542,-2.8052447,STN
7643325534000,2.895061,3.76344434533987,4.28114075994594,-3.67880346215837,-0.21930063,0.1337795,0.35002577,312.08047,-127.214935,-2.4563007,STN
7643330459000,2.899986,3.76158092389581,4.02462341902605,-3.39895299093998,-0.38728857,-0.20219639,0.4456262,312.01837,-127.13007,-2.1220338,STN
7643335458000,2.904985,3.73693641488726,3.78310681900546,-3.14264989138268,-0.54702985,-0.48166725,0.51923543,312.0326,-127.01984,-1.8101083,STN
7643340468000,2.909995,3.51290603773775,3.65266071886887,-3.1886535130321,-0.6753115,-0.68019843,0.5748242,312.112,-126.85196,-1.4970199,STN
7643345383000,2.91491,3.27606387551575,3.53423963775787,-3.25970610234477,-0.7910705,-0.7678576,0.6236934,312.24207,-126.64606,-1.196767,STN
7643350520000,2.920047,2.98842173591734,3.50671120481226,-3.53338360155234,-0.8924741,-0.75808376,0.6640105,312.40454,-126.40492,-0.9035554,STN
7643355428000,2.924955,2.71024375291549,3.48847003496653,-3.81156172740856,-0.9877691,-0.68600166,0.7049385,312.5812,-126.1376,-0.601621,STN
7643360467000,2.929994,2.16558789688533,3.33531070378568,-3.85406103479219,-1.0668762,-0.57451874,0.7632761,312.76428,-125.8781,-0.31809038,STN
7643365437000,2.934964,1.58880224951427,3.16370514014021,-3.85882785462193,-1.1511755,-0.43799037,0.80970186,312.92917,-125.59616,-0.010480925,STN
7643370512000,2.940039,1.0912408488247,2.94712115183267,-3.71600896625498,-1.2409728,-0.2706133,0.84391034,313.0786,-125.34363,0.27633345,STN
7643375418000,2.944945,0.623274611414343,2.73185662203187,-3.55690034976096,-1.318858,-0.07941248,0.87598073,313.19733,-125.07776,0.59939927,STN
7643380459000,2.949986,0.0622263701277176,2.55107389397485,-3.09317031921614,-1.393689,0.13652839,0.8723156,313.27866,-124.82407,0.8449711,STN
7643385424000,2.954951,-0.503334635487959,2.37955136882129,-2.58787403536122,-1.5183055,0.3231477,0.8576548,313.3239,-124.54062,1.119821,STN
7643390489000,2.960016,-1.03387711516913,2.33852214070033,-1.91309656916973,-1.6398678,0.43249258,0.8029824,313.32178,-124.25221,1.3079668,STN
7643395384000,2.964911,-1.53609656945938,2.32922168925702,-1.22486991174487,-1.7873917,0.46883908,0.73914695,313.2871,-123.926285,1.5059739,STN
7643400471000,2.969998,-1.93287503599347,2.58152260495969,-0.657802236081233,-1.9617938,0.41233405,0.6731735,313.13376,-123.53181,1.513375,STN
7643405505000,2.975032,-2.29202445342382,2.90131311878763,-0.136297734291254,-2.1542163,0.30695978,0.6267477,312.9768,-123.09487,1.5105532,STN
7643410463000,2.97999,-2.48369350353176,3.64798334824836,0.00359505196696098,-2.3429737,0.24404067,0.6096435,312.91418,-122.4949,1.5018386,STN
7643415467000,2.984994,-2.64748383483338,4.48058462264312,0.0763907830612361,-2.4465153,0.13744467,0.6102544,312.8776,-121.869385,1.4632505,STN
7643420505000,2.990032,-2.67374434103566,5.43042388342941,0.00560853438163165,-2.613587,0.09315695,0.6585127,312.84412,-121.07013,1.3985056,STN
7643425474000,2.995001,-2.65049709179287,6.40680903131412,-0.115277246156326,-2.7424796,0.07788532,0.713796,312.82336,-120.2578,1.3248161,STN
7643430460000,2.999987,-2.58796824864838,7.12269672820081,-0.208459364744034,-2.8023443,0.062308256,0.7476991,312.79147,-119.3297,1.2281073,STN
7643435497000,3.005024,-2.50676691080305,7.72454181782355,-0.289660707576988,-2.826779,0.01160644,0.7516697,312.76715,-118.384315,1.1329991,STN
7643440468000,3.009995,-2.43555786593803,8.08654996610849,-0.421717506227815,-2.8108964,-0.07666359,0.7076874,312.71585,-117.37756,1.0326883,STN
7643445463000,3.01499,-2.3684059934824,8.3359719078512,-0.580004167909355,-2.7699685,-0.16982053,0.61117065,312.6641,-116.384834,0.91690487,STN
7643450509000,3.020036,-2.27592237639666,8.36681697594502,-0.81765714581836,-2.6960537,-0.2648101,0.49021935,312.60443,-115.38245,0.79183364,STN
7643455567000,3.025094,-2.17129115318606,8.29072101718213,-1.09350306947668,-2.6218336,-0.34116822,0.34269542,312.54245,-114.40871,0.63163793,STN
7643460461000,3.029988,-1.97091292995955,7.97728154266548,-1.37020800717175,-2.5491407,-0.38148534,0.17623462,312.479,-113.47849,0.44709334,STN
7643465501000,3.035028,-1.70903155677222,7.52017984393805,-1.66065813087699,-2.468812,-0.37415496,0.024740042,312.40414,-112.59008,0.23141764,STN
7643470532000,3.040059,-1.40063816550584,7.02051704524988,-1.99941263787015,-2.40742,-0.31703907,-0.11728613,312.3175,-111.790016,-0.006679925,STN
7643475473000,3.045,-1.06911786340028,6.50334532153199,-2.36187484357777,-2.3539693,-0.22724187,-0.20708331,312.20786,-111.029076,-0.25913143,STN
7643480462000,3.049989,-0.667458263945018,6.06752045723615,-2.83657563714978,-2.3185391,-0.112704635,-0.2602286,312.07755,-110.380714,-0.49014887,STN
7643485496000,3.055023,-0.185057120389509,5.72730042517379,-3.44084657283547,-2.3102922,0.038179077,-0.2779437,311.9075,-109.75577,-0.7159847,STN
7643490458000,3.059985,0.246780090054573,5.53721082484758,-4.0733149918041,-2.293799,0.21594086,-0.2501493,311.68155,-109.286415,-0.88197947,STN
7643495469000,3.064996,0.649689405317541,5.45566980941529,-4.74003392593703,-2.2745566,0.42088616,-0.21746802,311.4083,-108.830894,-1.0280277,STN
7643500919000,3.070446,1.02886238350128,5.46090198557597,-5.42589773997234,-2.2223277,0.61422503,-0.16310102,311.1337,-108.50493,-1.0770442,STN
7643505544000,3.075071,1.31767094258052,5.51778848033985,-5.98601146749654,-2.104736,0.76083267,-0.08093964,310.82556,-108.20723,-1.0925858,STN
7643510459000,3.079986,1.51732322637581,5.64771872850769,-6.38979567858205,-1.9040669,0.8170323,-0.03176499,310.61084,-108.00682,-1.0312332,STN
7643515489000,3.085016,1.63196004362915,5.8387801238473,-6.64295191269212,-1.7635679,0.84879726,0.08002335,310.37732,-107.82461,-0.92057675,STN
7643520511000,3.090038,1.46291499011467,5.96851659288256,-6.73087073930407,-1.4156802,0.7791586,0.1853976,310.22263,-107.83773,-0.7600277,STN
7643525475000,3.095002,1.04936658402531,6.04370706049822,-6.67447776591538,-1.0235047,0.5885687,0.24648413,310.09897,-107.90517,-0.5908833,STN
7643530456000,3.099983,0.548405177234372,6.07895427920457,-6.59299579246178,-0.61575216,0.3213151,0.2144137,310.0355,-108.10018,-0.41861576,STN
7643535603000,3.10513,-0.0573681637391136,6.07418446355719,-6.48328873760402,-0.23579398,0.01985312,0.10293079,310.031,-108.39724,-0.27433553,STN
7643540466000,3.109993,-0.47247683065982,6.2171373773956,-6.40583703490941,0.057726767,-0.31429017,-0.058948494,310.09113,-108.78213,-0.25352892,STN
7643545463000,3.11499,-0.699674767815134,6.55097938968123,-6.35947014255402,0.26267207,-0.68691796,-0.2302962,310.2296,-109.242516,-0.29908508,STN
7643550509000,3.120036,-0.725198932364047,6.98141755582803,-6.55605928935974,0.4202753,-1.0916162,-0.38515055,310.45728,-109.75063,-0.5243848,STN
7643555461000,3.124988,-0.418638924500308,7.55560927255284,-7.14484919315617,0.58551437,-1.41904,-0.50885075,310.74628,-110.3118,-0.8158201,STN
7643560415000,3.129942,-0.0225584567786442,8.11209343205359,-7.78872634393121,0.7644979,-1.4596626,-0.59498274,311.03137,-110.894585,-1.1888967,STN
7643565497000,3.135024,0.512697141769646,8.65708087260548,-8.52835194561088,0.8533788,-1.0641272,-0.6462954,311.27286,-111.49141,-1.5693963,STN
7643570465000,3.139992,0.946756809403496,9.16389253568211,-8.33927807659038,0.65179324,-0.3136793,-0.6630942,311.45483,-112.07714,-1.8752592,STN
7643575465000,3.144992,1.26172655169941,9.63850462795098,-6.90249847666246,0.23396139,0.6252206,-0.6200282,311.47485,-112.61012,-2.1087966,STN
7643580384000,3.149911,1.56010224866264,10.1754936393443,-5.20164395409836,-0.28344148,1.4379768,-0.5369505,311.34128,-113.10202,-2.173066,STN
7643585466000,3.154993,1.81730647808456,11.0415893237705,-2.16768422643443,-0.677755,1.8423696,-0.5021312,311.06293,-113.49069,-2.1749625,STN
7643590416000,3.159943,2.20610661322995,12.255943169791,0.193830473888507,-0.83077675,1.7330247,-0.59315014,310.6275,-113.45767,-2.0776646,STN
7643595467000,3.164994,2.87550658623025,14.2261628306998,1.43293240970655,-0.8155051,1.1316279,-0.68661255,310.22345,-113.35853,-1.9861913,STN
7643600448000,3.169975,3.04750194703823,15.8670978890186,1.11555410816068,-0.5674938,-0.5867361,-0.7480045,310.0094,-112.76079,-1.9813924,STN
7643605562000,3.175089,2.09475822564926,16.8531876162825,-2.77164002042603,0.8127562,-4.327064,-1.0192287,310.4628,-112.52035,-2.3412614,STN
7643610414000,3.179941,1.40205390744487,17.6767956174388,-5.46589389269674,3.6257906,-5.9049287,-1.0827587,310.74695,-112.42968,-2.4708352,STN
7643615492000,3.185019,1.33810454642929,18.1883899919077,-5.17566235907344,4.2400155,-6.668816,-0.7483099,311.83112,-112.14659,-2.8649402,STN
7643620509000,3.190036,1.07696202358209,18.0899442686567,-5.27589146268657,3.234226,-4.863404,-0.17195857,312.78427,-112.72563,-3.3066733,STN
7643625469000,3.194996,0.325454231980099,16.4876737651741,-6.33934596298507,1.1850786,-2.289523,0.12889257,313.7247,-113.16089,-3.727358,STN
7643630455000,3.199982,-0.231073640970534,14.771026989789,-6.93691176329865,-0.30879238,-0.12736541,0.106595986,314.30588,-113.37426,-3.9348292,STN
7643635500000,3.205027,-0.235772178060877,12.7365629121852,-6.21803655008266,-0.83291477,1.1737776,-0.11056661,314.44272,-113.28942,-3.9260695,STN
7643640629000,3.210156,-0.0605257714415231,10.9476852910245,-5.12554824206709,-0.54519725,1.6930131,-0.2098322,314.293,-113.28304,-3.872663,STN
7643645468000,3.214995,0.653723438966455,10.1120606237534,-2.99213711695376,0.15088372,1.6542231,-0.12675454,313.94644,-113.25089,-3.7480268,STN
7643650520000,3.220047,1.23900104461119,9.2890848840382,-1.04513916851296,0.8176431,1.3426818,0.040317107,313.55188,-113.32317,-3.6250825,STN
7643655553000,3.22508,1.29536441589359,8.63151181036835,-0.025901752803547,1.2776246,1.1328496,0.18600847,313.15363,-113.52769,-3.479961,STN
7643660464000,3.229991,1.30750397370591,8.23121007398076,0.644313357306459,1.4486669,1.2519683,0.2968805,312.71283,-113.57068,-3.2050092,STN
7643665516000,3.235043,1.11172998671553,8.99214298511223,-0.242210264287678,1.3903292,1.7880026,0.35338554,312.23096,-113.67029,-2.8840117,STN
7643670608000,3.240135,0.914405928569247,9.75910070155749,-1.13575307528478,1.1078042,2.5686884,0.2687807,311.63397,-113.64535,-2.5329313,STN
7643675500000,3.245027,1.00407942442293,11.094487662004,-1.51210345675992,0.6432411,3.2033772,0.06383542,310.9291,-113.546814,-2.1571894,STN
7643680473000,3.25,1.30803933037975,12.9081157938517,-1.52730144412297,0.092240654,3.4061847,-0.16371189,310.1235,-113.338806,-1.774608,STN
7643685469000,3.254996,1.38221692337765,14.1937858706092,-1.35647033109744,-0.35002577,3.0787609,-0.26511553,309.3138,-113.13084,-1.4443383,STN
7643690479000,3.260006,1.34413023524509,15.2221283889661,-1.09462385927763,-0.4792238,2.230269,-0.22418754,308.5857,-112.85544,-1.1786782,STN
7643695469000,3.264996,1.12635890201262,15.515169540803,-0.825955707367578,-0.27030787,1.1429288,-0.17470746,307.9669,-112.45533,-0.9498325,STN
7643700467000,3.269994,0.814832165755482,15.4289008679283,-0.552770757526785,-0.04520403,0.14630222,-0.15851954,307.5545,-112.03376,-0.80884403,STN
7643705518000,3.275045,0.734411407679037,15.1357967671013,-0.524005997518556,-0.003970624,-0.2565634,-0.14263703,307.26425,-111.5359,-0.7130217,STN
7643710486000,3.280013,0.772588006170511,14.7444862924774,-0.619447491255767,-0.1386664,-0.8268061,-0.12583824,307.28735,-111.06926,-0.7361097,STN
7643715475000,3.285002,0.89563710585901,14.3040650784314,-0.88979360410831,-0.2434298,-1.2000448,-0.06994407,307.3752,-110.60655,-0.8161191,STN
7643720588000,3.290115,1.06480141741737,13.8285761294118,-1.25555432677871,-0.52564955,-1.4639386,-0.002443461,307.5871,-110.0732,-0.9285144,STN
7643725479000,3.295006,1.10043046349036,13.336400640257,-1.70898839100642,-0.89552844,-1.6475036,0.04917465,307.88324,-109.5339,-1.0483764,STN
7643730464000,3.299991,1.02608297794433,12.8020284366362,-2.26194774500681,-1.2675453,-1.783421,0.076358154,308.23688,-108.93019,-1.1696743,STN
7643735443000,3.30497,0.974431046925235,12.2844738627684,-2.88526068669759,-1.5421293,-1.8429805,0.098043874,308.62033,-108.33967,-1.261281,STN
7643740471000,3.309998,0.948456184113712,11.7805612909699,-3.5969717812709,-1.6694947,-1.8261817,0.12339478,309.0176,-107.700516,-1.342728,STN
7643745460000,3.314987,0.90732544160309,11.2986120137132,-4.1271524815548,-1.6383406,-1.6624697,0.16584991,309.41693,-107.14259,-1.4154733,STN
7643750505000,3.320032,0.856000983056495,10.8226943381941,-4.55174586904877,-1.4676038,-1.3542882,0.2321288,309.77045,-106.601,-1.4553487,STN
7643755489000,3.325016,0.779963677526609,10.3636359621896,-4.69262276864673,-1.2318097,-0.9117164,0.28863382,310.0706,-106.201195,-1.4678758,STN
7643760456000,3.329983,0.68352573475925,9.91519969447542,-4.60582850938672,-0.98532563,-0.42271876,0.32559118,310.27292,-105.86108,-1.4374785,STN
7643765503000,3.33503,0.57431855553177,9.50770415714703,-4.30959930221855,-0.7733554,0.010079277,0.3371976,310.39368,-105.66148,-1.3786564,STN
7643770570000,3.340097,0.456274209123285,9.13468381502384,-3.85630899268269,-0.6236934,0.3475823,0.33322698,310.40616,-105.51863,-1.2845861,STN
7643775484000,3.345011,0.339970878492382,8.81447909623095,-3.48690037423817,-0.5693264,0.5702427,0.35124752,310.338,-105.42009,-1.172477,STN
7643780451000,3.349978,0.220764790408982,8.52838467602245,-3.17696450339816,-0.56596667,0.7189884,0.37751472,310.19803,-105.35219,-1.0411114,STN
7643785442000,3.354969,0.119495723944992,8.3315361801424,-3.02386476575636,-0.5662721,0.8020661,0.38545597,310.00427,-105.25681,-0.91568726,STN
7643790496000,3.360023,0.0345233947283722,8.21823943031308,-3.01914403498488,-0.54550266,0.840856,0.3830125,309.78427,-105.17023,-0.7804585,STN
7643795466000,3.364993,-0.0612142929916376,8.18835592933284,-3.04148004110458,-0.5204572,0.8622363,0.38973203,309.54062,-105.05619,-0.65645856,STN
7643800468000,3.369995,-0.171265722446333,8.24998459593825,-3.09430482917662,-0.5030475,0.874759,0.40133846,309.29053,-104.94769,-0.53190345,STN
7643805426000,3.374953,-0.291313096899225,8.37673576744186,-3.10622621472868,-0.49205196,0.8872818,0.39858958,309.03903,-104.85076,-0.4234089,STN
7643810462000,3.379989,-0.440859774137468,8.67084441364341,-3.0164981761137,-0.5002986,0.9114109,0.40683624,308.7844,-104.75449,-0.30915287,STN
7643815401000,3.384928,-0.602914064993116,8.9657766009048,-2.89911925544847,-0.5757405,0.91507614,0.40958515,308.5359,-104.65081,-0.21927692,STN
7643820571000,3.390098,-0.802559579204367,9.28715759028324,-2.71895136540126,-0.6786713,0.90133166,0.39370266,308.28693,-104.53801,-0.13375229,STN
7643826045000,3.395572,-1.04368425874081,9.62064771749977,-2.54752445070308,-0.7901542,0.86284715,0.37965274,308.03778,-104.379776,-0.07506721,STN
7643830463000,3.39999,-1.27398632626327,9.88165640805588,-2.43237332676222,-0.88422745,0.79290307,0.355829,307.80136,-104.199234,-0.027877415,STN
7643835451000,3.404978,-1.54016504764918,10.1546503242064,-2.31331635711792,-0.9599747,0.70280045,0.3231477,307.57074,-103.95714,-0.023195323,STN
7643840471000,3.409998,-1.854830059976,10.2647836589942,-2.27660551933021,-0.9993755,0.6206391,0.2855795,307.35706,-103.7029,-0.030047711,STN
7643845425000,3.414952,-2.11297455531915,10.2720936863569,-2.24433397439343,-1.0128145,0.48533243,0.2489276,307.18314,-103.41304,-0.08595796,STN
7643850496000,3.420023,-2.23986823829787,10.0137741259798,-2.22167442194849,-0.9963212,0.2874121,0.18845193,307.04645,-103.12691,-0.16607113,STN
7643855478000,3.425005,-2.32842167836904,9.72273528058051,-2.22882144906704,-0.97585726,0.042760566,0.13103059,306.9711,-102.83959,-0.3002411,STN
7643860521000,3.430048,-2.20445170393918,9.20778319399743,-2.41000818923882,-0.9682214,-0.18661933,0.08277224,306.94366,-102.56153,-0.4562546,STN
7643865436000,3.434963,-2.05072866355784,8.70790285083463,-2.59039776631405,-0.9407325,-0.36560285,0.04795292,306.98358,-102.30933,-0.64693683,STN
7643870502000,3.440029,-1.62696607250582,8.20880499505047,-2.80698760499806,-0.90408057,-0.47555858,0.038789943,307.06607,-102.07146,-0.8489467,STN
7643875480000,3.445007,-1.20685324695766,7.72255838481886,-3.01580791150589,-0.850019,-0.5012149,0.065973446,307.1798,-101.89562,-1.0466137,STN
7643880465000,3.449992,-0.727573979563509,7.30162607277172,-3.16167558274116,-0.75991637,-0.44593164,0.10048734,307.30017,-101.74901,-1.2418256,STN
7643885446000,3.454973,-0.24867928931471,6.88103151985159,-3.30742620870362,-0.6533204,-0.32162055,0.1414153,307.41345,-101.66434,-1.3698258,STN
7643890467000,3.459994,0.17817965,6.45454809251203,-3.4475220056368,-0.54000485,-0.12797627,0.19028452,307.49295,-101.610405,-1.476693,STN
7643896092000,3.465619,0.6368984,5.97588511467975,-3.60209022689745,-0.39767328,0.090713486,0.24648413,307.53265,-101.59664,-1.5598955,STN
7643900461000,3.469988,0.922589954712015,5.65614046163579,-3.81771233363701,-0.2443461,0.22785273,0.31123585,307.56845,-101.63232,-1.5351236,STN
7643905512000,3.475039,1.216379562314,5.31338596204069,-4.11639848156696,-0.090713486,0.46670106,0.35155296,307.51617,-101.70845,-1.4839939,STN
7643910464000,3.479991,1.34613314884361,5.06796043555782,-4.36444130402445,-0.01740966,0.67164636,0.41599923,307.44876,-101.826195,-1.3385828,STN
7643915480000,3.485007,1.38528723226694,4.87218950738665,-4.58957767977585,0.13713925,0.8347474,0.4615087,307.32837,-102.01227,-1.1766989,STN
7643920475000,3.490002,1.09200901519678,4.85961179577708,-4.02699917503591,0.22418754,0.9728029,0.4972443,307.17484,-102.25319,-0.9505274,STN
7643925462000,3.494989,0.63467365637269,4.93735880582208,-3.07574150834051,0.2510656,1.0519099,0.5164866,306.99576,-102.52437,-0.7104074,STN
7643930462000,3.499989,0.227068711810783,5.10237356894201,-2.18320798451679,0.20433442,1.0571023,0.5140431,306.81613,-102.84607,-0.46028113,STN
7643935448000,3.504975,-0.142106952258393,5.33067956704985,-1.33798998874873,0.12095132,1.0073168,0.5006041,306.63254,-103.16856,-0.20674853,STN
7643940469000,3.509996,-0.469694436914601,5.58492282589532,-0.604904172910928,-0.026572637,0.8949176,0.46670106,306.427,-103.28889,-0.031760376,STN
7643945462000,3.514989,-0.767300467278849,5.8532561520049,0.0488533472706866,-0.17287487,0.68416905,0.42394048,306.26358,-103.38569,0.12495156,STN
7643950494000,3.520021,-0.992428587963853,6.13162918034993,0.444018766875601,-0.2941316,0.38148534,0.35338554,306.11707,-103.26832,0.17076522,STN
7643955544000,3.525071,-1.17840389223226,6.41524139434724,0.699734784756778,-0.3933972,-0.01282817,0.2950479,306.05402,-103.116486,0.18814127,STN
7643960441000,3.529968,-1.41874408931055,6.56098878061792,0.801760250074508,-0.43310347,-0.5021312,0.23854288,306.06976,-102.84834,0.15449393,STN
7643965606000,3.535133,-1.71849737343533,6.61504287107093,0.796846270305981,-0.38973203,-1.0360274,0.16249016,306.20193,-102.57903,0.07292253,STN
7643970488000,3.540015,-1.84688196892382,6.58791677319629,0.526417502970576,-0.30451632,-1.5610662,0.051923547,306.44977,-102.26594,-0.07640763,STN
7643975442000,3.544969,-1.86122400858525,6.50186433555018,0.0531298546916566,-0.2049453,-1.9892827,-0.03970624,306.8143,-101.976166,-0.26429513,STN
7643980437000,3.549964,-1.67744459387061,6.41547894780522,-0.671746778728127,-0.14508049,-2.268448,-0.10048734,307.29218,-101.71373,-0.5364885,STN
7643985449000,3.554976,-1.34148553809619,6.32908947775222,-1.5884351589981,-0.08979719,-2.4107797,-0.087659165,307.8482,-101.48842,-0.82520413,STN
7643990468000,3.559995,-0.892993437887185,6.18335227412172,-2.52001754002969,-0.034513887,-2.3979516,-0.03573562,308.46115,-101.38106,-1.1425495,STN
7643995463000,3.56499,-0.362795611271648,5.99399605047006,-3.45733153913904,0.056199603,-2.251344,0.03634648,309.07425,-101.30881,-1.4461454,STN
7644000471000,3.569998,0.175742557115557,5.77983889698417,-4.01819253147208,0.118507855,-2.1407773,0.1151481,309.7194,-101.399445,-1.72756,STN
7644005512000,3.575039,0.723522187412163,5.54438952662486,-4.2728619749577,0.19272798,-1.8038851,0.14844026,310.25488,-101.5242,-1.9779273,STN
7644010457000,3.579984,1.11324998597446,5.38071689062655,-4.14029536627734,0.2284636,-1.3967434,0.21655174,310.80093,-101.81213,-2.0922685,STN
7644015459000,3.584986,1.38351438821142,5.27166309155696,-3.68511311872711,0.26145032,-0.9993755,0.27152961,311.2515,-102.11689,-2.1839302,STN
7644020572000,3.590099,1.44198861566136,5.24222854765862,-3.08057847801349,0.24251351,-0.6389651,0.3042109,311.60254,-102.437454,-2.1504653,STN
7644025483000,3.59501,1.31324806375012,5.28360932789129,-2.38170097673282,0.20677789,-0.36713,0.33536503,311.86755,-102.759026,-2.085208,STN
7644030463000,3.59999,1.03878395645811,5.3581979650053,-1.81150934655355,0.19792034,-0.18478674,0.37995818,312.02524,-102.98213,-1.9321945,STN
7644035479000,3.605006,0.603470853425239,5.46934155779427,-1.39008923372216,0.21380283,-0.083383106,0.42455134,312.13098,-103.202965,-1.760097,STN
7644040473000,3.61,0.147121897818331,5.60456917447201,-1.07441775986057,0.26297748,-0.03268129,0.4447099,312.1612,-103.290924,-1.5891054,STN
7644045497000,3.615024,-0.346151398913266,5.77721501478368,-0.911637563904039,0.3567453,-0.03145956,0.45020768,312.17862,-103.39674,-1.4087265,STN
7644050554000,3.620081,-0.766066729619505,6.00303753498338,-0.780143570546731,0.5036584,-0.07941248,0.4474588,312.17023,-103.452965,-1.3235793,STN
7644055536000,3.625063,-1.09213456230513,6.28504201621721,-0.687610820522719,0.6582073,-0.17256944,0.41416663,312.1725,-103.53805,-1.2499758,STN
7644060451000,3.629978,-1.38921184223881,6.66763411134328,-0.652702250721748,0.8231409,-0.28344148,0.33169982,312.1848,-103.63181,-1.3113894,STN
7644065528000,3.635055,-1.63283737044776,7.33112526626866,-0.761556232130064,0.9505063,-0.4266894,0.22143865,312.22983,-103.759834,-1.3962373,STN
7644070468000,3.639995,-1.85139973300268,8.11944420117052,-1.13459274072017,1.0531317,-0.61575216,0.08277224,312.3307,-103.925186,-1.552325,STN
7644075470000,3.644997,-2.04622477996231,9.12208019093344,-1.8948854476421,1.1636983,-0.82253003,-0.07788532,312.46838,-104.1325,-1.7539264,STN
7644080394000,3.649921,-2.19175326354354,10.1769152177366,-2.8387297068734,1.2895365,-0.9947941,-0.24007004,312.65424,-104.37517,-2.0354197,STN
7644085480000,3.655007,-2.26543400176799,11.3788336214428,-4.13735443112414,1.4208726,-1.0848967,-0.37110063,312.86603,-104.6571,-2.35642,STN
7644090415000,3.659942,-2.31401519796983,12.4593745628609,-5.25419939485938,1.5378532,-1.0491611,-0.4859433,313.1109,-105.07321,-2.783989,STN
7644095462000,3.664989,-2.30051153538834,13.3281109409573,-6.00140262171727,1.5845845,-0.87964594,-0.58062744,313.33484,-105.51144,-3.2268453,STN
7644100527000,3.670054,-2.26588114151075,14.2096776155454,-6.63414045160231,1.559539,-0.7528914,-0.68416905,313.60632,-106.16045,-3.705515,STN
7644105460000,3.674987,-2.10602439958201,15.1265032565685,-6.54951029046576,1.502423,-0.49968776,-0.73853606,313.78485,-106.798546,-4.15832,STN
7644110428000,3.679955,-1.91111663945148,16.0424147683161,-6.53017905751822,1.493871,-0.28405234,-0.8744536,313.93893,-107.51471,-4.6256013,STN
7644115552000,3.685079,-1.43583591160338,16.9270958730341,-7.04310565809359,1.5198327,-0.15118915,-1.003957,314.03192,-108.203606,-5.0738816,STN
7644120605000,3.690132,-0.971569760497162,17.7752500265924,-7.56850760721043,1.6258179,0.0033597588,-1.0800097,314.01794,-108.80282,-5.456639,STN
7644125502000,3.695029,-0.587082206974984,18.2386074195922,-8.36705883392895,1.7773124,0.17287487,-1.1209377,313.95084,-109.41064,-5.8356833,STN
7644130458000,3.699985,-0.229246705313912,18.6238996292664,-8.99143191866167,1.9324722,0.44318274,-1.1291844,313.7842,-110.013466,-6.093139,STN
7644135440000,3.704967,-0.0778685227506971,18.4541715446592,-8.39509355985001,2.078469,0.7654142,-1.1548407,313.5498,-110.641396,-6.3348618,STN
7644140470000,3.709997,0.0875668696203687,18.2812073141084,-7.77247174876802,2.2220223,0.9447031,-1.1801916,313.2668,-111.33939,-6.49745,STN
7644145465000,3.714992,0.480453658906735,18.0803990151488,-6.7815240096733,2.3582454,0.8961393,-1.1646146,312.95938,-112.052765,-6.640723,STN
7644151586000,3.721113,1.00190006356875,17.8471889311371,-5.58488224360952,2.4654522,0.70921457,-1.0980303,312.63428,-112.70365,-6.749239,STN
7644155480000,3.725007,1.67986324742728,17.8102092314896,-4.97676995868224,2.5604417,0.37232238,-0.9850202,312.37225,-113.36734,-6.85885,STN
7644160624000,3.730151,2.55783121328983,17.7397210287748,-4.23727857730644,2.6141977,-0.06688975,-0.8527679,312.18,-113.895065,-6.921008,STN
7644165456000,3.734983,3.17556516871354,17.4194143280926,-4.29218807217443,2.5937338,-0.48197266,-0.7272351,312.087,-114.410934,-6.990974,STN
7644170733000,3.74026,3.83165981092108,17.059758010128,-4.359254313176,2.493552,-0.7996226,-0.6273586,312.0645,-114.79542,-6.9682274,STN
7644175430000,3.744957,4.20128269977069,16.6256656323333,-4.50108643489394,2.310598,-1.0506883,-0.5366451,312.15094,-115.13986,-6.9605384,STN
7644180443000,3.74997,4.59577270228358,16.1623688280145,-4.65246059418116,2.0778582,-1.1917981,-0.44318274,312.26892,-115.4397,-6.8767476,STN
7644185513000,3.75504,4.71551920951761,15.7092073300641,-4.60995192734187,1.8161024,-1.2483032,-0.35918877,312.4433,-115.675186,-6.7984853,STN
7644190436000,3.759963,4.80988812359888,15.2703932221777,-4.5533305296237,1.5467108,-1.2195925,-0.30085114,312.64316,-115.8407,-6.716149,STN
7644195425000,3.764952,4.18550173280282,14.5917233989423,-4.44890042637623,1.325883,-1.1771374,-0.2910773,312.8369,-115.98082,-6.5881763,STN
7644200531000,3.770058,3.48606248832032,13.8775072798791,-4.33807378987157,1.1099422,-1.0891727,-0.3643811,313.01138,-116.05269,-6.464398,STN
7644210352000,3.779879,2.1407446622211,12.5037672670864,-4.12490724127928,0.84788096,-1.1426234,-0.6178902,313.348,-116.12114,-6.2669353,STN
7644215362000,3.784889,1.39641523333333,12.1068232910448,-4.44052937263682,0.7113526,-1.2547172,-0.8164214,313.52145,-116.1525,-6.2857766,STN
7644220710000,3.790237,0.597684576923077,11.7050079730195,-4.80804360516648,0.6188065,-1.3652838,-0.9804387,313.6983,-116.15906,-6.3521786,STN
7644225366000,3.794893,0.0718110128616352,11.6869119465409,-5.49253967075472,0.59528816,-1.3811663,-1.0934488,313.89087,-116.21983,-6.59065,STN
7644230317000,3.799844,-0.469930074658281,11.701822033543,-6.25793531207547,0.63285637,-1.2858714,-1.1734722,314.06708,-116.28169,-6.8576536,STN
7644235376000,3.804903,-0.750314374530095,11.7808824916963,-6.81827638968993,0.711658,-1.0677924,-1.2357804,314.2223,-116.44381,-7.2415576,STN
7644240324000,3.809851,-1.00505361178458,11.8627627005856,-7.35049931494672,0.7703011,-0.68875057,-1.2855659,314.3013,-116.616974,-7.603857,STN
7644245364000,3.814891,-1.13681552144542,11.8055325509954,-7.82661236041136,0.8173377,-0.11178834,-1.3457361,314.2583,-116.91796,-7.991629,STN
7644250551000,3.820078,-1.2492975666478,11.7211712495518,-8.30466152967261,0.84879726,0.56169057,-1.3671165,314.0896,-117.22952,-8.314681,STN
7644255454000,3.824981,-0.84275644091411,11.1947123014137,-7.76199842944785,0.8857546,1.180497,-1.3420709,313.77557,-117.62218,-8.597827,STN
7644260433000,3.82996,-0.274648376474438,10.5248533039922,-6.90983596114519,0.92149025,1.6209309,-1.2388347,313.3436,-118.010574,-8.795694,STN
7644265424000,3.834951,0.136815157586802,9.73643562931798,-6.11238612001771,0.95630956,1.842675,-1.0855075,312.80923,-118.45962,-8.927434,STN
7644270469000,3.839996,0.39358214907097,8.82170373328167,-5.36348234621346,0.97341377,1.8866574,-0.9263771,312.2286,-118.89256,-8.991015,STN
7644275443000,3.84497,0.65861975882746,7.89948614580802,-4.81813446425678,0.93431836,1.8277088,-0.7675522,311.63318,-119.22128,-8.930574,STN
7644280444000,3.849971,0.930191468140948,6.96353350060753,-4.35258319117052,0.88147855,1.7400496,-0.6200282,311.06177,-119.52905,-8.828078,STN
7644285425000,3.854952,1.11927080550102,6.18205469520847,-4.03274702453105,0.80909103,1.6010778,-0.4859433,310.53888,-119.778534,-8.690121,STN
7644290588000,3.860115,1.28266201694042,5.43237746068617,-3.75882641547284,0.6762278,1.4489723,-0.34330627,310.06976,-119.97726,-8.525978,STN
7644295439000,3.864966,1.38963061942605,4.88828338796909,-3.61027115662252,0.52656585,1.3487904,-0.18753563,309.63397,-120.144,-8.312286,STN
7644300476000,3.870003,1.47836929050773,4.40022023371965,-3.50822159221854,0.43860126,1.1866057,-0.11301007,309.26566,-120.28241,-8.112873,STN
7644305467000,3.874994,1.48169423297987,4.00251657013633,-3.39570022270071,0.27488935,1.0687088,0.03634648,308.93314,-120.362076,-7.84851,STN
7644310466000,3.879993,1.39881273858472,3.69171085797446,-3.27137792701796,0.129198,0.98746365,0.20158553,308.64844,-120.414154,-7.579379,STN
7644315462000,3.884989,1.2578941140916,3.49362894530597,-3.14809674917332,0.022296581,0.947452,0.3417791,308.39255,-120.451675,-7.2787437,STN
7644320601000,3.890128,1.08018808983276,3.35333463595591,-3.02183190005701,-0.05467244,0.9459248,0.48502702,308.1737,-120.44614,-6.9428926,STN
7644325498000,3.895025,0.911298261632306,3.24728824557405,-2.88694708194628,-0.10262536,0.9636399,0.60994893,307.9771,-120.42743,-6.596641,STN
7644330466000,3.899993,0.740317733771515,3.16179809910157,-2.73846406738226,-0.13316862,0.9645562,0.7119634,307.80417,-120.387024,-6.224565,STN
7644335442000,3.904969,0.589076911844702,3.05113168342913,-2.60677752613599,-0.16920967,0.945314,0.7974846,307.65335,-120.32991,-5.862706,STN
7644340472000,3.909999,0.463698764181759,2.90485714509272,-2.49707159510899,-0.2171626,0.89827734,0.87109387,307.5234,-120.258995,-5.4848766,STN
7644345464000,3.914991,0.363419860266204,2.75292187013889,-2.41403138368056,-0.28252518,0.84299403,0.9260717,307.41846,-120.16185,-5.1356883,STN
7644350511000,3.920038,0.279506426865355,2.59441861539352,-2.34876532042824,-0.36132678,0.7812967,0.95905846,307.33447,-120.04791,-4.784664,STN
7644355490000,3.925017,0.241919488609756,2.44122142609756,-2.29509332512195,-0.4550946,0.7370089,0.9795224,307.26294,-119.91602,-4.4592247,STN
7644360622000,3.930149,0.246914212825203,2.28638476158537,-2.25014081239837,-0.57818395,0.68508536,0.990518,307.2115,-119.75565,-4.141434,STN
7644365462000,3.934989,0.251487565261029,2.13713888310537,-2.2139618331728,-0.7254025,0.61850107,0.98471475,307.17493,-119.57286,-3.8542976,STN
7644370532000,3.940059,0.256164349695627,1.97812806582547,-2.18122434213061,-0.8396343,0.5720753,0.9804387,307.1468,-119.36734,-3.5720363,STN
7644375522000,3.945049,0.281282536328585,1.85727839468186,-2.15787018621083,-0.99387777,0.5390886,0.96577793,307.12503,-119.124084,-3.3009725,STN
7644380468000,3.949995,0.328514478406458,1.776309368566,-2.14437535635328,-1.1478158,0.5128214,0.95111716,307.11084,-118.85231,-3.039627,STN
7644385421000,3.954948,0.375813267147198,1.69522574819563,-2.13086142746439,-1.2822062,0.49754974,0.9437868,307.09827,-118.56077,-2.7797053,STN
7644390476000,3.960003,0.424086107261159,1.61247232583096,-2.11706919840456,-1.4321736,0.4859433,0.93218035,307.08658,-118.225784,-2.530351,STN
7644395411000,3.964938,0.453971704948087,1.55372870763374,-2.05889139195095,-1.572978,0.48991394,0.9279043,307.06906,-117.86215,-2.283985,STN
7644400457000,3.969984,0.430079396404628,1.56328562107189,-1.85819601016513,-1.6261233,0.49632803,0.9138544,307.04837,-117.4861,-2.0468554,STN
7644405472000,3.974999,0.386593993698519,1.59670529780238,-1.67045981561126,-1.7553213,0.46028697,0.8924741,307.0341,-117.068756,-1.7870641,STN
7644410467000,3.979994,0.277574610083021,1.70961823635032,-1.52250495585219,-1.8689423,0.419359,0.8668178,307.0148,-116.646454,-1.5339037,STN
7644415461000,3.984988,0.16857705216995,1.82250856970536,-1.37457971668566,-1.9630154,0.40317106,0.8185594,306.9828,-116.16142,-1.3052187,STN
7644420559000,3.990086,-0.0224122711722732,2.14569484890928,-1.28668552937819,-1.9999728,0.40042216,0.7635816,306.9504,-115.66588,-1.0903946,STN
7644425463000,3.99499,-0.22827164332314,2.51432682925586,-1.21966154658512,-2.01555,0.41905355,0.68966687,306.90503,-115.15562,-0.89420533,STN
7644430466000,3.999993,-0.527241340200251,3.14897866967205,-1.26300177480894,-2.0143282,0.47219884,0.5757405,306.8117,-114.59066,-0.78911334,STN
7644435434000,4.004961,-0.844824068380575,3.83937581917384,-1.33204149937119,-2.0323486,0.5876524,0.45478916,306.68365,-114.021675,-0.69671357,STN
7644440604000,4.010131,-1.25144537966757,4.66354233733052,-1.43188027743296,-2.0641136,0.7174612,0.32436943,306.46442,-113.38951,-0.7739266,STN
7644445415000,4.014942,-1.65402038455358,5.46406519620368,-1.53368083449834,-2.116648,0.8313876,0.20708331,306.20526,-112.757126,-0.8621969,STN
7644450500000,4.020027,-2.11010037958142,6.19343387636401,-1.48537430765306,-2.1361957,0.8866709,0.079107046,305.864,-112.09146,-1.1111912,STN
7644455506000,4.025033,-2.56934839059767,6.8723220138484,-1.38553781071429,-2.1661282,0.9117164,-0.05100725,305.49274,-111.42834,-1.3640321,STN
7644460466000,4.029993,-2.83784932759308,7.17974726605671,-1.22169311007338,-2.180789,0.92485,-0.18692477,305.1417,-110.76429,-1.6352243,STN
7644465478000,4.035005,-3.07264811110608,7.41889417182716,-1.0434199613099,-2.1933117,0.9645562,-0.30024028,304.76868,-110.11447,-1.917052,STN
7644470578000,4.040105,-3.04879950352811,7.48652684129498,-0.843597944823093,-2.198504,1.0146471,-0.36102137,304.4079,-109.43785,-2.2361941,STN
7644476127000,4.045654,-2.85704821058434,7.44924203297584,-0.614561843560188,-2.1896465,1.0085385,-0.39492437,304.04565,-108.78786,-2.568567,STN
7644480469000,4.049996,-2.50306087563995,7.29596750788922,-0.362998352439782,-2.1868975,0.947452,-0.42241332,303.69244,-108.11046,-2.9284003,STN
7644485446000,4.054973,-2.00802183714855,7.06594917681494,-0.0429730586437264,-2.2085834,0.8216137,-0.43676865,303.35938,-107.45637,-3.2891622,STN
7644490477000,4.060004,-1.43729925312949,6.86554849253027,0.0692151779125795,-2.2562308,0.68783426,-0.453262,303.037,-106.77048,-3.6167665,STN
7644495475000,4.065002,-0.843040027518982,6.67892180841371,0.0986825818017648,-2.283109,0.6258314,-0.45753807,302.73135,-106.11242,-3.9398384,STN
7644500471000,4.069998,-0.293625332278494,6.59303682384699,-0.240537095635756,-2.3090706,0.5363397,-0.44776422,302.4445,-105.38663,-4.189542,STN
7644505535000,4.075062,0.250051743288426,6.53580749864293,-0.693601328594749,-2.377793,0.5439755,-0.44440445,302.14804,-104.67045,-4.431662,STN
7644510592000,4.080119,0.716808135819458,6.56214712282848,-1.5562742601324,-2.4058928,0.659429,-0.42455134,301.81445,-103.94687,-4.5901933,STN
7644515480000,4.085007,1.1440739715988,6.61379479961886,-2.51879609896088,-2.3823745,0.8573494,-0.3930918,301.45648,-103.24446,-4.730331,STN
7644520470000,4.089997,1.43860507149375,6.7404078541956,-3.80117143340607,-2.2672265,1.072374,-0.3481932,301.09384,-102.612564,-4.7596726,STN
7644525471000,4.094998,1.68562624724261,6.89242074424717,-5.18829049982146,-2.0094411,1.2589933,-0.29932398,300.68683,-102.03843,-4.7683344,STN
7644530466000,4.099993,1.71143547928831,7.01242171080311,-6.55443374145286,-1.563815,1.368949,-0.26816985,300.31894,-101.68605,-4.69383,STN
7644535448000,4.104975,1.6551551382483,7.12029256443527,-7.90985136307874,-0.9868528,1.3741413,-0.2782491,299.93127,-101.44134,-4.6148276,STN
7644540477000,4.110004,1.50805549972768,7.24457969752966,-9.33281490488232,-0.3222314,1.2696834,-0.31398472,299.6228,-101.57973,-4.51858,STN
7644546123000,4.11565,1.29770482464501,7.39182487356545,-10.9577751081502,0.3417791,1.0638218,-0.38759398,299.33862,-101.873474,-4.43952,STN
7644550512000,4.120039,1.69973658766404,8.04466856955381,-11.4655161802275,0.94042706,0.6197228,-0.48808134,299.21542,-102.59747,-4.433111,STN
7644555447000,4.124974,2.37969266027996,8.9956886920385,-11.7319850720327,1.464244,-0.08277224,-0.571159,299.20905,-103.47012,-4.4665565,STN
7644560467000,4.129994,2.9253569148,9.66069987066667,-10.9523938786667,1.887879,-0.8744536,-0.634689,299.39667,-104.75176,-4.6174054,STN
7644565482000,4.135009,3.36376343126154,10.1040315286154,-9.40565626276923,2.0653355,-1.5048665,-0.6646214,299.70502,-106.07365,-4.8163896,STN
7644570461000,4.139988,3.76920836511084,10.6210822442241,-7.97505183079226,1.8102992,-1.7073684,-0.6383542,300.06702,-107.28513,-4.908508,STN
7644575475000,4.145002,4.15996466020017,11.1870057785988,-6.59617603619867,1.1701124,-1.4129313,-0.5543602,300.4426,-108.39168,-5.0017285,STN
