timestamp,rel_time,acc_x,acc_y,acc_z,gyro_x,gyro_y,gyro_z,azimuth,pitch,roll,label
7497617841000,0,1.88122986603391,9.69339284968719,-0.286477177961288,-0.041233405,0.011911872,-0.0061086523,265.01932,-129.32025,-5.9475474,STD
7497622849000,0.005008,1.87478485734692,9.69410895123954,-0.283374025787449,-0.049480084,0.008246681,-0.0143553335,265.04395,-128.72975,-5.8248515,STD
7497628657000,0.010816,1.86731029455657,9.69493944601112,-0.279775162403731,-0.050396383,0.008857546,-0.005192355,265.06708,-128.1498,-5.696411,STD
7497632847000,0.015006,1.86191800494025,9.69553858049681,-0.277178874941992,-0.045814894,0.011301007,-0.002443461,265.0865,-127.578,-5.5723295,STD
7497637861000,0.02002,1.85546527459748,9.69625553999831,-0.274072004934079,-0.03756821,0.009773844,0.0021380284,265.10706,-127.01471,-5.4471188,STD
7497642871000,0.02503,1.84901769202522,9.69697192753371,-0.270967613482214,-0.038789943,0.01282817,0.0106901415,265.12552,-126.4579,-5.320026,STD
7497647853000,0.030012,1.84260614384659,9.69768431130643,-0.267880571922696,-0.032375857,0.011911872,0.011301007,265.14307,-125.91384,-5.1955643,STD
7497652845000,0.035004,1.83618172624166,9.6983981249944,-0.264787333973054,-0.033292156,0.018020526,0.008246681,265.15744,-125.37521,-5.06933,STD
7497657835000,0.039994,1.82975988252199,9.69911165269932,-0.261695335301437,-0.03390302,0.02443461,0.017104227,265.17236,-124.84592,-4.9413185,STD
7497662814000,0.044973,1.82335219517124,9.69982360749747,-0.258610152658956,-0.03023783,0.042760566,0.0070249503,265.1778,-124.32646,-4.816743,STD
7497667845000,0.050004,1.81687758680377,9.70054299785488,-0.255492748787832,-0.029626964,0.052534413,0.013439035,265.18616,-123.81278,-4.6877675,STD
7497672828000,0.054987,1.8104647516825,9.70125552461913,-0.252405087589301,-0.025350908,0.049480084,0.01282817,265.18878,-123.30968,-4.563293,STD
7497677947000,0.060106,1.80387689236367,9.70198749823065,-0.249233155485091,-0.03481932,0.052839845,0.01038471,265.18668,-122.8104,-4.4365983,STD
7497682917000,0.065076,1.79748078749658,9.70269816610509,-0.246153549593721,-0.030543262,0.044898596,0.014966198,265.18744,-122.3236,-4.3119903,STD
7497687876000,0.070035,1.79109883899841,9.70340726107276,-0.243080759731487,-0.03023783,0.038789943,0.008552114,265.18332,-121.841156,-4.191289,STD
7497692849000,0.075008,1.78469887330344,9.70411835792177,-0.239999294923079,-0.030543262,0.03023783,0.012217305,265.18237,-121.366714,-4.0700374,STD
7497698630000,0.080789,1.77725905796408,9.7049449919222,-0.236417161792695,-0.029321533,0.017104227,0.009162978,265.1806,-120.90077,-3.95498,STD
7497702883000,0.085042,1.77178569096212,9.70555313487391,-0.233781837073178,-0.03604105,0.01985312,0.011301007,265.17682,-120.43953,-3.838091,STD
7497707836000,0.089995,1.76541146411973,9.70626137189243,-0.230712765045018,-0.028710667,0.02076942,-0.002443461,265.17255,-119.99066,-3.7294421,STD
7497712859000,0.095018,1.75894715129329,9.70697961831765,-0.227600318285993,-0.03481932,0.018936822,-0.00061086525,265.16934,-119.54266,-3.6178014,STD
7497717838000,0.099997,1.75253946394254,9.7076915731158,-0.224515135643512,-0.041233405,0.011911872,-0.004581489,265.1631,-119.10452,-3.5129864,STD
7497722875000,0.105034,1.7460571339193,9.70841182142235,-0.221394013938314,-0.03940081,0.008552114,0.0027488936,265.1568,-118.67364,-3.4059749,STD
7497727859000,0.110018,1.73964301185541,9.70912449117812,-0.218305733100771,-0.05375614,0.0009162979,0.0015271631,265.15033,-118.24379,-3.3050005,STD
7497732865000,0.115024,1.73320057705367,9.70984030674743,-0.215203820204956,-0.046120327,-0.004581489,-0.0012217305,265.14362,-117.82747,-3.2040606,STD
7497737863000,0.120022,1.72676843779296,9.71055497838454,-0.21210686442124,-0.04795292,-0.0015271631,-0.008552114,265.13458,-117.41152,-3.105826,STD
7497742835000,0.124994,1.72163679797497,9.71178311153943,-0.220473195058824,-0.053145275,-0.004886922,-0.0036651916,265.12854,-117.003296,-3.0080616,STD
7497747854000,0.130013,1.71754607553041,9.7134675356796,-0.238761132023529,-0.048563786,-0.0061086523,-0.00061086525,265.11874,-116.60437,-2.9132326,STD
7497752838000,0.134997,1.71348387974168,9.71514021348686,-0.256921538047059,-0.053145275,0.002443461,-0.0018325958,265.14142,-116.18118,-2.8506062,STD
7497757834000,0.139993,1.70941190338523,9.71681691860826,-0.275125668964706,-0.053450707,0.009162978,-0.0018325958,265.1635,-115.767525,-2.787528,STD
7497762854000,0.145013,1.70532036589337,9.71850167835795,-0.293417249670588,-0.06658431,0.010079277,0.0012217305,265.18323,-115.35595,-2.7240074,STD
7497768193000,0.150352,1.70096882830989,9.72029349754193,-0.312871183811765,-0.069027774,0.009773844,0.007941248,265.2001,-114.95419,-2.6592882,STD
7497772822000,0.154981,1.69719597431589,9.72184703397247,-0.329738061717647,-0.05955936,0.021685716,0.013133603,265.21188,-114.559,-2.5930407,STD
7497777881000,0.16004,1.69307264997897,9.72354488249312,-0.348171748329412,-0.052534413,0.021991149,0.015271631,265.2254,-114.16916,-2.5277715,STD
7497782842000,0.165001,1.68902920027835,9.7252098412816,-0.366248348305882,-0.043676864,0.029932396,0.013133603,265.23212,-113.78924,-2.4605908,STD
7497787858000,0.170017,1.68494092297572,9.72689325859324,-0.384525354047059,-0.038789943,0.022907447,0.018020526,265.242,-113.41649,-2.3933437,STD
7497792852000,0.175011,1.68087057671389,9.72856929249562,-0.402722197482353,-0.034513887,0.027183503,0.017104227,265.24426,-113.05278,-2.3266957,STD
7497797844000,0.180003,1.67680186054668,9.73024465517897,-0.420911753435294,-0.030543262,0.031154128,0.015577064,265.2473,-112.69659,-2.2605028,STD
7497802844000,0.185003,1.672726624001,9.73192270273842,-0.439130459317647,-0.036957346,0.019547688,0.020158553,265.2523,-112.34471,-2.1949155,STD
7497807830000,0.189989,1.66866279811765,9.73359605176471,-0.457298152823529,-0.032986723,0.016493361,0.021380283,265.2519,-112.00317,-2.1300337,STD
7497812849000,0.195008,1.66457207567309,9.73528047590488,-0.475586089788235,-0.03848451,0.011301007,0.004886922,265.25226,-111.6635,-2.07091,STD
7497817837000,0.199996,1.66050661969512,9.73695449615019,-0.493761070776471,-0.026572637,0.010995574,0.0070249503,265.25278,-111.33531,-2.0071063,STD
7497822822000,0.204981,1.65644360885907,9.73862750956696,-0.511925120541177,-0.034208454,0.005192355,-0.004276057,265.2516,-111.00665,-1.9531001,STD
7497827881000,0.21004,1.65232028452215,9.74032535808761,-0.530358807152941,-0.03481932,-0.0027488936,0.005192355,265.25204,-110.68848,-1.893924,STD
7497832845000,0.215004,1.6482743896796,9.74199132370463,-0.548446338352941,-0.037873644,-0.008857546,-0.0009162979,265.24954,-110.37377,-1.8429985,STD
7497837942000,0.220101,1.64412009354493,9.74370192538673,-0.567018487129412,-0.034513887,-0.013439035,-0.00061086525,265.24905,-110.06588,-1.7891461,STD
7497842861000,0.22502,1.64011087583129,9.74535278857572,-0.584942049976471,-0.032986723,-0.015577064,0.0018325958,265.24786,-109.76218,-1.7373607,STD
7497847849000,0.230008,1.63604541985332,9.74702680882103,-0.603117030964706,-0.038179077,0.0018325958,-0.005497787,265.24045,-109.46314,-1.687362,STD
7497852839000,0.234998,1.63197833378073,9.74870150028536,-0.621299299435294,-0.034208454,0.013133603,-0.004276057,265.2351,-109.172165,-1.635885,STD
7497857833000,0.239992,1.6279079875189,9.75037753418773,-0.639496142870588,-0.045814894,0.029321533,0.008857546,265.223,-108.88036,-1.5817654,STD
7497862914000,0.245073,1.62376673214118,9.75208276611765,-0.658009991788235,-0.03970624,0.054061573,0.0070249503,265.20313,-108.60019,-1.530322,STD
7497867843000,0.250002,1.61974936395444,9.75373698540175,-0.675969992047059,-0.04062254,0.06872234,0.0027488936,265.1815,-108.31953,-1.476338,STD
7497872851000,0.25501,1.61566760703029,9.7554177178373,-0.694217847858824,-0.043066,0.0711658,0.007941248,265.15616,-108.04495,-1.4200867,STD
7497877868000,0.260027,1.61157851468035,9.75710147075845,-0.712498497341177,-0.039095376,0.08827003,0.014049901,265.12164,-107.776886,-1.3631456,STD
7497882875000,0.265034,1.6074975728035,9.75878186758448,-0.730742709411765,-0.0290161,0.09437868,0.008552114,265.08807,-107.51479,-1.3097275,STD
7497887879000,0.270038,1.60341907606859,9.76046125758198,-0.748975990258824,-0.027183503,0.09162979,0.01160644,265.05267,-107.255875,-1.252683,STD
7497892871000,0.27503,1.59935035990138,9.76213662026533,-0.767165546211765,-0.027794369,0.09132435,0.018936822,265.0141,-107.00373,-1.1962936,STD
7497897844000,0.280003,1.59529712963304,9.76380560636796,-0.785285871082353,-0.030848695,0.076052725,0.011301007,264.97867,-106.75614,-1.1457192,STD
7497902837000,0.284996,1.59122759841852,9.76548130466083,-0.803479070776471,-0.034513887,0.06291912,0.008552114,264.94308,-106.51236,-1.092707,STD
7497907849000,0.290008,1.58714258130513,9.76716337953442,-0.821741501552941,-0.034513887,0.062308256,0.0030543262,264.90668,-106.27331,-1.0437753,STD
7497912856000,0.295015,1.58306163942829,9.76884377636045,-0.839985713623529,-0.036957346,0.054061573,0.0030543262,264.87558,-106.03676,-0.9966893,STD
7497917843000,0.300002,1.57899699849762,9.77051746099625,-0.858157050870588,-0.03176499,0.056199603,-0.004276057,264.8401,-105.80685,-0.95325136,STD
7497922821000,0.30498,1.57493969299274,9.77218812514643,-0.876295594447059,-0.04337143,0.059864793,-0.0021380284,264.80658,-105.575424,-0.9086034,STD
7497927869000,0.310028,1.57082533417622,9.77388228196245,-0.894689199905882,-0.047647487,0.059253927,-0.0033597588,264.77222,-105.35182,-0.86787534,STD
7497932851000,0.31501,1.5667647684821,9.77555428855069,-0.912842318447059,-0.049480084,0.06780604,-0.005497787,264.73386,-105.129616,-0.8266829,STD
7497937858000,0.320017,1.56268382660526,9.77723468537672,-0.931086530517647,-0.0421497,0.076358154,-0.004581489,264.69525,-104.91277,-0.7858635,STD
7497942861000,0.32502,1.56385179172992,9.77367147368158,-0.928614021551638,-0.04153884,0.08735373,-0.005192355,264.65286,-104.697464,-0.7460758,STD
7497947844000,0.330003,1.56861819149021,9.76652172473032,-0.911931609948062,-0.04153884,0.0983493,-0.00030543262,264.60812,-104.48781,-0.70473796,STD
7497952836000,0.334995,1.57339320003995,9.75935906232521,-0.895219067558929,-0.046120327,0.103847094,0.0076358155,264.59473,-104.33537,-0.67748004,STD
7497957841000,0.34,1.57818064350779,9.75217774715341,-0.878463002923991,-0.037873644,0.11484267,0.015577064,264.5764,-104.18948,-0.6482329,STD
7497962849000,0.345008,1.5801731,9.75321516657883,-0.823176381986298,-0.03176499,0.12156218,0.0106901415,264.60532,-104.021965,-0.6148757,STD
7497967839000,0.349998,1.5801731,9.76008373793896,-0.740755199118478,-0.03359759,0.12889257,0.016493361,264.63065,-103.857895,-0.5760661,STD
7497972847000,0.355006,1.5801731,9.76697708570881,-0.658036705370574,-0.039095376,0.12950343,0.013744468,264.71863,-103.662575,-0.5347348,STD
7497977878000,0.360037,1.5801731,9.7739020922244,-0.574938314387007,-0.039095376,0.118202426,0.01282817,264.80475,-103.473114,-0.49181375,STD
7497982841000,0.365,1.58428894928511,9.77997796761985,-0.495855500277544,-0.040317107,0.1142318,0.010079277,264.9844,-103.24132,-0.43859118,STD
7497987867000,0.370026,1.59440942800673,9.7850383126577,-0.419951835891505,-0.043982297,0.09407325,0.008246681,265.1637,-103.01633,-0.38696554,STD
7497992851000,0.37501,1.61888914607503,9.78994222756265,-0.374513690320928,-0.04184427,0.07544186,0.0067195175,265.4793,-102.70129,-0.3173988,STD
7497997847000,0.380006,1.65733681743257,9.79474803279594,-0.357692835042941,-0.041233405,0.060170226,0.007330383,265.78195,-102.39822,-0.24791954,STD
7498002837000,0.384996,1.69573831464517,9.79954806644568,-0.340892180952237,-0.042455133,0.048563786,0.00061086525,266.304,-101.99072,-0.13563232,STD
7498007835000,0.389994,1.73420137738436,9.80435579554015,-0.324064591945156,-0.055588737,0.040011674,0.0021380284,266.79184,-101.60542,-0.020806463,STD
7498012840000,0.394999,1.7719507388956,9.80180124692014,-0.300276078824098,-0.06566802,0.0290161,0.0036651916,267.5852,-101.10021,0.1724796,STD
7498017837000,0.399996,1.80894215456785,9.79255345335523,-0.270220571092806,-0.062308256,0.02687807,0.0021380284,268.3021,-100.6435,0.3634829,STD
7498023423000,0.405582,1.85029377512923,9.78221561568192,-0.236622398952123,-0.05222898,0.028710667,0.004276057,269.13068,-100.15236,0.65726984,STD
7498027877000,0.410036,1.88326551125175,9.77397273544616,-0.20983287895309,-0.05375614,0.03145956,0.008552114,269.88104,-99.71494,0.94142663,STD
7498032769000,0.414928,1.89972569409351,9.76401521652255,-0.167300525896233,-0.05467244,0.028405234,0.015271631,270.6906,-99.29146,1.3081478,STD
7498037841000,0.42,1.8831144666569,9.75215007176706,-0.100855669672285,-0.040927973,0.015577064,0.021380283,271.43097,-98.931496,1.6598263,STD
7498042834000,0.424993,1.86676197087791,9.74046973506278,-0.0354457392452001,-0.03023783,0.014660766,0.02107485,272.21494,-98.59387,2.0919569,STD
7498047858000,0.430017,1.85030794748644,9.72871687874347,0.0303703013047047,-0.019547688,0.026572637,0.023823744,272.93414,-98.32474,2.506097,STD
7498052774000,0.434933,1.82450969529703,9.72155419158416,0.0897564872455446,-0.018325957,0.03756821,0.03848451,273.53702,-98.133865,2.9062243,STD
7498057831000,0.43999,1.77256341522277,9.72555013952145,0.137706892817492,-0.014660766,0.036957346,0.032986723,274.10406,-97.99013,3.2864928,STD
7498062796000,0.444955,1.72156217326733,9.72947339075908,0.184784955634323,-0.014966198,0.03481932,0.03268129,274.5089,-97.883064,3.6112816,STD
7498067839000,0.449998,1.66938397154137,9.72554946814494,0.204995453852893,-0.013744468,0.04550946,0.036957346,274.8959,-97.80581,3.9282348,STD
7498073131000,0.45529,1.61581410021175,9.720459,0.218600175175842,-0.004581489,0.05467244,0.032070424,275.2701,-97.75548,4.234476,STD
7498077919000,0.460078,1.58204223622721,9.720459,0.197492760736513,-0.0076358155,0.044898596,0.026572637,275.55707,-97.71996,4.5014687,STD
7498083002000,0.465161,1.54618960785767,9.720459,0.175084868590499,-0.013744468,0.048258353,0.029626964,275.81808,-97.69894,4.751966,STD
7498087835000,0.469994,1.51210033913644,9.720459,0.153779076195912,-0.015577064,0.042455133,0.029932396,276.07938,-97.693146,4.995224,STD
7498093663000,0.475822,1.47099289901491,9.720459,0.128086926790646,-0.024129177,0.058337633,0.030543262,276.32956,-97.70195,5.238125,STD
7498097822000,0.479981,1.46848523767414,9.71722509479104,0.0727570500696548,-0.021380283,0.062002823,0.026267206,276.5801,-97.72618,5.474743,STD
7498102813000,0.484972,1.47331037484353,9.71239985685443,-0.00444520006258833,-0.022296581,0.049785517,0.021991149,276.82617,-97.761215,5.707088,STD
7498107838000,0.489997,1.47173095727792,9.71397930740429,-0.05970286985959,-0.019242255,0.05589417,0.02687807,277.0584,-97.80614,5.9209547,STD
7498112815000,0.494974,1.46726931414397,9.71844104371431,-0.104319333810727,-0.017715093,0.06658431,0.024740042,277.28873,-97.857796,6.127406,STD
7498117813000,0.499972,1.46301227585326,9.73613296255001,-0.189433134678696,-0.024740042,0.061086524,0.015271631,277.52853,-97.92595,6.3316884,STD
7498122856000,0.505015,1.45890164495702,9.76490755051494,-0.308641512223168,-0.023823744,0.06994407,0.013133603,277.75754,-98.00402,6.5338964,STD
7498127873000,0.510032,1.45641748836425,9.79121144182125,-0.415597879865093,-0.015577064,0.076052725,0.018020526,277.98456,-98.09165,6.7294445,STD
7498132813000,0.514972,1.45988617316519,9.80855486582594,-0.478034249745583,-0.02321288,0.08368854,0.016187929,278.20496,-98.17972,6.918638,STD
7498137877000,0.520036,1.46344192616761,9.82633363083804,-0.54203784834372,-0.02565634,0.087659165,0.01985312,278.4463,-98.28867,7.10886,STD
7498142855000,0.525014,1.47574718086423,9.83887954085307,-0.59443375303038,-0.016798794,0.07513642,0.017104227,278.68643,-98.39859,7.292208,STD
7498147835000,0.529994,1.49751685545976,9.84613598960288,-0.635554227037582,-0.023823744,0.064446285,0.01160644,278.92142,-98.508095,7.471658,STD
7498152726000,0.534885,1.51889747362175,9.85326275483086,-0.675939817071563,-0.025045475,0.06566802,0.015577064,279.16498,-98.63137,7.651443,STD
7498157811000,0.53997,1.54112614738043,9.86067220099407,-0.717927289024699,-0.022602014,0.05955936,0.015882496,279.40976,-98.75227,7.82385,STD
7498162793000,0.544952,1.56180283186178,9.85893082588963,-0.740004132965446,-0.01863139,0.056505036,0.016493361,279.64978,-98.8743,7.993202,STD
7498167761000,0.54992,1.58143255538938,9.8491157591542,-0.744911563847344,-0.018325957,0.05589417,0.01740966,279.88727,-98.99601,8.15838,STD
7498172748000,0.554907,1.61690832220234,9.83755026773414,-0.76180458624385,-0.025045475,0.050701816,0.015577064,280.14188,-99.12976,8.328771,STD
7498177763000,0.559922,1.66416699234279,9.82466173119241,-0.787582045131049,-0.020158553,0.053145275,0.020463986,280.39038,-99.26536,8.496722,STD
7498182745000,0.564904,1.70098661579662,9.81328103057993,-0.805924713949154,-0.01863139,0.054367006,0.02076942,280.64017,-99.40194,8.664147,STD
7498187786000,0.569945,1.71845758252058,9.80454536478784,-0.810292455630146,-0.021380283,0.056505036,0.029321533,280.88507,-99.54007,8.83065,STD
7498192812000,0.574971,1.73198864009921,9.79565968437371,-0.81190852088673,-0.0061086523,0.051618114,0.025961773,281.13843,-99.68791,9.00206,STD
7498197765000,0.579924,1.72218419809839,9.78585554950393,-0.797201863004341,-0.010995574,0.06811147,0.0290161,281.38077,-99.83453,9.173026,STD
7498202776000,0.584935,1.70757460214605,9.77601316363636,-0.780531171675112,-0.0012217305,0.0571159,0.035124753,281.6251,-99.988846,9.345828,STD
7498207776000,0.589935,1.67427221764531,9.76649801212121,-0.756743754884252,0.01282817,0.053450707,0.046120327,281.85846,-100.14197,9.516185,STD
7498212779000,0.594938,1.64126977947582,9.76300951466013,-0.727229658612237,0.018020526,0.050701816,0.043982297,282.08594,-100.285515,9.675252,STD
7498217773000,0.599932,1.60970705915905,9.7855543148864,-0.673122105111719,0.018020526,0.043066,0.04917465,282.3125,-100.43157,9.834676,STD
7498222797000,0.604956,1.57882663574004,9.80698662397356,-0.617779789975966,0.01863139,0.04734206,0.042455133,282.52597,-100.563446,9.978456,STD
7498227780000,0.609939,1.55971144654516,9.81176553354697,-0.550876413224514,0.020463986,0.048258353,0.043066,282.73956,-100.695816,10.121458,STD
7498232813000,0.614972,1.54277636755988,9.81549870823353,-0.482772855158683,0.021991149,0.049785517,0.043982297,282.92868,-100.813805,10.250689,STD
7498237820000,0.619979,1.55474017431138,9.80592769281437,-0.40859704342515,0.018020526,0.056505036,0.042760566,283.11356,-100.92855,10.376125,STD
7498242819000,0.624978,1.56668486573353,9.79637196961078,-0.334539747068862,0.012217305,0.03970624,0.045814894,283.2917,-101.03441,10.494632,STD
7498247775000,0.629934,1.57852681226048,9.78689844206587,-0.261119470865269,0.00580322,0.04520403,0.046120327,283.45917,-101.13667,10.609444,STD
7498252857000,0.635016,1.58814877949453,9.77439752084419,-0.182569830291819,0.004581489,0.053145275,0.046120327,283.6336,-101.2367,10.7212925,STD
7498257830000,0.639989,1.56746729306931,9.72889806930693,-0.066753184970297,0.015271631,0.0571159,0.04153884,283.8052,-101.33391,10.828957,STD
7498262885000,0.645044,1.54644478877019,9.68264837545597,0.0509731657436165,0.0030543262,0.047036625,0.047647487,283.9582,-101.4247,10.939361,STD
7498267922000,0.650081,1.52590559707844,9.66858483677358,0.0885847045277866,-0.004581489,0.04886922,0.03940081,284.1042,-101.509964,11.041899,STD
7498272810000,0.654969,1.50608485279983,9.66362957309199,0.103450198577538,-0.008552114,0.042455133,0.04062254,284.25372,-101.59718,11.145888,STD
7498277896000,0.660055,1.4811888246947,9.67791113162945,0.109073182372645,0.00030543262,0.03390302,0.04428773,284.38022,-101.67481,11.244665,STD
7498282932000,0.665091,1.45594701684403,9.69473894495813,0.113280157669225,-0.007941248,0.026572637,0.037873644,284.50638,-101.74745,11.338597,STD
7498287871000,0.67003,1.44056967732919,9.72065389479814,0.092808774019604,-0.0030543262,0.025045475,0.04642576,284.62912,-101.82204,11.432141,STD
7498292868000,0.675027,1.4312809992236,9.75316446215062,0.055654035894507,-0.002443461,0.0067195175,0.03940081,284.7569,-101.88871,11.517012,STD
7498297832000,0.679991,1.42940007950292,9.79044519502924,0.0260281925502924,0.009162978,0.0125227375,0.043066,284.87805,-101.95508,11.599912,STD
7498302819000,0.684978,1.43405495307992,9.83233939746589,0.0027535651079922,0.021685716,0.011911872,0.03634648,285.00452,-102.01576,11.675591,STD
7498307820000,0.689979,1.42011115270312,9.86156693857009,-0.0236424009231089,0.032986723,0.00061086525,0.034208454,285.13528,-102.077126,11.748681,STD
7498312857000,0.695016,1.3850724071184,9.87658385742451,-0.0536756338992425,0.033292156,-0.004886922,0.027794369,285.26288,-102.13436,11.816893,STD
7498317843000,0.700002,1.36472533375566,9.89516016561086,-0.0789328230633484,0.059864793,-0.022907447,0.02443461,285.39435,-102.19511,11.884132,STD
7498322816000,0.704975,1.35610534707692,9.91671013230769,-0.100482803261538,0.070249505,-0.0290161,0.01740966,285.52234,-102.25075,11.94686,STD
7498327918000,0.710077,1.33797871162694,9.93997108754033,-0.141388235563651,0.076358154,-0.04917465,0.015882496,285.66077,-102.30184,12.001313,STD
7498332845000,0.715004,1.30359802664724,9.96452838997606,-0.215060958310607,0.0852157,-0.053145275,0.017104227,285.79474,-102.35137,12.053233,STD
7498337865000,0.720024,1.28530489670286,9.98305818831557,-0.282728044917821,0.09896017,-0.060170226,0.0106901415,285.9314,-102.395004,12.096686,STD
7498342871000,0.72503,1.29008051797988,9.99260918154199,-0.340034348348441,0.12644911,-0.064446285,0.010995574,286.06714,-102.44116,12.141122,STD
7498348582000,0.730741,1.30077585111298,10.0113640851883,-0.439385932726914,0.1432479,-0.079107046,0.010079277,286.21463,-102.48035,12.174673,STD
7498352852000,0.735011,1.3128856984058,10.0315471640097,-0.540301398488722,0.16554448,-0.09193522,0.008552114,286.36145,-102.52054,12.207014,STD
7498357787000,0.739946,1.32688150552293,10.0548735092049,-0.656933207279009,0.18448131,-0.10934488,0.011911872,286.51846,-102.56388,12.238867,STD
7498362814000,0.744973,1.34113822738266,10.0786347123044,-0.77573930713489,0.21105394,-0.11148291,0.0009162979,286.6729,-102.603775,12.265098,STD
7498367783000,0.749942,1.36044604710506,10.0997346738276,-0.881239350222688,0.22266038,-0.13316862,0.005497787,286.83942,-102.64684,12.293794,STD
7498372834000,0.754993,1.39001616523448,10.1166317707624,-0.965725364212732,0.2574797,-0.15790866,0.007941248,287.0055,-102.68876,12.317601,STD
7498377879000,0.760038,1.42314708766306,10.1311773424006,-1.05218016103752,0.29443705,-0.17989981,0.0125227375,287.20807,-102.74586,12.34444,STD
7498382879000,0.765038,1.50062145311963,10.1166511011225,-1.16354961194256,0.32559118,-0.20769419,0.01038471,287.41702,-102.80315,12.368075,STD
7498387832000,0.769991,1.57472888217636,10.1010514446529,-1.27446994896811,0.36835176,-0.26267207,0.005192355,287.65207,-102.87337,12.394954,STD
7498392860000,0.775019,1.62227721897897,10.0725223730621,-1.39334071650044,0.40958515,-0.30482176,0.00030543262,287.88858,-102.944855,12.4191265,STD
7498397890000,0.780049,1.66957411242259,10.0449466029144,-1.50965705544627,0.44043383,-0.36071593,-0.002443461,288.15527,-103.037384,12.453817,STN
7498402837000,0.784996,1.71272206719035,10.0298448491576,-1.59163819428506,0.49602258,-0.419359,0.0021380284,288.4316,-103.13563,12.48567,STN
7498408042000,0.790201,1.75812030947177,10.013955496357,-1.67789488069217,0.5516113,-0.46670106,-0.008246681,288.73224,-103.248,12.518746,STN
7498412870000,0.795029,1.80023034092896,9.99921701502732,-1.75790396464481,0.6114761,-0.53878313,-0.0143553335,289.05304,-103.36816,12.549131,STN
7498418515000,0.800674,1.84946628284608,9.9819844700592,-1.85145228256375,0.68233645,-0.6072,-0.019242255,289.38196,-103.49262,12.5725,STN
7498422823000,0.804982,1.86105967148499,9.92532661774289,-1.90538739080766,0.75625116,-0.68508536,-0.023518313,289.7298,-103.62279,12.588895,STN
7498427875000,0.810034,1.86583672456556,9.84411676525474,-1.962712077656,0.8341365,-0.7632761,-0.043676864,290.09222,-103.75668,12.594061,STN
7498432842000,0.815001,1.85017589273337,9.77585710993106,-2.04583755353084,0.9239337,-0.8356637,-0.04886922,290.49384,-103.93579,12.615594,STN
7498437913000,0.820072,1.82303002755729,9.71251685233836,-2.1453724869946,1.0048733,-0.89919364,-0.05375614,290.90878,-104.119675,12.6244335,STN
7498442828000,0.824987,1.78755940943076,9.64846639932031,-2.28740855225149,1.0885619,-0.9569204,-0.06627888,291.34372,-104.3228,12.625889,STN
7498447846000,0.830005,1.74219319345794,9.58041714641745,-2.47794660249221,1.178359,-1.0210613,-0.08002335,291.79172,-104.53864,12.617668,STN
7498452836000,0.834995,1.67004898861469,9.51810021704992,-2.65821384733595,1.2788464,-1.0809261,-0.070249505,292.26468,-104.78195,12.601903,STN
7498457831000,0.83999,1.55378987335951,9.46444202019069,-2.8236594718452,1.3967434,-1.1291844,-0.069027774,292.74435,-105.03987,12.571847,STN
7498462812000,0.844971,1.44721483154792,9.42927377202291,-2.96389590032003,1.5137241,-1.1429288,-0.07422013,293.24686,-105.337166,12.529368,STN
7498467846000,0.850005,1.3700728726798,9.45363444862725,-3.02479746464544,1.5711454,-1.1688906,-0.10995574,293.7572,-105.64274,12.469229,STN
7498472824000,0.854983,1.29378906830049,9.47772412843187,-3.08502153838639,1.7082846,-1.1921035,-0.14446963,294.28305,-105.99596,12.380379,STN
7498477886000,0.860045,1.22067493316261,9.53471095838669,-3.02621889212548,1.8234328,-1.2186762,-0.18753563,294.8065,-106.35469,12.27123,STN
7498482970000,0.865129,1.15008882926933,9.59857707946117,-2.94813044858897,1.9150625,-1.2846496,-0.2284636,295.33743,-106.73613,12.14331,STN
7498488012000,0.870171,1.19949075708927,9.74678239005883,-2.86167706415722,2.007914,-1.3558154,-0.2660318,295.86743,-107.14032,11.978753,STN
7498492842000,0.875001,1.24681549159349,9.8887561405917,-2.77885876847984,2.0677788,-1.4523321,-0.2843578,296.4002,-107.548775,11.788903,STN
7498497852000,0.880011,1.30932737601622,9.99882518567419,-2.70335462398378,2.1294763,-1.5454891,-0.28893927,296.9419,-107.98225,11.583647,STN
7498502841000,0.885,1.37886695110718,10.0882335219877,-2.63381504889282,2.1817052,-1.6206255,-0.2837469,297.49594,-108.43398,11.366516,STN
7498507822000,0.889981,1.497022978889,10.1812526124369,-2.61787551283295,2.2030854,-1.6676621,-0.29077184,298.03976,-108.881165,11.144336,STN
7498512875000,0.895034,1.63598298062184,10.2770874932172,-2.62266723185464,2.208278,-1.7379116,-0.30665436,298.60117,-109.34129,10.910175,STN
7498517874000,0.900033,1.56131616034945,10.3349868332175,-3.03197538402661,2.1927009,-1.7104226,-0.36071593,299.11676,-109.793655,10.678373,STN
7498522860000,0.905019,1.4001428812469,10.3776502230716,-3.60556263618584,2.1810944,-1.5121969,-0.44012842,299.59116,-110.24449,10.441564,STN
7498527864000,0.910023,1.18027055888162,10.3996320383697,-4.37511398062063,2.186592,-1.3640621,-0.53023106,300.054,-110.69007,10.204812,STN
7498532847000,0.915006,0.935567931537441,10.4122888848024,-5.22735429873574,2.2336287,-1.0940597,-0.6429357,300.4106,-111.12902,9.96784,STN
7498537934000,0.920093,0.919198497029955,10.4918997238156,-5.90270894894837,2.268448,-0.64568454,-0.7443393,300.72205,-111.626335,9.695955,STN
7498542850000,0.925009,1.19425450912683,10.6519323909072,-6.31279217533461,2.3173172,-0.22571471,-0.7458665,300.9591,-112.138374,9.446639,STN
7498547840000,0.929999,1.47003714283267,10.6419093746431,-6.4185370488102,2.375044,0.24587326,-0.6826419,301.15356,-112.775406,9.1631365,STN
7498552835000,0.934994,1.74323040939463,10.4871000328384,-6.26372765946126,2.4104743,0.7324274,-0.58551437,301.22986,-113.419716,8.93826,STN
7498557986000,0.940145,1.95728880829089,10.2367154777284,-5.80322437951664,2.473088,1.1010846,-0.46883908,301.20215,-114.13427,8.790553,STN
7498562823000,0.944982,2.08279829036523,9.90034975333261,-5.03510668262707,2.5072963,1.2373075,-0.4083634,301.11133,-114.843155,8.686109,STN
7498567843000,0.950002,2.07619240606121,9.66536742061998,-4.21649249220561,2.5271494,1.4358387,-0.2648101,300.88574,-115.57212,8.741175,STN
7498572820000,0.954979,1.97706004981678,9.50958835574923,-3.39038970423888,2.5216517,1.5241088,-0.13652839,300.6645,-116.291275,8.813441,STN
7498577865000,0.960024,1.70158078817627,9.34955815502656,-2.84127918063152,2.4495697,1.4697418,-0.03573562,300.40646,-116.92189,8.977098,STN
7498582850000,0.965009,1.3024137046626,9.18989104701948,-2.50785736246311,2.3316727,1.3573426,0.04184427,300.1621,-117.53118,9.16774,STN
7498587931000,0.97009,0.892239802484215,9.08527154913181,-2.24973335576164,2.173764,1.2098186,0.08032878,299.92575,-118.00118,9.383801,STN
7498592866000,0.975025,0.491244089155485,9.0293185035517,-2.06322365824783,2.0134118,0.9773844,0.09132435,299.7535,-118.429474,9.58167,STN
7498597848000,0.980007,0.170984803346102,8.9689424694503,-2.00370243118177,1.8289305,0.66950834,0.070249505,299.5757,-118.79358,9.714525,STN
7498602834000,0.984993,-0.0713775658571155,8.90492236314882,-2.06314985692396,1.6200147,0.34391713,0.03756821,299.46646,-119.09837,9.811323,STN
7498607821000,0.98998,-0.22533761810034,8.83464213989904,-2.24379941545277,1.4208726,0.05681047,-0.007941248,299.39713,-119.3387,9.81513,STN
7498612826000,0.994985,-0.259902719393221,8.75563614989183,-2.58945027369939,1.2437216,-0.12736541,-0.047647487,299.38303,-119.520294,9.781635,STN
7498617860000,1.000019,-0.221074890437835,8.66663457717042,-2.87051082733119,1.0916162,-0.24098633,-0.06841691,299.42548,-119.66635,9.674033,STN
7498622849000,1.005008,-0.105852970256163,8.56848281993569,-3.07961730289389,0.97097033,-0.2950479,-0.08093964,299.49585,-119.76691,9.542527,STN
7498627905000,1.010064,0.0565352450010248,8.41205831107607,-3.30183678122192,0.8717047,-0.27763826,-0.0720821,299.6016,-119.87895,9.38519,STN
7498632881000,1.01504,0.345803879708475,8.09649243389831,-3.54978138779661,0.79137594,-0.2275473,-0.040927973,299.71356,-119.9627,9.229543,STN
7498637793000,1.019952,0.631352017506504,7.78498528182893,-3.794536996216,0.74067414,-0.1966986,-0.01985312,299.8374,-120.065735,9.085502,STN
7498642834000,1.024993,0.818625924065864,7.48227623578214,-3.91562819784674,0.7098254,-0.118202426,-0.02687807,299.93594,-120.15131,8.957773,STN
7498647819000,1.029978,0.959720576905214,7.19000880074942,-3.98113638066287,0.6618725,-0.062308256,-0.03726278,300.03394,-120.218864,8.837624,STN
7498652836000,1.034995,1.00810269623795,6.96118868109711,-4.01160469873981,0.6356053,-0.009773844,-0.06505715,300.1621,-120.33856,8.765352,STN
7498657834000,1.039993,1.03471403595256,6.74829814862861,-4.03378077657524,0.59712076,0.01985312,-0.092240654,300.27844,-120.43968,8.696315,STN
7498662872000,1.045031,1.03396369535391,6.6155847410976,-3.96214623872778,0.5580254,0.0580322,-0.10567969,300.36945,-120.56898,8.659408,STN
7498667907000,1.050066,1.0189280371583,6.52537089659079,-3.84186139183037,0.52534413,0.06780604,-0.12797627,300.45343,-120.68459,8.613963,STN
7498673554000,1.055713,0.966864268461243,6.43828212236186,-3.74317639510744,0.4578435,0.061086524,-0.14569137,300.5205,-120.80603,8.576409,STN
7498677858000,1.060017,0.91941389062548,6.37501501522448,-3.6759549673254,0.37873647,0.030848695,-0.15088372,300.58896,-120.91243,8.534554,STN
7498682844000,1.065003,0.87827300702381,6.35569349107143,-3.63935761428571,0.28038713,-0.019547688,-0.14844026,300.64114,-120.99295,8.495802,STN
7498687870000,1.070029,0.84428074722155,6.36540550590194,-3.62478951598063,0.16920967,-0.055588737,-0.1572978,300.69437,-121.04567,8.451104,STN
7498692824000,1.074983,0.805372326908843,6.39329639077717,-3.62930294694196,0.07696902,-0.087659165,-0.14966199,300.7403,-121.08171,8.402678,STN
7498697893000,1.080052,0.762822297721075,6.4311186444293,-3.64348627354889,-0.005192355,-0.12095132,-0.13500121,300.7947,-121.0898,8.3496,STN
7498702875000,1.085034,0.738402571487883,6.45664204489717,-3.67739116170706,-0.0842994,-0.14630222,-0.12339478,300.85342,-121.07216,8.290504,STN
7498707834000,1.089993,0.724646266225741,6.47498368948537,-3.72324551258086,-0.15668693,-0.16126843,-0.113926366,300.9187,-121.0358,8.232724,STN
7498712820000,1.094979,0.708284124607025,6.46105120745197,-3.76448420287211,-0.23457226,-0.16462818,-0.10720685,300.96582,-120.99191,8.177956,STN
7498717840000,1.099999,0.689624883000194,6.41906801125558,-3.80180278350475,-0.29901853,-0.16401732,-0.095294975,301.0171,-120.934326,8.126676,STN
7498722831000,1.10499,0.677495837572503,6.38256217411386,-3.84817808670247,-0.35979962,-0.14477506,-0.08399397,301.05963,-120.86747,8.076388,STN
7498727861000,1.11002,0.672321691063373,6.35151718700322,-3.9050936983029,-0.40683624,-0.12705997,-0.07788532,301.10254,-120.78905,8.029088,STN
7498732915000,1.115074,0.642056146568811,6.32285383525617,-3.95764315624533,-0.453262,-0.096516706,-0.06719518,301.1444,-120.70694,7.9867654,STN
7498737838000,1.119997,0.59797739224009,6.29640665630142,-4.00612973537771,-0.51923543,-0.0580322,-0.058337633,301.17963,-120.60904,7.950484,STN
7498743685000,1.125844,0.53750985011599,6.26240925838166,-4.0489579682132,-0.591623,-0.034208454,-0.036651913,301.20395,-120.51991,7.9249215,STN
7498747864000,1.130023,0.489615244009942,6.23661998500414,-4.07106312013256,-0.6603453,-0.008246681,-0.032070424,301.21643,-120.41526,7.9040194,STN
7498752773000,1.134932,0.436356205212181,6.2002188132613,-4.07966871404715,-0.71929383,0.016187929,-0.013133603,301.2312,-120.31045,7.8848596,STN
7498757817000,1.139976,0.388904913946955,6.14802208418468,-4.04645288398821,-0.78801614,0.017104227,-0.0061086523,301.2439,-120.186165,7.8651414,STN
7498762803000,1.144962,0.341900258447371,6.09009596921477,-4.01603800506981,-0.82619524,0.015577064,-0.0021380284,301.25372,-120.06838,7.8423476,STN
7498767850000,1.150009,0.294039920767403,6.01351955086642,-3.99210785871869,-0.8888089,0.009162978,0.018325957,301.2675,-119.929855,7.8258348,STN
7498772813000,1.154972,0.254045038239729,5.93526233536974,-3.97211043530208,-0.95294976,-0.014660766,0.034208454,301.28525,-119.78409,7.8016567,STN
7498777876000,1.160035,0.23529690340551,5.84620874140164,-3.96273637277912,-1.0183123,-0.04642576,0.04886922,301.30878,-119.62573,7.781315,STN
7498782829000,1.164988,0.220835885856497,5.77367593007049,-3.9734399277896,-1.0858129,-0.07360926,0.0711658,301.34204,-119.45786,7.758135,STN
7498787841000,1.17,0.224027732962495,5.76729224585716,-4.07557892519617,-1.1426234,-0.09468412,0.10048734,301.38394,-119.28075,7.738029,STN
7498792853000,1.175012,0.227219580068493,5.76090856164384,-4.17771792260274,-1.2030991,-0.10293079,0.12889257,301.43387,-119.09714,7.720052,STN
7498797882000,1.180041,0.230422253471539,5.75450322487033,-4.28020336114177,-1.2473868,-0.10476339,0.14110987,301.48816,-118.90797,7.7044063,STN
7498802870000,1.185029,0.23359881639347,5.74815010897726,-4.38185326518486,-1.3020593,-0.122478485,0.16493362,301.5517,-118.7059,7.694417,STN
7498807833000,1.189992,0.236759458290331,5.74182883508445,-4.48299369697433,-1.3655893,-0.122783914,0.17379116,301.60956,-118.49402,7.686752,STN
7498813435000,1.195594,0.231437326302439,5.77509114540488,-4.57611954675122,-1.4153748,-0.14294247,0.17440203,301.67767,-118.27737,7.678865,STN
7498817842000,1.200001,0.206731963770732,5.89450025074146,-4.60082488778537,-1.4743233,-0.16249016,0.16493362,301.74405,-118.04615,7.6715636,STN
7498822815000,1.204974,0.171721114600853,6.03902176313224,-4.62505864694292,-1.5635096,-0.18875736,0.15393804,301.83688,-117.85768,7.653413,STN
7498827867000,1.210026,0.0783574608165753,6.26506012656917,-4.62014477393866,-1.6383406,-0.23701571,0.1282817,301.93564,-117.660034,7.624709,STN
7498832903000,1.215062,-0.0268630551918559,6.49804705994518,-4.60557396358653,-1.717753,-0.2932153,0.09162979,302.04083,-117.42942,7.578419,STN
7498837977000,1.220136,-0.198098158261551,6.77392579406813,-4.53898258097103,-1.7876972,-0.35002577,0.044593163,302.152,-117.18399,7.518584,STN
7498842841000,1.225,-0.367108735421522,7.03450903769705,-4.47271659431117,-1.8365663,-0.42821655,-0.010995574,302.28198,-116.89557,7.4186907,STN
7498847808000,1.229967,-0.581358031094683,7.26738882426319,-4.38422243493587,-1.8646661,-0.5039638,-0.07238753,302.41714,-116.59672,7.3018894,STN
7498852901000,1.23506,-0.802209318567973,7.50090079583938,-4.29863350198355,-1.8854356,-0.5751296,-0.14844026,302.5633,-116.24024,7.1282783,STN
7498857831000,1.23999,-1.03062565402032,7.66079212046444,-4.28036011233672,-1.8674151,-0.59895337,-0.18448131,302.71207,-115.89334,6.9506965,STN
7498863234000,1.245393,-1.27891698542758,7.83490525635195,-4.27095851093426,-1.8466456,-0.6417139,-0.30604348,302.86456,-115.492645,6.689803,STN
7498867879000,1.250038,-1.46802460198715,7.9712386468611,-4.38970046214533,-1.738828,-0.63071835,-0.35277468,303.0123,-115.13294,6.448545,STN
7498873192000,1.255351,-1.67163523167452,8.1304328982015,-4.5343762768989,-1.6969837,-0.56779927,-0.42210788,303.1509,-114.730545,6.1331425,STN
7498877869000,1.260028,-1.57387302847913,8.34159940736861,-4.85503632134625,-1.5796975,-0.45875978,-0.47555858,303.2693,-114.38595,5.8232946,STN
7498882872000,1.265031,-1.46929652589488,8.56748481368954,-5.19804726904138,-1.4563028,-0.2959642,-0.48563787,303.3695,-114.07112,5.4893417,STN
7498887912000,1.270071,-1.1962511848896,8.50980234058611,-5.09197778803693,-1.3387111,-0.105374254,-0.46883908,303.4289,-113.79427,5.1717124,STN
7498892813000,1.274972,-0.857091517880369,8.32844605925331,-4.79050246780911,-1.2260065,0.06841691,-0.42943826,303.44983,-113.55917,4.8810287,STN
7498897851000,1.28001,-0.508451158281815,8.14202023894019,-4.4805998635839,-1.1551461,0.18448131,-0.42394048,303.45276,-113.40514,4.616954,STN
7498902820000,1.284979,-0.164585746045765,7.9581476900843,-4.17494165786833,-1.1426234,0.23457226,-0.46273044,303.42563,-113.27069,4.3704104,STN
7498907818000,1.289977,0.0875811904604909,7.81502445683569,-3.8281159948038,-1.1673635,0.20830505,-0.48655418,303.39868,-113.14634,4.1377006,STN
7498912822000,1.294981,0.297955196380577,7.69051747701129,-3.46318151944096,-1.2159272,0.11789699,-0.49571714,303.37247,-113.021324,3.9032626,STN
7498917815000,1.299974,0.460882062423208,7.56765726309117,-3.1440594807411,-1.2605205,-0.00030543262,-0.47311515,303.29074,-112.82141,3.8045998,STN
7498922815000,1.304974,0.568276772320819,7.44625433768893,-2.87790735982448,-1.2907583,-0.14294247,-0.4428773,303.24057,-112.616394,3.6960664,STN
7498927839000,1.309998,0.679730504392324,7.32838624888544,-2.65118081360729,-1.2938126,-0.28680122,-0.419359,303.18582,-112.35081,3.6323125,STN
7498932853000,1.315012,0.796075991151386,7.21669475809265,-2.48364343163404,-1.2760975,-0.4184427,-0.38698313,303.17072,-112.09042,3.5672703,STN
7498937768000,1.319927,0.90067559371568,7.09565434945088,-2.39288418657718,-1.2382239,-0.5225952,-0.3555236,303.18536,-111.790985,3.5169377,STN
7498942863000,1.325022,0.989987099410209,6.94680185723002,-2.44746337673378,-1.2040154,-0.569021,-0.32589662,303.22238,-111.50383,3.4693835,STN
7498947780000,1.329939,1.05350367388813,6.8024141308231,-2.60239428639382,-1.1603385,-0.5662721,-0.29046643,303.26343,-111.215965,3.4534414,STN
7498952849000,1.335008,1.07999469664393,6.65229810469304,-2.93794747181446,-1.1279627,-0.5317582,-0.2660318,303.30872,-110.942024,3.4427495,STN
7498957783000,1.339942,1.10656097714102,6.52963928338501,-3.30059484471293,-1.0894781,-0.42149702,-0.25167647,303.3331,-110.72105,3.4708886,STN
7498962896000,1.345055,1.13797304496953,6.51916864877579,-3.8555418683524,-1.0714576,-0.22296582,-0.22907446,303.3258,-110.50991,3.5201113,STN
7498967800000,1.349959,1.21011202945569,6.57922756646689,-4.36164668112596,-1.0332786,0.022907447,-0.20830505,303.3228,-110.39375,3.5791552,STN
7498972846000,1.355005,1.38103796677147,6.80238089279819,-4.82219720321281,-0.9868528,0.30848694,-0.19211712,303.25635,-110.287834,3.664709,STN
7498977836000,1.359995,1.58860161888557,7.05392318326368,-5.18633946110448,-0.929126,0.5839872,-0.15974127,303.18982,-110.25307,3.732615,STN
7498982858000,1.365017,1.89966210019901,7.38891137084577,-5.31076348373134,-0.84391034,0.79259765,-0.11362094,303.06787,-110.241325,3.8288798,STN
7498987832000,1.369991,2.1962613270208,7.68487111291091,-5.3601959230586,-0.73456544,0.91782504,-0.053450707,302.93887,-110.299515,3.9437616,STN
7498992857000,1.375016,2.46374115134191,7.88357048165793,-5.20352915912339,-0.59406644,0.9117164,-0.0009162979,302.79395,-110.391136,4.075114,STN
7498997807000,1.379966,2.72722873947912,8.07930418818485,-5.04920070509767,-0.42760566,0.77946407,0.052839845,302.65024,-110.50949,4.253172,STN
7499002892000,1.385051,2.99563413779768,8.16390999073886,-4.73568328862202,-0.22174409,0.5494733,0.09773844,302.53992,-110.67818,4.4299946,STN
7499007800000,1.389959,3.25394488503969,8.20696163209852,-4.3817021051496,-0.007941248,0.24373524,0.13072516,302.49042,-110.89447,4.5944424,STN
7499012824000,1.394983,3.3677258308387,8.07378777604318,-3.88225301808179,0.19456059,-0.09254608,0.12522738,302.47858,-111.10083,4.7807817,STN
7499017774000,1.399933,3.43661432419556,7.89172519352294,-3.35082658773095,0.35918877,-0.4166101,0.095294975,302.54565,-111.3525,4.9360876,STN
7499022837000,1.404996,3.371007201237,7.7475935618405,-3.00127212032612,0.46700647,-0.6844745,0.08399397,302.65167,-111.57228,5.1111054,STN
7499027841000,1.41,3.28118926994658,7.61286661801143,-2.69140044025864,0.537256,-0.8594874,0.12217305,302.81952,-111.82485,5.2640862,STN
7499032846000,1.415005,3.07576738190605,7.47172162745022,-2.52473737024937,0.57971114,-0.9776898,0.16371189,303.00406,-112.0157,5.4166183,STN
7499037800000,1.419959,2.8281404038469,7.32956548177073,-2.41468095151749,0.64873886,-1.0323622,0.20372356,303.21948,-112.23342,5.564088,STN
7499042849000,1.425008,2.47935304499677,7.1165361204766,-2.53014196665948,0.7425067,-1.0180069,0.20952678,303.42682,-112.421814,5.7039914,STN
7499047851000,1.43001,2.08162333524908,6.8686007233017,-2.76774656722019,0.8353582,-0.91507614,0.18387043,303.62265,-112.627075,5.8465004,STN
7499052840000,1.434999,1.68249324099639,6.87669721338658,-3.31954970431641,0.87964594,-0.82436264,0.1423316,303.81586,-112.82514,5.942994,STN
7499057826000,1.439985,1.28298797630728,6.94933443512075,-3.95058635919376,0.7846564,-0.5665775,0.11056661,303.9322,-113.00515,6.061488,STN
7499062856000,1.445015,0.865161120469897,7.39931363994126,-4.34577474214391,0.6930266,-0.2837469,0.052839845,304.03998,-113.24067,6.106407,STN
7499068200000,1.450359,0.414249634662751,8.05564043966716,-4.6513927921488,0.43554693,-0.112399206,-0.03390302,304.10034,-113.39463,6.149253,STN
7499072841000,1.455,0.0321435998067836,8.86053927029297,-3.91712027796913,0.13591751,-0.11636983,-0.071776666,304.1865,-113.60947,6.1017847,STN
7499077884000,1.460043,-0.378647418665337,9.8444088177045,-2.6543182858763,-0.15241088,-0.14813483,-0.15088372,304.2201,-113.74214,6.036031,STN
7499082843000,1.465002,-0.623769716610404,10.8024361566132,-1.25275983099059,-0.40011674,-0.13775012,-0.23243423,304.24158,-113.7968,5.87442,STN
7499087830000,1.469989,-0.817591854257517,11.7627367771629,0.209716326544918,-0.5357288,-0.1255328,-0.310625,304.26318,-113.79805,5.694235,STN
7499092834000,1.474993,-0.704978654694856,13.196386646905,1.40689095629904,-0.5305365,-0.17440203,-0.398895,304.20993,-113.50214,5.4881887,STN
7499097858000,1.480017,-0.364154535357454,14.984402842197,2.40838949404969,-0.40439278,-0.36071593,-0.48472157,304.18378,-113.20641,5.2535167,STN
7499102842000,1.485001,-0.038446682216964,16.129787087186,0.292179802457226,-0.1777618,-0.7174612,-0.56016344,304.08624,-112.609924,5.0147867,STN
7499107826000,1.489985,0.283002131106662,17.0593824646888,-2.89190098669458,0.44073927,-1.3588698,-0.634689,304.11206,-112.17039,4.707925,STN
7499112849000,1.495008,0.614868990020258,17.7854110718627,-6.04331315545367,2.1090124,-2.0604484,-0.6215554,304.1483,-111.86382,4.450279,STN
7499117837000,1.499996,0.951020143490777,18.3303826462309,-9.12469841870135,3.8099666,-2.5980098,-0.4098906,304.3369,-111.77986,4.1824465,STN
7499122826000,1.504985,1.18958777963347,18.6672937782793,-8.83114113902681,4.0201044,-2.656042,-0.024740042,304.7768,-112.25198,3.8765013,STN
7499127857000,1.510016,1.38097170681592,18.9021747585989,-6.8346584836147,2.9239066,-2.0399845,0.35613444,305.19238,-112.82767,3.6439352,STN
7499132844000,1.515003,1.48891500465116,17.7054285988372,-4.66423907383721,1.5531249,-1.1081096,0.5390886,305.65964,-113.73046,3.4541616,STN
7499138071000,1.52023,1.49930909385382,14.654761030108,-2.14886764171512,0.6209445,-0.258396,0.48166725,305.9868,-114.4163,3.3608704,STN
7499142843000,1.525002,1.40804784697444,12.7200882839587,-0.572183876029158,0.25595254,0.34055737,0.3652974,306.02686,-114.57473,3.4613428,STN
7499147856000,1.530015,1.22634181095276,11.4122532469511,0.470943468436055,0.24831672,0.68691796,0.2593123,305.90796,-114.57562,3.612741,STN
7499152835000,1.534994,1.04586817174431,10.1132884256343,1.50699594162422,0.31398472,0.7849618,0.16890424,305.64658,-114.37921,3.823999,STN
7499157830000,1.539989,0.864814581094341,8.81014938516892,2.54637776600159,0.33292156,0.91721416,0.12736541,305.28198,-114.170044,4.0594206,STN
7499162812000,1.544971,0.608299800448886,7.64934877981651,3.35286150442333,0.32528573,1.031446,0.03940081,304.8846,-113.9696,4.262991,STN
7499167842000,1.550001,0.10848797772062,6.9180452324159,3.4370402244976,0.24281894,1.183246,-0.089186326,304.43784,-113.75269,4.4589944,STN
7499172797000,1.554956,-0.150422512563203,6.86966174394662,3.32456331714013,0.06963864,1.3845261,-0.26908615,303.90045,-113.37322,4.644564,STN
7499177865000,1.560024,-0.0717667100190658,7.8089046663489,2.92203072583413,-0.19456059,1.6447546,-0.4260785,303.29648,-112.93631,4.822026,STN
7499182772000,1.564931,0.112249769464666,9.10284789016996,2.40729664378292,-0.54519725,1.9413297,-0.5128214,302.64798,-112.44285,4.937246,STN
7499187836000,1.569995,0.550896265090945,11.325002160322,1.58784711979922,-0.90377516,2.165212,-0.4896085,301.94556,-111.86761,5.0549817,STN
7499192839000,1.574998,0.795290379688889,13.1593423483556,0.762827963637333,-1.208597,2.2064452,-0.38148534,301.2077,-111.21814,5.177578,STN
7499197845000,1.580004,0.607785866177778,14.1693097455111,-0.0979882043413333,-1.314582,2.0118847,-0.24129178,300.48083,-110.53162,5.3066936,STN
7499202948000,1.585107,0.391136140115838,15.1038771763531,-0.944136981437987,-1.1496484,1.5189165,-0.12797627,299.82092,-109.859695,5.4551773,STN
7499208189000,1.590348,-0.155192283844617,14.8582797503495,-1.41528259572199,-0.68630713,0.66431594,-0.110872045,299.3224,-109.259834,5.5558486,STN
7499212981000,1.59514,-0.629250100856004,14.6035106629154,-1.84608843101462,-0.09468412,-0.28802297,-0.12736541,299.03656,-108.83736,5.5604935,STN
7499217858000,1.600017,-0.82791136169074,14.0075274335844,-2.28479867430217,0.35918877,-0.9822713,-0.06078109,298.92688,-108.5252,5.539247,STN
7499222807000,1.604966,-1.02950549330261,13.4027456000886,-2.72998567328312,0.47586402,-1.2696834,0.051923547,299.0144,-108.35212,5.400563,STN
7499227855000,1.610014,-1.06494863294942,12.4698082608913,-3.21167347581372,0.23701571,-1.1472049,0.16584991,299.1836,-108.21552,5.2604947,STN
7499232776000,1.614935,-1.05550898692038,11.478643949324,-3.68837589598398,-0.18570304,-0.78954333,0.21594086,299.368,-108.06744,5.133371,STN
7499237837000,1.619996,-0.876725975340183,10.6862078514302,-3.60508921471813,-0.6444628,-0.46944994,0.14355333,299.57187,-107.9382,4.975088,STN
7499242827000,1.624986,-0.655545414755161,9.96515954910673,-3.37063783158382,-1.072374,-0.23182335,0.0030543262,299.69543,-107.7031,4.838611,STN
7499247840000,1.629999,-0.182138146950854,9.64216585582174,-2.9864597180377,-1.3881912,-0.13775012,-0.13072516,299.79956,-107.48192,4.697971,STN
7499252838000,1.634997,0.433351757266162,9.54942112955786,-2.51851882062709,-1.5677856,0.036651913,-0.17745635,299.8096,-107.18203,4.5732274,STN
7499257817000,1.639976,1.1150738336425,9.61500043290136,-2.06773078091464,-1.6013832,0.18661933,-0.21288654,299.76343,-106.84045,4.4665313,STN
7499262807000,1.644966,1.91862503998286,9.95791663189461,-1.64292348188926,-1.6074919,0.33841935,-0.19425514,299.66852,-106.46529,4.3792396,STN
7499267839000,1.649998,2.55138096323885,10.2663290538357,-1.32061457822386,-1.5283848,0.48075095,-0.16920967,299.45813,-106.06587,4.4115057,STN
7499272868000,1.655027,3.00331968393151,10.5365608144529,-1.10629306687627,-1.4010195,0.59406644,-0.1441642,299.21692,-105.6881,4.458539,STN
7499278103000,1.660262,3.35044288165721,10.7014727335847,-1.04733167441328,-1.2657127,0.70371675,-0.115453534,298.85846,-105.30555,4.635808,STN
7499282842000,1.665001,3.53501085125815,10.728388832246,-1.16653175787512,-1.1417072,0.81489426,-0.08155051,298.47534,-104.967026,4.8248324,STN
7499287857000,1.670016,3.68647047544512,10.7232622902334,-1.29625918219533,-0.9935723,0.88361657,-0.050701816,298.06528,-104.63819,5.066987,STN
7499292860000,1.675019,3.29306400266206,10.3008681241141,-1.47018629351772,-0.8576548,0.88147855,-0.0076358155,297.65253,-104.356026,5.3177824,STN
7499297777000,1.679936,2.90642006369058,9.88573478115817,-1.64112365237684,-0.74464476,0.79779,0.04886922,297.2678,-104.1381,5.589994,STN
7499302842000,1.685001,2.32729680337122,9.56477257484107,-1.54225519784242,-0.66431594,0.61819565,0.079107046,296.91696,-103.960144,5.85373,STN
7499307792000,1.689951,1.70174186453477,9.28624043267193,-1.35504535869775,-0.636827,0.39920044,0.110872045,296.6092,-103.81468,6.1192303,STN
7499312849000,1.695008,1.04832767080912,8.98554541570462,-1.17250981654558,-0.64904433,0.1777618,0.129198,296.372,-103.721344,6.319889,STN
7499317841000,1.7,0.39649485131867,8.68103987430334,-0.996467319093352,-0.6780604,-0.015882496,0.14844026,296.19385,-103.639656,6.513495,STN
7499322822000,1.704981,-0.139399270275229,8.40609965518251,-0.823087565149327,-0.7440339,-0.18417588,0.14844026,296.0565,-103.5232,6.629728,STN
7499327871000,1.71003,-0.625480628211009,8.14182225195198,-0.648475833869803,-0.81122905,-0.3115413,0.15393804,295.9653,-103.40593,6.741387,STN
7499332802000,1.714961,-0.979537974736842,7.9049957098568,-0.510320751102845,-0.86162543,-0.39278635,0.15210545,295.95062,-103.210846,6.7497015,STN
7499337879000,1.720038,-1.26889758157895,7.67441233467547,-0.388247180096708,-0.8924741,-0.4465425,0.1469131,295.96274,-103.008835,6.7533545,STN
7499342858000,1.725017,-1.48742643212198,7.45463582667092,-0.383591265378812,-0.8854492,-0.4700608,0.12797627,296.01254,-102.75556,6.6885815,STN
7499347817000,1.729976,-1.63377110120072,7.24268855660397,-0.504704135662523,-0.8445212,-0.48716503,0.118202426,296.0739,-102.50752,6.6231613,STN
7499352841000,1.735,-1.73106700292271,7.13727228477834,-0.848766575107885,-0.8155051,-0.5222898,0.112399206,296.15488,-102.228424,6.5147724,STN
7499357872000,1.740031,-1.79249814783248,7.1089191753825,-1.34966662282268,-0.6924158,-0.54825157,0.09712757,296.2352,-101.98197,6.401354,STN
7499362863000,1.745022,-1.66954349257133,7.22740957574018,-1.98025609368383,-0.5338962,-0.54305923,0.093462385,296.33237,-101.766174,6.269781,STN
7499367882000,1.750041,-1.3978624018482,7.46459168333034,-2.72198859891441,-0.37934732,-0.4978552,0.11789699,296.42432,-101.58346,6.143188,STN
7499372788000,1.754947,-1.01626685586169,7.63071368396573,-3.45870123577111,-0.22174409,-0.35277468,0.19333886,296.52127,-101.52048,6.018422,STN
7499377832000,1.759991,-0.365887953841289,7.65534923027336,-4.24211227718278,-0.1337795,-0.118202426,0.2489276,296.57883,-101.48127,5.9020414,STN
7499382788000,1.764947,0.227411924114196,7.68419878375664,-4.82945990977555,-0.1001819,0.14080444,0.26419923,296.61334,-101.62115,5.8381763,STN
7499387801000,1.76996,0.742565514937586,7.72200829249852,-5.08467357560543,-0.109650314,0.38056904,0.2415972,296.5891,-101.77518,5.7899556,STN
7499393450000,1.775609,1.16589369428252,7.76802481657639,-5.09456404161293,-0.13133603,0.55955255,0.24251351,296.49048,-102.132034,5.866877,STN
7499397810000,1.779969,1.30949224917892,7.80751432358353,-4.77864716086321,-0.13347405,0.64721173,0.24312437,296.36072,-102.478264,5.939916,STN
7499403151000,1.78531,1.47084656658392,7.85563602227739,-4.36281492469509,-0.12736541,0.6423248,0.26083946,296.27536,-102.83463,6.0542006,STN
7499407790000,1.789949,1.4133051416082,7.8939969722612,-3.6099807304911,-0.119729586,0.5558874,0.26206118,296.19138,-103.18143,6.1608353,STN
7499412781000,1.79494,1.33246233559328,7.93485126850947,-2.83252002846858,-0.10323623,0.40683624,0.24678956,296.09872,-103.466385,6.2962294,STN
7499417784000,1.799943,1.13231123526264,7.97317795707048,-2.25761792136699,-0.08735373,0.22479841,0.23701571,296.0434,-103.747665,6.422408,STN
7499422764000,1.804923,0.933080277907742,8.01132844858235,-1.68535877817972,-0.06536258,0.011911872,0.22143865,295.96014,-103.92661,6.551351,STN
7499427785000,1.809944,0.651339318453051,8.0636494354875,-1.22122181557532,-0.04642576,-0.23884831,0.19883664,295.9414,-104.10094,6.6574016,STN
7499432746000,1.814905,0.366719117628497,8.11203519417288,-0.819763883833124,-0.035430185,-0.49602258,0.16432275,295.98495,-104.269936,6.7377696,STN
7499437754000,1.819913,0.116029442809021,8.11667768918788,-0.782624670235214,-0.026267206,-0.7495316,0.14263703,296.04843,-104.32724,6.7808642,STN
7499442921000,1.82508,-0.134149565122291,8.11320433676675,-0.766982416583814,-0.024129177,-0.958753,0.12950343,296.17184,-104.29486,6.7726803,STN
7499447761000,1.82992,-0.263186039133028,8.00721016536091,-1.03427230682044,-0.026572637,-1.0500773,0.12217305,296.33008,-104.26236,6.7518554,STN
7499452992000,1.835151,-0.389136517443964,7.89354776643573,-1.33669328247616,-0.029932396,-1.1942415,0.11728613,296.5754,-104.207245,6.6760097,STN
7499457810000,1.839969,-0.34400711372402,7.79952824080202,-1.77670493732986,-0.042455133,-1.2840388,0.11911872,296.82803,-104.15055,6.598725,STN
7499462897000,1.845056,-0.296358031797212,7.70025938922488,-2.24128345294645,-0.048258353,-1.2858714,0.13164146,297.12234,-104.13857,6.4945016,STN
7499467811000,1.84997,0.00225559727857499,7.39255103023256,-2.72786405917862,-0.035430185,-1.2021828,0.14385876,297.41403,-104.1299,6.3914332,STN
7499472787000,1.854946,0.478561715042058,6.93510850744186,-3.24661326563088,-0.028099801,-1.0250319,0.18600847,297.6787,-104.125404,6.306952,STN
7499477851000,1.86001,0.700515620104282,6.60616167541362,-3.24293835439687,-0.021380283,-0.79534656,0.24831672,297.93628,-104.235016,6.237652,STN
7499482817000,1.864976,0.719590477739898,6.38680056363181,-2.8375973806678,-0.039095376,-0.57360244,0.28863382,298.1444,-104.34266,6.184527,STN
7499487812000,1.869971,0.653454050427584,6.19632639855849,-2.36747581136651,-0.056505036,-0.40133846,0.33414328,298.3303,-104.5979,6.2293453,STN
7499492920000,1.875079,0.520044767135483,6.02480018642252,-1.83860323273595,-0.07147124,-0.2724459,0.37568212,298.46826,-104.84841,6.2912064,STN
7499498313000,1.880472,0.367128727309109,6.03387828835241,-1.52146045324042,-0.06261369,-0.19700404,0.40133846,298.5394,-105.0533,6.3915963,STN
7499502837000,1.884996,0.231264871315082,6.16111584464908,-1.4071623025784,-0.054061573,-0.17715092,0.42577308,298.59436,-105.253815,6.502723,STN
7499507809000,1.889968,0.0819467696346441,6.30095340652066,-1.28154550216028,-0.025045475,-0.20738874,0.4538729,298.619,-105.36825,6.6153545,STN
7499512849000,1.895008,-0.0694134943374813,6.44270346923843,-1.15421069240418,0.015271631,-0.3191771,0.4813618,298.66302,-105.488335,6.7269297,STN
7499517841000,1.9,-0.299442455178726,6.73312523186241,-1.1661633035938,0.10476339,-0.5009095,0.49174652,298.7449,-105.63058,6.836696,STN
7499522827000,1.904986,-0.607684800782349,7.17018519419019,-1.31338346856152,0.24617869,-0.7287622,0.464563,298.86975,-105.79234,6.928659,STN
7499527908000,1.910067,-0.954412772748815,7.59949081990521,-1.46711226018957,0.39614612,-0.9682214,0.40439278,299.05084,-105.892845,6.9539146,STN
7499532846000,1.915005,-1.33262287617891,7.9963776943128,-1.62119789887441,0.50243664,-1.1939361,0.32589662,299.28625,-106.011086,6.949288,STN
7499537837000,1.919996,-1.67316617904564,8.39191801590595,-1.88341874384509,0.5198463,-1.3381003,0.25259277,299.58566,-106.131355,6.8632393,STN
7499542885000,1.925044,-1.95495634122703,8.78355893193045,-2.30849186267536,0.4447099,-1.4285084,0.20555615,299.9259,-106.24744,6.7491956,STN
7499547830000,1.929989,-2.20159410749251,9.06272063936064,-2.68529435564436,0.3304781,-1.450805,0.19303341,300.30664,-106.34672,6.5511127,STN
7499552877000,1.935036,-2.40439466819181,9.17377783236763,-3.0039811455045,0.27916542,-1.4559973,0.18387043,300.7004,-106.438675,6.3360844,STN
7499557778000,1.939937,-2.57542714910732,9.19621413380141,-3.17071264523571,0.18051068,-1.3857478,0.19608775,301.11954,-106.54349,6.0713687,STN
7499562902000,1.945061,-2.70831898850552,9.06824416108325,-3.09196185325978,0.10354166,-1.244638,0.19883664,301.51395,-106.64065,5.808856,STN
7499568107000,1.950266,-2.78156452008114,8.89570788548005,-2.92031818672245,0.06688975,-1.0549643,0.21044308,301.90472,-106.77558,5.521738,STN
7499572853000,1.955012,-2.77004030791075,8.68443106347194,-2.64757837835531,0.032986723,-0.8604037,0.21563543,302.24963,-106.892746,5.24866,STN
7499578098000,1.960257,-2.74827071183573,8.44893478530737,-2.35343300653006,0.029321533,-0.66614854,0.23060162,302.54947,-107.004585,4.987337,STN
7499582844000,1.965003,-2.60914527901539,8.209329377774,-2.18339069876711,0.06994407,-0.47769663,0.22785273,302.79276,-107.12036,4.740939,STN
7499587799000,1.969958,-2.46389316784287,7.95917244681575,-2.00586022363745,0.14172074,-0.34391713,0.20647246,302.97687,-107.19413,4.5221977,STN
7499592903000,1.975062,-2.09628603923989,7.76116081643648,-2.02018844923107,0.24678956,-0.2321288,0.19242255,303.11392,-107.29033,4.320335,STN
7499597847000,1.980006,-1.63250174350083,7.59883644852581,-2.13149668408267,0.40378192,-0.12461651,0.21105394,303.2152,-107.422745,4.134313,STN
7499602839000,1.984998,-1.13280623999225,7.55744661782639,-2.16624786338271,0.58032197,0.0036651916,0.23548855,303.26135,-107.56602,3.992515,STN
7499607831000,1.98999,-0.614055402155529,7.59038324228384,-2.15389666145367,0.72173727,0.14935656,0.2657264,303.27518,-107.74426,3.8689668,STN
7499612916000,1.995075,-0.14470412279892,7.65690402310391,-2.08696332437247,0.8191703,0.3191771,0.2938262,303.2454,-108.00088,3.8467467,STN
7499617854000,2.000013,0.182902797989204,7.79305216896086,-1.9040139562753,0.86284715,0.5170974,0.30940324,303.17084,-108.2785,3.8441741,STN
7499622834000,2.004993,0.475836932645714,7.9518190145957,-1.7613580365379,0.8668178,0.68936145,0.2938262,303.02332,-108.580666,3.9690816,STN
7499627864000,2.010023,0.307094283866887,8.37836321037268,-2.1363416732996,0.9108001,0.8335256,0.26419923,302.833,-108.89796,4.1067443,STN
7499633098000,2.015257,0.14273986317516,8.81613938347513,-2.51140557999298,0.9969321,0.8781188,0.22540927,302.5872,-109.18009,4.322145,STN
7499637861000,2.02002,0.130737144952197,9.1402126334532,-2.66744093360232,1.1582005,0.8396343,0.1740966,302.32574,-109.48355,4.526947,STN
7499642863000,2.025022,0.118132148825542,9.48054737970354,-2.83130590079818,1.3341297,0.7874053,0.12186762,302.0885,-109.846146,4.6745467,STN
7499647847000,2.030006,0.143291737840104,9.91121724523406,-2.81630184729015,1.4834863,0.6640105,0.09743301,301.88403,-110.23338,4.80241,STN
7499652802000,2.034961,0.181182205925741,10.3706395633297,-2.74052086166284,1.518611,0.54367006,0.042455133,301.68997,-110.62029,4.900501,STN
7499657826000,2.039985,0.218205494023523,11.0062321557431,-2.53646122024092,1.5366315,0.45998153,-0.031154128,301.52594,-111.038246,4.9673004,STN
7499662811000,2.04497,0.254430774584084,11.6990400607512,-2.28741254936925,1.4636332,0.35613444,-0.12217305,301.39633,-111.4237,4.9990993,STN
7499667842000,2.050001,0.397971508163894,12.8609048129493,-2.26418121361676,1.3836098,0.2321288,-0.23396139,301.2725,-111.75592,5.0159297,STN
7499672842000,2.055001,0.604495383703019,14.2918200419491,-2.37727763998768,1.3518448,0.07819075,-0.35033122,301.1771,-112.066185,4.992872,STN
7499677841000,2.06,0.732106180401439,15.519903569021,-3.14485227873509,1.3955216,-0.050396383,-0.4334089,301.05615,-112.265335,4.9596148,STN
7499682843000,2.065002,0.822814717818595,16.6537611155084,-4.21974869102443,1.5216653,-0.1282817,-0.5225952,300.95258,-112.46848,4.8838506,STN
7499687838000,2.069997,0.874996608309913,17.4434165408085,-5.34772598113571,1.7082846,-0.083383106,-0.6591236,300.80115,-112.61851,4.8140235,STN
7499692874000,2.075033,0.898205860105871,17.9772281785371,-6.52675536746872,1.9275852,0.083383106,-0.81214535,300.63092,-112.80926,4.7212963,STN
7499697843000,2.080002,0.919930968350582,18.2843532968952,-7.13076916649418,2.1444426,0.2657264,-0.93309665,300.49258,-113.14817,4.5933766,STN
7499702838000,2.084997,0.940558869822122,18.3668650320181,-7.16171102677878,2.3145685,0.32253686,-1.0097603,300.33554,-113.52606,4.443884,STN
7499707845000,2.090004,1.05648197037367,18.383497747331,-6.86686027846975,2.4223862,0.22296582,-1.0512991,300.24567,-114.083954,4.2664,STN
7499712854000,2.095013,1.22719455054715,18.362158694306,-6.38459718990214,2.4889705,-0.01160644,-1.0296134,300.1772,-114.662735,4.079522,STN
7499717837000,2.099996,1.47626958678698,18.2279188163068,-5.86227721179504,2.5259278,-0.30207285,-0.9599747,300.15005,-115.25209,3.887402,STN
7499722828000,2.104987,1.85109416932001,17.914709841766,-5.27180009226555,2.5937338,-0.6197228,-0.8445212,300.20038,-115.85918,3.6838367,STN
7499727862000,2.110021,2.24806399519084,17.3874896923664,-4.69914169870229,2.6633725,-0.9434814,-0.7189884,300.29593,-116.40192,3.502137,STN
7499732845000,2.115004,2.65788374558206,16.6771349892176,-4.15271547579198,2.698192,-1.2950343,-0.58001655,300.4965,-116.950836,3.3095658,STN
7499737838000,2.119997,3.00254245955414,15.8786501082803,-3.80760424012739,2.6789496,-1.6267341,-0.44990227,300.73,-117.46284,3.1763718,STN
7499742896000,2.125055,3.26286611152468,14.9530552368631,-3.73047125027866,2.6032023,-1.7638733,-0.3417791,301.0165,-117.96518,3.0482943,STN
7499747843000,2.130002,3.47272567952444,14.0805774064628,-3.77294360027436,2.482251,-1.9315559,-0.312763,301.37396,-118.42865,2.9595542,STN
7499753314000,2.135473,3.63777353553501,13.1648278504217,-3.99655672949903,2.4220808,-1.9581286,-0.27183503,301.74045,-118.8847,2.8948085,STN
7499757913000,2.140072,3.63997233983634,12.5248771202115,-4.28966793096531,2.2809708,-1.9049833,-0.2669481,302.14124,-119.33478,2.8697166,STN
7499762825000,2.144984,3.50030318227243,11.9764198972409,-4.71208228774712,2.1270328,-1.7708983,-0.29901853,302.5186,-119.75539,2.8445916,STN
7499767830000,2.149989,3.35798963715693,11.417578610399,-5.14249431048592,1.9709567,-1.5173893,-0.37720928,302.86176,-120.19536,2.8370984,STN
7499772823000,2.154982,3.05540275080997,10.962687665244,-5.60192677074401,1.865277,-1.2186762,-0.4615087,303.14587,-120.59538,2.838647,STN
7499777920000,2.160079,2.67186865485498,10.5460092749054,-6.08489548032787,1.7962493,-0.93492925,-0.5216789,303.35663,-120.95148,2.855217,STN
7499782873000,2.165032,2.25749223350913,10.295662203854,-6.30911105026369,1.7498235,-0.6786713,-0.5580254,303.49274,-121.40097,2.8564184,STN
7499787897000,2.170056,1.81343926766734,10.1297517373225,-6.39694560150101,1.7250835,-0.5207626,-0.59895337,303.574,-121.8247,2.8648357,STN
7499792905000,2.175064,1.34579540492493,10.0170980895896,-6.30101534940941,1.7171422,-0.43799037,-0.65301496,303.6481,-122.311935,2.8177638,STN
7499797866000,2.180025,0.870214428678679,9.93149352677678,-6.11553870560561,1.6978999,-0.3915646,-0.6918049,303.69077,-122.777016,2.780221,STN
7499802881000,2.18504,0.327506069768161,9.87284396290572,-5.99996554636785,1.6832392,-0.29932398,-0.74128497,303.69653,-123.276184,2.7121007,STN
7499807855000,2.190014,-0.241856552686244,9.82866941020093,-5.92143287724884,1.674687,-0.17898351,-0.7858781,303.68314,-123.759094,2.6457276,STN
7499812903000,2.195062,-1.14116238150815,9.80605829755435,-5.83152070652174,1.6823229,-0.007941248,-0.8304713,303.62112,-124.232666,2.5324817,STN
7499817880000,2.200039,-2.14957668586957,9.79218123913043,-5.73900569565217,1.6881261,0.20005837,-0.8906415,303.51715,-124.69208,2.4316876,STN
7499822892000,2.205051,-2.55787692699635,9.70018765991082,-5.64957066072152,1.6939293,0.42394048,-0.9272934,303.3564,-125.15216,2.2741876,STN
7499827861000,2.21002,-2.6591467382043,9.56998354499392,-5.56276774959465,1.6917913,0.64843345,-0.9388999,303.14578,-125.602806,2.1469607,STN
7499832843000,2.215002,-2.55149483172956,9.32271351362887,-5.39897864652246,1.6859881,0.84604836,-0.9059132,302.9149,-126.05992,1.9108198,STN
7499837836000,2.219995,-2.34740633208847,9.02121894102241,-5.19952861433699,1.6850718,1.0183123,-0.8561276,302.64215,-126.51159,1.7144384,STN
7499842830000,2.224989,-2.0636279676346,8.63464985511192,-4.99815450120992,1.6759088,1.0812315,-0.7687739,302.3592,-126.96008,1.542127,STN
7499847851000,2.23001,-1.72909733730591,8.19345745049405,-4.79452738552127,1.6530013,1.1481212,-0.71593404,302.04297,-127.39717,1.4072474,STN
7499852838000,2.234997,-1.44088712191929,7.71390957246063,-4.68836264469488,1.5793921,1.1676689,-0.61850107,301.7336,-127.811295,1.3377782,STN
7499857812000,2.239971,-1.17833183930118,7.21224123423228,-4.6367890696752,1.4651603,1.1930199,-0.5128214,301.42416,-128.19977,1.2968957,STN
7499862801000,2.24496,-0.918027543340168,6.76769992525629,-4.53073806326188,1.3234396,1.2437216,-0.42394048,301.10812,-128.56206,1.3324357,STN
7499867841000,2.25,-0.657124235381174,6.35835187679404,-4.38679148283318,1.1972959,1.3075571,-0.35277468,300.80536,-128.88905,1.394724,STN
7499872881000,2.25504,-0.38646063749002,5.99062144766819,-4.25728820533541,1.0671816,1.3408492,-0.29535335,300.50876,-129.20557,1.5169741,STN
7499877902000,2.260061,-0.105562119723493,5.67226951587966,-4.14492872587869,0.9306532,1.4025466,-0.2415972,300.21094,-129.47746,1.6688273,STN
7499882836000,2.264995,0.195307647025291,5.37490280509835,-3.99623485026094,0.8035932,1.4639386,-0.19150625,299.91043,-129.7306,1.8867073,STN
7499887878000,2.270037,0.539378736639904,5.09383078693296,-3.78785385818948,0.6737844,1.5509869,-0.12736541,299.61084,-129.9379,2.1310885,STN
7499893186000,2.275345,0.880366944802902,4.75171492626706,-3.51176851858356,0.5500842,1.616044,-0.061391957,299.31516,-130.12178,2.4495258,STN
7499897891000,2.28005,1.15991521362986,4.3990539123795,-3.2064158148993,0.45540005,1.6563611,0.032070424,299.0312,-130.27126,2.7905436,STN
7499902802000,2.284961,1.4187954390411,4.02760985759904,-2.87840305093484,0.39003745,1.6539177,0.119729586,298.74258,-130.38971,3.2081342,STN
7499907865000,2.290024,1.61177549863014,3.63716197282488,-2.51937032199185,0.3378085,1.6062702,0.2003638,298.47812,-130.47986,3.6300807,STN
7499912836000,2.294995,1.7910645335005,3.25178710742227,-2.17938635646941,0.27855456,1.5225816,0.26725355,298.1841,-130.54565,4.0939636,STN
7499917883000,2.300042,1.91711146018054,2.84940645201605,-1.90305272898696,0.21960606,1.4004086,0.3378085,297.92993,-130.59439,4.5485115,STN
7499922863000,2.305022,2.03918250036715,2.46712044086957,-1.65515537213527,0.15027285,1.2425,0.39828414,297.66824,-130.61716,5.0072985,STN
7499927942000,2.310101,2.15197231955556,2.15224894,-1.52826688688889,0.059253927,1.0729848,0.46700647,297.45297,-130.61877,5.4523487,STN
7499932806000,2.314965,2.25947090342732,1.85961700251071,-1.4238557175949,-0.031154128,0.89552844,0.5326745,297.26288,-130.612,5.894236,STN
7499937853000,2.320012,2.3654140055395,1.65254634126731,-1.50090520983362,-0.16768251,0.80664754,0.5720753,297.09906,-130.56955,6.3275614,STN
7499942892000,2.325051,2.46851399727564,1.4640389525641,-1.58474153274573,-0.33475417,0.64568454,0.6270532,296.9976,-130.51685,6.7482686,STN
7499947862000,2.330021,2.54479088643162,1.45132615982906,-1.73305758073362,-0.41722095,0.50426924,0.64599,296.91205,-130.45293,7.1560583,STN
7499952835000,2.334994,2.62111381797543,1.43860569337607,-1.88146315551104,-0.5983425,0.3707952,0.6948592,296.88394,-130.3544,7.563408,STN
7499957880000,2.340039,2.6567110815047,1.5904485984611,-2.09434592117412,-0.7861836,0.24862215,0.729984,296.88565,-130.23611,7.948203,STN
7499962786000,2.344945,2.68349004932079,1.76897550107343,-2.31304139202052,-0.9859365,0.14385876,0.76144356,296.92123,-130.07196,8.3219385,STN
7499967873000,2.350032,2.66703893778748,2.10811866174673,-2.56396358212518,-1.1801916,0.024740042,0.81397796,297.00067,-129.89505,8.691863,STN
7499972846000,2.355005,2.63468784755944,2.49633203403202,-2.81815086440563,-1.3970488,-0.08735373,0.88239485,297.11032,-129.66698,9.055045,STN
7499977881000,2.36004,2.43708020057437,2.88973199023579,-3.12809839483071,-1.6255124,-0.1731803,0.93767816,297.24982,-129.40735,9.405491,STN
7499982850000,2.365009,2.16375610959291,3.27813980358726,-3.45896434699718,-1.8460348,-0.22968534,0.9828822,297.41776,-129.1036,9.753916,STN
7499987877000,2.370036,1.77966800498056,3.60902335654508,-3.79952505023144,-2.0525072,-0.23426682,1.0155635,297.59058,-128.75162,10.086676,STN
7499992931000,2.37509,1.34503420468432,3.91371498961304,-4.14454369185336,-2.2492058,-0.18295415,1.0210613,297.7641,-128.35486,10.4213705,STN
7499997883000,2.380042,0.913308850754899,4.13328258657244,-4.40148161147874,-2.4071145,-0.12217305,1.0036516,297.92148,-127.94618,10.69038,STN
7500002881000,2.38504,0.472535792688725,4.28704084664311,-4.59111640286969,-2.542421,-0.06719518,0.9728029,298.06137,-127.502304,10.961355,STN
7500007850000,2.390009,0.0917838727261975,4.33205820272028,-4.54209078385571,-2.6422975,-0.053450707,0.929126,298.1215,-127.09227,11.108598,STN
7500012886000,2.395045,-0.264727065448453,4.32255125125173,-4.370965558151,-2.7128525,-0.073303826,0.8604037,298.16205,-126.65994,11.244782,STN
7500017878000,2.400037,-0.571271979225807,4.29189252258064,-4.00983989483871,-2.719572,-0.1563815,0.7840455,298.213,-126.263504,11.308597,STN
7500022897000,2.405056,-0.852750262181638,4.248955288933,-3.53752897967246,-2.6823094,-0.2782491,0.675617,298.2586,-125.86106,11.341649,STN
7500027896000,2.410055,-1.12372542342868,4.3189363360388,-3.22803048614273,-2.6099217,-0.3494149,0.52320606,298.37262,-125.40441,11.309659,STN
7500032844000,2.415003,-1.38638184655053,4.45495466683163,-3.01696726013065,-2.564107,-0.30573806,0.35308012,298.4627,-124.94995,11.250444,STN
7500037869000,2.420028,-1.59336593473665,4.75242115621667,-3.03525916143699,-2.581822,-0.22693644,0.18936823,298.56427,-124.38599,11.137911,STN
7500042978000,2.425137,-1.76273002558705,5.16438780168397,-3.21377791686781,-2.6120598,0.0067195175,0.02687807,298.58682,-123.82448,11.018933,STN
7500047827000,2.429986,-1.93078017810909,5.80943263030303,-3.28294550985859,-2.6331346,0.26267207,-0.049480084,298.57758,-123.1929,10.868021,STN
7500052833000,2.434992,-2.11286095861818,6.77407366060606,-3.23645686105051,-2.6832256,0.5045747,-0.20647246,298.47464,-122.530685,10.693049,STN
7500058189000,2.440348,-2.30378457690192,7.77616531527039,-3.18528635415215,-2.7693577,0.7470882,-0.3472769,298.3117,-121.83961,10.508024,STN
7500062829000,2.444988,-2.40153653290559,8.12236987769019,-3.11604539063245,-2.8790078,0.9663888,-0.46120325,298.0745,-121.125916,10.323665,STN
7500067793000,2.449952,-2.506114272044,8.49274906903758,-3.04196949776352,-2.9901853,1.1499538,-0.5308419,297.72256,-120.240005,10.105775,STN
7500072894000,2.455053,-2.47102733723865,8.46228288355479,-2.98379533380483,-3.0702088,1.2822062,-0.5674938,297.31882,-119.339325,9.890352,STN
7500078574000,2.460733,-2.39071662237463,8.30943334504929,-2.92420995075011,-3.0934217,1.3390167,-0.55955255,296.88654,-118.43615,9.682218,STN
7500082943000,2.465102,-2.32894241229699,8.19186298699814,-2.87837746156594,-3.0653217,1.3359623,-0.5354234,296.41998,-117.47502,9.459039,STN
7500087867000,2.470026,-2.25932094046769,8.05935750678668,-2.82672280907272,-2.9718595,1.2754866,-0.48075095,295.96228,-116.5457,9.244369,STN
7500092942000,2.475101,-2.06509273702111,7.67954302690807,-2.99903488417525,-2.819143,1.1343768,-0.42638394,295.54074,-115.656845,9.025814,STN
7500097896000,2.480055,-1.79932939353806,7.15750812861859,-3.30751021127338,-2.6535985,0.904386,-0.4541783,295.15933,-114.80908,8.782589,STN
7500102888000,2.485047,-1.4474149701242,6.82892174503686,-3.99757077466424,-2.452013,0.7067711,-0.49877146,294.82184,-114.037155,8.569051,STN
7500107858000,2.490017,-1.04368628711905,6.62705733829143,-4.92518561693426,-2.2333233,0.5513059,-0.5360342,294.53537,-113.32517,8.330649,STN
7500112916000,2.495075,-0.573912839172541,6.68716441927674,-6.13075013873736,-1.9721785,0.5152648,-0.5308419,294.32944,-112.81788,8.136598,STN
7500117883000,2.500042,-0.0782609781612014,6.90097502061498,-7.46706630830524,-1.670411,0.55771995,-0.49632803,294.145,-112.38885,7.936072,STN
7500122859000,2.505018,0.361810552327044,7.21308217358491,-8.63394296100629,-1.3582588,0.6414085,-0.43982297,294.06335,-112.32763,7.8554025,STN
7500127932000,2.510091,0.781947772872445,7.58070238301887,-9.73680304092964,-1.0567969,0.70341134,-0.38698313,293.98117,-112.34736,7.7879896,STN
7500132841000,2.515,1.19054039807654,8.05510957812062,-10.6157970456822,-0.7959574,0.61941737,-0.3295618,294.05505,-112.86873,7.9479814,STN
7500137872000,2.520031,1.61047021140553,8.6101890516129,-11.4073890103687,-0.53878313,0.50701815,-0.258396,294.1338,-113.43609,8.107216,STN
7500142957000,2.525116,2.04173277564576,9.22398434686347,-11.2313324760148,-0.39278635,0.08552113,-0.23365596,294.46304,-114.163155,8.210501,STN
7500148620000,2.530779,2.52624223931831,9.94021581879977,-10.4308384456205,-0.036957346,-1.0409144,-0.13744467,295.01495,-114.977394,8.234742,STN
7500152860000,2.535019,2.74035693548387,10.3100502580645,-8.67782227419355,0.44073927,-1.5848899,-0.11453723,295.56696,-115.84875,8.213114,STN
7500157824000,2.539983,2.90822796957435,10.6503291891582,-5.98281133966406,0.5204572,-2.8478537,-0.118202426,296.57748,-116.66551,7.9743342,STN
7500162846000,2.545005,3.01620421234909,11.2303048666871,-3.7837712808983,0.4370741,-4.1153994,-0.14966199,297.60892,-117.35631,7.7377095,STN
7500167842000,2.550001,3.05536587001228,12.0673853311848,-2.17814433901166,0.062002823,-4.946481,-0.15088372,298.81705,-117.954506,7.3836412,STN
7500172822000,2.554981,3.16802464595229,12.911531484279,-1.21558121317492,-0.4718934,-5.0998087,-0.11789699,299.90887,-118.019516,7.0937905,STN
7500177861000,2.56002,3.35114858941091,13.7748303740513,-0.840613115493314,-1.0094548,-4.6859474,-0.071776666,301.03287,-117.98342,6.7686834,STN
7500182772000,2.564931,3.68689558774114,14.7518708111667,-0.668677557587017,-1.4630222,-3.9449677,-0.09712757,301.92773,-117.46303,6.447705,STN
7500187836000,2.569995,4.41457264243136,16.088420492906,-0.960738374147188,-1.6945401,-3.0524936,-0.13652839,302.67056,-116.88313,6.2193613,STN
7500192877000,2.575036,5.30725867271754,17.1740610489585,-2.73579384006229,-1.5793921,-1.9343048,-0.05131268,303.11688,-116.16713,6.1702476,STN
7500197845000,2.580004,6.49276181657582,17.7992278054312,-7.18143102846019,-0.8582657,-0.258396,0.16310102,303.19464,-115.59882,6.3266096,STN
7500202771000,2.58493,6.93345256522748,18.335327654595,-9.830218392414,0.929126,1.2504412,0.30665436,302.97656,-115.381256,6.688865,STN
7500207829000,2.589988,5.47240066495511,18.6676075892263,-7.9684764059316,3.2675183,1.2788464,0.22510384,302.71094,-115.541885,7.0551887,STN
7500212777000,2.594936,4.12064866251751,18.7426753378027,-5.66608319098459,4.373184,0.5021312,0.22052236,302.52982,-116.384796,7.5674825,STN
7500218179000,2.600338,2.84205401751051,18.1887898026816,-1.92865238459075,3.520111,0.07788532,0.30604348,302.26093,-117.28025,8.092749,STN
7500222827000,2.604986,1.7859546821238,17.3462497108666,-0.0993221553370013,1.8277088,0.19181168,0.3567453,302.06363,-117.94512,8.428982,STN
7500227863000,2.610022,0.737790911420449,15.6346913372765,-1.14306321894085,0.52656585,0.6389651,0.3191771,301.896,-118.45478,8.739239,STN
7500232836000,2.614995,-0.154046350683657,14.0258241233819,-1.9691591832322,0.051923547,1.074512,0.33841935,301.55112,-118.38039,9.011749,STN
7500237837000,2.619996,-0.0862358151557443,12.955386575445,-1.42183134351739,0.116675265,1.2198979,0.38056904,301.16724,-118.11142,9.292706,STN
7500242845000,2.625004,-0.033588495675359,11.8900825479025,-0.791812101899093,0.19456059,1.3738359,0.4529566,300.82492,-117.92313,9.491173,STN
7500247846000,2.630005,-0.0652641624973545,10.8628859365079,0.289685758730159,0.35888332,1.3478742,0.42332962,300.48492,-117.77129,9.664605,STN
7500253042000,2.635201,-0.125165637676718,9.78054717347837,1.32040679089818,0.46578476,1.2760975,0.31520647,300.1097,-117.62456,9.871566,STN
7500257832000,2.639991,-0.495729790075342,8.60648254442934,1.18465555511477,0.48472157,1.2385293,0.16523905,299.7239,-117.4891,10.055783,STN
7500262798000,2.644957,-0.879909660808446,7.3892790062545,1.0439163824842,0.4382958,1.2690725,0.0033597588,299.27875,-117.284355,10.23866,STN
7500267836000,2.649995,-0.870906730715141,7.25181807948188,0.205574545945358,0.3549127,1.3805555,-0.15760323,298.80344,-117.05516,10.383976,STN
7500272842000,2.655001,-0.510836697154675,8.0815440801132,-1.23992389239142,0.22327125,1.5992452,-0.31031954,298.27338,-116.780945,10.5018835,STN
7500277852000,2.660011,-0.210056936262754,9.57929092517734,-1.91696668829074,0.07513642,1.8536706,-0.4034765,297.74838,-116.5578,10.557463,STN
7500282846000,2.665005,0.0641406937440482,11.3592522984161,-2.26087562786901,-0.09132435,2.07572,-0.39828414,297.16858,-116.28511,10.616891,STN
7500287877000,2.670036,0.180843802335469,12.9737955026208,-2.45377097757717,-0.27580565,2.1777346,-0.31764993,296.6336,-116.08562,10.684945,STN
7500292891000,2.67505,0.208810080885265,14.4839746319161,-2.56097503805086,-0.3827071,2.1273382,-0.17898351,296.09167,-115.870186,10.774528,STN
7500297843000,2.680002,0.0697230593481658,15.2072392155925,-2.36759411066471,-0.4007276,1.8747455,-0.0421497,295.5758,-115.58223,10.871713,STN
7500302835000,2.684994,-0.189598233037602,15.3874459637768,-1.95883339031902,-0.33414328,1.4367551,0.018020526,295.13504,-115.30051,10.954089,STN
7500307819000,2.689978,-0.361500882990593,15.3216394154452,-1.44229097215489,-0.30879238,0.8179486,-0.004581489,294.78888,-114.94224,10.977973,STN
7500312848000,2.695007,-0.403646378433603,14.8843793625027,-0.757426723465325,-0.419359,0.112704635,-0.04184427,294.59415,-114.581245,10.954375,STN
7500317837000,2.699996,-0.367078796406157,14.2551323291889,-0.227625401197948,-0.6453791,-0.6261369,-0.050701816,294.54303,-114.136734,10.8350315,STN
7500322849000,2.705008,-0.272350245618709,13.4783583848431,0.19391662853957,-0.9868528,-1.3170254,-0.03359759,294.67218,-113.644684,10.646968,STN
7500327853000,2.710012,-0.0996029503692368,12.673960608451,0.182502025959127,-1.3808609,-1.8759671,-0.015271631,294.9267,-113.04166,10.416125,STN
7500332844000,2.715003,0.13634256123408,11.8481513942146,-0.180854067724356,-1.7333301,-2.0821342,0.0033597588,295.27643,-112.37883,10.163648,STN
7500337840000,2.719999,0.466619246112109,11.0564636891011,-0.843992011509594,-1.9737056,-2.3322835,0.0106901415,295.76978,-111.65453,9.897445,STN
7500342859000,2.725018,0.884623916531808,10.293150599395,-1.78450257807165,-2.0350976,-2.3558018,0.031154128,296.26007,-110.906654,9.653117,STN
7500347838000,2.729997,1.33466877982714,9.61434229092043,-2.5968327994832,-2.0387628,-2.1664336,0.036651913,296.79474,-110.22149,9.450604,STN
7500352847000,2.735006,1.83903361710773,9.04586341406041,-3.23797444496124,-1.8765781,-1.8078557,0.07147124,297.28873,-109.58482,9.2841425,STN
7500357798000,2.739957,2.32907261636716,8.50308830958786,-3.77405428457979,-1.5897768,-1.3622295,0.12461651,297.78516,-109.191956,9.228694,STN
7500362821000,2.74498,2.77941961872377,8.0579179754654,-3.77923068255676,-1.2702943,-0.8539896,0.1731803,298.15747,-108.86524,9.221845,STN
7500367939000,2.750098,3.10924494675835,7.64767314931238,-3.73792732888016,-1.0259482,-0.27458394,0.20555615,298.4415,-108.84919,9.44388,STN
7500372823000,2.754982,3.15737891655908,7.34574151866405,-3.60227695896716,-0.8671232,0.30298916,0.21044308,298.5737,-108.893654,9.7001915,STN
7500377816000,2.759975,3.17389202965974,7.07987282485195,-3.42947049225133,-0.75319684,0.8032878,0.21410827,298.5567,-108.946075,9.970775,STN
7500382812000,2.764971,3.02021711559771,7.0366516831878,-3.07889957260865,-0.6606508,1.1716396,0.22815818,298.41663,-109.03579,10.274976,STN
7500387828000,2.769987,2.82141705838058,7.00878106921317,-2.74129204692132,-0.57787853,1.3610078,0.28252518,298.18698,-109.14793,10.61633,STN
7500392812000,2.774971,2.40834826466726,7.05626020101462,-2.47540876010146,-0.48197266,1.4086553,0.3213151,297.89764,-109.28604,10.969163,STN
7500397828000,2.779987,1.97585237079027,7.1228385981155,-2.18992753404255,-0.36926803,1.3753631,0.33169982,297.56107,-109.4298,11.34505,STN
7500403098000,2.785257,1.42871301506586,7.29669595150962,-1.79107823617021,-0.28863382,1.2486086,0.3304781,297.24417,-109.59046,11.71605,STN
7500407752000,2.789911,0.913320321129326,7.48251239981785,-1.44804278032787,-0.26053402,1.0705414,0.31948254,296.96158,-109.74402,12.065566,STN
7500412781000,2.79494,0.20176223581866,7.83829150354179,-1.12150587140255,-0.3032946,0.8509353,0.2910773,296.72873,-109.88986,12.386104,STN
7500417760000,2.799919,-0.477483722464822,8.19565909528756,-0.846829741212579,-0.4334089,0.6065892,0.2510656,296.51755,-109.876945,12.560769,STN
7500422740000,2.804899,-1.05399137901407,8.57399236188498,-0.770262323514968,-0.59803706,0.34238997,0.20372356,296.37262,-109.841255,12.704392,STN
7500427745000,2.809904,-1.61325949202605,8.94523955177199,-0.724543506116567,-0.81306165,0.21288654,0.1572978,296.23566,-109.64245,12.715758,STN
7500432757000,2.814916,-1.92580611068531,9.20654890318104,-1.06270867814902,-0.98532563,-0.05131268,0.13958271,296.21042,-109.41637,12.691066,STN
7500437843000,2.820002,-2.17808817917932,9.39635079512291,-1.41215933736167,-1.0604621,-0.32253686,0.113926366,296.22266,-109.08548,12.549394,STN
7500442789000,2.824948,-2.19664340503379,9.31749089148957,-1.77398643527568,-1.1187997,-0.59895337,0.07941248,296.30933,-108.72008,12.381658,STN
7500447763000,2.829922,-2.16271008600683,9.19785255085324,-2.14065392470015,-1.0711522,-0.84238315,0.040927973,296.4978,-108.36482,12.137055,STN
7500452834000,2.834993,-1.85489346313993,8.86635799249147,-2.52897646778157,-0.95814216,-1.0051788,0.03359759,296.7405,-108.01503,11.880896,STN
7500457846000,2.840005,-1.50943963382263,8.51876108385124,-2.89936154997534,-0.8188649,-1.0500773,0.04062254,297.063,-107.727776,11.60332,STN
7500462789000,2.844948,-0.893020929296636,8.04243766844234,-3.17488199039163,-0.65270954,-0.97494096,0.08155051,297.39682,-107.480484,11.333748,STN
7500467796000,2.849955,-0.26775307519645,7.5602877516964,-3.45236843180179,-0.5174029,-0.766025,0.14630222,297.74557,-107.35943,11.129153,STN
7500473525000,2.855684,0.457565463008228,7.01249445731719,-3.75162571537395,-0.36254853,-0.49296826,0.20922135,298.05414,-107.29005,10.946804,STN
7500478290000,2.860449,1.05363175806247,6.5601619194115,-3.9986406558986,-0.20830505,-0.19822577,0.25259277,298.32056,-107.391556,10.911466,STN
7500482879000,2.865038,1.38786705469443,6.23388468418289,-4.17371634484382,-0.038179077,0.070554934,0.2941316,298.5189,-107.5417,10.908264,STN
7500487827000,2.869986,1.74824976285197,5.88208260095971,-4.36248830145767,0.13652839,0.3359759,0.34330627,298.66278,-107.947876,11.134427,STN
7500492910000,2.875069,1.85550678416582,5.74847597917088,-4.54420358998989,0.2938262,0.593761,0.40775254,298.73816,-108.37963,11.3781595,STN
7500497781000,2.87994,1.8649402710819,5.70130854459049,-4.71400645298281,0.41996986,0.8445212,0.46883908,298.7474,-108.83251,11.637472,STN
7500502838000,2.884997,1.70356360695882,5.83973134412961,-4.59832040325459,0.50243664,1.0531317,0.5222898,298.72366,-109.27283,11.8816395,STN
7500507836000,2.889995,1.48492452560845,6.04128925839697,-4.38309748397688,0.52931476,1.1976013,0.548557,298.65268,-109.72643,12.14394,STN
7500513571000,2.89573,1.21442087217958,6.29332356341079,-4.10958175151929,0.52656585,1.2635747,0.5503896,298.5673,-110.205666,12.408027,STN
7500517874000,2.900033,0.846135196036169,6.65727628911786,-3.68063734808117,0.52503866,1.2250903,0.5345071,298.47504,-110.683784,12.672493,STN
7500522985000,2.905144,0.397507726290049,7.08655293071165,-3.16662725542469,0.51068336,1.0543534,0.4868596,298.4119,-111.104454,12.916399,STN
7500527907000,2.910066,-0.171768858119573,7.46293417846092,-2.6161697677912,0.4831944,0.7696902,0.4373795,298.39438,-111.50521,13.133325,STN
7500533007000,2.915166,-0.752687217900267,7.8285543401696,-2.04868291257259,0.43279803,0.408058,0.37507126,298.3866,-111.76596,13.25101,STN
7500537877000,2.920036,-1.19977552769841,7.88444038450548,-1.54140959051525,0.3631594,0.21135938,0.3463606,298.41312,-112.00671,13.349595,STN
7500542948000,2.925107,-1.66531655829109,7.94263301917227,-1.01319952559683,0.33658674,-0.17501289,0.28008172,298.50513,-112.08595,13.283968,STN
7500547841000,2.93,-1.89824719155565,7.65777490479606,-0.525497595827014,0.26297748,-0.50518554,0.24404067,298.6369,-112.13758,13.205334,STN
7500552837000,2.934996,-2.10908617380611,7.32435539157614,-0.0302712682012707,0.19120082,-0.7538077,0.22357668,298.84888,-112.17399,13.085643,STN
7500557871000,2.94003,-2.1616350665196,6.81714443042214,0.267560021797553,0.12217305,-0.9309586,0.23426682,299.0774,-112.08468,12.887629,STN
7500562798000,2.944957,-2.19948517669708,6.30616754779906,0.541973514739597,0.09407325,-1.0772609,0.23090707,299.36267,-111.98298,12.661289,STN
7500567880000,2.950039,-2.01250880866555,5.94482959333267,0.432364075457513,0.099571034,-1.2568552,0.24373524,299.6674,-111.81845,12.42012,STN
7500572803000,2.954962,-1.81196427487387,5.60903394992581,0.292449288970225,0.1518,-1.459357,0.23976462,300.0166,-111.65538,12.158766,STN
7500577910000,2.960069,-1.50724443733255,5.39321715627261,-0.431318734232913,0.24465153,-1.6313156,0.23671028,300.38962,-111.49261,11.903638,STN
7500582777000,2.964936,-1.20644446831916,5.20179924077442,-1.18331863297155,0.37323865,-1.702176,0.258396,300.7915,-111.354034,11.645062,STN
7500587861000,2.97002,-0.888774338946117,5.11419896697702,-1.97340275429873,0.51343226,-1.6132951,0.30024028,301.21457,-111.29501,11.422755,STN
7500592825000,2.974984,-0.577998634825673,5.04827659463154,-2.74563329479002,0.5900958,-1.368949,0.3463606,301.6145,-111.25544,11.2142315,STN
7500597882000,2.980041,-0.491125654322191,5.06508816378521,-2.9679720022415,0.57818395,-0.999681,0.3848451,302.04245,-111.38985,11.058752,STN
7500602838000,2.984997,-0.449495785615437,5.09746700958971,-3.0789850015593,0.464563,-0.55955255,0.38820487,302.38144,-111.51948,10.9327755,STN
7500607863000,2.990022,-0.64933896370502,5.14485215157708,-2.796412337761,0.28313604,-0.1518,0.36957347,302.7182,-111.80675,10.889022,STN
7500612884000,2.995043,-0.914223815059973,5.19612033123056,-2.40762968298534,0.10415252,0.21074851,0.35460728,302.94473,-112.06379,10.87962,STN
7500617879000,3.000038,-1.19658451929989,5.24370333946193,-1.82567244327724,-0.06261369,0.45478916,0.34208453,303.10287,-112.29801,10.897811,STN
7500622916000,3.005075,-1.49722880212943,5.28879984585021,-1.07406172050691,-0.16401732,0.5345071,0.32620203,303.2052,-112.497154,10.926288,STN
7500627886000,3.010045,-1.69153938802722,5.39124741018872,-0.476573790966278,-0.17867808,0.43004912,0.29138273,303.24298,-112.56189,10.8990755,STN
7500632845000,3.015004,-1.82377280807466,5.52837825824482,0.0327697220470249,-0.08368854,0.32834008,0.27091873,303.25906,-112.6282,10.878405,STN
7500637861000,3.02002,-1.79550204389837,5.76863440354228,0.279086125759458,0.007941248,0.014660766,0.22266038,303.27835,-112.53603,10.784296,STN
7500642927000,3.025086,-1.68752850306009,6.06106277071588,0.396057449140393,0.2947425,-0.41783184,0.16676621,303.35593,-112.51264,10.660293,STN
7500647840000,3.029999,-1.49673311927966,6.54322736652542,0.225712359758475,0.6560693,-0.8753699,0.07849618,303.4614,-112.42082,10.482722,STN
7500652875000,3.035034,-1.22090285842161,7.22258700900424,-0.213572930352754,1.0479393,-1.2895365,-0.021991149,303.66675,-112.40033,10.248632,STN
7500657845000,3.040004,-0.902360337437206,8.18324039285714,-1.29316211679749,1.4202617,-1.600467,-0.10048734,303.9326,-112.42146,9.98757,STN
7500662809000,3.044968,-0.557196877264521,9.31201853571429,-2.74844591799058,1.7336355,-1.777007,-0.17531833,304.2643,-112.51707,9.67328,STN
7500667873000,3.050032,-0.12231620527512,10.5395942828947,-5.01607299638158,2.0173824,-1.6664404,-0.22479841,304.61203,-112.74217,9.367922,STN
7500672908000,3.055067,0.367950999649123,11.8133278245614,-7.81828623596491,2.21683,-1.2247849,-0.25137106,304.90955,-113.023476,9.066255,STN
7500677886000,3.060045,0.853590667928599,12.9773833407219,-9.27491516398588,2.2843306,-0.6261369,-0.27885997,305.24686,-113.56016,8.778045,STN
7500682877000,3.065036,1.34113241066104,14.0790398784818,-9.83277542683405,2.1820107,-0.1600467,-0.32345316,305.48862,-114.09476,8.515396,STN
7500687863000,3.070022,1.69988507812801,15.229830485348,-9.45569504125699,1.9865338,0.04734206,-0.38881573,305.8913,-115.07411,8.302384,STN
7500693075000,3.075234,1.9645166661365,16.4760044120879,-8.25763640543667,1.7852536,0.14630222,-0.4728097,306.17224,-115.96894,8.111899,STN
7500697877000,3.080036,1.86853618793439,17.4673075375776,-7.48897620683903,1.6716328,0.18234327,-0.57726765,306.37234,-116.78351,7.989687,STN
7500702852000,3.085011,1.40935350792327,18.3282748320823,-7.04745429274395,1.6814066,0.15210545,-0.7275405,306.53214,-117.52103,7.837571,STN
7500707828000,3.089987,1.0343974206284,18.8513170227949,-6.70886436574597,1.8255708,0.06414085,-0.9193522,306.46326,-117.93086,7.7094293,STN
7500712915000,3.095074,0.844310714919396,18.611207384331,-6.59881404949173,2.0665572,-0.05131268,-1.0690142,306.3952,-118.3526,7.5477524,STN
7500717779000,3.099938,0.872482962665209,18.3709777781974,-6.35847222796383,2.2925773,-0.15210545,-1.1582005,306.26797,-118.65602,7.278884,STN
7500722867000,3.105026,1.29375207064494,18.0998161476697,-5.85488612600616,2.450486,-0.23182335,-1.1484267,306.16104,-119.00603,6.9927998,STN
7500728595000,3.110754,1.93158128818261,17.6061622199942,-5.2860223461501,2.5008824,-0.258396,-1.0604621,306.0711,-119.3955,6.684249,STN
7500732902000,3.115061,2.56998513686362,17.0520756630001,-4.8564048608975,2.4593434,-0.31306845,-0.9819659,306.00977,-119.80278,6.3702016,STN
7500737774000,3.119933,3.25056926019946,16.3484660382794,-4.19870380556059,2.4126122,-0.38423425,-0.82772243,305.93777,-120.19369,6.1710873,STN
7500742920000,3.125079,3.86119837896646,15.4052182864914,-3.05687669845875,2.2864685,-0.50854534,-0.65148777,305.91034,-120.55465,5.9848247,STN
7500747779000,3.129938,4.33685219001996,14.5397950239521,-2.18177615041916,2.13925,-0.79198676,-0.4908302,305.91843,-120.892685,5.9262395,STN
7500752878000,3.135037,4.59514605518962,13.6918114775449,-1.74803765398204,1.921782,-1.2767084,-0.35643986,306.03204,-121.18051,5.85391,STN
7500757825000,3.139984,4.70353774750568,12.9073745169416,-1.71852355031117,1.6245961,-1.7916678,-0.24556783,306.18616,-121.35648,5.8842335,STN
7500763031000,3.14519,4.47698278956831,12.173533712437,-2.62474317635088,1.3106114,-2.1716259,-0.16401732,306.44196,-121.471725,5.884757,STN
7500767816000,3.149975,4.2072924753732,11.675934708572,-3.55977754004319,1.0317514,-2.2385156,-0.19730948,306.73987,-121.52739,5.908425,STN
7500772856000,3.155015,3.76318609212281,11.6124910882546,-4.81052610449723,0.80481493,-2.0787745,-0.28619036,307.07333,-121.512794,5.9141626,STN
7500777887000,3.160046,3.29830592623211,11.6533677798092,-5.89897443402226,0.63591075,-1.7458528,-0.45142943,307.44806,-121.57317,5.8658566,STN
7500782871000,3.16503,2.72443596375199,12.2414659133545,-6.13611061844197,0.5839872,-1.3558154,-0.548557,307.75616,-121.6022,5.8441324,STN
7500787850000,3.170009,2.03908124546621,12.7730744680809,-6.38792469551061,0.6215554,-1.1047498,-0.59528816,308.06116,-121.756424,5.733275,STN
7500792925000,3.175084,0.63879806145042,12.9648939451406,-6.73799554158855,0.65668017,-1.0305296,-0.64934975,308.29254,-121.887695,5.627887,STN
7500798502000,3.180661,-0.827882039424514,13.0874418607997,-7.13236265579223,0.6243043,-0.9288206,-0.74067414,308.44412,-121.980896,5.438729,STN
7500802886000,3.185045,-1.77708823912556,12.9344708144619,-7.46968385100897,0.58032197,-0.7654142,-0.87017757,308.54642,-122.07552,5.250557,STN
7500808194000,3.190353,-2.89854093002286,12.7485229526292,-7.8438059022588,0.5665775,-0.48899764,-1.0183123,308.62537,-122.19128,4.8647194,STN
7500812902000,3.195061,-3.26963224956561,12.5671007000457,-7.40674273708276,0.61086524,-0.16554448,-1.1801916,308.62872,-122.30738,4.484962,STN
7500817774000,3.199933,-3.65365028457247,12.3793587258345,-6.9544547717604,0.62949663,0.08399397,-1.3191634,308.62567,-122.47368,3.9494755,STN
7500822877000,3.205036,-3.55668988930481,12.1579233399542,-6.61983974159664,0.6035349,0.30909783,-1.3860532,308.53302,-122.64163,3.450744,STN
7500827833000,3.209992,-3.3210082368984,11.9358385057296,-6.33430230042017,0.5723807,0.4447099,-1.3924674,308.38782,-122.8154,2.970367,STN
7500832872000,3.215031,-2.82102601376045,11.5205638815352,-5.96263730331419,0.56596667,0.7635816,-1.361924,308.13467,-122.957184,2.503393,STN
7500837844000,3.220003,-2.2118573951647,11.0265132656392,-5.55972249078271,0.6044512,1.0500773,-1.2861768,307.86298,-123.10927,2.073116,STN
7500842883000,3.225042,-1.49723131819154,10.315836516292,-5.03477676410815,0.6899723,1.2654073,-1.1734722,307.52148,-123.25889,1.7417647,STN
7500847869000,3.230028,-0.750029832249183,9.52607278231158,-4.46728216468258,0.7965683,1.3732251,-1.0409144,307.15482,-123.428215,1.4686651,STN
7500852872000,3.235031,-0.0035552271758989,8.74386325325559,-4.03040339996113,0.90194255,1.4132367,-0.893085,306.73932,-123.607315,1.3403763,STN
7500857881000,3.24004,0.742337464890185,7.96533808960156,-3.65279509146744,0.94959,1.3952162,-0.75502944,306.33612,-123.798584,1.2526764,STN
7500862808000,3.244967,1.37830530493159,7.22059162119665,-3.4753452852767,0.95417154,1.3918564,-0.61636305,305.9046,-123.99271,1.3231561,STN
7500867776000,3.249935,1.96124481475393,6.48220174788646,-3.41219355450276,0.90408057,1.4248432,-0.4831944,305.49573,-124.1805,1.428829,STN
7500872890000,3.255049,2.3951653330243,5.86132450088807,-3.43761564820923,0.8014552,1.4804319,-0.3472769,305.08832,-124.3664,1.7022737,STN
7500877914000,3.260073,2.7379303438177,5.32135202145018,-3.50804676443837,0.6536258,1.5494597,-0.20647246,304.6989,-124.52003,2.013346,STN
7500882871000,3.26503,2.90535390356955,4.97436307038239,-3.4212658497632,0.50335294,1.5442673,-0.07269296,304.33133,-124.68773,2.4422207,STN
7500887873000,3.270032,2.97257456287493,4.73488918371338,-3.24061012224171,0.36102137,1.4724907,0.06352998,303.9933,-124.81194,2.8979943,STN
7500892848000,3.275007,2.9529616487709,4.51929217649951,-3.03175149164208,0.22174409,1.3164146,0.17287487,303.64862,-124.92418,3.3614829,STN
7500897843000,3.280002,2.76481561189774,4.34682497148476,-2.76521124090462,0.0870483,1.1429288,0.25045475,303.34683,-124.99923,3.8308294,STN
7500902842000,3.285001,2.58595487203115,4.30890425806919,-2.67116004088254,-0.008552114,1.0088439,0.3036,303.0703,-125.043335,4.3031597,STN
7500907824000,3.289983,2.4168575156392,4.40178867800629,-2.74499127644387,-0.080634214,0.9465357,0.36285394,302.8342,-125.06047,4.775078,STN
7500912843000,3.295002,2.24650431778066,4.49536292603205,-2.81937083711875,-0.13408493,0.92149025,0.42394048,302.62985,-125.04747,5.223502,STN
7500917842000,3.300001,2.07682995314731,4.58856429400988,-2.89345400584036,-0.16676621,0.9279043,0.47800204,302.44254,-125.02428,5.675511,STN
7500922871000,3.30503,1.95228215140672,4.64178997334062,-2.98563303550942,-0.18997909,0.93309665,0.53878313,302.26785,-124.99548,6.1347647,STN
7500927861000,3.31002,1.87396214093599,4.65484343714832,-3.09441076472731,-0.22388211,0.9468411,0.56321776,302.09314,-124.9581,6.596136,STN
7500932794000,3.314953,1.80776868343139,4.62843115029418,-3.20687490941374,-0.25595254,0.9550878,0.60903263,301.95474,-124.93288,7.025466,STN
7500937994000,3.320153,1.76591163363101,4.50286000089304,-3.33767812857743,-0.31520647,0.9468411,0.65270954,301.82047,-124.89339,7.4525156,STN
7500942849000,3.325008,1.72412407347139,4.34167337741682,-3.44139624100501,-0.39920044,0.9483683,0.6808093,301.69238,-124.85722,7.8635178,STN
7500947846000,3.330005,1.67715644213367,4.11153207704387,-3.52124122899205,-0.5174029,0.9615019,0.691194,301.5673,-124.79837,8.273423,STN
7500952770000,3.334929,1.57587719010714,3.83401986232143,-3.50824604530357,-0.6301075,0.98471475,0.7110472,301.44577,-124.7528,8.675288,STN
7500957833000,3.339992,1.36807422083929,3.45304764651786,-3.32208916404464,-0.7657196,1.0228939,0.7125743,301.31592,-124.670265,9.072258,STN
7500962825000,3.344984,1.17983863488813,3.11384116555395,-3.10962222812162,-0.904386,1.03786,0.70371675,301.19452,-124.59401,9.451304,STN
7500967841000,3.35,1.11482970908517,3.04449826912667,-2.68056329972032,-1.0430524,1.0173961,0.6908886,301.07214,-124.484146,9.823396,STN
7500972859000,3.355018,1.04979486265789,2.9751277240166,-2.25133329519127,-1.1780536,0.9428705,0.66950834,300.96307,-124.34985,10.151003,STN
7500977854000,3.360013,1.00175094471247,2.99221055912126,-1.66466892560844,-1.2895365,0.82253003,0.65270954,300.8684,-124.18796,10.460786,STN
7500982982000,3.365141,0.955261026628989,3.02576776961436,-1.05122649456449,-1.382388,0.6630942,0.6444628,300.7987,-123.99837,10.744816,STN
7500987837000,3.369996,0.924346515533577,3.14169711560838,-0.533408734329289,-1.4480561,0.46975538,0.6383542,300.72635,-123.72838,11.008507,STN
7500992876000,3.375035,0.892260373121676,3.26202007636303,0.00403383906416221,-1.5198327,0.23243423,0.63132924,300.62363,-123.36151,11.256768,STN
7500997840000,3.379999,0.802964738746439,3.56017094202279,0.266513525626781,-1.6288722,-0.02443461,0.6203337,300.56558,-122.97281,11.468079,STN
7501002837000,3.384996,0.681232673280423,3.95945203743386,0.38337629728836,-1.7366899,-0.19547687,0.6239988,300.53934,-122.57374,11.657395,STN
7501007823000,3.389982,0.531961697305034,4.48415997033395,0.245884585582709,-1.8374827,-0.26328292,0.6206391,300.4918,-122.03952,11.850252,STN
7501012848000,3.395007,0.367973711276409,5.07451699009833,-0.0164962370733132,-1.9336939,-0.23396139,0.61269784,300.4528,-121.487885,12.032846,STN
7501017838000,3.399997,0.117695365903591,5.67939797521325,-0.330228847466773,-2.0131063,-0.14966199,0.5925393,300.3973,-120.86786,12.201701,STN
7501022845000,3.405004,-0.186695490025789,6.29769180509819,-0.677424656647491,-2.0986276,-0.08277224,0.5311473,300.32352,-120.22658,12.359802,STN
7501027845000,3.410004,-0.512419584826498,6.9528824818612,-1.06003843580836,-2.2397375,0.059253927,0.49449542,300.22525,-119.54336,12.493778,STN
7501032843000,3.415002,-0.852154535520505,7.6323523044164,-1.46583294382492,-2.327702,0.22235495,0.3933972,300.08136,-118.84894,12.605496,STN
7501037838000,3.419997,-1.13079928506748,8.24626268531195,-1.98544730894778,-2.5262332,0.40103304,0.27122417,299.91995,-118.087234,12.646314,STN
7501042903000,3.425062,-1.36797179822022,8.82022040191668,-2.59735245529044,-2.7449229,0.61300325,0.15393804,299.6915,-117.29976,12.683469,STN
7501047843000,3.430002,-1.55352668389349,9.11943133290117,-3.18529722349656,-2.9901853,0.80848014,0.048563786,299.44815,-116.45641,12.627796,STN
7501052835000,3.434994,-1.70133060849706,9.19571677979456,-3.77174495701606,-3.198185,0.98654735,-0.061391957,299.13806,-115.56783,12.559347,STN
7501057825000,3.439984,-1.77902124796922,9.0004936202396,-4.26547522293757,-3.3197472,1.1633929,-0.16615535,298.829,-114.69174,12.409158,STN
7501062799000,3.444958,-1.79294016362131,8.55972949206195,-4.67376243032044,-3.3362405,1.3332134,-0.25809056,298.4649,-113.79529,12.249762,STN
7501067839000,3.449998,-1.73403944673285,8.0703820989768,-4.91435525289231,-3.250414,1.4899004,-0.35888332,298.12302,-112.98362,12.03018,STN
7501072830000,3.454989,-1.59361416535305,7.53773475194003,-4.95793546555567,-3.1019738,1.5949692,-0.4352415,297.74448,-112.18991,11.805673,STN
7501077824000,3.459983,-1.40553377628006,7.06660613493018,-4.8535705693367,-2.9196305,1.6548339,-0.5012149,297.3971,-111.53263,11.56541,STN
7501082879000,3.465038,-1.16610898569628,6.65348091668929,-4.59536727729829,-2.7128525,1.6481144,-0.5644395,297.03458,-110.91806,11.313139,STN
7501087818000,3.469977,-0.883875518175813,6.33377991342399,-4.29076187642545,-2.5082128,1.5720617,-0.60903263,296.68494,-110.40847,11.087209,STN
7501092945000,3.475104,-0.526175520025255,6.11439047883439,-3.90444593738708,-2.3243423,1.4333953,-0.6426302,296.35306,-109.944786,10.846195,STN
7501097815000,3.479974,-0.15398224386309,5.97481927273819,-3.65078185168135,-2.1355848,1.2360858,-0.6392705,296.03107,-109.54215,10.654306,STN
7501102881000,3.48504,0.28786777632506,5.9456864265012,-3.57794938118495,-1.9446895,1.0134255,-0.6017023,295.75867,-109.19215,10.453785,STN
7501107787000,3.489946,0.722308163392944,5.969326751588,-3.66801243877651,-1.7201965,0.7666359,-0.5195409,295.52582,-108.8844,10.329858,STN
7501112888000,3.495047,1.18537617572559,6.08390040580475,-4.04037666543536,-1.4556919,0.5354234,-0.4196644,295.35886,-108.64731,10.208235,STN
7501117770000,3.499929,1.58515988634431,6.2135276903985,-4.52595296163354,-1.1468995,0.43401974,-0.3268129,295.2156,-108.54032,10.198198,STN
7501123373000,3.505532,1.94065713331356,6.40984682660932,-5.39081892198161,-0.82741696,0.27458394,-0.26389378,295.16135,-108.51154,10.185078,STN
7501127816000,3.509975,2.1799573690138,6.70308553639728,-6.08224439177836,-0.50579643,0.13561209,-0.24678956,295.17487,-108.65833,10.243617,STN
7501132843000,3.515002,2.3581206245249,7.33387996241248,-6.87675626125225,-0.35888332,-0.069027774,-0.23457226,295.25626,-108.84155,10.295309,STN
7501137815000,3.519974,2.55214210424445,7.98609906519922,-7.62238109696294,-0.10445796,-0.4034765,-0.24037547,295.5158,-109.193756,10.283902,STN
7501142897000,3.525056,2.79171434325253,8.71837675018111,-8.29137563360267,0.122478485,-0.8775079,-0.26236662,295.864,-109.56686,10.239697,STN
7501147854000,3.530013,3.01037008988312,9.37200880920342,-8.83715231499853,0.34238997,-1.4046847,-0.29046643,296.3856,-110.079254,10.13407,STN
7501152856000,3.535015,3.15152470221982,9.71077971176702,-8.82303656389353,0.5589417,-1.9850066,-0.3417791,297.03094,-110.62813,9.96482,STN
7501157929000,3.540088,3.22587232723201,10.0225174550677,-8.62591009985396,0.7516697,-2.5867088,-0.40225476,297.85092,-111.27427,9.72328,STN
7501162885000,3.545044,2.87005261351378,10.1288010005842,-7.29505193542985,0.79320854,-3.1407638,-0.43676865,298.78238,-111.91547,9.417511,STN
7501167892000,3.550051,2.46522771155861,10.3059130093914,-5.92799305921979,0.65057147,-3.5143077,-0.45875978,299.77194,-112.515144,9.069509,STN
7501172873000,3.555032,1.5132538999097,11.3268084061766,-4.2954225862561,0.4260785,-3.568064,-0.43310347,300.79123,-113.08725,8.694982,STN
7501177905000,3.560064,0.551532916127867,12.3581566568539,-2.64613637466137,0.12644911,-3.2571335,-0.41263947,301.67664,-113.36094,8.311972,STN
7501182880000,3.565039,0.365397456223259,13.2654867551536,-2.29097448204979,-0.22571471,-2.577546,-0.39003745,302.45712,-113.5591,7.9707594,STN
7501187770000,3.569929,0.301645198638662,14.1398034441851,-2.14070136798911,-0.5155703,-1.616044,-0.37690386,303.06042,-113.691284,7.6992044,STN
7501193001000,3.57516,0.862270485674245,15.4535576343818,-3.64287904708813,-0.62980205,-0.50854534,-0.3662137,303.30112,-113.38605,7.413618,STN
7501197778000,3.579937,1.52714919462265,16.745322306239,-5.41905512376207,-0.46761733,0.5290093,-0.3753767,303.3033,-113.08866,7.2297754,STN
7501202874000,3.585033,1.94555492361111,17.5021465,-7.30497571388889,-0.005497787,1.4104879,-0.3399465,303.029,-112.7673,7.1488504,STN
7501207796000,3.589955,2.30307592288219,18.1336111737589,-9.12508234600079,1.0677924,2.1361957,-0.22937989,302.53177,-112.67481,7.1799855,STN
7501212886000,3.595045,1.52556526203336,18.5157860665285,-7.30697064266114,2.930626,2.3426683,-0.1518,302.02325,-113.11888,7.2891965,STN
7501217792000,3.599951,0.551663226376468,18.8311453542592,-4.83047685417037,4.272086,2.195755,-0.18020524,301.4268,-113.70382,7.436556,STN
7501222879000,3.605038,-0.0471581461145254,18.2794066434494,-3.31923107467564,4.100433,1.6184875,-0.21227567,301.01886,-114.55965,7.5723147,STN
7501227901000,3.61006,-0.539787765148766,17.5240412106136,-2.08061946642279,3.5906658,0.93462384,-0.20250183,300.69257,-115.64036,7.6810827,STN
7501232843000,3.615002,-0.481771557740038,16.2707605996205,-1.4719116153852,2.3139575,0.5326745,-0.1423316,300.29123,-116.10711,7.699072,STN
7501237816000,3.619975,-0.26036285436148,14.8564563851992,-1.04264988002277,1.2938126,0.5345071,-0.04642576,299.97784,-116.49885,7.7007,STN
7501242827000,3.624986,-0.178646789291188,13.2426203771818,-0.61570226210728,0.75808376,0.72112644,-0.010079277,299.6772,-116.57385,7.656412,STN
7501247842000,3.630001,-0.173535284166667,11.5251547407407,-0.191447461666667,0.5699373,0.915687,-0.055283304,299.3818,-116.47119,7.6171327,STN
7501252842000,3.635001,-0.353943441350884,10.3581819810723,0.156993209364335,0.61941737,1.0809261,-0.13561209,299.05014,-116.324066,7.6383786,STN
7501257829000,3.639988,-0.587968852252114,9.35324925365104,0.482793279219062,0.7281514,1.2409728,-0.24648413,298.66406,-116.13781,7.660364,STN
7501262808000,3.644967,-0.625273531834777,9.31018101567113,0.482451218515154,0.7846564,1.426065,-0.36102137,298.22983,-115.986275,7.6981697,STN
7501267839000,3.649998,-0.573119416853966,9.70607831209407,0.33310080646664,0.72326446,1.6019942,-0.47067168,297.74722,-115.82089,7.724264,STN
7501272832000,3.654991,-0.521359230787739,10.0989853287985,0.184878463521256,0.5571091,1.7440202,-0.5360342,297.2232,-115.64976,7.732221,STN
7501277854000,3.660013,-0.469298414760382,10.4941744010775,0.0357952257340091,0.30726522,1.8414533,-0.56138515,296.66055,-115.429344,7.7351794,STN
7501282861000,3.66502,-0.522196369278764,11.4558510455066,0.0933012339244419,-0.025961773,1.91323,-0.5458081,296.06693,-115.134766,7.7403,STN
7501287840000,3.669999,-0.635922092082618,12.7432263110571,0.270713365678496,-0.43188173,1.9480493,-0.53969944,295.45764,-114.74753,7.7395744,STN
7501292823000,3.674982,-0.861208067521896,13.9717513340546,0.463591454460587,-0.88453287,1.87444,-0.5525276,294.86624,-114.249535,7.7284756,STN
7501297847000,3.680006,-1.18841220592478,15.1566269206595,0.671812229335394,-1.2993103,1.6053538,-0.5320636,294.32715,-113.65912,7.7048817,STN
7501302836000,3.684995,-1.58344038974779,15.4951699144132,0.702659261722662,-1.5082263,1.0998629,-0.464563,293.83365,-112.91484,7.631574,STN
7501307825000,3.689984,-2.02716481157243,15.251556085951,0.611304235035965,-1.4514158,0.39858958,-0.40194935,293.4733,-112.14592,7.5101256,STN
7501312848000,3.695007,-2.32963404938353,14.7906187233598,0.403612229139146,-1.1578951,-0.39400807,-0.37843102,293.25177,-111.31723,7.2914987,STN
7501317839000,3.699998,-2.40856052782915,14.0013544883311,0.019503627432849,-0.7858781,-0.79443026,-0.36193767,293.1268,-110.55147,7.0603995,STN
7501322842000,3.705001,-2.165377596362,13.3119167128683,-0.699835357396272,-0.49357912,-1.4923438,-0.33108896,293.32916,-109.87965,6.677463,STN
7501327857000,3.710016,-1.68404178653037,12.6958070250551,-1.66732028137903,-0.41233405,-1.9950858,-0.2275473,293.59967,-109.274864,6.3105965,STN
7501332819000,3.714978,-1.10175364155692,12.1721557591248,-2.76881611960766,-0.3643811,-2.2159138,-0.092240654,294.02612,-108.83054,5.9169803,STN
7501337834000,3.719993,-0.435897790553428,11.7056037299821,-3.98728696861266,-0.45173484,-2.1096232,0.02107485,294.50623,-108.389046,5.540255,STN
7501342819000,3.724978,0.313808529732497,11.3125009114835,-4.8130368866043,-0.6792821,-1.7015651,0.0842994,295.0254,-108.09848,5.246807,STN
7501347869000,3.730028,1.17894063497563,10.9992633305233,-5.18593891703506,-0.97433007,-1.1481212,0.12736541,295.47693,-107.77959,5.0076404,STN
7501352842000,3.735001,1.97085039433672,10.7582058524669,-5.16654397374736,-1.2730432,-0.602924,0.16523905,295.8905,-107.619865,4.9055443,STN
7501357838000,3.739997,2.71025935344596,10.5790946007871,-4.78535785368593,-1.5170839,-0.14080444,0.20769419,296.17014,-107.40307,4.8597417,STN
7501362825000,3.744984,3.32899335124398,10.3413297889246,-4.27618247688604,-1.6520851,0.21899518,0.26389378,296.32098,-107.220955,4.9712214,STN
7501367802000,3.749961,3.78803427406702,10.0257386583066,-3.59718426733547,-1.668273,0.45204028,0.3173445,296.37915,-107.0148,5.118517,STN
7501372817000,3.754976,4.08777764023669,9.63444482998028,-2.96297336,-1.5775595,0.600786,0.35369098,296.31223,-106.770035,5.3837447,STN
7501377809000,3.759968,4.17264311715976,9.14882710690335,-2.39720504,-1.3775011,0.68386364,0.37201694,296.20322,-106.56629,5.666013,STN
7501382797000,3.764956,4.12914307663327,8.65470405971944,-1.8705556737475,-1.1163563,0.70616025,0.364992,296.01675,-106.34741,6.018076,STN
7501387814000,3.769973,3.89324162527054,8.14438718627255,-1.39875307264529,-0.84391034,0.68661255,0.34880406,295.82227,-106.20068,6.368811,STN
7501392813000,3.774972,3.62430208554217,7.83302048192771,-1.03048748975904,-0.6072,0.6414085,0.3567453,295.5994,-106.07425,6.742188,STN
7501397838000,3.779997,3.30455908301736,7.80744097049964,-0.808798997621368,-0.42241332,0.5687156,0.39492437,295.3928,-106.01943,7.1104245,STN
7501402720000,3.784879,2.96455601374943,7.7881043529895,-0.605929712468051,-0.2883284,0.47067168,0.45723262,295.1909,-105.97841,7.464792,STN
7501407764000,3.789923,2.41888793264491,7.80463974066636,-0.479158320615016,-0.1863139,0.32284227,0.5112942,295.02625,-105.98859,7.8144145,STN
7501412837000,3.794996,1.86986924566554,7.85098680916485,-0.499696160317397,-0.12339478,0.23823744,0.54000485,294.85715,-105.988144,8.125895,STN
7501417757000,3.799916,1.33709400146796,7.93978256119818,-0.738042969045824,-0.09773844,0.08032878,0.5390886,294.7515,-106.01163,8.424025,STN
7501422730000,3.804889,0.814308567902775,8.13332561734391,-1.04809846800991,-0.08827003,-0.07971791,0.5213735,294.66202,-106.01563,8.656238,STN
7501427776000,3.809935,0.311426554867889,8.51168459930624,-1.4839295095996,-0.10170906,-0.20158553,0.4981606,294.6046,-106.02049,8.873835,STN
7501432718000,3.814877,-0.0931154576761081,8.90717464246671,-1.88989739094613,-0.14508049,-0.2556471,0.47158796,294.60828,-106.011055,8.9945,STN
7501437756000,3.819915,-0.337663814507156,9.35791066323792,-2.26391251261181,-0.29871312,-0.21135938,0.46395215,294.61652,-105.9724,9.110196,STN
7501442767000,3.824926,-0.53365754535501,9.63946572196417,-2.46725735255474,-0.5299256,-0.1328632,0.4392121,294.67566,-105.90968,9.128881,STN
7501447943000,3.830102,-0.641734108327804,9.5971750199071,-2.34038490291971,-0.77274454,-0.095294975,0.38240165,294.7298,-105.80287,9.136028,STN
7501452829000,3.834988,-0.708043565664482,9.48549447837484,-2.20866016783748,-1.0005972,-0.13836098,0.30085114,294.81558,-105.65338,9.079996,STN
7501457836000,3.839995,-0.66614660397903,9.15031859239843,-2.03688261923984,-1.1695015,-0.24037547,0.21746802,294.90222,-105.45477,9.007447,STN
7501463318000,3.845477,-0.594534626434192,8.75673090321378,-1.86546802683674,-1.2189816,-0.36285394,0.16157386,295.0028,-105.203285,8.9067,STN
7501467843000,3.850002,-0.117141942904829,7.99936377884536,-1.99468711716226,-1.185384,-0.45662177,0.14446963,295.11945,-104.9305,8.791762,STN
7501472856000,3.855015,0.411735299643833,7.16031816681024,-2.13784187954941,-1.0836749,-0.50732356,0.1600467,295.25067,-104.6559,8.68661,STN
7501477894000,3.860053,0.87597227188755,6.62956057103971,-2.35348426720214,-0.9108001,-0.48747048,0.1908954,295.38593,-104.41123,8.582252,STN
7501482947000,3.865106,1.28625354939759,6.35424010953815,-2.62880461596386,-0.70157874,-0.4089743,0.2284636,295.51782,-104.20758,8.487052,STN
7501487841000,3.87,1.52737528059491,6.17061326067373,-2.84613947331331,-0.48197266,-0.27977628,0.25259277,295.61725,-104.16269,8.50474,STN
7501492856000,3.875015,1.72566923705546,6.00837281073473,-3.05344678287511,-0.2602286,-0.11789699,0.29352075,295.68634,-104.177124,8.543158,STN
7501497843000,3.880002,1.76002246492149,5.88731957533195,-3.13910057026809,-0.058643065,0.056199603,0.3378085,295.75903,-104.29362,8.636917,STN
7501502841000,3.885,1.69477526178119,5.79065698861009,-3.15118338099157,0.12034045,0.19517145,0.3930918,295.79843,-104.46285,8.7499,STN
7501507828000,3.889987,1.62967165992831,5.69420714467612,-3.16323959889433,0.2874121,0.2657264,0.44929138,295.84033,-104.722305,8.900621,STN
7501512851000,3.89501,1.56409809022568,5.59706105161812,-3.17538284784672,0.44012842,0.25686884,0.47800204,295.86768,-105.020836,9.059614,STN
7501518494000,3.900653,1.28396888636044,5.62101378042014,-3.05434397236908,0.5876524,0.17989981,0.5207626,295.9029,-105.364944,9.236283,STN
7501522827000,3.904986,1.00034751747713,5.68357744000402,-2.91670421743894,0.70646566,0.11942416,0.5290093,295.93677,-105.73153,9.408006,STN
7501527891000,3.91005,0.59744470373205,5.86712394776545,-2.66906201973284,0.7489208,-0.06047566,0.5207626,296.0375,-106.117004,9.554942,STN
7501532891000,3.91505,0.164743469570376,6.10228768413712,-2.38216225546606,0.80481493,-0.26419923,0.49480084,296.1625,-106.526,9.68903,STN
7501537874000,3.920033,-0.271843071426401,6.24174081206078,-2.12261325318139,0.8054258,-0.4718934,0.44409904,296.32742,-106.87542,9.751886,STN
7501542964000,3.925123,-0.72087980534188,6.32969635042735,-1.87263402393162,0.75625116,-0.61483586,0.40866885,296.53107,-107.21931,9.797044,STN
7501547837000,3.929996,-1.12611136105844,6.29530224764038,-1.63390259499948,0.6435465,-0.6930266,0.37812558,296.7572,-107.46337,9.763125,STN
7501552875000,3.935034,-1.52319317421606,6.15456428218564,-1.38761141787686,0.48930305,-0.70096785,0.34574974,296.9998,-107.67765,9.7110195,STN
7501557875000,3.940034,-1.8268472869599,5.93243588881445,-1.14481018653656,0.3484986,-0.6646214,0.32925636,297.24292,-107.8058,9.599876,STN
7501562866000,3.945025,-2.07282125169434,5.65861578834838,-0.903477221808913,0.21074851,-0.58001655,0.29993483,297.46964,-107.89066,9.478479,STN
7501567881000,3.95004,-2.20204320838574,5.35008191614256,-0.609562753456124,0.08307768,-0.4859433,0.2565634,297.67606,-107.89477,9.309904,STN
7501572868000,3.955027,-2.23541812215234,5.01633277847659,-0.275813376820405,-0.017715093,-0.3817908,0.226631,297.85358,-107.870445,9.143817,STN
7501577911000,3.96007,-2.14950949786427,4.70548101708583,0.0882174751876248,-0.105068825,-0.30634892,0.1966986,298.00217,-107.77749,8.947914,STN
7501582907000,3.965066,-1.96805861710579,4.41897966315369,0.470219258824351,-0.1872302,-0.31673363,0.19333886,298.14487,-107.661606,8.752146,STN
7501588173000,3.970332,-1.72999659149376,4.14516684134133,0.712843431881208,-0.23335053,-0.42149702,0.20372356,298.27063,-107.49349,8.564706,STN
7501592915000,3.975074,-1.484374934438,3.91740852071984,0.824489669308683,-0.23701571,-0.634689,0.24037547,298.43103,-107.31931,8.374216,STN
7501597881000,3.98004,-1.24516661066911,3.8582374467461,0.732579175573785,-0.15668693,-0.9416488,0.26328292,298.60925,-107.11303,8.216338,STN
7501602889000,3.985048,-1.02096923783685,3.96813802969753,0.442441439199817,-0.004276057,-1.2880094,0.27030787,298.8586,-106.92681,8.045441,STN
7501607822000,3.989981,-0.835213813285807,4.25906598915533,-0.00328331118168071,0.20861048,-1.6276505,0.25961772,299.17474,-106.78047,7.90532,STN
7501612855000,3.995014,-0.720674899902787,4.94629968690862,-0.799849594235256,0.48349985,-1.7873917,0.22540927,299.53394,-106.68577,7.7485204,STN
7501617838000,3.999997,-0.65633537511644,5.64483817613715,-1.66045280978099,0.75961095,-2.0470095,0.20830505,300.03717,-106.70754,7.588646,STN
7501622825000,4.004984,-0.646869563809335,6.36423662315925,-2.60229675998414,0.8854492,-2.1731532,0.18692477,300.5413,-106.75624,7.415252,STN
7501627892000,4.010051,-0.646004676447459,7.0292830385432,-3.54918733480782,1.0980303,-2.1459696,0.17134771,301.11865,-107.00856,7.210234,STN
7501632879000,4.015038,-0.65539418808611,7.60673528360366,-4.46935525951047,1.2027937,-1.9743165,0.17134771,301.68405,-107.26713,7.0028768,STN
7501637817000,4.019976,-0.675871743856477,8.13699333463405,-5.0782213089369,1.2024882,-1.7116444,0.16707164,302.274,-107.70265,6.752556,STN
7501642854000,4.025013,-0.712600280336918,8.61905551975826,-5.27104631721709,1.1355985,-1.4144585,0.16279559,302.79837,-108.14739,6.5154157,STN
7501647787000,4.029946,-0.74902158418273,9.06210164219699,-5.35359932215474,1.0363328,-1.207986,0.106901415,303.3286,-108.72691,6.2287884,STN
7501652838000,4.034997,-0.787341455167679,9.44955837927999,-5.19606200660153,0.97127575,-1.0592403,0.022602014,303.78165,-109.286285,5.9509096,STN
7501657996000,4.040155,-0.81854490585322,9.848035577334,-5.02239765096355,0.96852684,-0.9602802,-0.06627888,304.1925,-109.82737,5.6561027,STN
7501662801000,4.04496,-0.754218233431852,10.2523747680479,-4.70995380937594,1.0900891,-0.9401216,-0.16493362,304.56732,-110.36859,5.3446474,STN
7501668005000,4.050164,-0.675741566750675,10.6961829864987,-4.392547670045,1.289842,-0.9651671,-0.26511553,304.89694,-110.851364,5.0218735,STN
7501672826000,4.054985,-0.497046623753375,11.1782439324932,-4.35099078022502,1.5409076,-1.0360274,-0.35796702,305.2169,-111.369965,4.6774907,STN
7501677858000,4.060017,-0.310530765391539,11.6814031692169,-4.30761507610261,1.8173242,-1.0781772,-0.41508293,305.48392,-111.84973,4.3507395,STN
7501682902000,4.065061,0.000980832860475012,12.513117942536,-4.68426600627651,2.104736,-1.0598512,-0.4560109,305.73935,-112.392914,4.008949,STN
7501687774000,4.069933,0.327469534590755,13.3837544667091,-5.13442475640373,2.4055874,-0.95569867,-0.47739118,305.97272,-113.00885,3.668347,STN
7501692839000,4.074998,0.649561069880635,14.5481654590115,-5.98663342093321,2.6801713,-0.7370089,-0.48533243,306.14032,-113.63143,3.3820589,STN
7501697782000,4.079941,0.962440262513564,15.7062851978396,-6.85055347489395,2.8683178,-0.33292156,-0.50426924,306.22345,-114.30189,3.126568,STN
7501702869000,4.085028,1.16949714705882,16.5954793529412,-7.75946694117647,2.9568932,0.19333886,-0.5308419,306.20618,-115.00489,2.9539716,STN
7501707788000,4.089947,1.35678966105539,17.4212688676696,-8.64059287241348,2.9025261,0.691194,-0.58459806,306.0855,-115.70027,2.8199558,STN
7501712831000,4.09499,1.44143546151846,18.0218754631305,-8.99091134976599,2.8060095,0.86590147,-0.657291,305.91763,-116.41554,2.7314556,STN
7501717848000,4.100007,1.47641488299532,18.5065907135725,-9.08585553104524,2.7690523,1.0186177,-0.7119634,305.6299,-117.108154,2.694796,STN
7501722825000,4.104984,1.51667934955527,18.5204882883394,-8.583981712208,2.7043004,0.9468411,-0.81122905,305.3523,-117.799164,2.6358063,STN
7501727866000,4.110025,1.559147372554,18.3930846627896,-7.89505650945167,2.6774223,0.73364913,-0.8762862,305.07608,-118.46947,2.574051,STN
7501732845000,4.115004,1.82124170120828,17.9810533649599,-6.91962478946222,2.6309967,0.4297437,-0.8915578,304.83514,-119.06714,2.4852536,STN
7501737952000,4.120111,2.17484558628305,17.4482258977914,-5.80553018520353,2.5525005,0.07727446,-0.82253003,304.6707,-119.635635,2.3664024,STN
7501742834000,4.124993,2.56238015741196,16.7268224684685,-4.95574265782146,2.4373524,-0.23671028,-0.7263188,304.56854,-120.095345,2.233609,STN
7501747856000,4.130015,2.98089501570434,15.8996402522523,-4.16795023742834,2.3118196,-0.47250426,-0.5897904,304.55588,-120.5267,2.0897667,STN
7501752841000,4.135,3.43346990312319,14.2939712028147,-3.94667279359938,2.1542163,-0.59956425,-0.45845437,304.5658,-120.82415,1.9983292,STN
7501757829000,4.139988,3.89854392625795,12.4290698409485,-3.90983525482938,1.9938642,-0.64904433,-0.3359759,304.6361,-121.086685,1.9140295,STN
