timestamp,rel_time,acc_x,acc_y,acc_z,gyro_x,gyro_y,gyro_z,azimuth,pitch,roll,label
328286854000,0,3.49295528604933,9.86082696967246,-0.595756407642539,1.3381003,-1.6844609,0.30665436,4.2430844,-123.426834,26.568699,STD
328291823000,0.004969,3.43385865618763,9.89424598453094,-0.533257074510978,1.310306,-1.704925,0.34116822,5.876718,-123.82147,26.319775,STD
328296918000,0.010064,3.34620502874251,9.92346392814371,-0.469951689341317,1.271516,-1.7397442,0.3659083,7.5091887,-124.20348,26.050566,STD
328302010000,0.015156,3.25748880677094,9.95108317679667,-0.40320990897644,1.2315043,-1.7681495,0.3903429,9.209202,-124.58115,25.75084,STD
328306856000,0.020002,3.16101349514948,9.96027148445852,-0.302140568247872,1.180497,-1.7965547,0.40225476,10.9018345,-124.93885,25.428112,STD
328311997000,0.025143,3.05837756584423,9.9680468097503,-0.196603528022592,1.1578951,-1.8347337,0.41355577,12.668084,-125.28816,25.06169,STD
328316855000,0.030001,2.95695766978795,9.94499682243361,-0.122843516621086,1.1218541,-1.8735237,0.410196,14.420805,-125.60887,24.669638,STD
328322939000,0.036085,2.82980580514777,9.91482881083925,-0.0276545709394019,1.0705414,-1.926669,0.41783184,16.27257,-125.91432,24.226288,STD
328326811000,0.039957,2.74850833830571,9.89206540331492,0.0406352923793738,1.0290025,-1.9788979,0.41630468,18.107708,-126.19359,23.754124,STD
328331773000,0.044919,2.64432496266772,9.86289390844515,0.128149316601421,0.98746365,-2.039679,0.41783184,20.069534,-126.46036,23.2188,STD
328336847000,0.049993,2.48238411272113,9.84063048539058,0.466059836126019,0.9462303,-2.0894647,0.41722095,22.011295,-126.69667,22.657362,STD
328341793000,0.054939,2.30349901132976,9.82180058855098,0.889735017018485,0.8903361,-2.1245892,0.40530908,23.933308,-126.89786,22.069862,STD
328346882000,0.060028,2.17120284207493,9.80587757636888,0.325169828530259,0.8197812,-2.1517727,0.38759398,26.028553,-127.08769,21.397247,STD
328351791000,0.064937,2.06375091527377,9.79186231551227,-0.609194567399384,0.74189585,-2.1410828,0.36865717,28.081903,-127.23607,20.706717,STD
328356854000,0.07,1.91267686969112,9.78096319343629,-0.455929971471043,0.64843345,-2.0967948,0.34025195,30.633757,-127.38752,19.826876,STD
328361834000,0.07498,1.74695006467181,9.77175596177606,0.170149158374517,0.5363397,-2.031127,0.3042109,33.100098,-127.47301,18.931425,STD
328366860000,0.080006,1.57615021054792,9.77459271475477,0.480345722150626,0.42760566,-1.9346102,0.2742785,35.076263,-127.52105,18.122393,STD
328371843000,0.084989,1.4047729480197,9.78438589985635,0.602758040841371,0.29443705,-1.7993035,0.25137106,36.984493,-127.51203,17.32422,STD
328376833000,0.089979,1.2921748165858,9.81980530537677,-0.0174439019902961,0.1685988,-1.6325374,0.20769419,39.492584,-127.488266,16.283333,STD
328381856000,0.095002,1.20643590208932,9.8674380080206,-0.989151732250718,0.043982297,-1.4413365,0.15393804,41.875546,-127.39126,15.270476,STD
328386853000,0.099999,1.12154843126229,9.89579800196618,-0.94229682703893,-0.07544186,-1.2486086,0.116675265,44.59487,-127.28355,14.087118,STD
328392458000,0.105604,1.02656175479748,9.91690601759733,-0.319606635498427,-0.19120082,-1.0693196,0.06719518,47.14842,-127.0952,12.94673,STD
328396885000,0.110031,1.00246669508879,9.94945397950279,-0.0363529924211061,-0.2678644,-0.8927795,0.024740042,48.906387,-126.86507,12.094687,STD
328401855000,0.115001,0.997636994835109,9.99292118092339,0.190643085924911,-0.33292156,-0.8151997,-0.008857546,50.600758,-126.59158,11.270788,STD
328406849000,0.119995,1.0614697843571,10.0670083903812,0.112241392618013,-0.37751472,-0.6554584,-0.028099801,52.821014,-126.30258,10.239027,STD
328411850000,0.124996,1.16079489920995,10.1568737823425,-0.124246913756666,-0.3912592,-0.5369505,-0.065973446,54.942295,-125.97716,9.244752,STD
328416864000,0.13001,1.2710388111874,10.2266913737884,-0.364727043527868,-0.40653083,-0.42271876,-0.092240654,57.099728,-125.60083,8.2645645,STD
328421852000,0.134998,1.38679596781099,10.2845706068255,-0.605887752918013,-0.4071417,-0.33964106,-0.11056661,59.148743,-125.20326,7.341016,STD
328426788000,0.139934,1.48053797478666,10.3165546433282,-0.707394658262219,-0.4156938,-0.27214047,-0.12950343,60.988003,-124.79846,6.5275297,STD
328431863000,0.145009,1.56537512373933,10.3354072446664,-0.735673707913111,-0.4156938,-0.226631,-0.15027285,62.751205,-124.38346,5.7609944,STD
328436845000,0.149991,1.63276526603234,10.3345921911852,-0.752563989489253,-0.41386122,-0.19120082,-0.17379116,64.15835,-123.953766,5.1719103,STD
328441858000,0.155004,1.68956890260304,10.3203909978308,-0.762031254013015,-0.42119157,-0.17440203,-0.19333886,65.52743,-123.5173,4.6107078,STD
328446873000,0.160019,1.727975856346,10.275783892886,-0.744180569846403,-0.41905355,-0.16279559,-0.21471913,66.80233,-123.07707,4.1125584,STD
328451846000,0.164992,1.7520388244139,10.2084071802749,-0.705679820937753,-0.44318274,-0.15485434,-0.2406809,68.047745,-122.62507,3.6342595,STD
328456849000,0.169995,1.7837669107938,10.1531018968054,-0.681417169041626,-0.46486846,-0.16310102,-0.258396,69.25503,-122.17543,3.1889927,STD
328462638000,0.175784,1.82670218092933,10.0994328791868,-0.66531646375605,-0.49266282,-0.15027285,-0.27550024,70.431694,-121.716125,2.763695,STD
328466818000,0.179964,1.86111288607107,10.054555875533,-0.693106105007107,-0.5329799,-0.15057829,-0.28771752,71.586494,-121.248604,2.3557572,STD
328471812000,0.184958,1.90481231269036,9.99629034517766,-0.756227461269036,-0.5748242,-0.13927728,-0.2938262,72.71601,-120.77298,1.9692409,STD
328476806000,0.189952,1.96492775691036,9.95168274502712,-0.791963086099199,-0.61941737,-0.11789699,-0.3005457,73.82902,-120.28877,1.6043409,STD
328481828000,0.194974,2.03947399106174,9.91855086437613,-0.804387439718419,-0.67256266,-0.093462385,-0.3005457,74.92176,-119.79125,1.2611562,STD
328486803000,0.199949,2.11147405750098,9.90396143772033,-0.832225620137094,-0.71868294,-0.06047566,-0.3051272,75.915115,-119.29497,0.9632113,STD
328491845000,0.204991,2.17767138989424,9.95597372620447,-0.91733654519389,-0.7623598,-0.02321288,-0.29077184,76.8922,-118.786606,0.69013375,STD
328496800000,0.209946,2.24567178829753,10.0053238941488,-0.993548994148764,-0.8023715,0.008246681,-0.26939157,77.81581,-118.27166,0.4584318,STD
328501828000,0.214974,2.32884521073087,10.0469106053654,-1.03513570536543,-0.8436049,0.028710667,-0.24007004,78.726524,-117.746735,0.24976029,STD
328506746000,0.219892,2.39773771802795,10.0820853518008,-1.0673965110805,-0.86009824,0.05131268,-0.2321288,79.5469,-117.22472,0.08726253,STD
328511809000,0.224955,2.44068059731352,10.1059425346389,-1.08171082078331,-0.8979719,0.055588737,-0.21655174,80.36526,-116.68863,-0.05481227,STD
328516774000,0.22992,2.49371726863917,10.1024776237298,-1.10253301474397,-0.93218035,0.06352998,-0.2012801,81.13136,-116.15163,-0.15702623,STD
328521816000,0.234962,2.57549325467225,10.0303224748954,-1.14101581101813,-0.9636399,0.042760566,-0.19150625,81.89974,-115.60902,-0.2508463,STD
328526785000,0.239931,2.63858693856448,9.9641376583848,-1.16216429763242,-0.9993755,0.025961773,-0.16890424,82.64377,-115.05973,-0.31993285,STD
328531919000,0.245065,2.65699126678832,9.90892457762493,-1.13915877925323,-1.0528263,-0.015882496,-0.15027285,83.395546,-114.50124,-0.38494724,STD
328536784000,0.24993,2.67712657800564,9.85046760666731,-1.11723797624648,-1.1007792,-0.081855945,-0.14538592,84.10449,-113.94608,-0.41880536,STD
328541806000,0.254952,2.7145216131694,9.75230554174361,-1.09386607926912,-1.1407908,-0.17715092,-0.15241088,84.82929,-113.38316,-0.4522554,STD
328546809000,0.259955,2.75342804227794,9.65363599392812,-1.07911511595338,-1.1777482,-0.28893927,-0.14294247,85.54958,-112.81247,-0.47946602,STD
328551820000,0.264966,2.80982537258839,9.54554149525022,-1.15431147457644,-1.2183707,-0.4269948,-0.12858713,86.29835,-112.23466,-0.5132716,STD
328557021000,0.270167,2.86573728298429,9.43273520844241,-1.23855440945681,-1.2620476,-0.5644395,-0.10720685,87.04998,-111.65217,-0.53886724,STD
328561813000,0.274959,2.89076565645724,9.32260963339878,-1.37871335317408,-1.2990049,-0.70554936,-0.06841691,87.83921,-111.065,-0.5629533,STD
328566812000,0.279958,2.91627073695357,9.20841812317855,-1.53138475168059,-1.3371841,-0.81092364,-0.03940081,88.60276,-110.486984,-0.5664983,STD
328571807000,0.284953,2.93950568741014,9.09689045803381,-1.70797052072081,-1.3536774,-0.91629785,-0.006414085,89.405304,-109.909645,-0.56493914,STD
328576790000,0.289936,2.9616718674674,8.99122447185999,-1.88228619377145,-1.382388,-1.0009027,0.018936822,90.15803,-109.35171,-0.55229586,STD
328581848000,0.294994,2.97829487858614,8.91642109540151,-2.0485164351407,-1.3888022,-1.067487,0.05131268,90.93588,-108.800415,-0.52990043,STD
328586758000,0.299904,2.99443149080302,8.84380650892244,-2.20988268368222,-1.3784174,-1.1304061,0.06658431,91.67785,-108.28803,-0.4932618,STD
328591836000,0.304982,2.98249007208329,8.76961420975563,-2.41781544588761,-1.3396275,-1.1643091,0.08735373,92.431496,-107.7871,-0.4432546,STD
328596848000,0.309994,2.9642343255396,8.69659112826852,-2.63232061074451,-1.2956452,-1.1768318,0.098043874,93.19441,-107.296074,-0.3891274,STD
328601783000,0.314929,2.94029765659173,8.66396330363586,-2.78891692351744,-1.2241739,-1.196685,0.10934488,93.90175,-106.86768,-0.32313964,STD
328606772000,0.319918,2.9137760605884,8.6462823319456,-2.92594526184661,-1.1688906,-1.2030991,0.12522738,94.60836,-106.45239,-0.24789907,STD
328611810000,0.324956,2.85986766096537,8.64666083945435,-3.07456694260231,-1.0558805,-1.2073752,0.11728613,95.268974,-106.12476,-0.17676215,STD
328616821000,0.329967,2.7843334349213,8.66176745330535,-3.23067084500525,-0.9272934,-1.2345587,0.10567969,95.937256,-105.8219,-0.10096048,STD
328621812000,0.334958,2.71146998004793,8.71677040623128,-3.27240451467945,-0.75625116,-1.2669345,0.08155051,96.57948,-105.59682,-0.03678228,STD
328626811000,0.339957,2.63975874098262,8.79326249440783,-3.25328151759537,-0.5833763,-1.3130548,0.04917465,97.22997,-105.41212,0.021395562,STD
328631846000,0.344992,2.59862949797816,8.88359381116053,-3.18318255576223,-0.39920044,-1.3805555,0.018325957,97.87579,-105.31045,0.05493521,STD
328636817000,0.349963,2.57456633023655,8.97984587909422,-3.08693043757582,-0.2302962,-1.4703526,-0.0021380284,98.53669,-105.25458,0.079056054,STD
328641816000,0.354962,2.57773538381995,9.05359236183525,-3.02991085378867,-0.08857546,-1.5338826,-0.026572637,99.207405,-105.23688,0.0741793,STD
328646896000,0.360042,2.5946455419708,9.11700495828988,-2.99186325177268,0.028405234,-1.5809193,-0.042455133,99.89424,-105.25905,0.061963484,STN
328651882000,0.365028,2.61986131824885,9.17413937050691,-2.95945386359447,0.12705997,-1.5745052,-0.05100725,100.5991,-105.29134,0.039522886,STN
328656812000,0.369958,2.65854119454173,9.22248946830517,-2.93527894091142,0.19730948,-1.5399913,-0.06688975,101.302956,-105.34636,0.010581669,STN
328661792000,0.374938,2.69761336166923,9.27132993220686,-2.91085883645673,0.25381452,-1.4795157,-0.07880162,101.99132,-105.409386,-0.018146103,STN
328666819000,0.379965,2.73705428218126,9.32063134024578,-2.88620826113671,0.30604348,-1.412015,-0.087659165,102.662735,-105.48808,-0.04621648,STN
328671808000,0.384954,2.78173866186085,9.35241430218197,-2.8312557491972,0.35735616,-1.3365731,-0.093462385,103.310135,-105.57934,-0.07065832,STN
328676800000,0.389946,2.83291177922602,9.3642232902429,-2.7407188724578,0.38331795,-1.241889,-0.10354166,103.92832,-105.6749,-0.09134187,STN
328681843000,0.394989,2.88408717578365,9.37520461375011,-2.64445581281061,0.42760566,-1.1511755,-0.10720685,104.529434,-105.77054,-0.09192072,STN
328686814000,0.39996,2.9217072882606,9.36266472174906,-2.43127454982878,0.45814893,-1.0601566,-0.13041973,105.09777,-105.86639,-0.09316552,STN
328691817000,0.404963,2.95956957406269,9.35004410624287,-2.21672096731056,0.5021312,-0.9841039,-0.1414153,105.651825,-105.9502,-0.082174025,STN
328696868000,0.410014,3.00518366268346,9.35060134158072,-2.06978694918683,0.5305365,-0.93645644,-0.14813483,106.18339,-106.03524,-0.071536,STN
328701753000,0.414899,3.05157670242463,9.35524061406684,-1.94916513790163,0.56016344,-0.8570439,-0.15088372,106.68107,-106.13007,-0.0545237,STN
328706809000,0.419955,3.09959373598274,9.36004228483241,-1.82432094591432,0.57910025,-0.7858781,-0.16737708,107.194954,-106.17711,-0.03761556,STN
328711775000,0.424921,3.14675603595299,9.36475848281932,-1.7016990595597,0.61850107,-0.7367035,-0.16737708,107.690254,-106.23596,-0.01253852,STN
328717592000,0.430738,3.18096471979187,9.40323078480267,-1.53440642721382,0.6575964,-0.6936375,-0.17959438,108.163864,-106.29721,0.007893991,STN
328721756000,0.434902,3.20053952599647,9.43846555860986,-1.40912758574514,0.66920286,-0.65240407,-0.19608775,108.620476,-106.359276,0.0306334,STN
328726811000,0.439957,3.24958870588807,9.48412310726778,-1.26128280102993,0.7076874,-0.61941737,-0.19394971,109.09819,-106.38377,0.06894053,STN
328731826000,0.444972,3.31025334628838,9.53078814030315,-1.11662110116595,0.73914695,-0.61727935,-0.19333886,109.567726,-106.407715,0.10286099,STN
328736852000,0.449998,3.36570963026979,9.60204539371479,-0.955088468188556,0.768163,-0.61453044,-0.19303341,110.058174,-106.40403,0.13695909,STN
328741912000,0.455058,3.41838718556181,9.6882449114537,-0.782688882656389,0.79045963,-0.6301075,-0.18203785,110.54927,-106.40586,0.17267087,STN
328746811000,0.459957,3.45652977580352,9.75121929300587,-0.641359719305926,0.80909103,-0.6579019,-0.17806722,111.06062,-106.37826,0.21258157,STN
328751827000,0.464973,3.48730643066738,9.80251371777896,-0.5131235770315,0.8237518,-0.68752885,-0.16920967,111.57255,-106.35486,0.25520575,STN
328756811000,0.469957,3.5124278158435,9.83987792330041,-0.384237150716638,0.8313876,-0.7110472,-0.15424347,112.149925,-106.28728,0.29365844,STN
328761810000,0.474956,3.53560931071083,9.87233220976177,-0.254420682636064,0.820392,-0.752586,-0.13927728,112.73388,-106.21818,0.33120114,STN
328766793000,0.479939,3.54061130420258,9.90572164913372,-0.109634228014216,0.8145888,-0.77763146,-0.121256754,113.338036,-106.1225,0.37232816,STN
328771817000,0.484963,3.53633641808974,9.93992055948467,0.0442617836428254,0.79534656,-0.8054258,-0.11362094,113.94642,-106.02017,0.4120859,STN
328776803000,0.489949,3.53581558366282,9.97764481174109,0.216982675674862,0.7644979,-0.8524625,-0.093462385,114.6232,-105.87534,0.44367462,STN
328781880000,0.495026,3.54069480228801,10.0215576774711,0.421910010777722,0.7199047,-0.90010995,-0.0852157,115.29709,-105.7222,0.47407344,STN
328787358000,0.500504,3.54792475975559,10.0565848289731,0.561837076537937,0.66645396,-0.947452,-0.06994407,116.039246,-105.5131,0.492116,STN
328791858000,0.505004,3.55559443407487,10.0744807179213,0.60529828849736,0.6059783,-0.9822713,-0.05131268,116.77855,-105.292046,0.5149195,STN
328796873000,0.510019,3.56414186001068,10.0944246919381,0.653733394714362,0.528093,-0.9828822,-0.050701816,117.56474,-104.99974,0.5211591,STN
328801886000,0.515032,3.5744885284791,10.1115483089186,0.695467630762602,0.47800204,-0.9615019,-0.032070424,118.3404,-104.70338,0.5430525,STN
328806841000,0.519987,3.61128968280913,10.0870141206377,0.638221347996553,0.37232238,-0.90316427,-0.026267206,119.08873,-104.37422,0.5707503,STN
328811854000,0.525,3.6485216074623,10.0621927511417,0.580304977561396,0.24556783,-0.8035932,-0.020158553,119.885086,-104.00077,0.59853685,STN
328816785000,0.529931,3.70537710707676,10.0274249605335,0.480365226200327,0.109650314,-0.68600166,-0.019242255,120.6408,-103.60255,0.63988584,STN
328821779000,0.534925,3.77046503003085,9.98837235175104,0.363207046439848,-0.03604105,-0.5549711,-0.028710667,121.34659,-103.17439,0.6953576,STN
328826801000,0.539947,3.8262276813533,9.95006762307991,0.25798722186467,-0.15790866,-0.39614612,-0.02565634,121.99508,-102.74393,0.7859523,STN
328832396000,0.545542,3.87832003601011,9.90839341298853,0.153802436398989,-0.2968805,-0.22174409,-0.018020526,122.58737,-102.278076,0.8903459,STN
328836888000,0.550034,3.92053703949347,9.87234207202216,0.0716460340443213,-0.40286562,-0.04886922,0.004276057,123.109505,-101.837,1.0404963,STN
328841895000,0.555041,3.96797573913732,9.82964734141274,-0.0184875596745152,-0.5021312,0.09285152,0.031154128,123.58143,-101.371994,1.205597,STN
328846838000,0.559984,4.01669760990991,9.80033120054837,-0.0838880274676851,-0.57451874,0.20616703,0.047647487,123.99986,-100.92461,1.3983295,STN
328851772000,0.564918,4.0675955981982,9.78645009792401,-0.120904840658049,-0.636827,0.2828306,0.0729984,124.38273,-100.46955,1.6078976,STN
328856909000,0.570055,4.10467088155498,9.75472847378008,-0.155247830821589,-0.6722572,0.3454443,0.096516706,124.72795,-100.0432,1.839223,STN
328861745000,0.574891,4.11799086027227,9.70144855891094,-0.18188771407727,-0.7165449,0.37873647,0.121256754,125.055016,-99.61782,2.0800648,STN
328866733000,0.579879,4.12620878423099,9.65462967625899,-0.219244259560568,-0.73639804,0.3830125,0.13561209,125.354546,-99.22375,2.3379836,STN
328871755000,0.584901,4.12153304151274,9.62657512230216,-0.280028963721563,-0.74464476,0.3747658,0.16126843,125.644936,-98.84697,2.605633,STN
328876732000,0.589878,4.11457950745071,9.59864271088873,-0.337102089030021,-0.7535023,0.364992,0.18661933,125.94563,-98.50125,2.8809905,STN
328881759000,0.594905,4.1002698155058,9.57002372545328,-0.384801092063807,-0.75716746,0.3454443,0.21868975,126.247604,-98.18595,3.163209,STN
328886755000,0.599901,4.08170426153846,9.5361466133995,-0.412702864877419,-0.7519751,0.3313944,0.25442538,126.53203,-97.91815,3.4531472,STN
328891740000,0.604886,4.04853483846154,9.48402305756824,-0.374794866554839,-0.7461719,0.30604348,0.27275133,126.82121,-97.68267,3.7439785,STN
328896766000,0.609912,4.01145240419088,9.42996079469473,-0.331993835720545,-0.7476991,0.2678644,0.30757064,127.11653,-97.493355,4.042881,STN
328901755000,0.614901,3.96139380744833,9.37080058738928,-0.272833633166968,-0.7348709,0.22540927,0.34483343,127.41654,-97.34596,4.344464,STN
328906807000,0.619953,3.91102248817332,9.30998530346849,-0.199646244457364,-0.72692966,0.14355333,0.39187005,127.74306,-97.230606,4.648049,STN
328911853000,0.624999,3.86299572132777,9.24274717794673,-0.0315524451550387,-0.72112644,0.059864793,0.44012842,128.07825,-97.16067,4.959204,STN
328916806000,0.629952,3.81742535037121,9.17718080015722,0.138640776948205,-0.73975784,-0.04520403,0.49174652,128.4504,-97.115265,5.2671304,STN
328921845000,0.634991,3.78370529015635,9.11395585230151,0.353605758102891,-0.7657196,-0.17379116,0.56413406,128.84865,-97.121704,5.590358,STN
328926901000,0.640047,3.74987146907153,9.05051760337147,0.569295963444842,-0.8023715,-0.33536503,0.63255095,129.3203,-97.14097,5.910112,STN
328931872000,0.645018,3.75436215528879,9.01297892625209,0.807818685507232,-0.8524625,-0.5164866,0.70066243,129.8262,-97.21261,6.2465997,STN
328937224000,0.65037,3.76697039931123,8.97767589565089,1.0700703349572,-0.91965765,-0.7156286,0.7870999,130.37479,-97.33939,6.6037025,STN
328941898000,0.655044,3.77798141062678,8.94684510995769,1.29909952208895,-0.98471475,-0.91996306,0.8765916,131.01965,-97.48594,6.96366,STN
328947300000,0.660446,3.79070744467185,8.9112122677851,1.56380120563318,-1.0687088,-1.1099422,0.98471475,131.69196,-97.69952,7.352641,STN
328951852000,0.664998,3.87803858722194,8.98460769944134,1.70356360667344,-1.1682798,-1.2773192,1.10139,132.40071,-97.977974,7.7681084,STN
328956752000,0.669898,3.98766848463179,9.08470457094972,1.83702606883697,-1.2513574,-1.409877,1.2305881,133.13744,-98.32697,8.216924,STN
328961837000,0.674983,4.1385297413484,9.32222440929462,1.80455346797545,-1.3368785,-1.4770721,1.3805555,134.037,-98.717575,8.685571,STN
328966761000,0.679907,4.29473702100546,9.58869561155495,1.72644987612042,-1.4092661,-1.4892895,1.5143349,134.92249,-99.19215,9.19101,STN
328971855000,0.685001,4.46951436133559,10.0211953544984,1.41385806336087,-1.4477507,-1.4083499,1.6282613,135.76495,-80.23923,9.748492,STN
328976772000,0.689918,4.64291196506768,10.4945241349522,1.02957153832604,-1.4349225,-1.2140946,1.7275269,136.54254,-79.59876,10.341243,STN
328981910000,0.695056,4.8320278048153,11.1556580542597,0.651311063246571,-1.3518448,-0.9645562,1.8133535,137.21089,-78.87911,10.99048,STN
328986795000,0.699941,5.01468107976774,11.8441207782561,0.300054421805987,-1.2492194,-0.8564331,1.928807,137.83769,-78.11277,11.6709585,STN
328991905000,0.705051,5.05231973924882,12.8805091547746,0.739736891456986,-1.1294898,-0.7174612,2.0247128,138.29343,-77.326126,12.382732,STN
328996902000,0.710048,5.03383744916482,14.0079297183547,1.46054671615719,-1.0919216,-0.6988298,2.0635028,138.73918,-76.53314,13.09911,STN
329001770000,0.714916,4.97156250578307,14.4471224570023,1.81726143352835,-1.0885619,-0.7431176,2.1041253,139.09947,-75.748215,13.8285055,STN
329006726000,0.719872,4.88555726465441,14.5577006571577,2.00401585541807,-1.1178834,-0.8231409,2.1111503,139.45767,-74.97841,14.54417,STN
329011761000,0.724907,4.79818107638105,14.6700415041677,2.1937471940409,-1.2012665,-0.91538155,2.084883,139.85957,-74.25969,15.171413,STN
329016734000,0.72988,4.71188082130986,14.7809990080766,2.3811422182656,-1.3130548,-0.9914343,2.0491474,140.26616,-73.55098,15.785264,STN
329021730000,0.734876,4.08641278192627,14.2181162895394,2.3708638534419,-1.4440855,-1.022283,2.0082195,140.65302,-72.85642,16.376635,STN
329026730000,0.739876,3.30660480910181,13.4622290880208,2.30388643312019,-1.5738943,-1.0296134,1.9898936,141.04228,-72.167694,16.954102,STN
329031732000,0.744878,2.82871719522687,12.9495660043214,2.16842713213514,-1.6762142,-1.0170907,1.9911152,141.44533,-71.51402,17.463104,STN
329036767000,0.749913,2.43565147911019,12.5044071259085,2.01214804084659,-1.713477,-0.9990701,1.9837849,141.83188,-70.86706,17.958754,STN
329041722000,0.754868,2.07115663101562,12.0957615117188,1.90039009609375,-1.7006488,-1.0088439,1.9859229,142.22559,-70.30179,18.355787,STN
329046798000,0.759944,1.70561805808594,11.6874979394531,1.80069775351563,-1.647809,-1.0558805,1.9773707,142.60477,-69.74132,18.749088,STN
329051744000,0.76489,1.40794817089675,11.2577926359523,1.64526270689017,-1.5641204,-1.1462886,1.9385809,142.9528,-69.23232,19.104214,STN
329056760000,0.769906,1.13130416456191,10.8082457581242,1.46248011051008,-1.4856243,-1.239751,1.8842138,143.29985,-68.73683,19.454576,STN
329061739000,0.774885,0.922317998363568,10.4393291161399,1.20965624455396,-1.4110987,-1.2861768,1.8188512,143.62025,-68.296555,19.766476,STN
329066741000,0.779887,0.734181290695717,10.0944118889097,0.931930583035347,-1.3350459,-1.3054191,1.7504344,143.949,-67.883736,20.0639,STN
329071757000,0.784903,0.540178464985707,9.73174760550295,0.645295729430052,-1.2638801,-1.2596041,1.6920967,144.23798,-67.51798,20.327505,STN
329076724000,0.78987,0.344705161783098,9.36204821350724,0.356335228601036,-1.1914927,-1.1695015,1.6041322,144.51305,-67.19025,20.560432,STN
329081741000,0.794887,0.105594136824571,8.96023696720458,0.0410641132014576,-1.1184943,-1.0485502,1.4865406,144.76297,-66.92188,20.752104,STN
329086737000,0.799883,-0.20324865359292,8.51191657699115,-0.312610690230088,-1.0280862,-0.98746365,1.4123205,144.99693,-66.67926,20.927837,STN
329091736000,0.804882,-0.460675462370555,8.0635994150551,-0.681930763414431,-0.9923506,-0.87964594,1.2492194,145.18468,-66.52053,21.025291,STN
329096779000,0.809925,-0.656510095757954,7.61167341867332,-1.07360007213558,-0.906524,-0.7663304,1.0760391,145.35027,-66.40395,21.093557,STN
329101770000,0.814916,-0.714870439589878,7.16073270014543,-1.4670509091623,-0.81153446,-0.6209445,0.87995136,145.48445,-66.381134,21.077791,STN
329106775000,0.819921,-0.654455969709133,6.70530045896839,-1.86671588167539,-0.7290677,-0.40194935,0.6780604,145.56758,-66.4157,21.000366,STN
329112292000,0.825438,-0.497006978858221,6.30612379304011,-2.16273333864178,-0.643852,-0.12705997,0.4908302,145.61183,-66.53362,20.86323,STN
329116777000,0.829923,-0.300840283713264,6.05878330133042,-2.29493272128674,-0.5555819,0.16554448,0.30543262,145.59433,-66.7159,20.65567,STN
329121754000,0.8349,-0.0392238844519941,5.81941402422452,-2.34735323816839,-0.46028697,0.4437936,0.11881329,145.51543,-66.942825,20.435356,STN
329126755000,0.839901,0.276765475081241,5.62133108714919,-2.28604181536189,-0.3817908,0.66920286,-0.038179077,145.3746,-67.22149,20.157072,STN
329131730000,0.844876,0.566473878376849,5.44931536662365,-2.15958277303683,-0.3136793,0.84788096,-0.16615535,145.19296,-67.50967,19.880241,STN
329136782000,0.849928,0.825843432992157,5.31002435901916,-1.93863834523975,-0.24190263,0.97341377,-0.28008172,144.9698,-67.84729,19.553905,STN
329141716000,0.854862,1.08155911343775,5.21560807508978,-1.70719577299481,-0.17745635,1.0482447,-0.40378192,144.72762,-68.157745,19.252977,STN
329146902000,0.860048,1.354064322915,5.18092556190144,-1.43964520086792,-0.11056661,1.0772609,-0.52015173,144.46967,-68.506615,18.918774,STN
329151836000,0.864982,1.60760414215328,5.17832725052007,-1.15231623870438,-0.04734206,1.0598512,-0.6273586,144.20927,-68.82051,18.611372,STN
329156809000,0.869955,1.8552913040146,5.2174357664781,-0.817721273686131,0.031154128,0.9975429,-0.6988298,143.96008,-69.166275,18.283966,STN
329161767000,0.874913,2.11728232284879,5.25657099736842,-0.495029708878446,0.09560041,0.8744536,-0.75594574,143.73692,-69.47021,17.991777,STN
329166824000,0.87997,2.44095762515664,5.2970303243421,-0.206756420386278,0.1572978,0.73426,-0.7959574,143.54184,-69.79735,17.69089,STN
329171769000,0.884915,2.7664419480983,5.33997106896821,0.0514891104645992,0.20280726,0.5858198,-0.8350528,143.38048,-70.06241,17.441006,STN
329176838000,0.889984,3.12150952966647,5.39204760409596,0.259795392852253,0.26145032,0.44440445,-0.8512407,143.26051,-70.34008,17.19588,STN
329182439000,0.895585,3.47308411373563,5.43179410241379,0.481592286856322,0.31306845,0.3136793,-0.85918194,143.17796,-70.547646,17.01567,STN
329186862000,0.900008,3.68812101087165,5.43585131522988,0.643884311633142,0.36713,0.24281894,-0.8542951,143.11975,-70.761826,16.84132,STN
329191836000,0.904982,3.92338392136536,5.43322597802198,0.801275027898473,0.3903429,0.09193522,-0.8445212,143.12122,-70.89258,16.749456,STN
329196887000,0.910033,4.13036508925411,5.39559325274725,0.838907964388797,0.4260785,-0.025350908,-0.84421575,143.13315,-71.03086,16.660112,STN
329201817000,0.914963,4.31740598804156,5.36039767065281,0.865215004107038,0.45998153,-0.11636983,-0.85154617,143.18024,-71.101494,16.632917,STN
329206858000,0.920004,4.38838714193295,5.33673728602235,0.808430031582043,0.50610185,-0.18784106,-0.84971356,143.25378,-71.17375,16.61396,STN
329211831000,0.924977,4.45636709015857,5.31477776085233,0.748512364172448,0.52687126,-0.20891592,-0.8546005,143.34393,-71.20168,16.638441,STN
329216859000,0.930005,4.49931752191278,5.31000539653122,0.638750227205154,0.54092115,-0.19914207,-0.8604037,143.44328,-71.23235,16.665289,STN
329221916000,0.935062,4.53131286477612,5.3085240961194,0.539934985870647,0.54061574,-0.16249016,-0.8585711,143.53741,-71.25164,16.705357,STN
329226801000,0.939947,4.42269629590618,5.34842402618337,0.588701590206112,0.55741453,-0.09254608,-0.8564331,143.61642,-71.27405,16.742208,STN
329231838000,0.944984,4.31070005078891,5.38956546891258,0.638985599630419,0.55863625,-0.0290161,-0.8384125,143.6924,-71.29076,16.78979,STN
329236848000,0.949994,4.19930414289979,5.43048637978678,0.689000069992893,0.5357288,0.019242255,-0.8228355,143.75006,-71.30429,16.835182,STN
329241817000,0.954963,4.08881985820896,5.47107240895522,0.738605240298507,0.5143485,0.025350908,-0.7993172,143.79851,-71.30929,16.887188,STN
329246890000,0.960036,3.95460561719224,5.52638449623977,0.765625934321044,0.50518554,0.023518313,-0.77763146,143.83298,-71.307434,16.941563,STN
329251896000,0.965042,3.81796998370874,5.58368338302841,0.787663964515032,0.4978552,0.021685716,-0.75900006,143.86346,-71.29615,17.001524,STN
329256859000,0.970005,3.67051175613593,5.65701805929212,0.756343705227387,0.5103779,0.028099801,-0.74097955,143.87494,-71.322815,17.011549,STN
329261811000,0.974957,3.51748372088333,5.73831434970253,0.698958194504386,0.5137377,0.044593163,-0.72082096,143.88222,-71.34049,17.027592,STN
329266863000,0.980009,3.40833785375746,5.82370394274354,0.644223995944334,0.5222898,0.063224554,-0.70738196,143.87682,-71.38818,17.011679,STN
329271869000,0.985015,3.32255780449304,5.90948369343936,0.591802865785288,0.5225952,0.08827003,-0.6908886,143.86317,-71.427574,17.002083,STN
329276801000,0.989947,3.27115992196382,6.04520445736434,0.513546977648579,0.51923543,0.11881329,-0.6731735,143.83476,-71.507355,16.95264,STN
329281866000,0.995012,3.23534855836102,6.21083220099668,0.419542082751938,0.50854534,0.12889257,-0.6658431,143.80457,-71.58286,16.905773,STN
329286816000,0.999962,3.23957298883093,6.31130957088064,0.342055675627493,0.49602258,0.16768251,-0.66156703,143.75487,-71.68288,16.834959,STN
329291809000,1.004955,3.28358983056152,6.35043570348778,0.278475747165797,0.4981606,0.19761491,-0.66431594,143.70488,-71.78129,16.765402,STN
329296838000,1.009984,3.32628708928571,6.39348758095238,0.217530320071429,0.47983465,0.22999077,-0.6554584,143.64452,-71.90255,16.677069,STN
329301823000,1.014969,3.36722670354116,6.439243564205,0.159733249366223,0.46181414,0.27214047,-0.6432411,143.57257,-72.0217,16.588928,STN
329306812000,1.019958,3.40819916803874,6.48503626238902,0.101889801874092,0.4370741,0.3036,-0.6365216,143.50009,-72.13592,16.507011,STN
329311797000,1.024943,3.44913878229419,6.53079224564165,0.0440927311688862,0.4111123,0.3390302,-0.6224717,143.4137,-72.240875,16.43032,STN
329316851000,1.029997,3.48061632631161,6.53948583895072,0.0163911467185016,0.4007276,0.38606682,-0.59712076,143.3159,-72.338715,16.35753,STN
329321862000,1.035008,3.50445840937997,6.52041217249602,0.0116227266194356,0.38240165,0.40439278,-0.55924714,143.21613,-72.42418,16.293322,STN
329326801000,1.039947,3.50669028709452,6.51489440430183,0.0442335888122567,0.37659842,0.41263947,-0.52106804,143.11594,-72.50359,16.244453,STN
329331966000,1.045112,3.49187917660445,6.51983144113185,0.108415115545963,0.37965274,0.43890667,-0.49663344,143.00508,-72.57412,16.202038,STN
329336847000,1.049993,3.4583045625,6.53102298375,0.20386627125,0.38759398,0.45937067,-0.4718934,142.89523,-72.62743,16.176386,STN
329341864000,1.05501,3.40903776948242,6.54744525625488,0.328206222514648,0.39400807,0.4560109,-0.4447099,142.78494,-72.67266,16.158682,STN
329346859000,1.060005,3.35998701582031,6.56379551560547,0.452000931816406,0.4202753,0.41416663,-0.408058,142.68181,-72.70868,16.147789,STN
329351840000,1.064986,3.31107374174805,6.58009994840332,0.575448668959961,0.42638394,0.3585779,-0.37201694,142.58427,-72.735466,16.145098,STN
329356848000,1.069994,3.26760527599653,6.61901192388793,0.678279647325246,0.4364632,0.25992316,-0.3313944,142.5118,-72.753525,16.15667,STN
329361848000,1.074994,3.23072182712305,6.68355818808974,0.75665715550934,0.44623706,0.16340645,-0.30543262,142.45546,-72.76581,16.1756,STN
329366852000,1.079998,3.1985973281951,6.77493652762914,0.839130486661865,0.46639562,0.06078109,-0.27183503,142.42485,-72.77016,16.183735,STN
329371866000,1.085012,3.17389158874254,6.908347469078,0.928071220924058,0.5015204,-0.04337143,-0.25534168,142.42363,-72.77433,16.197123,STN
329376809000,1.089955,3.15826821680348,7.09163053961032,0.983068549589556,0.5323691,-0.089186326,-0.23823744,142.43002,-72.777435,16.207088,STN
329381915000,1.095061,3.15343198489764,7.34795113361685,0.997577245307091,0.5696318,-0.17867808,-0.22388211,142.47939,-72.78052,16.225061,STN
329386783000,1.099929,3.13084584702065,7.58536050581542,1.07529739874421,0.59620446,-0.2302962,-0.22143865,142.5294,-72.79359,16.226093,STN
329391881000,1.105027,3.08146773185841,7.82402102338812,1.24812058697851,0.6078109,-0.25778514,-0.20861048,142.59676,-72.80164,16.235958,STN
329397014000,1.11016,3.03316965698546,8.07129795344866,1.43233925093654,0.6160576,-0.31123585,-0.20616703,142.68294,-72.8334,16.22541,STN
329401825000,1.114971,3.00271087461437,8.37588604219921,1.71154502104451,0.6209445,-0.37048978,-0.20952678,142.777,-72.86327,16.21786,STN
329406827000,1.119973,2.98660368106509,8.69307707248521,1.98381572928994,0.6093381,-0.45051312,-0.21074851,142.87868,-72.90981,16.176296,STN
329411810000,1.124956,3.02190042248521,9.01074792954882,2.1955963620932,0.5830709,-0.54611355,-0.20861048,143.0002,-72.95398,16.138607,STN
329416839000,1.129985,3.05983137917426,9.3307363578223,2.41007205088039,0.56016344,-0.655153,-0.20738874,143.14075,-73.00973,16.063839,STN
329421819000,1.134965,3.12739821706132,9.63961327342643,2.63207724578021,0.5384777,-0.75441855,-0.20952678,143.30272,-73.06002,15.996459,STN
329426811000,1.139957,3.19862438996781,9.94334073998569,2.8492474866774,0.4978552,-0.8546005,-0.18967366,143.48643,-73.095985,15.925921,STN
329431939000,1.145085,3.30840141722103,10.1936324409871,3.01610854425966,0.46761733,-0.9334021,-0.18142697,143.68784,-73.13026,15.860646,STN
329437842000,1.150988,3.43398391323214,10.4771177722321,3.20283415899991,0.4147775,-0.98624194,-0.1591304,143.90605,-73.12641,15.827292,STN
329441849000,1.154995,3.50902440033523,10.6093319815625,3.2600078812273,0.36926803,-1.0231993,-0.1328632,144.136,-73.11489,15.803603,STN
329446810000,1.159956,3.60193077830338,10.7730241933141,3.33079371501071,0.31795537,-1.0290025,-0.1151481,144.37955,-73.06895,15.804215,STN
329451844000,1.16499,3.70217045625,10.7837840028409,3.30005343920454,0.27030787,-1.0024298,-0.101098195,144.61674,-73.01246,15.813916,STN
329456788000,1.169934,3.80305343839286,10.7309404882305,3.22799413758117,0.22815818,-0.9315695,-0.086132,144.83522,-72.946236,15.829918,STN
329461844000,1.17499,3.89703968731285,10.5663615587076,3.08257717746257,0.19761491,-0.84635377,-0.08368854,145.04437,-72.86428,15.851734,STN
329466798000,1.179944,3.98583262237983,10.365409321907,2.91433783447597,0.17715092,-0.7675522,-0.0842994,145.2284,-72.77646,15.876596,STN
329471860000,1.185006,4.06289874361379,10.1037776322759,2.70026067842759,0.17256944,-0.68203104,-0.0842994,145.37679,-72.6739,15.91261,STN
329476837000,1.189983,4.13302465073104,9.82327345462069,2.47235119426207,0.15515977,-0.6429357,-0.07788532,145.51169,-72.56726,15.950732,STN
329481804000,1.19495,4.20223265054848,9.48217983512465,2.1559223226482,0.13958271,-0.5525276,-0.07360926,145.60722,-72.449585,16.00494,STN
329486831000,1.199977,4.27157957246537,9.08210248919668,1.75584514382271,0.12583824,-0.45204028,-0.06291912,145.68547,-72.328705,16.06138,STN
329491829000,1.204975,4.36017214012031,8.78320634633613,1.39987040454612,0.115453534,-0.37140608,-0.046120327,145.76526,-72.195335,16.152027,STN
329496835000,1.209981,4.45629965893183,8.5210401370762,1.0590541317572,0.12339478,-0.2846632,-0.019242255,145.8112,-72.05999,16.242931,STN
329501849000,1.214995,4.57463855197037,8.35575031437037,0.720174939100247,0.14782938,-0.19883664,0.01160644,145.8835,-71.92484,16.364805,STN
329507549000,1.220695,4.73098896085926,8.26409600325926,0.337386409026173,0.20219639,-0.08979719,0.064446285,145.9199,-71.784225,16.493895,STN
329511845000,1.224991,4.84210179186624,8.45487970463862,0.114808035108954,0.2968805,0.0027488936,0.09132435,145.95224,-71.65054,16.650307,STN
329516859000,1.230005,4.96642048724919,8.88481587119741,-0.0923898464207119,0.35796702,0.064751714,0.15821409,145.95729,-71.49718,16.827143,STN
329521848000,1.234994,5.06166514931087,9.87644146669219,-0.121854970367534,0.36987892,0.076358154,0.25534168,145.97015,-71.33825,17.04036,STN
329526802000,1.239948,5.14158538361409,11.1515308913476,-0.0600984974058193,0.344528,0.031154128,0.36010507,145.97903,-71.16326,17.271315,STN
329531928000,1.245074,5.21391797813297,12.4445166811139,-0.00716053686016866,0.3136793,-0.08460484,0.47525316,146.00677,-70.98637,17.522488,STN
329536826000,1.249972,5.12652445975682,13.2816520256913,-0.122151715683467,0.29168814,-0.28160888,0.6291912,146.06746,-70.77031,17.81456,STN
329542072000,1.255218,5.0211490481553,14.1592784407958,-0.251028149897624,0.30451632,-0.49113566,0.8042041,146.15277,-70.61376,18.054464,STN
329546871000,1.260017,4.71043479435967,14.6164728765694,-0.472966984713154,0.3436117,-0.6942484,0.96974856,146.28929,-70.41953,18.335964,STN
329552240000,1.265386,4.36012250213559,15.1214951519447,-0.722390085150854,0.37659842,-0.86132,1.0735956,146.478,-70.28111,18.57717,STN
329556861000,1.270007,3.86947909242094,15.1013868309706,-1.01597182333697,0.38698313,-0.9254609,1.1111639,146.69116,-70.11502,18.843502,STN
329561800000,1.274946,3.34507143161578,15.0798947302799,-1.32975676272265,0.31123585,-0.9074403,1.0897835,146.92651,-70.032845,19.029795,STN
329566859000,1.280005,2.75742552681388,14.6465628880126,-1.79605916246057,0.18020524,-0.79779,0.98837996,147.15147,-69.95232,19.199703,STN
329571818000,1.284964,2.16284685316443,14.0707109900927,-2.30636675869479,0.008246681,-0.5873469,0.82802784,147.33934,-69.87994,19.340206,STN
329577046000,1.290192,1.68457784183373,13.2827851198408,-2.82913605492335,-0.20219639,-0.27122417,0.6533204,147.45631,-69.92973,19.346573,STN
329581936000,1.295082,1.29340258977005,12.4774240806309,-3.3123525823408,-0.3979787,-0.07849618,0.5671884,147.54614,-69.98076,19.332973,STN
329586856000,1.300002,1.052632842502,11.7184755783,-3.58897154116,-0.47494772,0.32467487,0.3921755,147.48647,-70.173134,19.173,STN
329591866000,1.305012,0.879905507362,10.9699910973,-3.77129485996,-0.5766568,0.6921103,0.23793201,147.38028,-70.36132,18.995432,STN
329596858000,1.310004,0.895865897529056,10.2170585700752,-3.89669974063873,-0.58123827,1.0082331,0.13072516,147.18321,-70.61822,18.758038,STN
329601861000,1.315007,1.0034930095439,9.45898948823127,-3.994967866276,-0.5381723,1.2733486,0.037873644,146.89644,-70.90524,18.477755,STN
329606849000,1.319995,1.32144131121013,8.92718230855696,-4.04692084687595,-0.44135013,1.4899004,-0.038789943,146.5493,-71.208275,18.18585,STN
329611804000,1.32495,1.76353579434937,8.53314164121519,-4.07094765442025,-0.29657507,1.6572775,-0.09773844,146.14325,-71.5356,17.871181,STN
329616829000,1.329975,2.44110679555556,8.87123037777778,-3.86583757377778,-0.11362094,1.7333301,-0.13775012,145.71361,-71.829346,17.600891,STN
329621848000,1.334994,3.246657225,9.623374,-3.5320460975,0.12980886,1.7006488,-0.1386664,145.27135,-72.140724,17.326468,STN
329626798000,1.339944,4.433949000936,11.0170487692098,-2.93139414278407,0.4007276,1.4801265,-0.100792766,144.88182,-72.371765,17.149464,STN
329631837000,1.344983,6.07264616987375,13.1494558933391,-2.02275752760122,0.65301496,1.0525209,-0.01038471,144.56631,-72.59758,16.99455,STN
329636853000,1.349999,7.77438980497434,14.8027189727596,-1.03458247320174,0.8127562,0.3827071,0.11636983,144.3982,-72.69007,16.976309,STN
329641857000,1.355003,9.51022663403079,16.1980109326885,-0.00348592015791543,0.8848383,-0.49327368,0.24831672,144.41953,-72.7545,16.996023,STN
329647244000,1.36039,11.3847716684045,17.2040021569939,0.720438516909305,0.8472701,-1.4801265,0.36163223,144.68793,-72.61417,17.201626,STN
329651842000,1.364988,12.9874315702341,17.8364021939799,1.16225282886288,0.6728681,-2.3808472,0.46914452,145.18684,-72.43291,17.44289,STN
329656851000,1.369997,13.9370918571429,17.0639438694885,0.974875041763668,0.41874814,-2.993545,0.48502702,145.89763,-72.03584,17.874014,STN
329661842000,1.374988,14.3304896071429,15.2796036644131,0.323895195165589,0.16584991,-3.1688635,0.44715336,146.73108,-71.638664,18.29831,STN
329666849000,1.379995,13.8377686491874,13.4095372812153,-0.305490198116483,-0.0070249503,-2.980106,0.39828414,147.6442,-71.05354,18.898626,STN
329671862000,1.385008,12.6117506192591,11.4711692694559,-0.916076188866458,-0.07696902,-2.8087585,0.4428773,148.59479,-70.48566,19.478205,STN
329676826000,1.389972,11.0768685767635,10.0461103319502,-1.58529934896266,-0.013439035,-2.3689353,0.51343226,149.4452,-69.79854,20.176645,STN
329681972000,1.395118,9.23158425409998,8.96036254346967,-2.33022957069749,0.049480084,-1.777007,0.63438356,150.18304,-69.11207,20.870092,STN
329686853000,1.399999,7.59848937131678,8.29792281534151,-2.88973093697227,0.18570304,-1.0726794,0.6637051,150.7484,-68.50187,21.488237,STN
329691868000,1.405014,6.01628061153512,7.91745015772389,-3.34444192204618,0.26236662,-0.3200934,0.59773165,151.11111,-67.896416,22.09768,STN
329696854000,1.41,4.6699634373179,7.75059909095989,-3.49796647440631,0.2929099,0.39370266,0.4990769,151.26254,-67.4709,22.527119,STN
329701859000,1.415005,3.56994923566154,7.81755642243065,-3.32100766284175,0.27305678,0.93462384,0.39675698,151.23509,-67.06739,22.932135,STN
329706839000,1.419985,2.65959995053911,7.91427612389727,-3.04787837143697,0.2171626,1.2754866,0.2706133,151.0334,-113.115364,23.11535,STN
329711805000,1.424951,1.96034850121545,8.04480297024113,-2.66562088651245,0.13316862,1.4440855,0.13713925,150.7207,-113.26677,23.26632,STN
329716787000,1.429933,1.42139914539604,8.1763020770297,-2.37706394841584,0.055588737,1.4679092,0.0061086523,150.3086,-113.23507,23.234148,STN
329721822000,1.434968,1.10630323710396,8.3099793329703,-2.21951605658416,-0.010995574,1.42973,-0.092240654,149.86848,-113.173134,23.171913,STN
329726764000,1.43991,0.885993112712956,8.40040980814184,-2.12419673843106,-0.06291912,1.3133603,-0.15210545,149.39662,-112.9696,22.968845,STN
329731825000,1.444971,0.799579871275753,8.42921429714739,-2.11939600697306,-0.0711658,1.1685852,-0.18142697,148.95306,-112.74539,22.744967,STN
329736792000,1.449938,0.745269156326219,8.34516097942073,-2.17157021553925,-0.0580322,1.035722,-0.21533,148.52258,-112.44095,22.440857,STN
329741834000,1.45498,0.740668715625,8.07373459375,-2.31878436601562,-0.057421334,0.92179567,-0.2846632,148.13943,-112.11819,22.118183,STN
329746791000,1.459937,0.765436052736568,7.79764614875702,-2.51233544813553,0.006414085,0.8533788,-0.36713,147.78493,-68.23428,21.765697,STN
329751836000,1.464982,0.867141629395549,7.49252944406576,-2.83682457859864,0.07666359,0.8032878,-0.44135013,147.46645,-68.602875,21.397095,STN
329756768000,1.469914,1.01965896281434,7.21556139256385,-3.09467533208251,0.16340645,0.73364913,-0.46853364,147.18951,-111.04208,21.042059,STN
329762655000,1.475801,1.36302601582515,6.94972881860511,-3.2220534729666,0.25473082,0.5897904,-0.4700608,146.9547,-110.6751,20.674673,STN
329766792000,1.479938,1.60063642845349,6.77637619523941,-3.2566377414878,0.34025195,0.39064834,-0.42638394,146.77675,-110.3563,20.353422,STN
329771853000,1.484999,1.8807225299945,6.60298959411117,-3.14104672049165,0.4382958,0.28191432,-0.40133846,146.616,-110.03597,20.027351,STN
329776871000,1.490017,2.12976304756596,6.4803806916388,-2.97609853296172,0.48930305,0.09010262,-0.40866885,146.55849,-109.788895,19.768606,STN
329781918000,1.495064,2.05791738024898,6.91145441421405,-2.24417123674285,0.59895337,-0.0061086523,-0.47494772,146.50346,-109.54032,19.500454,STN
329786854000,1.5,1.98765183361204,7.33304741889632,-1.52834141028428,0.6808093,-0.031154128,-0.5329799,146.49309,-109.36275,19.29684,STN
329791859000,1.505005,2.00310167878348,7.73031206144759,-0.929657281595772,0.75808376,-0.013744468,-0.58001655,146.49608,-109.179825,19.077673,STN
329796835000,1.509981,2.02532267309466,8.12288332187969,-0.344504026639034,0.8029824,-0.0009162979,-0.6133087,146.50475,-108.994896,18.846325,STN
329801855000,1.515001,2.04774015529765,8.51892587159215,0.245823413048028,0.83260936,-0.004886922,-0.6603453,146.46207,-108.73698,18.55399,STN
329806878000,1.520024,2.09039530043539,8.89834725885612,0.844523502576687,0.8735373,-0.007330383,-0.70616025,146.41315,-108.47853,18.255127,STN
329811859000,1.525005,2.39720661475361,9.05411268078369,1.54310921095092,0.88514376,-0.03756821,-0.75319684,146.37155,-108.213394,17.94471,STN
329816993000,1.530139,2.72904198907088,9.20055034067897,2.26745591072067,0.88453287,-0.116980694,-0.7742717,146.26854,-107.84602,17.574167,STN
329821854000,1.535,3.23736183527894,9.16358184216796,3.00683022370459,0.86193085,-0.24984388,-0.7669413,146.19626,-107.48528,17.207903,STN
329827085000,1.540231,3.7835716738546,9.11034680397805,3.77689812872428,0.80848014,-0.4361578,-0.74220127,146.20282,-107.23621,16.96135,STN
329832620000,1.545766,4.35073155780521,8.87281836570645,4.24710769168724,0.68966687,-0.6478226,-0.68661255,146.25851,-106.99998,16.72943,STN
329836827000,1.549973,4.78181405677183,8.6922795870599,4.60450094035665,0.4896085,-0.8573494,-0.6065892,146.38007,-106.87465,16.63523,STN
329841864000,1.55501,5.01800792981378,8.42029893506002,4.33690409849702,0.20005837,-1.0051788,-0.5271767,146.54536,-106.761215,16.558,STN
329846875000,1.560021,5.19945941816807,8.13904892206258,3.9377107578032,-0.12614368,-1.047023,-0.45631635,146.73956,-106.66531,16.50326,STN
329851855000,1.565001,5.16977669485011,7.9592532751606,3.25642406730193,-0.43371433,-0.98532563,-0.3912592,146.95155,-106.69773,16.591452,STN
329856751000,1.569897,5.06435370589936,7.8186898490364,2.48332354618844,-0.6704246,-0.8362745,-0.32345316,147.14583,-106.75902,16.70231,STN
329861853000,1.574999,4.77040214619796,7.77518462305943,1.89629209891229,-0.8393288,-0.675617,-0.26450464,147.30418,-106.87692,16.8555,STN
329866757000,1.579903,4.45461097435973,7.75196469465045,1.37152128044102,-0.93309665,-0.61391956,-0.21868975,147.44498,-107.03007,17.027666,STN
329871855000,1.585001,4.08356327126291,7.77667785667694,0.892551800742888,-0.9691377,-0.514654,-0.20158553,147.48721,-72.83252,17.165945,STN
329876807000,1.589953,3.71406757950716,7.81104934861388,0.441423299710092,-0.98349303,-0.41783184,-0.1853976,147.5144,-72.66098,17.322622,STN
329881857000,1.595003,3.22819613468948,7.7885578775374,-0.15043348123991,-0.97585726,-0.32559118,-0.20005837,147.53166,-72.5458,17.414753,STN
329886837000,1.599983,2.6840775612313,7.73209289981703,-0.81261541407814,-0.95905846,-0.21319197,-0.2284636,147.51622,-72.417366,17.510374,STN
329891848000,1.604994,2.36289326080283,7.81931001936246,-1.19483949386068,-0.9202685,-0.06688975,-0.2929099,147.4923,-72.385216,17.512188,STN
329896924000,1.61007,2.10683222572882,7.95175512640087,-1.49504900551267,-0.84574294,0.11301007,-0.35918877,147.42668,-72.35661,17.50631,STN
329901779000,1.614925,1.98994130678931,7.99750165133596,-1.65041138664039,-0.79259765,0.2556471,-0.38912117,147.35579,-72.44552,17.394325,STN
329906859000,1.620005,1.96863156346912,7.98151956636005,-1.70901323639947,-0.7672467,0.37568212,-0.39645153,147.24019,-72.54486,17.270472,STN
329911843000,1.624989,2.06099487980296,7.81689161576355,-1.68542361083744,-0.79137594,0.4700608,-0.4266894,147.10556,-72.73446,17.061943,STN
329916858000,1.630004,2.19348505310345,7.59922925172414,-1.63337388931034,-0.83199847,0.5671884,-0.47861293,146.93701,-72.92926,16.846355,STN
329921846000,1.634992,2.36989319570138,7.45249755494887,-1.47660516176909,-0.85918194,0.64812803,-0.5183192,146.75058,-73.13075,16.623526,STN
329926792000,1.639938,2.56269002371687,7.33493860329594,-1.27910602478904,-0.8927795,0.69974613,-0.52595496,146.54755,-73.33194,16.397202,STN
329931918000,1.645064,2.7347616301509,7.20023043663083,-1.07198747835289,-0.90041536,0.7141015,-0.5155703,146.34206,-73.49513,16.205208,STN
329936849000,1.649995,2.88846185824046,7.06516023562482,-0.871711384957096,-0.91446525,0.68875057,-0.4999932,146.13696,-73.653336,16.015104,STN
329941858000,1.655004,3.06693085189711,6.86934771832797,-0.763151406598071,-0.9254609,0.6450737,-0.49877146,145.94473,-73.75725,15.868175,STN
329946893000,1.660039,3.25741565649058,6.64342400725769,-0.70113313061277,-0.95264435,0.6062838,-0.5177083,145.76268,-73.85663,15.722595,STN
329951850000,1.664996,3.51074585791803,6.46187936676852,-0.700163383173533,-0.98349303,0.5830709,-0.5326745,145.59355,-73.899155,15.621334,STN
329956852000,1.669998,3.83376801901802,6.3205573458645,-0.760730045626383,-1.0228939,0.5852089,-0.5311473,145.4323,-73.93521,15.52178,STN
329961839000,1.674985,4.17469905684022,6.26886672454125,-0.734583809412203,-1.0824533,0.6102544,-0.50946164,145.28395,-73.90436,15.477157,STN
329966861000,1.680007,4.53106251439654,6.27843352340743,-0.64848255218708,-1.1389582,0.62858033,-0.46181414,145.13979,-73.858185,15.442218,STN
329972108000,1.685254,4.90339207668208,6.28842894229449,-0.558523711752946,-1.1557571,0.627664,-0.3866777,145.00713,-73.73199,15.483236,STN
329976830000,1.689976,5.23846739459943,6.29742424779949,-0.477565898806505,-1.210124,0.60994893,-0.3454443,144.87703,-73.59016,15.529047,STN
329981923000,1.695069,5.63013501273068,6.32648701174381,-0.404496976261719,-1.2189816,0.56199604,-0.23854288,144.75496,-73.410706,15.61402,STN
329986859000,1.700005,6.03133102733643,6.36847248258166,-0.343851116468963,-1.2400564,0.5027421,-0.1386664,144.64357,-73.21323,15.710002,STN
329991864000,1.70501,6.48328348114125,6.41835120926412,-0.0634096902002527,-1.2202033,0.42149702,-0.025350908,144.56578,-72.831436,15.9828005,STN
329996888000,1.710034,6.97438448707106,6.47447705944396,0.399628488316322,-1.2217305,0.26725355,0.10323623,144.52594,-72.416016,16.290169,STN
330001846000,1.714992,7.55231828571429,6.57500092436975,1.02648881596639,-1.2241739,-0.03848451,0.24312437,144.56178,-71.88974,16.715094,STN
330006870000,1.720016,8.23580870748299,6.72421377462985,1.83993873382153,-1.2461652,-0.48624873,0.39614612,144.68199,-71.329346,17.186268,STN
330011844000,1.72499,9.03524672372492,7.09549340043917,2.7003162882124,-1.3203852,-1.0656544,0.58276546,144.92476,-70.584984,17.821102,STN
330016830000,1.729976,9.96460547290149,7.70076762381475,3.62014266533586,-1.4129313,-1.7898352,0.8222246,145.33374,-69.79345,18.529129,STN
330021821000,1.734967,10.9919657390742,8.68280954733698,4.12628495739174,-1.5106697,-2.6120598,1.1371256,145.92474,-68.744194,19.460905,STN
330026788000,1.739934,12.1190119106023,10.0655728998507,4.18311099761075,-1.5732834,-3.3692272,1.5586227,146.68533,-67.62019,20.503632,STN
330031827000,1.744973,13.1170647886019,11.4532018704398,3.93336319770262,-1.5754215,-3.8786888,2.0366247,147.56264,-66.2254,21.781885,STN
330036825000,1.749971,13.94297270775,12.8124094981266,3.33870976202919,-1.5360206,-4.1532726,2.477975,148.5482,-64.77219,23.16022,STN
330041779000,1.754925,14.4577182658334,13.9265090706091,2.80773731178062,-1.461495,-4.211305,2.7699685,149.60464,-63.230453,24.684149,STN
330046830000,1.759976,14.5840521572615,14.7567053007182,2.34300804528495,-1.4269812,-4.0402627,2.8878655,150.637,-61.688538,26.225182,STN
330051780000,1.764926,14.3968784534008,15.5055853526671,1.77751741180646,-1.4065173,-3.513697,2.8716774,151.61919,-60.241707,27.73722,STN
330056837000,1.769983,13.4365393123141,16.1105987959548,0.927617134063058,-1.3494014,-2.5705209,2.843883,152.39711,-58.841595,29.179508,STN
330061815000,1.774961,12.3478496553224,16.5753376125882,0.236422969219762,-1.2483032,-1.9669861,2.9000828,153.14125,-57.592358,30.503193,STN
330066771000,1.779917,10.8977675634729,16.7038265724645,-0.080208879767959,-1.1114693,-0.7098254,2.9568932,153.36118,-56.407314,31.67967,STN
330071734000,1.78488,9.48690628503844,16.7577534529864,-0.32417859258427,-1.0491611,0.38789943,3.0314188,153.46205,-55.45969,32.638084,STN
330076716000,1.789862,8.24074142913463,16.503817289178,-0.267748486179775,-1.0210613,1.2198979,3.0714304,153.22876,-54.54011,33.516983,STN
330081746000,1.794892,6.9906445929965,16.2427747155578,-0.214645985485743,-1.1093313,1.7739527,3.0863967,152.698,-53.819633,34.14946,STN
330086752000,1.799898,5.78671110915458,15.9597786989495,-0.181070154986493,-1.2629639,2.0179935,3.058297,151.99255,-53.11032,34.73216,STN
330091759000,1.804905,4.62497816838948,15.6948530745731,-0.223592591129672,-1.4266758,2.0781636,3.009733,151.12161,-52.517433,35.144913,STN
330096765000,1.809911,3.66924544637748,15.5178656789109,-0.635088604838948,-1.5479325,2.0295997,2.9226847,150.21667,-51.94228,35.51539,STN
330102086000,1.815232,2.57662822772277,15.388005549505,-1.10898277231259,-1.5906931,1.9138408,2.754086,149.28642,-51.504276,35.7126,STN
330106768000,1.819914,0.65021700990099,16.0063598391089,-1.98498459980552,-1.5519031,1.765706,2.5265386,148.41083,-51.108276,35.864285,STN
330111767000,1.824913,-1.40662401485149,16.6665804913366,-2.92029710207744,-1.4398094,1.6181821,2.277611,147.59142,-50.878952,35.86178,STN
330116773000,1.829919,-2.65327114493119,17.1884934914712,-2.98411280168637,-1.2550226,1.5234979,2.039679,146.84282,-50.722298,35.802773,STN
330121745000,1.834891,-3.61315713810816,17.659206195096,-2.74875611256057,-1.0177015,1.4294246,1.8335121,146.18239,-50.64313,35.69464,STN
330126792000,1.839938,-4.1372297057544,17.1644324674708,-2.31853600844374,-0.7761043,1.2705997,1.6465873,145.61526,-50.98416,35.207478,STN
330131865000,1.845011,-4.44946056699624,16.2037219322721,-1.79494863885703,-0.5910121,1.0659598,1.4337007,145.13614,-51.39535,34.683865,STN
330136778000,1.849924,-4.15306888308628,14.9527039198024,-1.18415337654884,-0.48838675,0.96669424,1.1969905,144.63867,-51.98918,33.979736,STN
330141819000,1.854965,-3.54754610900798,13.5077063472064,-0.50523387718073,-0.41538838,0.9789116,0.95447695,144.2115,-52.63648,33.249447,STN
330146847000,1.859993,-2.54389399268627,12.3087910039216,0.379106971846405,-0.37904188,1.010982,0.7583892,143.77625,-53.26033,32.519283,STN
330151756000,1.864902,-1.26359602320261,11.320400751634,1.39822422194989,-0.3484986,0.9868528,0.643852,143.38922,-53.920048,31.767765,STN
330156716000,1.869862,-0.00760974954190163,10.7682398760265,2.16671484956961,-0.37110063,0.93401295,0.5885687,142.96678,-54.393093,31.168306,STN
330161761000,1.874907,1.25440244628277,10.3905921506876,2.84074407055506,-0.40194935,0.75411314,0.56230146,142.61662,-54.88801,30.565577,STN
330166745000,1.879891,2.3559407836989,10.0410166815982,3.27351247623314,-0.40775254,0.49663344,0.52931476,142.2682,-55.157127,30.15272,STN
330171707000,1.884853,3.38845490794975,9.70337023550613,3.60137242353002,-0.45875978,0.21105394,0.50243664,142.00044,-55.42075,29.756159,STN
330176743000,1.889889,4.00818702465764,9.38857377800913,3.58096956562025,-0.4896085,-0.1432479,0.50243664,141.799,-55.49294,29.539202,STN
330181760000,1.894906,4.47761241093938,9.08460151437495,3.43860291959638,-0.50701815,-0.52534413,0.49449542,141.70937,-55.567665,29.346254,STN
330186730000,1.899876,4.94092442483396,8.78430701386081,3.20595163883916,-0.48991394,-0.86101454,0.45875978,141.67538,-55.496502,29.30846,STN
330191962000,1.905108,5.42322160669939,8.47081357118106,2.67060165466359,-0.43157628,-1.0797043,0.408058,141.7299,-55.43433,29.292463,STN
330196757000,1.909903,5.84242048150782,8.18826443060354,2.18436619708393,-0.34300083,-1.183246,0.3735441,141.84882,-55.297764,29.396002,STN
330201741000,1.914887,6.17220034722617,7.91668150030482,1.69939570206259,-0.2406809,-1.2067643,0.35094208,142.01141,-55.182056,29.501717,STN
330206749000,1.919895,6.42708459577953,7.67985095126229,1.29306830462517,-0.14385876,-1.1612549,0.31520647,142.25508,-55.04194,29.706629,STN
330211753000,1.924899,6.38552555126229,7.58287933306996,1.20071456163037,-0.05681047,-1.14018,0.2996294,142.50804,-54.917038,29.91113,STN
330216752000,1.929898,6.30106896939728,7.48698803515581,1.10184388164956,0.017104227,-1.1585059,0.2593123,142.82509,-54.78812,30.177515,STN
330221745000,1.934891,5.93077498964359,7.397760637507,0.959079933607016,0.07849618,-1.1365148,0.21746802,143.12036,-54.674484,30.428442,STN
330227030000,1.940176,5.52883986818182,7.30007231255411,0.807876187844156,0.115453534,-1.0726794,0.16340645,143.40866,-54.581432,30.664307,STN
330231755000,1.944901,4.95586381704545,7.14336083528138,0.67075374238961,0.16371189,-0.98563105,0.11209377,143.68222,-54.508003,30.880592,STN
330236745000,1.949891,4.36641650412223,6.97662216653214,0.528808700432401,0.2180789,-0.87872964,0.046120327,143.92128,-54.502243,31.023565,STN
330241787000,1.954933,3.86995934369175,6.80031044667051,0.403534452368598,0.26419923,-0.7779369,-0.031154128,144.13666,-54.51699,31.138622,STN
330246817000,1.959963,3.38150280549254,6.62834163377115,0.283614509030846,0.3213151,-0.64843345,-0.09621128,144.28395,-54.611828,31.159424,STN
330251809000,1.964955,2.98667539247761,6.5094176399801,0.231287982559204,0.364992,-0.5338962,-0.17592919,144.40909,-54.733402,31.145473,STN
330256878000,1.970024,2.59493349622103,6.38753959896043,0.182447700051978,0.40653083,-0.4465425,-0.23579398,144.4721,-54.9241,31.050837,STN
330262205000,1.975351,2.30826159613674,6.24420366139077,0.189614496930461,0.4392121,-0.37201694,-0.30665436,144.50854,-55.141586,30.921679,STN
330267095000,1.980241,2.04510680142824,6.11262627548583,0.196193366225708,0.46273044,-0.33414328,-0.38423425,144.476,-55.419094,30.714888,STN
330271813000,1.984959,1.79120816718801,5.98567696941232,0.202540831529384,0.48899764,-0.27305678,-0.41783184,144.4139,-55.707203,30.492737,STN
330276772000,1.989918,1.52434014531491,5.85224297008663,0.209212531495668,0.49693888,-0.23518312,-0.48075095,144.3564,-56.022465,30.240631,STN
330281863000,1.995009,1.30010100211825,5.65754812,0.226418359713111,0.5103779,-0.21655174,-0.54367006,144.28802,-56.349148,29.976746,STN
330286752000,1.999898,1.09789206266324,5.45533908,0.245676354425707,0.5311473,-0.18936823,-0.600786,144.20961,-56.691,29.694714,STN
330291843000,2.004989,0.956652313313497,5.27375079356235,0.212316533711117,0.548557,-0.14508049,-0.66859204,143.92485,-57.09457,29.292528,STN
330296810000,2.009956,0.832274696794698,5.1021954233703,0.169427709076729,0.5699373,-0.058337633,-0.7492262,143.63747,-57.518444,28.870468,STN
330301813000,2.014959,0.734707387234053,4.92548731281868,0.144030585773421,0.58551437,0.027183503,-0.83199847,143.33989,-57.96618,28.418592,STN
330306800000,2.019946,0.654024229685676,4.74700647867308,0.129360920625371,0.61758476,0.12095132,-0.91965765,143.03383,-58.43941,27.941677,STN
330311796000,2.024942,0.573195463872223,4.56820354155831,0.114664781247056,0.62949663,0.23090707,-1.0067059,142.71585,-58.935963,27.435637,STN
330316822000,2.029968,0.491881337175182,4.38832692787959,0.0998803944345244,0.65484756,0.31520647,-1.1120802,142.39906,-59.46389,26.901625,STN
330321814000,2.03496,0.484595704731736,4.22756115076223,0.0991752158463671,0.6780604,0.39614612,-1.1917981,142.08437,-60.007095,26.3546,STN
330326792000,2.039938,0.50583210306078,4.07418715735498,0.103894415037022,0.71593404,0.45753807,-1.2800682,141.77127,-60.58218,25.778673,STN
330332086000,2.045232,0.528416573280538,3.91107708883389,0.108913185731142,0.75991637,0.4999932,-1.3665055,141.45921,-61.17076,25.18672,STN
330336887000,2.050033,0.548897880708771,3.76315652990497,0.113464586959414,0.8063421,0.5323691,-1.4413365,141.1491,-61.78183,24.577383,STN
330341858000,2.055004,0.688702315010612,3.64600466841598,0.1466472783388,0.8347474,0.5519168,-1.5173893,140.859,-62.417084,23.948488,STN
330346825000,2.059971,0.881433941993054,3.54504998612772,0.192535760269149,0.8695667,0.5342017,-1.5867225,140.58461,-63.07365,23.309052,STN
330351816000,2.064962,1.01500621200075,3.55151760079126,0.24617697972306,0.9056077,0.4896085,-1.6380352,140.34981,-63.710545,22.692219,STN
330356813000,2.069959,1.10967097851356,3.62815103924265,0.304778991265072,0.93828905,0.46578476,-1.6878207,140.1252,-64.365585,22.06388,STN
330361788000,2.074934,1.25887815390048,3.74114959544141,0.288807595370787,0.9615019,0.3979787,-1.7088956,139.9389,-64.97863,21.486319,STN
330366826000,2.079972,1.47055992659176,3.89603868689139,0.190711168988764,0.9972375,0.34513888,-1.7525724,139.76395,-65.61225,20.896353,STN
330371813000,2.084959,1.73016487862166,4.10644762349742,0.0954879040549461,1.033584,0.30757064,-1.7825048,139.64539,-66.234505,20.328,STN
330376792000,2.089938,2.02077811420534,4.35235107307079,0.00159748321875293,1.0656544,0.2950479,-1.8170186,139.53792,-66.86851,19.754784,STN
330381827000,2.094973,2.41120944613264,4.71111773950073,-0.030522499920397,1.0974194,0.30390546,-1.8451185,139.49861,-67.5047,19.20988,STN
330386816000,2.099962,2.90219294424783,5.18533603185623,0.00540312577231941,1.1102476,0.3417791,-1.8597792,139.45114,-68.14257,18.66383,STN
330391865000,2.105011,3.39908123488395,5.66525749068625,0.0417608095010276,1.1114693,0.3827071,-1.8567249,139.42531,-68.7633,18.15611,STN
330396830000,2.109976,3.88770281599078,6.13719451645195,0.0775136119793473,1.105666,0.41813725,-1.8466456,139.38515,-69.38022,17.650478,STN
330401756000,2.114902,4.37940335405501,6.59615396855606,0.109897739202398,1.0922271,0.43188173,-1.8191566,139.34488,-69.9872,17.149721,STN
330406816000,2.119962,4.89201257760931,7.05750210025564,0.139799937665021,1.0577132,0.42241332,-1.7907515,139.29591,-70.58103,16.657564,STN
330411777000,2.124923,5.4124548040799,7.50481798614535,0.141071699864003,1.0238101,0.40683624,-1.745242,139.26784,-71.04037,16.310938,STN
330416825000,2.129971,6.00827621886953,7.94141131092223,0.0383438593710157,0.9960158,0.38637227,-1.704925,139.23903,-71.481766,15.977949,STN
330421746000,2.134892,6.55158023420074,8.30954716728624,-0.0628485349318463,0.95539325,0.40225476,-1.647809,139.21411,-71.822235,15.742514,STN
330426788000,2.139934,7.03025447841007,8.56729472633686,-0.168709172154227,0.9477574,0.44257188,-1.5894713,139.18292,-72.14614,15.523259,STN
330431823000,2.144969,7.4664723956979,8.78162676347993,-0.256758212270555,0.9392053,0.5039638,-1.5213599,139.15259,-72.3808,15.400891,STN
330436818000,2.149964,7.76830649273423,8.85937207609943,-0.288770933279159,0.9294315,0.5849035,-1.4462235,139.09935,-72.59275,15.296139,STN
330441781000,2.154927,8.04075906769596,8.91971917220903,-0.312369129805658,0.93951076,0.6575964,-1.3704761,139.04355,-72.72647,15.279355,STN
330447672000,2.160818,8.1686749263658,8.87098898812352,-0.281912990546318,0.9737192,0.7315111,-1.2705997,138.95795,-72.83382,15.285776,STN
330451765000,2.164911,8.20445247872944,8.81917124560408,-0.23705721119654,1.0363328,0.7797695,-1.1670581,138.86787,-72.875534,15.360937,STN
330456816000,2.169962,8.12671253677444,8.71399412648894,-0.127306891946871,1.1362094,0.84879726,-1.1038336,138.74687,-72.909256,15.445175,STN
330461803000,2.174949,8.02194517066015,8.61556714425428,0.0204180341026895,1.1746938,0.91599244,-0.97035944,138.61017,-72.873436,15.591563,STN
330466822000,2.179968,7.78690371447976,8.5415729130671,0.351217232165987,1.2770138,0.9633345,-0.8582657,138.45728,-72.84401,15.742971,STN
330472152000,2.185298,7.53354219802179,8.4630132226682,0.703232696311162,1.3655893,0.9459248,-0.75686204,138.30449,-72.77956,15.915874,STN
330476794000,2.18994,7.22765555851491,8.39503791112385,1.02611316370413,1.4486669,0.8866709,-0.65240407,138.14677,-72.69327,16.115654,STN
330481850000,2.194996,6.89448820622133,8.3210001741208,1.37778995024847,1.4984524,0.8011498,-0.5354234,137.99956,-72.58792,16.307337,STN
330486815000,2.199961,6.49867944358974,8.28545419306184,1.79835970784314,1.5274686,0.70616025,-0.42730024,137.87082,-72.463,16.52238,STN
330492153000,2.205299,6.06749808186074,8.25816205909889,2.25812401720304,1.5351044,0.61178154,-0.3051272,137.76419,-72.30507,16.770727,STN
330496817000,2.209963,5.72773168583967,8.28865408484494,2.63273832568754,1.493871,0.46120325,-0.20616703,137.71054,-72.15475,16.980423,STN
330502141000,2.215287,5.34180168720148,8.3248494895214,3.05775234031582,1.4208726,0.33169982,-0.11301007,137.70142,-72.02091,17.136272,STN
330506814000,2.21996,5.04953033931182,8.39028378808851,3.36747275857296,1.3045027,0.2125811,-0.022602014,137.73126,-71.857796,17.318264,STN
330511811000,2.224957,4.73699451106346,8.46025493937031,3.69866747931572,1.1722504,0.102319926,0.071776666,137.84752,-71.73104,17.415348,STN
330517511000,2.230657,4.41237626719884,8.50025648950169,3.90208023592646,1.03786,-0.013133603,0.15363261,137.99307,-71.57505,17.537863,STN
330521750000,2.234896,4.17276694600871,8.52775236207063,4.04348888721819,0.89766645,-0.1133155,0.23060162,138.15807,-71.38522,17.687878,STN
330526796000,2.239942,3.9088024432357,8.55927217520921,4.04785743695457,0.81000733,-0.2134974,0.2919936,138.35428,-71.203735,17.809961,STN
330531793000,2.244939,3.65136216052999,8.59026037029289,4.02163670245069,0.72082096,-0.31031954,0.3481932,138.56845,-70.99179,17.955894,STN
330536815000,2.249961,3.39263390362622,8.62140359937239,3.99528478556485,0.66675943,-0.42302418,0.37598756,138.79843,-70.80423,18.069996,STN
330541788000,2.254934,3.13643007615063,8.65224296182008,3.96918998614764,0.6010914,-0.537256,0.37782016,139.04704,-70.600105,18.19713,STN
330546816000,2.259962,3.06112868319302,8.87867003923632,3.84814581184606,0.5500842,-0.66248333,0.35796702,139.34206,-70.39427,18.327267,STN
330551757000,2.264903,3.02318989458809,9.13949794197234,3.71061814263379,0.4636467,-0.7440339,0.3640757,139.64548,-70.17204,18.469028,STN
330556848000,2.269994,3.13066068972767,9.64409390979175,3.3736622244994,0.43188173,-0.883922,0.4251622,139.97755,-70.0362,18.54048,STN
330561760000,2.274906,3.26253451303564,10.1762988805567,3.01100923499199,0.3549127,-1.0137309,0.50640726,140.31773,-69.87874,18.625452,STN
330566858000,2.280004,3.50605856340551,10.6886535054134,2.38656663277559,0.2706133,-1.0772609,0.5833763,140.66716,-69.740974,18.702396,STN
330571783000,2.284929,3.76138520267717,11.1760952007874,1.73664453385827,0.20525073,-1.0622946,0.68752885,141.0138,-69.5679,18.814735,STN
330576818000,2.289964,4.09653307085162,11.8076335278997,0.894593874089357,0.14508049,-0.9618073,0.8011498,141.34357,-69.415245,18.929014,STN
330581893000,2.295039,4.45212482019315,12.4761465790655,0.00324365242805588,0.106595986,-0.7693848,0.93431836,141.62352,-69.226006,19.074991,STN
330587372000,2.300518,4.81026361351991,13.3893010708514,-0.377117429862042,0.070249505,-0.57818395,1.1120802,141.9057,-69.04237,19.264057,STN
330591830000,2.304976,5.09634491284982,14.1718173515964,-0.566435835991328,-0.005192355,-0.5335908,1.3008375,142.15883,-68.81413,19.490108,STN
330596851000,2.309997,5.22053033313082,15.0602824851154,-0.141582732437222,-0.06688975,-0.66767573,1.4694363,142.3877,-68.59421,19.79349,STN
330601841000,2.314987,5.27375740400972,15.9457876947145,0.506820237256987,-0.09590584,-1.0158689,1.5775595,142.6615,-68.336655,20.133924,STN
330606832000,2.319978,5.00437701520682,16.1813822770558,1.02236426339649,-0.07422013,-1.4764613,1.5586227,143.0175,-68.09612,20.482786,STN
330611861000,2.325007,4.63173355277254,16.2148243039381,1.50011207982343,-0.05497787,-1.9113973,1.3930782,143.47107,-67.862526,20.825289,STN
330616843000,2.329989,4.23132123494068,15.7575594336012,1.27616354515882,-0.12614368,-2.1908681,1.1997393,144.0108,-67.65405,21.106045,STN
330621815000,2.334961,3.82131081109835,15.1379883907386,0.820596386414084,-0.29932398,-2.19209,1.0567969,144.59132,-67.4684,21.355265,STN
330626811000,2.339957,3.45604881825005,14.4131869636579,0.0702797272565672,-0.5006041,-1.9614882,0.977079,145.1766,-67.34593,21.494677,STN
330631883000,2.345029,3.11067091313451,13.6216960041477,-0.850728053110804,-0.6270532,-1.6142114,0.96761054,145.7078,-67.23032,21.612669,STN
330636780000,2.349926,2.64259286895547,13.1801411190179,-1.4986487528506,-0.64751714,-1.2730432,0.9850202,146.16191,-67.15365,21.697372,STN
330641823000,2.354969,2.07984485572201,12.9188650308781,-2.02120042545984,-0.55924714,-0.947452,1.026559,146.50052,-67.068436,21.776987,STN
330646847000,2.359993,1.76350218672148,13.0087277813943,-2.50458356665165,-0.40500367,-0.61758476,0.9935723,146.76797,-67.036285,21.843742,STN
330651788000,2.364934,2.26445792856178,14.2611174142358,-2.85631843738034,-0.25809056,-0.462425,0.9593639,146.983,-66.9995,21.915373,STN
330656680000,2.369826,2.89363791052682,15.2019470489125,-3.1230757918608,-0.22204952,-0.13255776,0.8527679,147.0602,-67.09603,21.862928,STN
330661736000,2.374882,3.7267767337651,15.7636131770904,-3.28689522586757,-0.27550024,0.25137106,0.713796,147.07347,-67.213234,21.784292,STN
330666708000,2.379854,4.57745106967933,15.8716464018747,-3.19970041685249,-0.4373795,0.655153,0.54550266,146.99947,-67.37834,21.655298,STN
330671729000,2.384875,5.49313249930932,15.1789549886532,-2.66357587168229,-0.67347896,0.93309665,0.37048978,146.85155,-67.56643,21.481068,STN
330676724000,2.38987,6.42878770104457,14.3245660310386,-2.33021837212495,-0.88789266,0.9822713,0.2012801,146.69069,-67.70519,21.350813,STN
330681738000,2.394884,7.41762077806407,13.1351007767608,-2.39709601394747,-0.9819659,0.8915578,0.042760566,146.49551,-67.87324,21.175123,STN
330686715000,2.399861,8.2366836567136,12.0562404645186,-2.5814294828971,-0.990518,0.8231409,-0.07544186,146.30473,-67.872986,21.134867,STN
330691730000,2.404876,8.7177317635831,11.1849075527733,-3.01709598615704,-0.95142263,0.8894198,-0.15393804,146.1079,-67.899895,21.06088,STN
330696750000,2.409896,9.03631294041298,10.4096676029499,-3.41416280631268,-0.8793405,1.0662653,-0.13988814,145.93776,-67.73427,21.183527,STN
330701805000,2.414951,8.74118394778761,9.9955338699115,-3.66645089761062,-0.77304995,1.2629639,-0.07544186,145.74475,-67.584625,21.293533,STN
330706811000,2.419957,8.39396925664751,9.64676176396872,-3.87244815871101,-0.6450737,1.4193454,-0.025350908,145.54366,-67.34421,21.515265,STN
330711795000,2.424941,7.81380564010176,9.56131149957599,-3.89043770783002,-0.528093,1.5531249,-0.0030543262,145.29091,-67.10507,21.738703,STN
330716850000,2.429996,7.23676200302444,9.48700618014771,-3.89414656363636,-0.3921755,1.6603317,0.0033597588,145.0012,-66.89785,21.947834,STN
330721811000,2.434957,6.81069593493934,9.56637127589239,-3.71870756363636,-0.22143865,1.717753,0.025961773,144.68779,-66.69476,22.163654,STN
330726837000,2.439983,6.3790474652365,9.64677622876737,-3.54096992727273,-0.06780604,1.6988163,0.034208454,144.35577,-66.58281,22.298046,STN
330731831000,2.444977,6.05332999353731,9.74767397697667,-3.37424853474705,0.0888809,1.6337591,0.021380283,144.02419,-66.48477,22.432758,STN
330736750000,2.449896,5.75839762173079,9.85232752741593,-3.21251148691306,0.23060162,1.5534303,-0.017104227,143.70741,-66.401924,22.564001,STN
330741831000,2.454977,5.63229566202176,9.95789884789948,-3.09895013234246,0.3222314,1.4581354,-0.05009095,143.39906,-66.39276,22.623066,STN
330746792000,2.459938,5.55210154362341,10.0603688053263,-3.00093507289947,0.39064834,1.4019357,-0.07544186,143.10776,-66.39874,22.675873,STN
330751848000,2.464994,5.53870798137938,10.0391692310409,-2.93336093485726,0.39095375,1.2883148,-0.087964594,142.85133,-66.45085,22.680748,STN
330756858000,2.470004,5.55753649820465,9.95914832944177,-2.88158256273914,0.37934732,1.1618657,-0.09712757,142.61977,-66.50974,22.68287,STN
330761831000,2.474977,5.48385940308339,9.77679272810091,-2.85111676601261,0.36071593,1.07665,-0.10262536,142.40779,-66.58252,22.66643,STN
330766860000,2.480006,5.35850111883071,9.53571891090199,-2.83183081029132,0.34697145,0.9987647,-0.122783914,142.23532,-66.6578,22.647945,STN
330771830000,2.484976,5.11828103333333,9.23359003939394,-2.77828972121212,0.35002577,0.9138544,-0.1441642,142.08891,-66.72074,22.639523,STN
330776801000,2.489947,4.81533172333333,8.89697952757576,-2.70615900484849,0.3408628,0.795652,-0.1685988,141.97894,-66.78515,22.62823,STN
330781830000,2.494976,4.43001810612529,8.5919738971508,-2.60552279191899,0.36193767,0.659429,-0.20677789,141.89941,-66.85924,22.607895,STN
330786818000,2.499964,4.00795407650154,8.30743605420431,-2.49170770425891,0.36682457,0.4896085,-0.25595254,141.8684,-66.93826,22.581768,STN
330791810000,2.504956,3.61818419151481,8.08080410535307,-2.37222029547267,0.38820487,0.2706133,-0.29016098,141.88167,-67.04234,22.530907,STN
330796832000,2.509978,3.2438706417426,7.88451807232346,-2.24897075851367,0.3857614,0.013133603,-0.3210097,141.96,-67.154396,22.471998,STN
330801847000,2.514993,2.89343966162535,7.73528237915191,-2.17802919720494,0.3921755,-0.24953845,-0.34055737,142.08977,-67.31361,22.364235,STN
330806833000,2.519979,2.56435029817172,7.6255856064899,-2.15060509949268,0.40469822,-0.50701815,-0.34300083,142.29536,-67.47255,22.257376,STN
330811794000,2.52494,2.28742364915705,7.58892091257025,-2.14619335462881,0.43249258,-0.75991637,-0.35735616,142.55693,-67.68254,22.096184,STN
330816822000,2.529968,2.0690463515528,7.64114182070393,-2.16992999585921,0.45265114,-1.0100657,-0.37507126,142.8921,-67.889824,21.936424,STN
330821804000,2.53495,1.85029771928154,7.73646004439515,-2.22059339028349,0.47586402,-1.2379184,-0.38759398,143.28378,-68.145836,21.724804,STN
330826793000,2.539939,1.62799906431508,7.8915519246267,-2.30847892763471,0.50885075,-1.4300356,-0.40286562,143.73337,-68.403175,21.50802,STN
330831877000,2.545023,1.41182454835443,8.01582064149951,-2.35179345429406,0.56413406,-1.5735888,-0.39950588,144.22296,-68.69751,21.248833,STN
330836818000,2.549964,1.20909469291139,8.11257797847128,-2.36100844334956,0.64721173,-1.6667458,-0.40622538,144.74461,-68.99299,20.981155,STN
330842423000,2.555569,1.04629920159232,8.09790533006601,-2.3593180330066,0.752586,-1.6887369,-0.4343252,145.24413,-69.34085,20.651861,STN
330846810000,2.559956,0.958053305635127,8.01386167813563,-2.35091366781356,0.8729264,-1.6862935,-0.4560109,145.75072,-69.679115,20.320856,STN
330851815000,2.564961,0.924609495002473,7.85927556737561,-2.22287746534771,0.93523467,-1.6502525,-0.5149594,146.21638,-109.92463,19.91888,STN
330856835000,2.569981,0.953143812620437,7.65002395119201,-1.98509140243348,1.0659598,-1.6087136,-0.5888741,146.66393,-109.53265,19.505592,STN
330861823000,2.574969,1.04411085622755,7.43473688676827,-1.59732599934958,1.2021828,-1.5741998,-0.66828656,147.08282,-109.12692,19.061625,STN
330866865000,2.580011,1.19879932812348,7.20973544640326,-1.05357236346957,1.3521502,-1.6019942,-0.7480045,147.49197,-108.7211,18.596128,STN
330871847000,2.584993,1.498607365024,7.03248554354855,-0.129435555510924,1.4969252,-1.7424932,-0.8249735,147.89978,-108.32703,18.124233,STN
330876833000,2.589979,1.9804576388165,6.91085342421867,1.2740118737631,1.627345,-2.0344868,-0.8756753,148.34517,-107.94393,17.634405,STN
330881812000,2.594958,2.65444815204263,6.92980344085258,2.89159465926584,1.6475036,-2.4098635,-0.895223,148.81317,-107.57328,17.1589,STN
330886816000,2.599962,3.62386619857904,7.16151797158082,4.84461670224985,1.4037683,-2.6798658,-0.8362745,149.31886,-107.21845,16.689997,STN
330891808000,2.604954,4.4742432409021,7.31980325301896,5.85398619935418,0.81489426,-2.651766,-0.73945236,149.81616,-106.91769,16.360094,STN
330896863000,2.610009,5.13427700051256,7.35454175194259,5.25846698736033,0.21991149,-2.2928827,-0.6609562,150.28014,-106.61787,16.051968,STN
330901794000,2.61494,5.56576215138023,7.34459198601959,4.51076127016919,-0.17745635,-1.7400496,-0.6218608,150.79536,-106.52487,16.053743,STN
330906813000,2.619959,5.70843344612645,7.27325648762244,3.51681717189077,-0.42730024,-1.1548407,-0.57818395,151.18744,-106.44275,16.090698,STN
330912402000,2.625548,5.73037497233202,7.36448891264822,2.24184335335968,-0.600786,-0.6392705,-0.539394,151.38351,-106.44746,16.216047,STN
330916824000,2.62997,5.62137948072433,7.59415801618715,1.07792728225756,-0.7244862,-0.23060162,-0.4914411,151.43678,-106.49335,16.367313,STN
330921742000,2.634888,5.50650857969419,7.85243112232416,0.0564445854507645,-0.806953,0.10140363,-0.45204028,151.30331,-106.55147,16.49713,STN
330926808000,2.639954,5.41254269720693,8.12938278389399,0.0514990085569827,-0.79045963,0.33750305,-0.3848451,151.09346,-106.669044,16.65682,STN
330931808000,2.644954,5.30395200076692,8.38588757881646,0.103237757702767,-0.7357872,0.42455134,-0.31948254,151.0049,-106.80111,16.798674,STN
330936818000,2.649964,5.14980392200228,8.59473380847756,0.317055927148306,-0.68966687,0.355829,-0.27183503,150.89597,-73.046104,16.953777,STN
330941747000,2.654893,4.97974730884695,8.72657803951637,0.425324888375111,-0.66248333,0.28191432,-0.24862215,150.76758,-72.91102,17.084215,STN
330946832000,2.659978,4.76433270297847,8.70264309997051,0.315224091486287,-0.66767573,0.112399206,-0.21380283,150.69188,-72.75484,17.230196,STN
330951768000,2.664914,4.57939789387075,8.67308442638241,0.177946138927382,-0.7254025,-0.053450707,-0.19211712,150.63776,-72.62997,17.336971,STN
330956811000,2.669957,4.45069488947368,8.62711906766917,-0.0380912054135338,-0.74006325,-0.15363261,-0.16584991,150.61707,-72.4894,17.454891,STN
330961784000,2.67493,4.32371518221149,8.58203464926524,-0.268290339604357,-0.7828238,-0.20280726,-0.15057829,150.629,-72.381134,17.536625,STN
330966813000,2.679959,4.19503288628096,8.53749097040386,-0.575147717909773,-0.82558435,-0.20769419,-0.13805555,150.65793,-72.261536,17.625706,STN
330971807000,2.684953,4.07404248273752,8.46695906205751,-0.856182075238178,-0.8729264,-0.19792034,-0.12614368,150.73857,-72.16486,17.692762,STN
330976785000,2.689931,3.97403737356874,8.3169507456516,-1.06452633839,-0.91507614,-0.16768251,-0.12034045,150.81364,-72.06194,17.761967,STN
330982163000,2.695309,3.86839678848385,8.15595633831418,-1.29073224192666,-0.9279043,-0.11148291,-0.13255776,150.88177,-71.99009,17.805326,STN
330986846000,2.699992,3.84875884457581,8.04794769808429,-1.52147828790367,-0.9428705,-0.014049901,-0.16584991,150.92827,-71.9188,17.843737,STN
330991782000,2.704928,3.81539136443324,7.93223873034035,-1.74283672815864,-0.9300423,0.10720685,-0.18570304,150.9806,-71.868835,17.866863,STN
330996816000,2.709962,3.69385050357801,7.801348628818,-1.8176310928052,-0.9062186,0.26358834,-0.20586158,150.99377,-71.82664,17.879042,STN
331001830000,2.714976,3.57397825434669,7.6610751736925,-1.88818041171943,-0.8866709,0.39645153,-0.23854288,150.98965,-71.80219,17.878521,STN
331006851000,2.719997,3.46884196589995,7.39613157398986,-1.90920770453909,-0.86254174,0.54183745,-0.26939157,150.93639,-71.7832,17.870668,STN
331011768000,2.724914,3.36588336596117,7.13667575249257,-1.92979945892951,-0.838718,0.68875057,-0.32253686,150.8498,-71.79913,17.828499,STN
331016785000,2.729931,3.42541954682415,6.94314446682212,-2.08752009850966,-0.818254,0.8194757,-0.37843102,150.72726,-71.8243,17.775402,STN
331021748000,2.734894,3.53143188858417,6.7720790874436,-2.28267926168196,-0.7996226,0.97524637,-0.42485678,150.55666,-71.86145,17.70774,STN
331026799000,2.739945,3.63932395754043,6.59798051173519,-2.48129883314746,-0.8127562,1.1801916,-0.45845437,150.33842,-71.913635,17.619768,STN
331031810000,2.744956,3.74636160504385,6.42526066163127,-2.67834549175242,-0.8258898,1.4300356,-0.47678033,150.06427,-71.97367,17.520136,STN
331036777000,2.749923,3.95897307926024,6.29966296036988,-2.78534711781468,-0.8188649,1.5726726,-0.48655418,149.76575,-72.03918,17.412598,STN
331041754000,2.7549,4.19283948216645,6.18272975891678,-2.8752957559917,-0.818254,1.847562,-0.48838675,149.3584,-72.104034,17.294855,STN
331046786000,2.759932,4.45183672734592,6.02946153121272,-2.82706767727634,-0.8213083,2.10046,-0.47983465,148.93272,-72.129326,17.229448,STN
331051864000,2.76501,4.72254627022863,5.86026822465209,-2.72071749791253,-0.8188649,2.2840252,-0.46944994,148.45114,-72.15398,17.160099,STN
331056718000,2.769864,5.18264323797416,5.74163580024806,-2.51747376905426,-0.8081747,2.3839016,-0.45662177,147.93335,-72.1225,17.147308,STN
331061710000,2.774856,5.74101409763307,5.63786752192248,-2.26546569017054,-0.79473567,2.4156666,-0.4370741,147.38715,-72.08644,17.136778,STN
331066741000,2.779887,6.56135648527521,5.59379478842909,-1.89667329934713,-0.7877107,2.3582454,-0.3912592,146.85149,-71.96613,17.202116,STN
331071729000,2.784875,7.45858676289675,5.56980469280836,-1.49363934221575,-0.75991637,2.191479,-0.31887165,146.34444,-71.83653,17.282251,STN
331076720000,2.789866,8.44789082641696,5.59649416471168,-0.689681069295219,-0.7281514,1.919644,-0.2098322,145.91052,-71.5457,17.51508,STN
331081739000,2.794885,9.47127734405126,5.63913533145392,0.243685144223756,-0.72326446,1.4471397,-0.083383106,145.58997,-71.23291,17.781986,STN
331086740000,2.799886,10.1910066188197,5.7321475868801,1.29881385209066,-0.732122,0.6942484,0.06352998,145.47014,-70.669975,18.291456,STN
331091699000,2.804845,10.7984587099259,5.84227047408183,2.38938569623382,-0.75869465,-0.33353242,0.2452624,145.57324,-70.07011,18.863522,STN
331096806000,2.809952,11.4154310514497,5.97959559399051,3.51527871021613,-0.84665924,-1.5250251,0.46120325,146.00204,-69.14379,19.72574,STN
331101796000,2.814942,11.914222718292,6.40281282962572,4.64889580963627,-0.98899084,-2.7525587,0.72082096,146.73781,-68.17013,20.671001,STN
331106786000,2.819932,12.3418144981868,6.86442399696168,5.62279044722141,-1.1734722,-3.9025126,1.0476339,147.91637,-66.89501,21.839003,STN
331111773000,2.824919,12.4354330448888,7.50571123738116,5.84747525257277,-1.3820826,-4.875621,1.412015,149.35512,-65.56174,23.104467,STN
331116772000,2.829918,12.4896553394212,8.18029331525709,6.01277344619275,-1.6270396,-5.6404243,1.817935,151.00508,-64.032906,24.526834,STN
331121790000,2.834936,12.2826121988386,9.06697631216634,5.78322614770067,-1.8356501,-6.2179976,2.2617285,152.80702,-62.435596,26.060242,STN
331127146000,2.840292,12.0554237546171,10.0024478172857,5.50843266019921,-1.8933768,-6.5661907,2.7091873,154.66339,-60.8142,27.645752,STN
331131896000,2.845042,11.7769534028844,10.6962647139448,4.89485320906827,-1.7715092,-6.6107836,3.059824,156.52435,-59.15762,29.300451,STN
331136795000,2.849941,11.4857627395575,11.4553152183053,4.20166413650968,-1.5146403,-6.4925814,3.2888985,158.37256,-57.627262,30.881254,STN
331141782000,2.854928,11.1393930878546,12.772834790829,2.73945861415588,-1.3616186,-5.912259,3.368311,160.02634,-56.098843,32.453903,STN
331146790000,2.859936,10.7915648913981,14.0959023703755,1.27109581970073,-1.058324,-4.667927,3.4437528,161.42996,-54.738525,33.90498,STN
331151847000,2.864993,10.4403334238502,15.431915299642,-0.211633942990912,-0.82924956,-2.7617218,3.4290922,162.38374,-53.42885,35.247917,STN
331156814000,2.86996,10.0953528623887,16.7441510559534,-1.66797539667677,-0.72692966,-0.49235737,3.2775974,162.76,-52.188515,36.451954,STN
331161796000,2.874942,8.8961739119931,17.1696771040169,-2.18014431182054,-0.73914695,1.5302174,3.022256,162.5536,-51.02597,37.49692,STN
331167414000,2.88056,7.16826324762727,17.2573622835778,-2.34004063830889,-0.84238315,2.797152,2.8744264,161.8049,-49.90897,38.408195,STN
331171852000,2.884998,5.7000329790321,17.0659021834443,-2.5307514750472,-0.9025534,3.4486396,2.7522533,160.93362,-49.390934,38.818344,STN
331176793000,2.889939,4.02132049567723,16.7414444927954,-2.77056752305476,-0.9410379,3.651447,2.6126707,159.78563,-48.919083,39.118492,STN
331181814000,2.89496,2.52938139072396,16.4627308763723,-3.16363582419147,-0.97066486,3.6022723,2.47095,158.49518,-48.66753,39.15892,STN
331186825000,2.899971,1.17195260183365,16.2159256213035,-3.64775378258333,-1.0140363,3.5198054,2.2947154,157.17278,-48.45931,39.131226,STN
331191816000,2.904962,0.167849838148947,16.1627802417442,-3.91344924297893,-1.054048,3.5268304,2.0836613,155.84604,-48.448082,38.887886,STN
331196821000,2.909967,-0.607139506819206,16.2379307704067,-4.03556864361587,-1.0262536,3.5369098,1.8759671,154.58461,-48.483345,38.598778,STN
331201862000,2.915008,-1.25127334076709,16.3206509836586,-3.79396743515332,-0.9410379,3.477045,1.7061466,153.38864,-48.695274,38.141834,STN
331206814000,2.91996,-1.78008465400365,16.4072664761127,-3.27883233873883,-0.82894415,3.2830954,1.5662584,152.27626,-48.95615,37.64799,STN
331211782000,2.924928,-2.32310910609669,16.2233049873791,-2.63279040876336,-0.6795876,2.891225,1.452943,151.28326,-49.3546,37.044067,STN
331216815000,2.929961,-2.88728299777099,15.7327199077863,-1.83313538177099,-0.49021935,2.382069,1.3026701,150.43484,-49.808594,36.428497,STN
331221812000,2.934958,-3.1189456790289,15.0325612372158,-1.18064697722967,-0.28069258,1.8747455,1.1068878,149.67984,-50.366894,35.70946,STN
331226811000,2.939957,-3.0381328308311,14.1293589329759,-0.662494238873995,-0.061391957,1.5228871,0.91232723,149.0767,-50.97514,34.99764,STN
331231809000,2.944955,-2.62550214226396,13.343671278003,-0.084345004688087,0.116980694,1.248914,0.75441855,148.58635,-51.63348,34.213055,STN
331237553000,2.950699,-1.76623864132477,12.5768606229362,0.649835834793871,0.25625798,1.0076222,0.64568454,148.23155,-52.33903,33.43734,STN
331241811000,2.954957,-1.01687968959259,12.1673140629465,1.16281740191543,0.3359759,0.9117164,0.6075055,147.85844,-52.96829,32.731056,STN
331246823000,2.959969,-0.029838048580807,11.8336657358563,1.73743315662483,0.3491095,0.7678576,0.5369505,147.60567,-53.636368,32.025032,STN
331251803000,2.964949,0.956800180238789,11.5490425725298,2.25172176055279,0.33292156,0.63224554,0.5030475,147.32573,-54.139984,31.475039,STN
331256824000,2.96997,1.96036350403309,11.3320557880041,2.68569509358842,0.2751948,0.47158796,0.51251596,147.1131,-54.64395,30.939964,STN
331261797000,2.974943,2.95011572233519,11.1215717120077,3.05070286750856,0.18478674,0.29046643,0.5271767,146.93097,-54.97905,30.558628,STN
331266861000,2.980007,3.94662827464683,10.9191553293022,3.24792940894692,0.07849618,0.06261369,0.55924714,146.82007,-55.295395,30.208498,STN
331271747000,2.984893,4.82517081579808,10.74637334125,3.30519458439423,-0.0021380284,-0.19761491,0.5925393,146.76038,-55.43936,30.019163,STN
331276840000,2.989986,5.61306932607692,10.60098729,3.15980838623077,-0.07269296,-0.46395215,0.62888575,146.77565,-55.55998,29.864588,STN
331281808000,2.994954,6.30383704,10.37551252,2.975705248,-0.13255776,-0.6658431,0.6640105,146.8635,-55.534626,29.866133,STN
331286861000,3.000007,6.84468464730392,9.97224943333333,2.70053734612745,-0.18997909,-0.82711154,0.6835582,147.01808,-55.494675,29.894361,STN
331291745000,3.004891,7.23826699002138,9.5008295400672,2.40499637381122,-0.21044308,-0.93034774,0.6597345,147.18999,-55.34965,30.070807,STN
331296863000,3.010009,7.30314666856736,8.7871528154974,2.0157183546482,-0.23304509,-0.9947941,0.5830709,147.4001,-55.207233,30.24523,STN
331301747000,3.014893,7.18391767731311,8.25112869797385,1.74287172777722,-0.22266038,-1.0103711,0.4428773,147.64911,-55.00407,30.515253,STN
331306777000,3.019923,6.65984579788402,8.0203448275277,1.68036773985428,-0.18112154,-1.0607675,0.33078352,147.93024,-54.8175,30.77504,STN
331311795000,3.024941,6.08655146955584,7.80621681894303,1.57387899212668,-0.16065755,-1.0821478,0.24617869,148.23172,-54.609547,31.070847,STN
331316855000,3.030001,5.39761106167271,7.62566685051476,1.36957257424257,-0.1459968,-1.0082331,0.16401732,148.5261,-54.436207,31.327894,STN
331321789000,3.034935,4.74571585190583,7.45684310790359,1.1852640732287,-0.13316862,-0.8686504,0.077579886,148.7818,-54.330463,31.502352,STN
331326800000,3.039946,4.13598529288117,7.30441063199738,1.03731474764574,-0.15302174,-0.70524395,-0.0012217305,149.00949,-54.24232,31.645046,STN
331331842000,3.044988,3.52161061884802,7.147362,0.8900531985144,-0.14874569,-0.61422503,-0.06047566,149.19678,-54.24995,31.68694,STN
331336856000,3.050002,2.90546712798213,6.969365,0.753132429650223,-0.1469131,-0.4804455,-0.10781772,149.32147,-54.271854,31.691923,STN
331342059000,3.055205,2.26868617544701,6.77949162855859,0.6148767113635,-0.1432479,-0.36865717,-0.19639318,149.39355,-54.38923,31.586641,STN
331346894000,3.06004,1.70439985035461,6.54822663829787,0.526996044042553,-0.112399206,-0.30787608,-0.28619036,149.44194,-54.522346,31.46123,STN
331352014000,3.06516,1.12640789776048,6.30305362470475,0.436275438672032,-0.050701816,-0.28191432,-0.3472769,149.40959,-54.74111,31.232552,STN
331356844000,3.06999,0.8229175456478,6.06835454019771,0.379623911911469,0.019547688,-0.25686884,-0.41080686,149.36731,-54.987904,30.97505,STN
331361765000,3.074911,0.513709259364885,5.82923358888111,0.321905037545272,0.099571034,-0.22113322,-0.4728097,149.19086,-55.307224,30.615322,STN
331366858000,3.080004,0.304173691652209,5.60947639246719,0.230388255596514,0.16432275,-0.12980886,-0.5195409,149.00027,-55.645374,30.239016,STN
331371752000,3.084898,0.13985322415907,5.40759680897526,0.131795975885005,0.21471913,0.0061086523,-0.57726765,148.79785,-56.009895,29.83953,STN
331376853000,3.089999,0.0435810361254436,5.01943799050542,0.227114610254148,0.24678956,0.13500121,-0.63804877,148.51709,-56.41292,29.381878,STN
331381857000,3.095003,-0.0253587440974393,4.57822335599885,0.387974095521243,0.28252518,0.19028452,-0.6795876,148.23364,-56.83264,28.913443,STN
331386856000,3.100002,-0.0413492702588235,4.31643572588235,0.473206922352941,0.30024028,0.22327125,-0.74006325,147.96738,-57.285557,28.418427,STN
331391785000,3.104931,-0.0317744068158215,4.14408809192698,0.521081259563895,0.36285394,0.27366763,-0.8237518,147.69452,-57.765724,27.90374,STN
331396974000,3.11012,-0.00126357399940611,3.9828623081362,0.570634744952984,0.41355577,0.32253686,-0.895223,147.49811,-58.21703,27.42428,STN
331401896000,3.115042,0.0360616098810254,3.8382272700485,0.617291207752153,0.46181414,0.34269542,-0.97127575,147.30637,-58.698208,26.921352,STN
331406808000,3.119954,0.0914244169098305,3.73332492081356,0.616519107145763,0.5155703,0.3359759,-1.0439687,147.1325,-59.182137,26.42807,STN
331411819000,3.124965,0.156494762505763,3.6450152306247,0.593279719844068,0.5839872,0.30085114,-1.1169671,146.96976,-59.693005,25.91703,STN
331416816000,3.129962,0.236273411789401,3.53899029426802,0.575609326536231,0.6621779,0.26175576,-1.1829406,146.82675,-60.20429,25.413507,STN
331421814000,3.13496,0.325687700584997,3.42133990004916,0.561491271367614,0.7333437,0.21074851,-1.2534955,146.70511,-60.742107,24.895084,STN
331426811000,3.139957,0.39678626334,3.3409073729,0.54723789845,0.81397796,0.16615535,-1.3240504,146.58144,-61.28757,24.380507,STN
331431841000,3.144987,0.45459187341,3.28791891335,0.532786494675,0.88178396,0.13988814,-1.3955216,146.47333,-61.857204,23.851892,STN
331436815000,3.149961,0.511753922016,3.23552038496,0.51849598128,0.90102625,0.064751714,-1.4333953,146.38106,-62.411087,23.34779,STN
331441813000,3.154959,0.569191782678,3.18286902893,0.504136514865,0.9642508,-0.009468411,-1.5042557,146.30414,-63.004738,22.82002,STN
331446793000,3.159939,0.647090750025781,3.1996410751057,0.455892347465195,1.0177015,-0.111177474,-1.577254,146.25948,-63.60693,22.292046,STN
331451820000,3.164966,0.741419893340208,3.26914664669485,0.381421989990719,1.0687088,-0.21502456,-1.6487253,146.24022,-64.23213,21.75356,STN
331456922000,3.170068,0.880133909657199,3.40804683663075,0.292922729504407,1.0968086,-0.32589662,-1.7223345,146.20883,-64.84311,21.23075,STN
331461793000,3.174939,1.03547701733595,3.57709677610186,0.201544420205681,1.1468995,-0.42821655,-1.7733418,146.20708,-65.47357,20.704344,STN
331466821000,3.179967,1.28626624915572,3.83089488748889,0.07594302993779,1.1927143,-0.49632803,-1.8283197,146.2606,-66.125244,20.173859,STN
331471816000,3.184962,1.59802547242026,4.137930587795,-0.0704893483479807,1.2278391,-0.52015173,-1.8735237,146.32713,-66.78846,19.638498,STN
331476790000,3.189936,1.96283636893747,4.54985490305033,-0.18870253667514,1.237613,-0.5021312,-1.9037615,146.46657,-67.46787,19.111237,STN
331481840000,3.194986,2.37590002780885,5.051432250788,-0.287051037641078,1.2492194,-0.47433686,-1.9190332,146.6017,-68.15444,18.578901,STN
331486816000,3.199962,2.7986666602474,5.55730150506044,-0.355188162009184,1.2205088,-0.398895,-1.9135354,146.77782,-68.82921,18.075281,STN
331492569000,3.205715,3.29948674045544,6.15105720022491,-0.411982181274482,1.1942415,-0.29871312,-1.9034561,146.92862,-69.50142,17.569048,STN
331496793000,3.209939,3.71778290776581,6.62729251087619,-0.444401601555194,1.1221595,-0.17195857,-1.8802432,147.0643,-70.129814,17.10752,STN
331501828000,3.214974,4.26673112696686,7.23505662350071,-0.473809548266924,1.0167851,-0.04795292,-1.8478674,147.16125,-70.73615,16.651323,STN
331506835000,3.219981,4.83111267992968,7.81659948216976,-0.539043875534907,0.8891144,0.09010262,-1.8203784,147.23477,-71.27881,16.250546,STN
331511798000,3.224944,5.40882168375691,8.37043638121547,-0.639307418563536,0.7538077,0.21410827,-1.7672331,147.2663,-71.781975,15.867012,STN
331516818000,3.229964,5.98251286171572,8.84993049632068,-0.720076100933385,0.63499445,0.3304781,-1.6997325,147.27757,-72.19589,15.562988,STN
331521813000,3.234959,6.54294804098567,9.24825611357475,-0.780288127240511,0.5467244,0.4334089,-1.6050484,147.24844,-72.56729,15.282486,STN
331526873000,3.240019,7.05226472468943,9.54717938833165,-0.768199665022545,0.48380527,0.5204572,-1.4865406,147.2071,-72.83644,15.105177,STN
331531869000,3.245015,7.48374373368915,9.71448769089905,-0.666934225258121,0.44348818,0.54825157,-1.4223998,147.14876,-73.08145,14.940375,STN
331536772000,3.249918,7.85572296475235,9.84290614737162,-0.533559978334853,0.43188173,0.571159,-1.2935071,147.07997,-73.19581,14.912518,STN
331541818000,3.254964,8.0906642749924,9.87227342783349,-0.298618289887572,0.42730024,0.5674938,-1.1563679,147.0067,-73.28592,14.90359,STN
331546796000,3.259942,8.26592390555071,9.87274669718105,-0.0979055283483484,0.46486846,0.50915617,-1.024421,146.95393,-73.25721,15.012233,STN
331551833000,3.264979,8.30330690642255,9.80265320459169,0.028262851021021,0.5305365,0.44318274,-0.87995136,146.89833,-73.19613,15.156821,STN
331556800000,3.269946,8.31405442467747,9.70947537598215,0.142265142803376,0.61178154,0.39278635,-0.75441855,146.85799,-73.048744,15.375837,STN
331562409000,3.275555,8.22547422824716,9.51147207187894,0.230845725535939,0.73975784,0.37384954,-0.6435465,146.82253,-72.88714,15.622467,STN
331566810000,3.279956,8.139001062417,9.33724703718459,0.300810932098274,0.88422745,0.37782016,-0.5635232,146.80136,-72.6926,15.900006,STN
331571852000,3.284998,7.95578639499146,9.04410318668184,0.383257594615822,1.0345002,0.39920044,-0.49846604,146.77658,-72.49328,16.193535,STN
331576911000,3.290057,7.77043087328767,8.75287339726027,0.478086005068493,1.1768318,0.44440445,-0.45998153,146.74678,-72.293465,16.48765,STN
331581850000,3.294996,7.57141961917808,8.50295226497065,0.714122419518591,1.2950343,0.44501534,-0.43890667,146.72163,-72.09693,16.78575,STN
331587202000,3.300348,7.35247611543991,8.2459220422193,0.983032967545813,1.382388,0.419359,-0.42271876,146.69458,-71.91048,17.06843,STN
331591833000,3.304979,7.13245400930444,8.15162678019642,1.33776266788499,1.4425583,0.3549127,-0.40378192,146.67778,-71.72651,17.350739,STN
331596931000,3.310077,6.88857952212305,8.0628699545213,1.73068599477208,1.4676038,0.27397305,-0.37232238,146.67767,-71.5398,17.617434,STN
331601854000,3.315,6.6280732569015,8.203142760068,2.14649399952184,1.4584408,0.17531833,-0.28924468,146.69946,-71.336655,17.899324,STN
331606799000,3.319945,6.36033368929619,8.34731041568915,2.56614884325513,1.4086553,0.074830994,-0.16768251,146.75885,-71.125595,18.159807,STN
331611838000,3.324984,6.05371211552297,8.51241450674487,3.00485368987292,1.3264939,-0.056199603,-0.029932396,146.85269,-70.8873,18.44515,STN
331616816000,3.329962,5.75741219668753,8.66099678358209,3.40953317893115,1.2070698,-0.17989981,0.10354166,146.99796,-70.649414,18.697195,STN
331621849000,3.334995,5.51142246793452,8.69348592537313,3.58590316581608,1.0809261,-0.310625,0.23793201,147.17616,-70.372696,18.985909,STN
331626956000,3.340102,5.26562096830022,8.71750902512097,3.75047585868424,0.9324858,-0.41233405,0.34116822,147.40111,-70.1176,19.209822,STN
331632418000,3.345564,5.06636059519201,8.59364483362504,3.68585094576341,0.79168135,-0.50946164,0.41080686,147.64934,-69.830864,19.463417,STN
331636803000,3.349949,4.91239404661228,8.49916265575565,3.63372407063974,0.6637051,-0.54825157,0.44257188,147.89128,-69.537926,19.728348,STN
331641849000,3.354995,4.79700365886976,8.44146726106855,3.57122084353796,0.602924,-0.63804877,0.47769663,148.16591,-69.2262,20.013119,STN
331646793000,3.359939,4.68901476275992,8.40412795274102,3.51613628733459,0.49021935,-0.7742717,0.50488013,148.45341,-68.92174,20.289839,STN
331651819000,3.364965,4.64112574863198,8.60047198557357,3.53529179297582,0.42577308,-0.9804387,0.5170974,148.77972,-68.61683,20.572401,STN
331656821000,3.369967,4.59993166067587,8.81533665256364,3.54962409085694,0.37934732,-1.2690725,0.54428095,149.16046,-68.31817,20.85262,STN
331661794000,3.37494,4.64262229804589,9.28066252707064,3.50266463492291,0.33750305,-1.6236799,0.6093381,149.61192,-68.00604,21.151949,STN
331666785000,3.379931,4.68546745612227,9.74767266977411,3.45553520709932,0.3032946,-2.0109684,0.70188415,150.157,-67.6969,21.465235,STN
331671810000,3.384956,4.91150905601732,10.6735044848485,2.87788429636364,0.2510656,-2.3628268,0.79443026,150.78462,-67.37088,21.8021,STN
331676796000,3.389942,5.17196336396537,11.682247830303,2.19987623127273,0.20219639,-2.6590965,0.890947,151.49602,-67.02177,22.171188,STN
331681824000,3.39497,5.38333614058002,12.5256419875403,1.51395632341139,0.14202617,-2.8429668,0.98624194,152.26738,-66.68382,22.539074,STN
331686819000,3.399965,5.54775678628357,13.2090159316864,0.830582776290011,0.11636983,-2.9458976,1.071763,153.08403,-66.327286,22.930979,STN
331691814000,3.40496,5.6115241518747,13.73630544243,0.369970188575225,0.12064589,-2.9581149,1.1554517,153.9555,-66.042366,23.281443,STN
331696901000,3.410047,5.625396910299,14.1941132305648,0.0138975041727575,0.15027285,-2.8893926,1.2486086,154.80711,-65.73444,23.651237,STN
331701826000,3.414972,5.3559483559879,14.4096386610682,-0.218324424368871,0.16371189,-2.792876,1.3109168,155.66765,-65.466125,24.007069,STN
331706811000,3.419957,4.86788716232005,14.4544604986439,-0.367731000312956,0.1423316,-2.6786442,1.3634512,156.48503,-65.17596,24.373438,STN
331711801000,3.424947,4.46152097245142,14.1034907820956,-1.03315317757963,0.050396383,-2.5127943,1.368949,157.26587,-64.92855,24.696344,STN
331716826000,3.429972,4.0985989409103,13.5270852524177,-1.99382903065389,-0.13103059,-2.2049181,1.328021,157.95442,-64.67507,25.006014,STN
331721813000,3.434959,3.75886379950868,12.8631068860138,-3.01657183838847,-0.3930918,-1.9700404,1.2889256,158.60579,-64.489265,25.23732,STN
331726811000,3.439957,3.45053020009826,12.0530778227972,-4.15061247232231,-0.6786713,-1.3179418,1.2702943,159.01721,-64.300964,25.44515,STN
331731822000,3.444968,3.12063476435281,11.3338303923663,-4.81026632809255,-0.8014552,-0.5522222,1.2339478,159.38043,-64.1674,25.609938,STN
331736818000,3.449964,2.77526360129536,10.6903996378918,-5.08940208128152,-1.0189233,0.1777618,1.2241739,159.54353,-64.01766,25.764446,STN
331741811000,3.454957,2.50862425799797,10.2379500223778,-5.16055767257574,-1.1386528,0.77671516,1.1914927,159.57608,-63.90147,25.893126,STN
331746896000,3.460042,2.30681812617184,9.94645201105074,-5.04844299880284,-1.1578951,1.2400564,1.0928379,159.42285,-63.803818,25.98875,STN
331751823000,3.464969,2.21953750131529,9.83384384930477,-4.94063899041714,-1.1038336,1.5778649,0.94897914,159.14528,-63.739143,26.047337,STN
331756806000,3.469952,2.31817215683953,10.0131794163848,-4.83303765016911,-0.9978484,1.8237382,0.75747293,158.75699,-63.719234,26.055864,STN
331761790000,3.474936,2.52450026507954,10.3255523024808,-4.739136609723,-0.84513205,1.996613,0.54061574,158.28879,-63.757683,26.00297,STN
331766830000,3.479976,3.0990446780287,11.0934018252308,-4.69081041637557,-0.63407815,2.1325307,0.32162055,157.76431,-63.858856,25.889618,STN
331771751000,3.484897,3.81494491742597,11.9226911867882,-4.76771739421982,-0.41874814,2.2437081,0.106901415,157.2006,-64.02172,25.716145,STN
331776815000,3.489961,4.76315776936219,12.884712763098,-5.01627813385535,-0.22296582,2.3863451,-0.048563786,156.59401,-64.23679,25.495073,STN
331781822000,3.494968,5.79928059854015,13.9407546642336,-5.11646166350365,-0.057421334,2.622139,-0.11301007,155.94289,-64.4624,25.267822,STN
331786856000,3.500002,7.04264381372263,15.2169611162044,-4.91940028306569,0.04062254,2.8738155,-0.047036625,155.2491,-64.695755,25.03544,STN
331791744000,3.50489,8.23110986679478,16.3509648971377,-4.46223705459695,0.099265605,2.980717,0.115453534,154.5669,-64.8497,24.892256,STN
331796889000,3.510035,9.42716911479721,17.2380426193992,-3.2063745059472,0.15943582,2.764776,0.31887165,153.91121,-64.97058,24.78704,STN
331801765000,3.514911,10.2485178927303,17.5323661835171,-2.15674227415063,0.27214047,2.175291,0.4596761,153.36452,-64.96612,24.811546,STN
331806811000,3.519957,10.3207659379555,16.4757464197346,-1.42072049285367,0.3811799,1.4147639,0.42730024,152.94409,-64.95183,24.852192,STN
331811778000,3.524924,10.3079408714404,15.3439599810153,-0.815449474690466,0.47067168,0.7305948,0.2171626,152.69109,-64.82722,24.993425,STN
331817481000,3.530627,9.74441892106892,13.4448915790343,-0.899977731940776,0.50823987,0.25381452,0.002443461,152.61275,-64.71903,25.125944,STN
331821780000,3.534926,9.29007880317245,12.1249186116646,-1.03093178641551,0.51893,0.087659165,-0.05589417,152.64891,-64.520424,25.342207,STN
331826815000,3.539961,8.65113540390753,10.9822828509527,-1.42735636802399,0.5222898,-0.08246681,-0.070554934,152.83311,-64.37768,25.507313,STN
331831825000,3.544971,8.01011066046646,9.90610101619121,-1.79991168689283,0.5299256,-0.10048734,-0.040011674,153.0123,-64.19281,25.712349,STN
331836847000,3.549993,7.33800845316114,9.16910606013878,-2.0502119227448,0.5357288,0.0015271631,0.027794369,153.20062,-64.00543,25.917871,STN
331841806000,3.554952,6.67990838590698,8.46617018446512,-2.27313570329302,0.5635232,0.13500121,0.094989546,153.3706,-63.824726,26.117928,STN
331846884000,3.56003,6.07824072925581,8.06807435172093,-2.18718325514419,0.5717699,0.26083946,0.13530666,153.50706,-63.63276,26.325148,STN
331851799000,3.564945,5.49588615413953,7.68275709730232,-2.10398981626047,0.5656612,0.33933565,0.12889257,153.59555,-63.478477,26.49328,STN
331856810000,3.569956,5.02700810746966,7.57710519435051,-1.90381477123533,0.5128214,0.28863382,0.07849618,153.68494,-63.323997,26.658325,STN
331861766000,3.574912,4.57381384986075,7.49685190849413,-1.69610069747364,0.41355577,0.18234327,0.011301007,153.76715,-63.175365,26.814463,STN
331866799000,3.579945,4.39806464310003,7.6784751295929,-1.75005899918768,0.27580565,0.0290161,-0.056505036,153.86388,-63.0954,26.899406,STN
331871809000,3.584955,4.25304225007084,7.88694498224237,-1.83163416920752,0.1328632,-0.11301007,-0.06505715,153.99094,-63.01656,26.981354,STN
331876833000,3.589979,4.14045207971656,8.03889924505462,-1.98401070274579,-0.0012217305,-0.23823744,-0.03023783,154.13255,-63.0009,26.99843,STN
331881821000,3.594967,4.03702508237378,8.17523447544533,-2.15325470617065,-0.10354166,-0.38148534,0.007941248,154.32407,-62.986282,27.013662,STN
331886796000,3.599942,3.87088820684845,8.11499223722257,-2.25244438135701,-0.1563815,-0.5748242,0.03023783,154.56252,-116.99584,26.995668,STN
331891752000,3.604898,3.68600790196576,7.99460516531389,-2.32983618909322,-0.18570304,-0.79045963,0.024129177,154.85135,-116.98066,26.979528,STN
331896797000,3.609943,3.40985726450094,7.82289841572505,-2.49835632109228,-0.19608775,-1.0091494,-0.0027488936,155.19449,-116.9394,26.93577,STN
331901821000,3.614967,3.0625191505859,7.61147532336263,-2.73998275741787,-0.17867808,-1.169807,-0.035124753,155.5834,-116.895,26.886995,STN
331906810000,3.619956,2.69035721359953,7.44668591711413,-3.06886311229132,-0.11301007,-1.2495248,-0.09468412,156.00978,-116.81564,26.800135,STN
331911790000,3.624936,2.30390041363858,7.30700282427023,-3.44600775468125,0.0018325958,-1.2198979,-0.17470746,156.44547,-116.72287,26.696404,STN
331916831000,3.629977,1.91070478667494,7.27932652244982,-3.83834776557004,0.14813483,-1.1691961,-0.27000242,156.88016,-116.57744,26.533054,STN
331921849000,3.634995,1.51794074566522,7.32904345023795,-4.23608349935858,0.3368922,-1.0177015,-0.3213151,157.2654,-116.42732,26.358797,STN
331926806000,3.639952,1.21127045000452,7.47986631001446,-4.31266983378525,0.42760566,-0.8503244,-0.4166101,157.63274,-116.19427,26.090038,STN
331931832000,3.644978,0.941544495306399,7.68433601898048,-4.23001203063991,0.6065892,-0.70738196,-0.49266282,157.95119,-115.965454,25.8119,STN
331936814000,3.64996,0.73509990488651,7.90653163108336,-4.02281827463574,0.7672467,-0.57848936,-0.5448918,158.2173,-115.66802,25.446642,STN
331941815000,3.654961,0.602180784996531,8.15338097125582,-3.66203753939935,0.91904676,-0.46089783,-0.5864306,158.43204,-115.37048,25.06424,STN
331946868000,3.660014,0.508332939891575,8.32799819624851,-3.21354040817521,1.0393872,-0.36468655,-0.623388,158.57585,-115.01142,24.605078,STN
331951816000,3.664962,0.467230435548086,8.40506585796379,-2.66893234767429,1.1456778,-0.29260445,-0.66675943,158.68057,-114.661606,24.135382,STN
331957335000,3.670481,0.535202059488009,8.43086408089075,-2.09856558427864,1.2513574,-0.226631,-0.7333437,158.70511,-114.26522,23.614147,STN
331961795000,3.674941,0.644950728521127,8.42273480985915,-1.6555060943662,1.3154984,-0.1554652,-0.8240572,158.6965,-113.87121,23.079119,STN
331966817000,3.679963,1.12286779813075,8.39683370536526,-0.859303763105992,1.3817772,-0.121256754,-0.9104946,158.61884,-113.44486,22.519772,STN
331971815000,3.684961,1.97405699322017,8.35330610973022,0.248209339112863,1.389413,-0.10720685,-0.9783007,158.51945,-113.0153,21.94667,STN
331976806000,3.689952,2.64751186197183,8.31560925150905,1.14545610059356,1.3677273,-0.13744467,-1.0213667,158.37009,-112.56734,21.380596,STN
331981834000,3.69498,3.15212477464789,8.28331421529175,1.84384038134809,1.2767084,-0.21135938,-1.0143417,158.23099,-112.12387,20.8154,STN
331986776000,3.699922,3.6617698529352,8.23208496299005,2.49570452589884,1.1585059,-0.32498032,-0.97127575,158.1497,-111.82386,20.446407,STN
331991814000,3.70496,4.28900310432663,8.02627432260817,2.8877252440585,0.9673051,-0.47586402,-0.8958339,158.106,-111.52596,20.090322,STN
331996807000,3.709953,4.84006998125242,7.81127973409354,3.1698498513046,0.6453791,-0.57940567,-0.77518797,158.10406,-111.32242,19.900648,STN
332001820000,3.714966,4.99316994665636,7.53291561453421,2.84973109443371,0.25625798,-0.5739079,-0.70066243,158.11676,-111.10438,19.721634,STN
332006781000,3.719927,5.13422268227848,7.27204522379747,2.51728173810127,-0.067500606,-0.49571714,-0.64873886,158.15952,-110.99254,19.703564,STN
332011808000,3.724954,5.14828604518014,7.18766661273613,1.9875724551704,-0.3118467,-0.39064834,-0.61391956,158.19452,-110.87317,19.70451,STN
332017038000,3.730184,5.16048423363636,7.11108352818182,1.44172292177273,-0.49296826,-0.25503623,-0.59528816,158.21918,-110.7963,19.755165,STN
332021775000,3.734921,5.14207283730519,7.1773641550974,1.01089956198539,-0.6243043,-0.1881465,-0.57910025,158.23466,-110.723206,19.817934,STN
332026991000,3.740137,5.12179970172078,7.25034700288961,0.536511838816558,-0.6814202,-0.035430185,-0.54428095,158.20299,-110.67435,19.88844,STN
332031803000,3.744949,5.11963653318704,7.40767913090909,0.109785033679206,-0.75441855,0.10995574,-0.51343226,158.15594,-110.63158,19.966349,STN
332036771000,3.749917,5.12957948942529,7.63636972,-0.322738395712644,-0.78893244,0.23976462,-0.48288897,158.0714,-110.61167,20.059505,STN
332041786000,3.754932,5.20494189502427,7.89053902936893,-0.634870245600728,-0.786489,0.35369098,-0.44409904,157.98103,-110.607635,20.142069,STN
332046777000,3.759923,5.31612237611246,8.15640447107605,-0.876566461908374,-0.77213365,0.45356745,-0.3924809,157.86115,-110.62559,20.240866,STN
332051854000,3.765,5.40529899940304,8.39149764640334,-1.03223516952542,-0.73823065,0.5174029,-0.3323107,157.74988,-110.66084,20.334345,STN
332056720000,3.769866,5.4794818980201,8.60013726057109,-1.13887304392598,-0.6921103,0.56596667,-0.29749137,157.61705,-110.710304,20.436306,STN
332061721000,3.774867,5.51577986866496,8.70393492328929,-1.24175926907908,-0.65301496,0.6114761,-0.28099802,157.48541,-110.77756,20.545042,STN
332066763000,3.779909,5.53006271820154,8.74678396903964,-1.34174060782883,-0.625526,0.63713247,-0.27275133,157.34886,-110.856094,20.659922,STN
332071732000,3.784878,5.50246247795443,8.66997105721519,-1.43294820999494,-0.5852089,0.6585127,-0.28252518,157.21397,-110.93738,20.769903,STN
332076712000,3.789858,5.44933679613165,8.52025334582278,-1.51988140979241,-0.5537493,0.6936375,-0.28893927,157.07047,-111.023125,20.881338,STN
332081737000,3.794883,5.41165439615882,8.30647418519256,-1.56064020192059,-0.5198463,0.72418076,-0.30482176,156.93266,-111.10515,20.9832,STN
332086730000,3.799876,5.38310411509603,8.05903772037018,-1.57491534245199,-0.51068336,0.7333437,-0.31795537,156.79375,-111.186,21.081924,STN
332091730000,3.804876,5.39039581458824,7.81060587582353,-1.55643011622549,-0.49571714,0.7339546,-0.31978795,156.655,-111.26688,21.17669,STN
332096764000,3.80991,5.41875440941176,7.56010485617647,-1.51861860710784,-0.49480084,0.7357872,-0.3145956,156.51608,-111.34548,21.268091,STN
332101787000,3.814933,5.45678153318535,7.29726630382908,-1.46880679894562,-0.52656585,0.72143185,-0.2932153,156.38567,-111.439835,21.37417,STN
332106785000,3.819931,5.5010516463929,7.0272184745838,-1.41125560554939,-0.5580254,0.6954701,-0.26389378,156.26129,-111.53765,21.482426,STN
332111764000,3.82491,5.51566681037095,6.76449075048553,-1.35266856696446,-0.61269784,0.66431594,-0.2134974,156.15384,-111.66987,21.625378,STN
332116798000,3.829944,5.49225954138668,6.50701064500874,-1.29180966760536,-0.64843345,0.5992588,-0.19394971,156.06746,-111.80114,21.765831,STN
332121788000,3.834934,5.46083306923717,6.24302114913739,-1.22606119502183,-0.70707655,0.5329799,-0.15241088,155.99487,-111.98288,21.957094,STN
332126768000,3.839914,5.41622351072542,5.96545110340885,-1.1517120516005,-0.7663304,0.45906523,-0.10720685,155.94704,-112.17064,22.15279,STN
332131811000,3.844957,5.33105867784212,5.71423062541908,-1.0974244381591,-0.83260936,0.38820487,-0.07574729,155.9247,-112.38103,22.370283,STN
332136790000,3.849936,5.20026116224728,5.50107904358427,-1.06835836854617,-0.8897252,0.32650748,-0.051618114,155.92415,-112.602104,22.596697,STN
332141787000,3.854933,5.07655176467912,5.34418437368115,-1.04891947185171,-0.9388999,0.2828306,-0.044898596,155.94,-112.841835,22.840172,STN
332146811000,3.859957,4.96012116040074,5.24638268942987,-1.03960496320782,-0.979217,0.24770586,-0.053450707,155.97336,-113.08478,23.084717,STN
332151806000,3.864952,4.88252783222762,5.18314918815175,-1.05112582118574,-1.0036516,0.22724187,-0.06536258,156.01349,-66.67702,23.322319,STN
332156811000,3.869957,4.85617473921928,5.16558045947952,-1.09065550656098,-1.0213667,0.20952678,-0.070249505,156.06438,-66.43777,23.558746,STN
332161783000,3.874929,4.8669264784215,5.17560792052902,-1.13396756893339,-1.0259482,0.21777347,-0.05222898,156.11131,-66.20816,23.78337,STN
332166827000,3.879973,4.99625117060398,5.2738946736239,-1.1908705112765,-1.0351112,0.23426682,-0.036651913,156.1617,-65.978905,24.005493,STN
332171766000,3.884912,5.15000563270835,5.37854417061093,-1.22425048794294,-1.033584,0.2669481,0.026267206,156.20422,-65.735115,24.240547,STN
332176831000,3.889977,5.35452767002781,5.50038706905894,-1.2198989591011,-1.0323622,0.29046643,0.118202426,156.24472,-65.47743,24.487696,STN
332181820000,3.894966,5.57985917797241,5.62827805279177,-1.16612881596015,-1.0320568,0.2565634,0.24037547,156.29192,-65.1849,24.76791,STN
332186818000,3.899964,5.94143990930589,5.80120786785636,-0.830749741219619,-1.0415252,0.14782938,0.3735441,156.35548,-64.86298,25.07645,STN
332191749000,3.904895,6.31695154765925,5.93971671797774,-0.244919676542594,-1.0754282,-0.12308934,0.5207626,156.48245,-64.47179,25.454039,STN
332196822000,3.909968,6.74573567935533,6.009627125566,0.934237532419417,-1.1377366,-0.71837753,0.68477994,156.74625,-64.039764,25.875664,STN
332201788000,3.914934,7.44290002633807,6.27891049073464,2.3365588791553,-1.2284501,-1.6157386,0.8426886,157.1847,-63.509712,26.395163,STN
332206813000,3.919959,9.07251589267237,7.22046602525633,4.58180696494215,-1.3707817,-2.6578746,1.0613784,157.855,-62.91925,26.981705,STN
332212529000,3.925675,10.8408676327886,8.3796276327886,6.4106337649917,-1.5531249,-3.7073412,1.3594806,158.76651,-62.141247,27.744951,STN
332216823000,3.929969,11.9441363140785,9.48289631407848,5.87157735826269,-1.6905695,-4.180456,1.5570955,159.80447,-61.33789,28.538284,STN
332221753000,3.934899,13.2108141433191,10.7495741433191,5.25267934122171,-1.7263051,-4.96664,2.0744984,161.11319,-60.060062,29.787937,STN
332226817000,3.939963,14.2585552315789,11.9675667172932,4.03393791864662,-1.7330247,-5.4082956,2.6966646,162.43858,-58.735493,31.087397,STN
332231807000,3.944953,15.2331843039474,13.1487996110902,2.69999869054511,-1.6120734,-5.4140987,3.3066137,163.85187,-57.317417,32.49421,STN
332236817000,3.949963,15.2264455565764,13.8592191544735,1.5030475871616,-1.4165965,-4.9663343,3.816075,165.28404,-55.75965,34.0621,STN
332241749000,3.954895,14.7901575361372,14.3512034199872,0.386800310514421,-1.2458596,-4.070806,4.142888,166.53868,-54.155888,35.674553,STN
332246914000,3.96006,14.3332581797769,14.8664302511669,-0.782181275836486,-1.1695015,-2.7650816,4.229631,167.57011,-52.58537,37.26302,STN
332251819000,3.964965,13.8993585974058,15.3557211721614,-1.8923177097283,-1.2299771,-1.2119566,4.1050143,168.17796,-51.054726,38.79238,STN
332256809000,3.969955,12.8226799646261,15.95886701808,-2.53129659846713,-1.3594806,0.3268129,3.8860192,168.31042,-49.589478,40.233215,STN
332261795000,3.974941,11.3634839754348,16.6251239014444,-2.87380883226884,-1.4501941,1.5812247,3.736968,167.9587,-48.19147,41.57776,STN
332266820000,3.979966,9.74023254363466,17.0295123871338,-3.01081275117298,-1.3973542,2.452013,3.6593883,167.45396,-47.132057,42.592285,STN
332271805000,3.984951,8.02295259117923,17.2435498149307,-3.00085756427901,-1.2647965,2.9223793,3.5598173,166.61586,-46.145866,43.50475,STN
332276821000,3.989967,6.47281625995402,17.2616861622989,-3.13640199098851,-1.1386528,3.1248813,3.4074063,165.56221,-45.44941,44.10892,STN
332282485000,3.995631,4.82183312373333,17.1719048613333,-3.37083164373333,-1.0598512,3.2409456,3.184746,164.36244,-44.81307,44.631905,STN
332286784000,3.99993,3.68964129928329,17.1037887150602,-3.34661038477442,-0.9914343,3.2742376,2.9077187,163.10982,-44.425785,44.893013,STN
332291853000,4.004999,2.46297296897914,17.0234974877332,-3.13696165895433,-0.95417154,3.1135802,2.615725,161.9131,-44.108612,45.07926,STN
332296838000,4.009984,1.39792701796846,17.0031561390003,-2.9520910049452,-0.947452,2.7797422,2.3588562,160.79683,-43.999863,45.060234,STN
332301816000,4.014962,0.62907065542012,17.1051037870445,-2.8119128225519,-0.9211848,2.40742,2.1346686,159.79703,-43.96338,44.976536,STN
332306869000,4.020015,-0.132753213433931,17.183874966354,-2.66337567871126,-0.8399397,2.0320432,1.91323,158.91855,-44.10504,44.722176,STN
332311849000,4.024995,-0.682228398507341,16.9942333370718,-2.44942070236542,-0.7174612,1.8344283,1.8112154,158.1473,-44.273434,44.4544,STN
332316808000,4.029954,-1.1933302744186,16.6431388101677,-2.18197364829638,-0.6713409,1.5005904,1.5815301,157.59145,-44.618954,44.031277,STN
332321812000,4.034958,-1.41918689501661,14.9843880074171,-1.47478310665997,-0.559858,1.3515394,1.3164146,157.07237,-45.004036,43.581955,STN
332326826000,4.039972,-1.64549486777409,13.3223223549409,-0.766179314540678,-0.42180246,1.2855659,1.0638218,156.62225,-45.472137,43.05957,STN
332331804000,4.04495,-1.23350766572791,12.2217539635566,-0.128575156246899,-0.2837469,1.1798862,0.86284715,156.27748,-45.996487,42.50175,STN
332336819000,4.049965,-0.234649112245754,11.6169402748521,0.453328694835909,-0.172264,1.0604621,0.73364913,155.9901,-46.567417,41.911602,STN
332341814000,4.05496,0.785641323906821,11.1203269234305,0.99237847824402,-0.08735373,0.9468411,0.65026605,155.60252,-47.00592,41.42569,STN
332346809000,4.059955,1.84000550109266,10.7655413037188,1.47708613507573,-0.050396383,0.8258898,0.59895337,155.28357,-47.477314,40.92106,STN
332352031000,4.065177,2.80365049480695,10.4267337568626,1.87946321814418,-0.02321288,0.66431594,0.56107974,154.97589,-47.804535,40.555725,STN
332356813000,4.069959,3.57440956210962,10.1423360240752,2.1638610800468,-0.02443461,0.44165558,0.59712076,154.74335,-48.128147,40.207787,STN
332361789000,4.074935,4.36623614048354,9.8381247601981,2.31836152090745,-0.062002823,0.14813483,0.6389651,154.56207,-48.31693,39.994884,STN
332366822000,4.079968,5.14142106262648,9.50956967323464,2.11814814836511,-0.09743301,-0.13591751,0.6704246,154.46284,-48.500004,39.802437,STN
332371817000,4.084963,5.83767907358376,9.16772693431472,1.85104601336041,-0.11453723,-0.37812558,0.6774496,154.42377,-48.544815,39.752598,STN
332376808000,4.089954,6.42969310035533,8.80378397436548,1.48710300274112,-0.093462385,-0.57451874,0.67164636,154.4718,-48.586143,39.72194,STN
332381804000,4.09495,6.86378773778708,8.39690012105878,1.1868837020436,-0.070249505,-0.6942484,0.659429,154.6043,-48.52347,39.815525,STN
332386817000,4.099963,7.09738314688595,7.93438111054885,0.967304057493188,-0.041233405,-0.7831292,0.6169739,154.79698,-48.47473,39.906166,STN
332391747000,4.104893,7.16820008244859,7.55262551007174,0.867404049335246,-0.015271631,-0.86529064,0.55741453,155.053,-48.344414,40.1001,STN
332396822000,4.109968,6.97295408053563,7.28299986157819,0.960378292042085,-0.004886922,-0.9584476,0.4605924,155.3445,-48.23975,40.271652,STN
332401748000,4.114894,6.71128298369067,7.04554268920652,1.02347754544622,-0.002443461,-1.0146471,0.36193767,155.6509,-48.086727,40.49587,STN
332406811000,4.119957,6.25813010280374,6.86339316915888,1.01903487196262,-0.0106901415,-1.1472049,0.27305678,156.01987,-47.960026,40.699642,STN
332411824000,4.12497,5.80408236055742,6.69062876574352,1.01416844711589,-0.018325957,-1.2589933,0.22418754,156.34656,-47.840588,40.885662,STN
332416833000,4.129979,5.30906411408538,6.57639370082907,1.0057066035456,-0.027183503,-1.2907583,0.14538592,156.69414,-47.754997,41.036484,STN
332421778000,4.134924,4.82037071644029,6.46361821749868,0.997352876962427,-0.047036625,-1.2473868,0.06841691,157.00021,-47.713642,41.13524,STN
332426809000,4.139955,4.29297772863335,6.28482175719292,0.828159750341202,-0.04520403,-1.1972959,0.0070249503,157.31206,-47.691326,41.213936,STN
332431820000,4.144966,3.76192591326079,6.09452806178532,0.629015336905201,-0.044593163,-1.1291844,-0.09254608,157.60114,-47.700253,41.254055,STN
332436813000,4.149959,3.30907189816794,5.96355783664122,0.454466999480916,-0.03726278,-1.02717,-0.18203785,157.78311,-47.771004,41.219597,STN
332441778000,4.154924,2.89486101002245,5.86107283484508,0.292198822839695,-0.017104227,-0.93584555,-0.2828306,157.94609,-47.873184,41.149994,STN
332446802000,4.159948,2.48745881593511,5.76493217905004,0.16477143584436,0.04337143,-0.80848014,-0.38545597,158.04404,-48.051792,41.0017,STN
332451820000,4.164966,2.09514075467557,5.67831656191688,0.0832507975551315,0.09560041,-0.68233645,-0.46792278,158.11072,-48.25296,40.82624,STN
332456814000,4.16996,1.76644687886028,5.5931919264271,-0.00758793095055322,0.15027285,-0.60048056,-0.54611355,158.15158,-48.532505,40.57487,STN
332461796000,4.174942,1.48614735386272,5.50910193234113,-0.105692765675316,0.18478674,-0.4804455,-0.61636305,158.13547,-48.834072,40.29508,STN
332466822000,4.179968,1.25762353875377,5.39295552863567,-0.101313408761674,0.2134974,-0.3387248,-0.68936145,158.09767,-49.198635,39.95389,STN
332471813000,4.184959,1.08048075549192,5.24887943859762,-0.00211345980283639,0.2452624,-0.19761491,-0.75136423,158.0194,-49.581104,39.591312,STN
332476801000,4.189947,0.903444449559223,5.10488995009636,0.0970268618574888,0.26206118,-0.10048734,-0.8167268,157.9334,-50.016937,39.175823,STN
332481832000,4.194978,0.724881968575382,4.95965917290112,0.197021841463162,0.27763826,-0.0729984,-0.88331115,157.82585,-50.4715,38.740307,STN
332486815000,4.199961,0.579695378167487,4.783978041219,0.29909370176825,0.28924468,-0.042760566,-0.95264435,157.68764,-50.94499,38.28263,STN
332491815000,4.204961,0.469108697777889,4.57242090696857,0.404872273914048,0.28893927,-0.030848695,-1.0250319,157.55176,-51.437042,37.806625,STN
332496783000,4.209929,0.424617885875399,4.38376491271346,0.458618797292175,0.30176744,-0.015577064,-1.1038336,157.4811,-51.967545,37.29154,STN
332501859000,4.215005,0.45198430784575,4.21500534390129,0.456338264509289,0.32589662,-0.02107485,-1.1774428,157.41539,-52.516388,36.7591,STN
332506809000,4.219955,0.478671421469319,4.05043484240008,0.454114340696191,0.3662137,-0.02321288,-1.2202033,157.3568,-53.068813,36.22116,STN
