timestamp,rel_time,acc_x,acc_y,acc_z,gyro_x,gyro_y,gyro_z,azimuth,pitch,roll,label
4604349156000,0,-0.605229134297714,9.86640447475502,-0.178720731202053,0.010079277,-9.97543,-7.315111,294.95096,-103.687325,11.223814,STD
4604354244000,0.005088,-0.627966772375175,9.87095209734018,-0.162804375050863,0.010079277,0.7538077,0.040011674,292.08405,-105.48764,13.710175,STD
4604359158000,0.010002,-0.643453680116125,9.87188030100845,-0.15322891,-1.1899655,0.75991637,0.03390302,294.68738,-103.40669,11.165323,STD
4604364214000,0.015058,-0.64838602262402,9.86694790699806,-0.15322891,-1.1945469,0.7431176,0.035430185,294.46344,-103.32466,11.117617,STD
4604369128000,0.019972,-0.643980264414703,9.864111,-0.145986280086711,-1.17897,0.7293731,0.028099801,294.27246,-103.07778,11.090413,STD
4604374236000,0.02508,-0.625537900222432,9.864111,-0.127543930337418,-1.1676689,0.7312057,0.025350908,294.08347,-102.842674,11.063994,STD
4604379129000,0.029973,-0.61291564,9.86286458030557,-0.11492168,-1.153619,0.7507534,0.029626964,293.93344,-102.65147,11.071309,STD
4604384162000,0.035006,-0.61291564,9.8583740790013,-0.11492168,-1.1749994,0.77121735,0.034513887,293.78418,-102.46879,11.076995,STD
4604389238000,0.040082,-0.611727390305368,9.85809876149148,-0.113733429312761,-1.2027937,0.7825184,0.04062254,293.66272,-102.320946,11.109375,STD
4604394175000,0.045019,-0.604128441157184,9.88089568828351,-0.106134473816779,-1.2330315,0.77640975,0.05009095,293.5429,-102.18553,11.14284,STD
4604399157000,0.050001,-0.596460228749598,9.90390040557698,-0.0984662550035358,-1.5424347,0.79320854,0.059253927,293.44177,-102.04432,11.192172,STD
4604404298000,0.055142,-0.584370942004824,9.90573414597202,-0.0707251545354559,-1.2476922,0.7706065,0.06811147,293.35706,-101.98044,11.241886,STD
4604409163000,0.060007,-0.570885790958032,9.89674387004342,-0.034764778341534,-1.2449434,0.7635816,0.070554934,293.26578,-101.87248,11.291165,STD
4604414145000,0.064989,-0.562715478318025,9.89747334010281,-0.0237858605079633,-1.2449434,0.7510588,0.07086037,293.21182,-101.82433,11.358906,STD
4604419134000,0.069978,-0.558689300244375,9.90552586441392,-0.0318382221205865,-1.2443326,0.7443393,0.08155051,293.16156,-101.79318,11.428806,STD
4604424133000,0.074977,-0.560506224700873,9.91098469480519,-0.042348366233234,-1.251052,0.7247916,0.089491755,293.1407,-101.79106,11.516166,STD
4604429194000,0.080038,-0.586303662048116,9.9058251038961,-0.0629863134172876,-1.2571607,0.7104363,0.10720685,293.12396,-101.8074,11.607842,STD
4604434147000,0.084991,-0.601870603913209,9.90829091368481,-0.0839556399531785,-1.2583824,0.66798115,0.10781772,293.16315,-101.85833,11.720664,STD
4604439233000,0.090077,-0.597235316056338,9.92683196830986,-0.107132096661972,-1.1930199,0.6102544,0.1151481,293.21484,-101.929306,11.838579,STD
4604444806000,0.09565,-0.587848999537451,9.93629028602716,-0.12449849,-1.0769554,0.5360342,0.10720685,293.3401,-102.039345,11.982945,STD
4604449148000,0.099992,-0.573277818102497,9.92536206351292,-0.12449849,-0.94042706,0.4718934,0.10354166,293.48276,-102.16129,12.128365,STD
4604454766000,0.10561,-0.554646494208211,9.91037838278959,-0.123151312667522,-0.816116,0.42180246,0.09987647,293.71326,-102.33843,12.320126,STD
4604459164000,0.110008,-0.543066921334311,9.88721915643328,-0.103852010034824,-0.6908886,0.34972036,0.08674286,293.97156,-102.51478,12.50479,STD
4604464127000,0.114971,-0.529999749853372,9.86108472250733,-0.082073374526393,-0.537256,0.08399397,0.024129177,294.39188,-102.75607,12.749776,STD
4604469146000,0.11999,-0.5267244,9.86118959186303,-0.0732867261741532,-0.048563786,0.04337143,0.007330383,294.7682,-103.00609,12.999068,STD
4604474197000,0.125041,-0.5267244,9.87009486192931,-0.0688341822673049,0.036957346,0.070554934,0.024740042,295.20322,-103.24,13.233974,STD
4604479154000,0.129998,-0.5267244,9.87919776712329,-0.0615277050958904,-0.013439035,0.07819075,0.016493361,295.77234,-103.564064,13.555382,STD
4604484267000,0.135111,-0.5267244,9.88884882546565,-0.0518763353477875,-0.02443461,0.08032878,0.020463986,296.3315,-103.887436,13.874277,STD
4604489197000,0.140041,-0.519167993688685,9.89535985032234,-0.0428464334033449,-0.029626964,0.07544186,0.018325957,297.0954,-104.36931,14.350454,STD
4604494150000,0.144994,-0.505872476651406,9.89979177417547,-0.0339827652508642,-0.02565634,0.07544186,0.014049901,297.84573,-104.83176,14.806441,STD
4604499131000,0.149975,-0.50175734624892,9.90429973840392,-0.0212036182673581,-0.030848695,0.08368854,0.016187929,298.7584,-105.41036,15.377236,STD
4604504182000,0.155026,-0.511048115776433,9.90894522260636,-0.0026220564141938,-0.028099801,0.07727446,0.01160644,299.6565,-105.95871,15.916652,STD
4604509161000,0.160005,-0.523619649456466,9.911995,0.014430884868536,-0.021380283,0.07880162,0.016187929,300.62387,-106.545906,16.49415,STD
4604514177000,0.165021,-0.543141057173626,9.911995,0.0290719279163873,-0.03604105,0.07269296,0.0143553335,301.57474,-107.10154,17.039705,STD
4604519189000,0.170033,-0.560121160794516,9.91043951608367,0.0429735850333978,-0.033292156,0.0852157,0.017715093,302.5507,-107.661575,17.588766,STD
4604524216000,0.17506,-0.572814773193883,9.90620822947794,0.0556671899218668,-0.039095376,0.076052725,0.02076942,303.51526,-108.194275,18.110245,STD
4604529212000,0.180056,-0.585479709676476,9.90198650109669,0.0666061596572839,-0.040011674,0.07147124,0.022296581,304.50778,-108.72325,18.627869,STD
4604534220000,0.185064,-0.598629210974228,9.89760324246025,0.0622229879811735,-0.0421497,0.07452556,0.022907447,305.48145,-109.22819,19.121157,STD
4604539730000,0.190574,-0.61325436698334,9.89261518342589,0.0571785676140965,-0.04734206,0.07666359,0.021380283,306.4438,-109.71535,19.596136,STD
4604544187000,0.195031,-0.635134166472448,9.87802874181974,0.0389454078463904,-0.036957346,0.0870483,0.024740042,307.3862,-110.18142,20.049198,STD
4604549197000,0.200041,-0.659728690914994,9.8616324949167,0.0184499780873131,-0.04428773,0.087659165,0.026572637,308.3184,-110.62005,20.475035,STD
4604554197000,0.205041,-0.678677761726883,9.8517668549704,0.00404262847030006,-0.043982297,0.07422013,0.032070424,309.2374,-111.0401,20.881102,STD
4604559040000,0.209884,-0.692878754500919,9.84703309185548,-0.00542470696570729,-0.038179077,0.07574729,0.02687807,310.13818,-111.43721,21.263876,STD
4604564053000,0.214897,-0.693098783778502,9.844957,-0.0245971079052117,-0.03634648,0.07452556,0.025961773,311.05646,-111.82525,21.636549,STD
4604569023000,0.219867,-0.682762910597177,9.844957,-0.0504368086663409,-0.029626964,0.06841691,0.023823744,311.9626,-112.191956,21.986778,STD
4604574056000,0.2249,-0.683425656238306,9.83454007631709,-0.047043764033481,-0.02321288,0.05955936,0.021685716,312.8913,-112.56048,22.337288,STD
4604579035000,0.229879,-0.688121164579025,9.82045374741507,-0.0329572292053176,-0.023823744,0.046120327,0.0143553335,313.8098,-112.90673,22.664606,STD
4604584031000,0.234875,-0.702794072157406,9.82949090290686,-0.0353624102337354,-0.032375857,0.03268129,0.013133603,314.73386,-113.245636,22.98303,STD
4604589059000,0.239903,-0.721837833438798,9.84853456476172,-0.0448842968400237,-0.020158553,0.01985312,0.0076358155,315.64893,-113.56264,23.277609,STD
4604594028000,0.244872,-0.721482179827485,9.86406687933738,-0.0510615947406391,-0.016798794,0.014660766,0.011911872,316.55597,-113.864426,23.557068,STD
4604599025000,0.249869,-0.712100633150363,9.87813949323662,-0.0557523719976475,-0.016493361,0.024740042,0.01740966,317.4505,-114.14724,23.816338,STD
4604604175000,0.255019,-0.701316930769231,9.87737146153846,-0.0500940656923077,-0.019547688,0.015577064,0.010995574,318.35367,-114.4157,24.059055,STD
4604609107000,0.259951,-0.690406148232848,9.86864265322245,-0.0391832756365904,-0.016798794,0.018020526,0.00580322,319.23898,-114.66882,24.285694,STD
4604614043000,0.264887,-0.679486516724417,9.85990676558097,-0.0282636366027258,-0.003970624,0.01038471,0.008552114,320.11194,-114.902916,24.491392,STD
4604619063000,0.269907,-0.668381056802957,9.85102221210441,-0.0171581690277662,-0.009468411,0.010995574,0.0030543262,320.97137,-115.116585,24.676716,STD
4604624085000,0.274929,-0.6607997,9.844957,-0.009576807,-0.013744468,0.01038471,0.0076358155,321.8282,-115.319305,24.849651,STD
4604629713000,0.280557,-0.6607997,9.844957,-0.009576807,-0.008552114,0.012217305,0.0033597588,322.6741,-115.50324,25.00268,STD
4604634066000,0.28491,-0.64791360175415,9.84925245130026,-0.0310536313547644,-0.008552114,0.01740966,0.008552114,323.47498,-115.657036,25.127424,STD
4604639073000,0.289917,-0.620305260326264,9.85845541435563,-0.0770675207618271,-0.005192355,0.016493361,0.007941248,324.26938,-115.79609,25.23596,STD
4604644044000,0.294888,-0.595932356480196,9.86966577950184,-0.103493257959984,-0.003970624,0.006414085,0.007330383,325.05994,-115.9275,25.335596,STD
4604649042000,0.299886,-0.576387686663944,9.88432406247448,-0.0986070874446713,-0.0009162979,0.014049901,0.01038471,325.83804,-116.04831,25.423998,STD
4604654242000,0.305086,-0.557204481445226,9.89675464100739,-0.0781570356052327,-0.003970624,0.01740966,0.01038471,326.64685,-116.18062,25.520638,STD
4604659232000,0.310076,-0.540193452878882,9.90526033291804,-0.0398821960190442,0.0070249503,0.015577064,0.008857546,327.4463,-116.30176,25.604258,STD
4604664137000,0.314981,-0.529325350909091,9.911995,-0.00827633150018979,0.0018325958,0.021991149,0.00580322,328.2182,-116.39888,25.666096,STD
4604669099000,0.319943,-0.542853567272727,9.911995,-0.00151222308293794,-0.003970624,0.013744468,0.004276057,328.98764,-116.485596,25.715574,STD
4604674355000,0.325199,-0.557183334545455,9.911995,0.00565266080280888,-0.0125227375,0.0125227375,0.0076358155,329.72827,-116.55351,25.748816,STD
4604679163000,0.330007,-0.570291690909091,9.911995,0.0122068392127538,-0.012217305,0.010079277,0.0143553335,330.46533,-116.61252,25.77194,STD
4604684473000,0.335317,-0.584796585888436,9.91179121378145,0.0183384855529482,-0.008246681,0.018020526,0.008246681,331.19724,-116.65813,25.782515,STD
4604689190000,0.340034,-0.598271906242418,9.90729934652481,0.000371378614895099,-0.01282817,0.014049901,0.013744468,331.92752,-116.699036,25.787949,STD
4604694532000,0.345376,-0.613464773506769,9.90205192195381,-0.0198857935253517,-0.01863139,0.0076358155,0.013744468,332.65753,-116.72848,25.781181,STD
4604699825000,0.350669,-0.626921086707371,9.89308131501637,-0.0378275816164941,-0.0125227375,0.0067195175,0.01985312,333.3804,-116.752716,25.768196,STD
4604704354000,0.355198,-0.638435094356252,9.88540553968675,-0.0531796236087072,-0.010079277,0.009773844,0.0067195175,334.11298,-116.7676,25.74498,STD
4604709213000,0.360057,-0.648873356264428,9.88687835739769,-0.0502335165636936,-0.01282817,0.0106901415,0.0125227375,334.8396,-116.78046,25.719187,STD
4604714227000,0.365071,-0.658950654459601,9.89191655928646,-0.0401562641416579,-0.008552114,0.01038471,0.0143553335,335.55716,-116.78071,25.679447,STD
4604719185000,0.370029,-0.642821472730823,9.88924565941423,-0.0526898009308229,-0.009468411,0.006414085,0.010995574,336.27618,-116.775154,25.63268,STD
4604724193000,0.375037,-0.620524552927941,9.88478665355649,-0.0705273269946072,-0.0012217305,0.005192355,0.014049901,336.98666,-116.7645,25.579407,STD
4604729217000,0.380061,-0.618913009495608,9.883265,-0.0706170769895154,-0.006414085,-0.0009162979,0.01160644,337.68744,-116.738304,25.511143,STD
4604734376000,0.38522,-0.628246472309436,9.883265,-0.0612836024805894,-0.004581489,0.004886922,0.009468411,338.37735,-116.70667,25.436209,STD
4604739229000,0.390073,-0.635881597848322,9.88135878323405,-0.0479299486430336,-0.0027488936,-0.0036651916,0.0033597588,339.0539,-116.6646,25.349417,STD
4604744211000,0.395055,-0.642813428731658,9.87789280807787,-0.0306004228253668,-0.00580322,-0.0021380284,0.008552114,339.71896,-116.61807,25.258797,STD
4604749121000,0.399965,-0.649645080605841,9.87447692328926,-0.0135213437878832,-0.005497787,0.002443461,0.0036651916,340.37704,-116.55992,25.15524,STD
4604754173000,0.405017,-0.635868963746624,9.87675884753253,-0.249098070505524,0.0067195175,0.006414085,0.0061086523,341.02866,-116.49977,25.048693,STD
4604759189000,0.410033,-0.616212163275227,9.88069028480236,-0.555743976004174,-0.009773844,0.0015271631,0.008246681,341.67465,-116.42969,24.934214,STD
4604764136000,0.41498,-0.600581995520915,9.87637288880229,-0.635266462317485,-0.02321288,0.0021380284,-0.0012217305,342.30545,-116.34747,24.807985,STD
4604769892000,0.420736,-0.591034223666753,9.85250345916688,-0.215164221583095,-0.009162978,0.011911872,0.0143553335,342.92993,-116.26835,24.684061,STD
4604774335000,0.425179,-0.58418524,9.835381,0.0922534872188156,-0.0061086523,0.005192355,0.008552114,343.67383,-116.25104,24.597437,STD
4604779219000,0.430063,-0.58418524,9.835381,0.186546218864343,-0.018020526,0.006414085,0.0070249503,344.3989,-116.228455,24.506933,STD
4604784108000,0.434952,-0.58418524,9.835381,0.280935482790424,-0.009162978,-0.0021380284,0.011301007,344.9797,-116.1217,24.358135,STD
4604789225000,0.440069,-0.590518579320437,9.82271405683071,0.0152007840432996,-0.008246681,-0.0070249503,0.008246681,345.55368,-116.0069,24.203156,STD
4604794165000,0.445009,-0.600002270209482,9.80374627894157,-0.435274859977949,-0.015577064,-0.0015271631,0.010995574,346.1227,-115.89114,24.047232,STD
4604799152000,0.449996,-0.626115204679951,9.79454250597804,-0.371059801407889,-0.01038471,-0.0021380284,0.01160644,346.65118,-115.74912,23.870922,STD
4604804531000,0.455375,-0.663823442788125,9.79035305465636,-0.00235701858641724,-0.0027488936,-0.009773844,0.018325957,347.17746,-115.60672,23.694553,STD
4604809116000,0.45996,-0.691352928612897,9.78840833817126,0.235325746838068,0.014049901,-0.014049901,0.02076942,347.84097,-115.5477,23.566843,STD
4604814156000,0.465,-0.701360615115074,9.79341176342525,0.160268051047066,0.015577064,-0.00580322,0.015577064,348.49142,-115.48018,23.432041,STD
4604819124000,0.469968,-0.704083961163227,9.7982229587242,0.02829919684803,0.016187929,-0.009468411,0.019242255,349.03522,-115.33902,23.250612,STD
4604824196000,0.47504,-0.685857496022514,9.80277967016885,-0.276994322641651,0.014049901,-0.013744468,0.01160644,349.57126,-115.19072,23.062195,STD
4604829199000,0.480043,-0.671295946884929,9.81124723442464,-0.530324789487498,0.018020526,-0.018936822,0.005192355,350.11774,-115.05167,22.875069,STD
4604834138000,0.484982,-0.677829973021136,9.84391736510568,-0.487853578665562,0.01740966,-0.018325957,0.009468411,350.6588,-114.90976,22.686005,STD
4604839575000,0.490419,-0.685022825846111,9.87988162923056,-0.441099990238983,0.03176499,-0.028099801,0.005497787,351.2781,-114.816246,22.51951,STD
4604844144000,0.494988,-0.682261960380119,9.90823251564235,-0.410349052986742,0.024129177,-0.019242255,0.005497787,351.88156,-114.716484,22.351147,STD
4604849325000,0.500169,-0.649855565052577,9.93415764950036,-0.403867777981843,0.018325957,-0.015577064,0.0009162979,352.4789,-114.61094,22.174755,STD
4604854357000,0.505201,-0.61838114287767,9.95933720433022,-0.397572897490693,0.015882496,-0.011301007,-0.0021380284,353.05624,-114.48717,21.987385,STD
4604859185000,0.510029,-0.593097977064677,9.97969654213308,-0.388664699614428,0.021380283,-0.007330383,0.0027488936,353.62396,-114.36047,21.797585,STD
4604864155000,0.514999,-0.589397985149254,9.98339641814366,-0.36646473266791,0.0125227375,-0.007330383,0.009773844,353.902590625,-114.293174596774,21.6998683870968,STD
4604869105000,0.519949,-0.585712882537313,9.98708140531716,-0.344354101604478,0.016493361,0.00061086525,0.0018325958,354.1801,-114.22615,21.602545,STD
4604874189000,0.525033,-0.586979663789818,9.99419796429603,-0.329599386584544,0.018020526,0.002443461,0.008857546,354.70352,-114.08513,21.403511,STD
4604879238000,0.530082,-0.591633042983351,10.0035049170436,-0.320292618479453,0.009773844,-0.0027488936,0.002443461,355.219,-113.93615,21.198513,STD
4604884124000,0.534968,-0.59376204,9.99590250153846,-0.278081000153846,0.015271631,0.0067195175,0.0012217305,355.71722,-113.786,20.994467,STD
4604889193000,0.540037,-0.59376204,9.97256365576923,-0.203396644951923,0.009162978,0.006414085,-0.0009162979,356.21344,-113.629555,20.786076,STD
4604894129000,0.544973,-0.597885423831803,9.94544707047676,-0.148373864533017,-0.0036651916,0.005192355,-0.0067195175,356.69412,-113.46448,20.571173,STD
4604899151000,0.549995,-0.607379983026355,9.91221591501333,-0.115142879592538,-0.014966198,-0.00030543262,-0.0030543262,357.17123,-113.29947,20.357285,STD
4604904315000,0.555159,-0.616944560718721,9.89082670686736,-0.06353665954619,-0.0036651916,-0.005497787,-0.0018325958,357.62262,-113.12139,20.134829,STD
4604909225000,0.560069,-0.625791609345249,9.88640354976482,0.00723981445569144,-0.004886922,-0.0018325958,-0.004886922,358.0689,-112.93958,19.91229,STD
4604914137000,0.564981,-0.636893533868066,9.87964670314843,0.077964107826087,-0.010079277,-0.014660766,-0.010079277,358.5154,-112.75774,19.688307,STD
4604919244000,0.570088,-0.654146839088103,9.86670647764353,0.15129057056266,-0.014049901,-0.008552114,-0.00061086525,358.95197,-112.578445,19.468845,STD
4604924336000,0.57518,-0.6703765,9.85385921285271,0.222965738282499,-0.019547688,-0.013744468,0.0033597588,359.38974,-112.38947,19.244083,STD
4604929191000,0.580035,-0.6703765,9.84248389479693,0.268467679641983,-0.009162978,-0.010995574,-0.00061086525,359.8198,-112.20243,19.0206,STD
4604934233000,0.585077,-0.6703765,9.8306704336976,0.315722218948785,-0.01985312,-0.030848695,0.0021380284,0.24539354,-112.00272,18.792727,STD
4604939298000,0.590142,-0.675882653242255,9.82947465383875,0.340694397075236,-0.01160644,-0.029321533,-0.004276057,0.6599749,-111.80423,18.562891,STD
4604944228000,0.595072,-0.684967437540889,9.83553098697967,0.349779187698031,-0.013439035,-0.032375857,-0.0027488936,1.0793124,-111.60549,18.334955,STD
4604949201000,0.600045,-0.694131460323263,9.84164014412161,0.358943216859727,-0.013439035,-0.030543262,-0.00580322,1.484319,-111.39951,18.102755,STD
4604954096000,0.60494,-0.689869911754367,9.8518848858618,0.361609412938592,-0.0125227375,-0.03176499,-0.009773844,1.8885176,-111.19401,17.870955,STD
4604959036000,0.60988,-0.669081427957816,9.86747657431616,0.356412291989454,-0.005497787,-0.029321533,-0.007941248,2.288611,-110.99061,17.6409,STD
4604964022000,0.614866,-0.6607997,9.89051646171761,0.323489761211063,-0.015271631,-0.03176499,-0.010995574,2.6819966,-110.7756,17.403198,STD
4604969021000,0.619865,-0.6607997,9.91839104095099,0.272386500162057,-0.007941248,-0.025045475,-0.01282817,3.0696244,-110.56581,17.167938,STD
4604974069000,0.624913,-0.650125488470469,9.931149,0.227648572019182,-0.009162978,-0.029626964,-0.019242255,3.461969,-110.35682,16.935286,STD
4604979125000,0.629969,-0.630571570538112,9.931149,0.188540782094902,-0.008552114,-0.03359759,-0.017104227,3.8498755,-110.151596,16.705843,STD
4604984043000,0.634887,-0.603692920159596,9.925777601705,0.185810743718279,-0.004886922,-0.028710667,-0.013744468,4.245094,-109.95296,16.478874,STD
4604989075000,0.639919,-0.570253848573553,9.91622338600317,0.209695799126685,-0.0036651916,-0.034513887,-0.0076358155,4.6415834,-109.755745,16.253294,STD
4604994068000,0.644912,-0.5183096411779,9.91447139356829,0.193026771518183,-0.00061086525,-0.029626964,-0.005192355,5.038377,-109.56929,16.03662,STD
4604999060000,0.649904,-0.451271089898102,9.91894071992147,0.143865175646443,0.0009162979,-0.03145956,-0.0036651916,5.435368,-109.384254,15.821338,STD
4605004135000,0.654979,-0.373084591671924,9.91296803028391,0.1041666549653,-0.0027488936,-0.028099801,0.007330383,5.8159924,-109.20037,15.614388,STN
4605009127000,0.659971,-0.282597374006309,9.89285987634069,0.0790313155583596,-0.00030543262,-0.03481932,0.012217305,6.196505,-109.017105,15.406271,STN
4605014057000,0.664901,-0.219642140018012,9.88546237463977,0.0472596113948127,0.0036651916,-0.04337143,0.02443461,6.5654073,-108.84835,15.215646,STN
4605019066000,0.66991,-0.180761369896434,9.88978209582133,0.00837884397982709,0.0125227375,-0.07238753,0.032070424,6.938921,-108.68125,15.024302,STN
4605025780000,0.676624,-0.14655790121632,9.90284771692511,-0.0258246238285494,0.0106901415,-0.095294975,0.042455133,7.3016524,-108.5331,14.852622,STN
4605029095000,0.679939,-0.139575143364126,9.9133220669746,-0.0328073827744419,0.005192355,-0.12034045,0.04520403,7.670062,-108.38567,14.679534,STN
4605034050000,0.684894,-0.15839383340074,9.92765154500316,-0.00385596757524601,-0.0027488936,-0.1695151,0.056505036,8.045617,-108.25206,14.5161085,STN
4605039073000,0.689917,-0.210506458516746,9.94067951196172,0.0699702594258373,-0.0027488936,-0.21746802,0.059253927,8.2408675897128,-108.18294034324,14.431952264285,STN
4605044043000,0.694887,-0.271766999370629,9.92887137062937,0.120480248601399,-0.02076942,-0.2510656,0.061391957,8.434058,-108.11455,14.348684,STN
4605049087000,0.699931,-0.362919402660673,9.84308081940282,0.104394526685093,-0.02443461,-0.27214047,0.05955936,8.822072,-107.98258,14.187365,STN
4605054052000,0.704896,-0.482400509514678,9.75642583779777,0.0914894084103983,-0.04062254,-0.30298916,0.052839845,9.242149,-107.832054,14.011587,STN
4605059068000,0.709912,-0.63909020546407,9.66621072027281,0.0819930648540081,-0.040011674,-0.3173445,0.040927973,9.658782,-107.6816,13.833559,STN
4605064006000,0.71485,-0.771042502987483,9.60333073019754,0.0825060737263837,-0.042455133,-0.33169982,0.02565634,10.098935,-107.527176,13.6448965,STN
4605069063000,0.719907,-0.875233590973988,9.57491490025425,0.0967139521032662,-0.032375857,-0.34422258,0.016187929,10.537081,-107.37275,13.453602,STN
4605074027000,0.724871,-0.945715120713082,9.58640528285233,0.0945627789967272,-0.028405234,-0.35521814,0.008857546,11.026999,-107.21635,13.250253,STN
4605079047000,0.729891,-0.964787063091342,9.66269305236537,0.0659548788717644,-0.022296581,-0.36163223,-0.004581489,11.510372,-107.05652,13.041211,STN
4605084023000,0.734867,-0.953271662693815,9.75358921034248,0.0552473543513375,-0.014660766,-0.3717115,-0.019242255,12.009104,-106.88625,12.814122,STN
4605089029000,0.739873,-0.887922874685636,9.87203369509286,0.0756688455927756,-0.0067195175,-0.38820487,-0.025045475,12.502973,-106.714264,12.584605,STN
4605094333000,0.745177,-0.814979162732407,10.0054693505647,0.107138961946568,-0.008552114,-0.40866885,-0.033292156,12.995677,-106.53406,12.342987,STN
4605099026000,0.74987,-0.707597879504778,10.2153516455256,0.248687036384883,-0.02107485,-0.42424592,-0.02565634,13.484303,-106.35421,12.103902,STN
4605104035000,0.754879,-0.601384132387677,10.4251233138639,0.390792721848524,-0.034513887,-0.43249258,-0.024740042,13.966264,-106.172325,11.869214,STN
4605109018000,0.759862,-0.535412258183075,10.5664912748099,0.489750535615681,-0.055588737,-0.43554693,-0.023823744,14.444064,-105.98726,11.63664,STN
4605114014000,0.764858,-0.478155681940077,10.6904551851083,0.569815734304361,-0.07727446,-0.41630468,-0.011911872,14.886516,-105.78434,11.409802,STN
4605119009000,0.769853,-0.473425506339365,10.7093759764165,0.536704579187185,-0.1142318,-0.36743546,-0.014660766,15.3153,-105.57202,11.181889,STN
4605124023000,0.774867,-0.463951124307478,10.7077257485811,0.505209675658668,-0.1469131,-0.30909783,-0.016187929,15.7206745,-105.348755,10.962723,STN
4605129008000,0.779852,-0.421168745426665,10.5603642246341,0.486195288354077,-0.17287487,-0.2556471,-0.025350908,16.10903,-105.11906,10.744801,STN
4605134009000,0.784853,-0.340986636062556,10.4009083269326,0.511349147275067,-0.18325958,-0.22143865,-0.039095376,16.484846,-104.89192,10.530392,STN
4605139036000,0.78988,0.0354625303672176,10.1483536979115,0.887798343559339,-0.19700404,-0.21930063,-0.047036625,16.85106,-104.660484,10.318205,STN
4605144021000,0.794865,0.380903433821419,9.92079219759703,1.2461057512836,-0.21624629,-0.24281894,-0.05100725,17.199352,-104.43554,10.118043,STN
4605149020000,0.799864,0.459528616694615,9.91251569608436,1.4612904263722,-0.25045475,-0.26267207,-0.03176499,17.543974,-104.21,9.924331,STN
4605154720000,0.805564,0.549179255297779,9.9030785969401,1.70665002789351,-0.29871312,-0.29168814,-0.022602014,17.818722,-103.981926,9.778166,STN
4605159031000,0.809875,0.425520230011561,9.86304391529164,1.75532450888071,-0.34483343,-0.31337386,0.00580322,18.098705,-103.757256,9.643253,STN
4605164026000,0.81487,0.259614509895954,9.81276948964792,1.79554410189175,-0.39064834,-0.30115658,0.018020526,18.376528,-103.52379,9.507503,STN
4605169004000,0.819848,-0.0783179130151844,9.73402410737527,1.54624921800434,-0.43371433,-0.2565634,0.022296581,18.633953,-103.27157,9.384826,STN
4605174209000,0.825053,-0.453716528367306,9.64322987864708,1.23798122526978,-0.4841107,-0.18295415,0.01863139,18.879936,-103.01276,9.265932,STN
4605179007000,0.829851,-0.761332234582334,9.50549184977018,0.884452762859712,-0.5128214,-0.07666359,-0.003970624,19.122042,-102.72931,9.121139,STN
4605184223000,0.835067,-1.08310554004312,9.35629194252254,0.511139093890631,-0.51251596,0.035124753,-0.03145956,19.398504,-102.442635,8.93678,STN
4605189047000,0.839891,-1.2234577493728,9.22499418830851,0.302874504772638,-0.48441613,0.095294975,-0.0571159,19.65814,-102.15537,8.750203,STN
4605194285000,0.845129,-1.36913773552534,9.0844138657602,0.0882652482917182,-0.464563,0.2134974,-0.11728613,19.946299,-101.88853,8.523639,STN
4605199004000,0.849848,-1.36168937636588,8.99875789097651,0.132955434358467,-0.41141775,0.2843578,-0.13591751,20.228271,-101.63957,8.304018,STN
4605204086000,0.85493,-1.35366806650185,8.90651299505562,0.181083327045735,-0.37201694,0.31581733,-0.17592919,20.488277,-101.38293,8.052231,STN
4605209129000,0.859973,-1.29329952485549,8.83210392999358,0.315173509094412,-0.31612277,0.30695978,-0.20250183,20.73663,-101.14285,7.803916,STN
4605214051000,0.864895,-1.19743100905588,8.77155547966174,0.506910572305716,-0.26633725,0.2510656,-0.21074851,20.986134,-100.90905,7.552878,STN
4605219038000,0.869882,-1.13063195433618,8.78150548313445,0.571321365272949,-0.21288654,0.1685988,-0.22113322,21.234066,-100.68001,7.297975,STN
4605224083000,0.874927,-1.07615671460115,8.82236201959034,0.580400582955934,-0.16920967,0.09712757,-0.22327125,21.492462,-100.4629,7.0451164,STN
4605229044000,0.879888,-1.07691006167363,8.9127094427301,0.513801399858566,-0.13316862,0.03756821,-0.21777347,21.760893,-100.24818,6.8050604,STN
4605234045000,0.884889,-1.11796316511304,9.04100039097825,0.390641993089039,-0.09162979,-0.0009162979,-0.21563543,22.04086,-100.045494,6.5642905,STN
4605239150000,0.889994,-1.14831536760563,9.19441005091418,0.226576816359724,-0.03726278,0.0143553335,-0.20708331,22.308151,-99.85931,6.3358197,STN
4605244047000,0.894891,-1.17293141408451,9.35031166433383,0.0542646657933689,-0.00061086525,0.04734206,-0.2049453,22.578453,-99.67999,6.107863,STN
4605249042000,0.899886,-1.17850352033318,9.49865951481315,-0.0803580732117064,0.047036625,0.10476339,-0.2012801,22.842903,-99.52615,5.884066,STN
4605254238000,0.905082,-1.15609867714543,9.63756934606033,-0.161015395456461,0.095294975,0.15668693,-0.19975294,23.095978,-99.38327,5.6641855,STN
4605259269000,0.910113,-1.12449320917551,9.7569235147962,-0.192136797386935,0.12614368,0.20097467,-0.20311269,23.327858,-99.25967,5.448872,STN
4605264123000,0.914967,-1.06393099940443,9.82613705583473,-0.0796641291959799,0.15790866,0.21502456,-0.19883664,23.55032,-99.15199,5.2406173,STN
4605269153000,0.919997,-1.00053222979313,9.89427887758584,0.0423899815611004,0.18906279,0.20799962,-0.20005837,23.758455,-99.0604,5.0392966,STN
4605274142000,0.924986,-0.929205542685007,9.91465834143741,0.235990983346129,0.21502456,0.16401732,-0.20952678,23.969511,-98.977554,4.83981,STN
4605279131000,0.929975,-0.860526931126252,9.92457146220441,0.405804042648497,0.22815818,0.111177474,-0.20952678,24.178524,-98.89086,4.6514435,STN
4605284104000,0.934948,-0.803261849498998,9.89021211823647,0.474522140601202,0.2501493,0.0888809,-0.21227567,24.387651,-98.81338,4.462491,STN
4605289145000,0.939989,-0.745213734380762,9.85538295014028,0.544179878743086,0.25686884,0.03481932,-0.20952678,24.604805,-98.716576,4.2747073,STN
4605294112000,0.944956,-0.7278373,9.80189742496479,0.547089994248564,0.26511553,0.004886922,-0.20158553,24.819256,-98.62874,4.0907693,STN
4605299075000,0.949919,-0.7278373,9.74009734662477,0.521339794900856,0.28496864,-0.018325957,-0.19547687,25.04471,-98.548294,3.9082363,STN
4605304248000,0.955092,-0.7278373,9.67958885104732,0.473907039534523,0.29932398,-0.008246681,-0.19456059,25.24354,-98.45941,3.732018,STN
4605309190000,0.960034,-0.7278373,9.62247320153435,0.42495066993535,0.3100141,-0.0021380284,-0.1853976,25.448816,-98.37903,3.5614972,STN
4605314149000,0.964993,-0.715119665916452,9.60443937845694,0.444618029024167,0.32589662,0.010995574,-0.16920967,25.647663,-98.31388,3.3978639,STN
4605319135000,0.969979,-0.691325998546632,9.62030174055311,0.523930319843867,0.33017266,0.028710667,-0.14538592,25.84224,-98.252396,3.2418487,STN
4605324180000,0.975024,-0.672326594507772,9.63621806735751,0.614563063015544,0.32070425,0.022602014,-0.12064589,26.033186,-98.201584,3.0954158,STN
4605329167000,0.980011,-0.687174107958549,9.65106537409326,0.772936653517099,0.33169982,0.00030543262,-0.08552113,26.2231,-98.162224,2.9608254,STN
4605334227000,0.985071,-0.712083201665808,9.66905363936115,0.934823319666838,0.31887165,-0.035124753,-0.050701816,26.40958,-98.10296,2.831445,STN
4605339229000,0.990073,-0.773782309015971,9.69784670788254,1.09935421819681,0.3210097,-0.074830994,-0.022602014,26.602982,-98.05444,2.7107923,STN
4605344121000,0.994965,-0.834124578739481,9.72600658217414,1.2602668842521,0.29840767,-0.13133603,0.0106901415,26.81606,-97.979004,2.5902205,STN
4605349927000,1.000771,-1.00945612352208,9.75443076727363,1.35241039406336,0.26358834,-0.21319197,0.04734206,27.047024,-97.90461,2.4774897,STN
4605354223000,1.005067,-1.14970893250187,9.77495562434522,1.41056406051384,0.22143865,-0.25442538,0.0580322,27.280716,-97.82346,2.3673048,STN
4605359163000,1.010007,-1.36112943965585,9.8265138488463,1.38540483791553,0.18509217,-0.3155119,0.07727446,27.550915,-97.70512,2.2429082,STN
4605364227000,1.015071,-1.63614147594838,9.91186215232695,1.25264040318733,0.14996742,-0.33108896,0.09010262,27.817783,-97.577644,2.1210983,STN
4605369134000,1.019978,-1.92854899666903,9.95588801771793,1.08815199057406,0.12950343,-0.364992,0.086132,28.128147,-97.421135,1.9602301,STN
4605374210000,1.025054,-2.26814794063987,9.94604437045662,0.86667434691708,0.08827003,-0.39706242,0.05131268,28.439045,-97.25135,1.7954637,STN
4605379158000,1.030002,-2.52282034235587,9.95619408211853,0.620144341503553,0.063224554,-0.3930918,0.022602014,28.782572,-97.08868,1.5946654,STN
4605384226000,1.03507,-2.68637043081826,9.99174841689254,0.32859860070537,0.06383542,-0.36651915,-0.03176499,29.122711,-96.92355,1.3790824,STN
4605389204000,1.040048,-2.84701611755183,10.0266713605597,0.0422302704580617,0.11026118,-0.3622431,-0.07269296,29.49545,-96.78523,1.1162531,STN
4605394218000,1.045062,-2.86708364433158,10.1024119535643,-0.0728361922659169,0.12980886,-0.38973203,-0.13133603,29.862465,-96.64556,0.83783287,STN
4605399158000,1.050002,-2.83275781284237,10.1925169980047,-0.120034058456739,0.19150625,-0.40530908,-0.17440203,30.21945,-96.54029,0.5579797,STN
4605404197000,1.055041,-2.76157084062614,10.2083505655438,-0.0288803315653607,0.24098633,-0.38606682,-0.19272798,30.552727,-96.47779,0.24820302,STN
4605409167000,1.060011,-2.65700111250458,10.151708762175,0.193330688738557,0.2666427,-0.35063666,-0.19242255,30.88016,-96.43921,-0.06163564,STN
4605414117000,1.064961,-2.56773790683435,10.0801078526907,0.401765226950596,0.28344148,-0.32253686,-0.18784106,31.192467,-96.43514,-0.3625847,STN
4605420091000,1.070935,-2.49893908625113,9.95397677141998,0.61962774572402,0.25381452,-0.27214047,-0.18142697,31.4839,-96.43622,-0.65429175,STN
4605424186000,1.07503,-2.45484534693378,9.86249108755495,0.690431385256179,0.21960606,-0.22418754,-0.17440203,31.778624,-96.43554,-0.9274418,STN
4605429163000,1.080007,-2.40675917753837,9.74227557440369,0.635475686236218,0.17715092,-0.15699236,-0.17531833,32.049828,-96.432625,-1.1927891,STN
4605434230000,1.085074,-2.35780345715933,9.61988618217194,0.579526213273762,0.1432479,-0.0729984,-0.17470746,32.309525,-96.420364,-1.4481695,STN
4605439196000,1.09004,-2.25450685571684,9.49825960340028,0.502400546068801,0.15271631,-0.0729984,-0.17073683,32.4171958856423,-96.4226506115869,-1.57016202943073,STN
4605444155000,1.094999,-2.10813244024657,9.37549427793796,0.407965497524359,0.18448131,0.09162979,-0.16768251,32.524715,-96.424934,-1.6919826,STN
4605449216000,1.10006,-1.89125213560575,9.32904140657084,0.339601043728953,0.2452624,0.20952678,-0.17348573,32.72683,-96.43444,-1.9327874,STN
4605454198000,1.105042,-1.62183314579055,9.34863565349076,0.295514302731006,0.30573806,0.31948254,-0.14813483,32.87186,-96.47419,-2.1432104,STN
4605459170000,1.110014,-1.36062733993986,9.41082328029889,0.334594817486787,0.33444872,0.39614612,-0.11759156,32.972965,-96.543335,-2.3235242,STN
4605464191000,1.115035,-1.1021050679743,9.50283925915801,0.430992961714051,0.33628133,0.43279803,-0.08368854,33.05469,-96.618675,-2.4890954,STN
4605469122000,1.119966,-0.906833123034576,9.58456867316979,0.50994970539888,0.3203988,0.42485678,-0.05497787,33.099033,-96.6966,-2.602517,STN
4605474161000,1.125005,-0.799635600777477,9.65448005311957,0.565878853159166,0.29046643,0.42546764,-0.009773844,33.13222,-96.76356,-2.697264,STN
4605479204000,1.130048,-0.768260295423039,9.6960325123776,0.601581319656728,0.23304509,0.42577308,0.013133603,33.13294,-96.79492,-2.75452,STN
4605484139000,1.134983,-0.887857107421058,9.68043315601276,0.596381461806579,0.20891592,0.41599923,0.026572637,33.13811,-96.82208,-2.800577,STN
4605489751000,1.140595,-1.10611413651158,9.64038768008992,0.59376204,0.18753563,0.3827071,0.040317107,33.141922,-96.82326,-2.8265378,STN
4605494169000,1.145013,-1.32943129767862,9.59489709168214,0.59376204,0.16371189,0.37048978,0.043676864,33.143326,-96.817,-2.8505986,STN
4605499113000,1.149957,-1.65678503776101,9.52171713361993,0.67151330587296,0.15790866,0.3567453,0.03726278,33.16451,-96.815216,-2.892781,STN
4605504219000,1.155063,-2.09009064449904,9.41875359984208,0.847409612274083,0.15057829,0.3231477,0.030848695,33.195385,-96.80679,-2.934188,STN
4605509123000,1.159967,-2.4606696151894,9.33034678494219,0.998926929880628,0.14446963,0.30115658,0.02443461,33.263153,-96.81798,-3.0171647,STN
4605514240000,1.165084,-2.62648994651753,9.28889134138547,1.07262486025942,0.13988814,0.2770274,0.0070249503,33.340508,-96.83044,-3.104627,STN
4605519194000,1.170038,-2.78443471343402,9.25004929183227,1.14021285707472,0.12583824,0.25442538,0.00061086525,33.490356,-96.85036,-3.2763417,STN
4605524221000,1.175065,-2.90402576470588,9.23091482352941,1.14978014117647,0.105068825,0.24007004,-0.016798794,33.643238,-96.87473,-3.4530177,STN
4605529230000,1.180074,-3.02153514058084,9.2131428017737,1.15828400709483,0.096516706,0.22785273,-0.025961773,33.822395,-96.899086,-3.6546366,STN
4605534185000,1.185029,-3.10940272877887,9.21776750063347,1.14903480253387,0.0842994,0.22296582,-0.039095376,34.002083,-96.92638,-3.8583534,STN
4605539558000,1.190402,-3.20037494136047,9.22074354965195,1.1370578334655,0.064446285,0.22174409,-0.04917465,34.190247,-96.96485,-4.0823593,STN
4605544184000,1.195028,-3.22379666998855,9.19732169873998,1.10192517938144,0.05467244,0.22815818,-0.045814894,34.376762,-97.00925,-4.301384,STN
4605549174000,1.200018,-3.24906135348489,9.17205688333774,1.06402808818398,0.043676864,0.23304509,-0.06078109,34.563362,-97.07067,-4.5423026,STN
4605554070000,1.204914,-3.21693983863057,9.15788123333333,1.1282363253397,0.031154128,0.24556783,-0.071776666,34.745358,-97.135284,-4.7755485,STN
4605559052000,1.209896,-3.1612256883758,9.14775116666667,1.23459985695329,0.020158553,0.23243423,-0.077579886,34.93228,-97.206184,-5.006927,STN
4605564035000,1.214879,-3.03562807025809,9.11011657435477,1.35779187730438,0.025961773,0.19211712,-0.07788532,35.116127,-97.288734,-5.239598,STN
4605569009000,1.219853,-2.89414746958214,9.06620895104465,1.48463646769766,0.036957346,0.15424347,-0.062002823,35.302567,-97.373405,-5.464394,STN
4605574091000,1.224935,-2.79117611069529,9.059659,1.61407763604491,0.04337143,0.11789699,-0.059864793,35.502872,-97.46035,-5.68736,STN
4605579012000,1.229856,-2.69835075556431,9.059659,1.73939196239905,0.046731193,0.092240654,-0.06505715,35.710224,-97.551636,-5.9040375,STN
4605584029000,1.234873,-2.62695520614641,9.04261189917127,1.82350203418508,0.052839845,0.049480084,-0.052534413,35.923157,-97.62963,-6.1014547,STN
4605589063000,1.239907,-2.56036725845994,9.02180319267956,1.89841346446823,0.056199603,-0.004886922,-0.04062254,36.14588,-97.71319,-6.29769,STN
4605594034000,1.244878,-2.51798868441325,8.99119852997045,1.99624478609118,0.048258353,-0.03726278,-0.035430185,36.367218,-97.7872,-6.4852657,STN
4605599025000,1.249869,-2.49781226669481,8.95084601055298,2.11730308172225,0.03145956,-0.0580322,-0.020158553,36.60039,-97.85974,-6.664546,STN
4605604066000,1.25491,-2.51059307277778,8.94399946527778,2.190874165,0.021991149,-0.061391957,0.0015271631,36.83042,-97.924515,-6.8336997,STN
4605609138000,1.259982,-2.54432469055556,8.95845567162698,2.23424338785714,0.0012217305,-0.042455133,-0.0061086523,37.058777,-97.993706,-7.004386,STN
4605614056000,1.2649,-2.56277220321871,8.98983273340664,2.21884296337465,-0.029321533,-0.019547688,-0.0009162979,37.2917,-98.05148,-7.1660256,STN
4605619056000,1.2699,-2.5723452739904,9.03291100209916,2.16619162391044,-0.05955936,0.002443461,-0.0009162979,37.518356,-98.115776,-7.3286686,STN
4605624074000,1.274918,-2.5558821655,9.055876085,2.0901620815,-0.10781772,0.028099801,-0.0125227375,37.742546,-98.18545,-7.497421,STN
4605629100000,1.279944,-2.52218896722,9.0655028854,1.99870928706,-0.18112154,0.062308256,-0.02565634,37.957245,-98.256226,-7.6636624,STN
4605634049000,1.284893,-2.48637558622328,9.02658398099762,1.83813275154394,-0.24587326,0.07574729,-0.04153884,38.165226,-98.338165,-7.832225,STN
4605639092000,1.289936,-2.44813667936461,8.95488593705463,1.62781838948931,-0.32559118,0.10140363,-0.06688975,38.359154,-98.42466,-8.00379,STN
4605644064000,1.294908,-2.36573217851313,8.85138758907026,1.49982128966466,-0.40042216,0.105068825,-0.09162979,38.548134,-98.51039,-8.165148,STN
4605649056000,1.2999,-2.25121830257275,8.72415004755146,1.42771988327715,-0.46853364,0.08277224,-0.116980694,38.73688,-98.604805,-8.331121,STN
4605654127000,1.304971,-2.11439445842373,8.58956481868497,1.43138378884215,-0.5198463,0.019547688,-0.12797627,38.915813,-98.703316,-8.48685,STN
4605659266000,1.31011,-1.93461780098517,8.4424747383219,1.58936935697366,-0.54428095,-0.0842994,-0.13591751,39.1129,-98.81123,-8.6466255,STN
4605664073000,1.314917,-1.80109163185409,8.33131316607833,1.69676420196672,-0.5681047,-0.20463985,-0.14660765,39.314228,-98.90915,-8.788292,STN
4605669069000,1.319913,-1.6925158456043,8.23882250109262,1.7731693677761,-0.61178154,-0.2929099,-0.14538592,39.536118,-99.00991,-8.927174,STN
4605674660000,1.325504,-1.58558789460514,8.13321040945851,1.84249384336903,-0.69027776,-0.32162055,-0.13897185,39.763996,-99.10032,-9.052221,STN
4605679119000,1.329963,-1.53857228965069,8.04345347528776,1.85531626891202,-0.7693848,-0.34697145,-0.13255776,40.015945,-99.198,-9.175787,STN
4605684059000,1.334903,-1.49329608954683,7.93981213924471,1.84964881389728,-0.81122905,-0.34269542,-0.11881329,40.25965,-99.28747,-9.281845,STN
4605689166000,1.34001,-1.4883707403424,7.80682786501511,1.72158963172205,-0.90010995,-0.2883284,-0.11301007,40.495735,-80.61292,-9.387055,STN
4605694089000,1.344933,-1.47685383393108,7.6896847376904,1.57065627743329,-0.9828822,-0.183565,-0.115453534,40.709476,-80.50498,-9.487845,STN
4605699110000,1.349954,-1.4301036430161,7.62735089668359,1.27457191577185,-1.0687088,-0.064446285,-0.10781772,40.903095,-80.38876,-9.583281,STN
4605704132000,1.354976,-1.29198071834405,7.51363209582502,1.05791059593956,-1.1499538,0.028099801,-0.10293079,41.07046,-80.2647,-9.674381,STN
4605709219000,1.360063,-0.9535917529816,7.28683947958324,1.01111209421414,-1.2186762,0.089491755,-0.10934488,41.212914,-80.12657,-9.76614,STN
4605714187000,1.365031,-0.623118707980492,7.06535221449789,0.965408348082465,-1.251052,0.064446285,-0.10751228,41.325703,-80.00261,-9.838713,STN
4605719193000,1.370037,-0.403492204637853,6.87222446620288,1.22274955073515,-1.2473868,-0.005497787,-0.099265605,41.43473,-79.86992,-9.910574,STN
4605724192000,1.375036,-0.252319652616933,6.69743137773831,1.66209478528715,-1.2144,-0.16249016,-0.09743301,41.577267,-79.729225,-9.981783,STN
4605729149000,1.379993,-0.103697402739791,6.74959219362445,2.2273667032538,-1.1716396,-0.33750305,-0.08246681,41.691956,-79.6519,-9.981097,STN
4605734146000,1.38499,0.0452439342535132,6.95720710473451,2.8863192505423,-1.1450669,-0.5290093,-0.048563786,41.85697,-79.574295,-9.9724245,STN
4605739174000,1.390018,0.0984359333250048,7.23057408835918,3.38030469425617,-1.1349876,-0.67073005,0.011301007,42.081997,-79.47889,-9.947241,STN
4605745274000,1.396118,0.0313267751496266,7.65000660798392,3.74940514801838,-1.1997393,-0.7272351,0.08582657,42.336353,-79.38012,-9.906496,STN
4605749155000,1.399999,-0.171695225013634,7.89816012118917,3.64287155682636,-1.3408492,-0.6731735,0.14752395,42.647335,-79.232994,-9.848533,STN
4605754195000,1.405039,-0.651532956814429,8.1952027949252,3.0442168543079,-1.5118915,-0.5131268,0.20708331,42.94084,-79.072,-9.771118,STN
4605759119000,1.409963,-1.13222074663702,8.44135988844513,2.38854884029228,-1.6814066,-0.269697,0.23396139,43.221622,-78.84615,-9.698419,STN
4605764151000,1.414995,-1.65712402709449,8.56821132386312,1.51808427578288,-1.7739527,-0.017104227,0.24984388,43.450077,-78.59382,-9.617331,STN
4605769225000,1.420069,-2.16466286172527,8.6785083810608,0.650309511493381,-1.7693712,0.2125811,0.24678956,43.589756,-78.334045,-9.590223,STN
4605774165000,1.425009,-2.40801178558057,8.58276469103634,-0.0797373017286448,-1.6878207,0.30573806,0.23457226,43.69492,-78.0636,-9.566534,STN
4605779299000,1.430143,-2.66091732709335,8.48326102614048,-0.838453969558985,-1.5488489,0.44593164,0.23335053,43.70231,-77.87409,-9.625749,STN
4605784134000,1.434978,-2.75608495594714,8.35843892704306,-1.24260170151937,-1.3839152,0.50762904,0.22815818,43.706112,-77.70309,-9.687718,STN
4605789209000,1.440053,-2.79541061674009,8.21424400098894,-1.53536026036141,-1.2770138,0.5128214,0.1872302,43.68778,-77.54192,-9.760235,STN
4605794173000,1.445017,-2.75855760137306,8.12550168368205,-1.45742433933308,-1.0885619,0.42058071,0.14813483,43.54632,-77.45936,-9.807068,STN
4605799154000,1.449998,-2.63825537834859,8.09431227704091,-0.976215307659257,-0.93645644,0.27122417,0.10934488,43.42356,-77.38393,-9.861912,STN
4605804162000,1.455006,-2.51291452280456,8.11891561672334,-0.374068309881976,-0.86498517,0.09560041,0.084910266,43.288685,-77.34009,-9.907082,STN
4605809185000,1.460029,-2.37819553262653,8.25844629725945,0.472736742528506,-0.8396343,-0.04062254,0.06688975,43.18893,-77.30939,-9.956615,STN
4605814826000,1.46567,-2.45324840885015,8.39052884528998,1.37667477398592,-0.90316427,-0.118507855,0.073303826,43.189533,-77.23829,-10.006808,STN
4605819143000,1.469987,-2.76046875824673,8.46444643538384,2.01652458030506,-1.0473285,-0.13133603,0.07513642,43.211662,-77.153694,-10.059553,STN
4605824127000,1.474971,-3.11515632400827,8.54978469552464,2.75523466478377,-1.2519683,-0.09162979,0.0711658,43.35569,-76.98856,-10.127743,STN
4605829162000,1.480006,-3.47347331710806,8.63599620030171,3.50150378102581,-1.4831808,-0.09560041,0.0729984,43.512943,-76.79513,-10.1906,STN
4605834130000,1.484974,-3.98114432886988,8.38228815139003,3.70170597950321,-1.6884315,-0.13103059,0.05375614,43.6668,-76.565155,-10.25983,STN
4605839221000,1.490065,-4.55459715666228,8.00533310032078,3.72175676450074,-1.8209893,-0.19150625,0.028710667,43.827503,-76.30727,-10.328029,STN
4605844147000,1.494991,-4.89792302082905,7.78514018712199,3.86838172456285,-1.9214766,-0.301462,-0.009468411,44.196293,-75.76733,-10.518637,STN
4605849144000,1.499988,-4.7896309583419,7.87374282575602,4.29170575087431,-2.006387,-0.52656585,-0.059864793,44.615246,-75.20386,-10.706517,STN
4605854173000,1.505017,-4.67873398145204,7.97497833748567,4.55168387955674,-2.0589213,-0.838718,-0.08827003,45.113186,-74.49908,-10.969741,STN
4605859156000,1.51,-4.56567631863966,8.09532968803974,4.53344880336263,-2.115121,-1.1279627,-0.10995574,45.66543,-73.778564,-11.224605,STN
4605864170000,1.515014,-4.4519153069316,8.21642976262896,4.5151002839893,-2.2153027,-1.3417655,-0.14538592,46.32686,-73.00986,-11.4657,STN
4605869136000,1.51998,-4.30976880280778,8.33444249696596,4.09621881427543,-2.3353379,-1.505172,-0.19425514,47.05052,-72.22914,-11.693125,STN
4605874145000,1.524989,-4.15682445118791,8.4528512798519,3.543646005307,-2.443461,-1.5546521,-0.2770274,47.798378,-71.42789,-11.924497,STN
4605879154000,1.529998,-3.79859083396138,8.82642109825718,3.13099513714555,-2.4700336,-1.591304,-0.32742378,48.564796,-70.6554,-12.118906,STN
4605884693000,1.535537,-3.34883734008479,9.30615850626472,2.71122524431465,-2.5100453,-1.5311338,-0.45142943,49.320854,-69.840744,-12.351854,STN
4605889290000,1.540134,-2.91164462761065,9.77839815117839,2.72868998648208,-2.450486,-1.5076154,-0.46914452,49.983467,-69.13466,-12.513583,STN
4605894139000,1.544983,-2.43116020003832,10.2989228315769,2.8577089247557,-2.4361305,-1.4871514,-0.51923543,50.635933,-68.39502,-12.715342,STN
4605899140000,1.549984,-2.05304180010515,10.6976962607781,3.03158805047319,-2.40742,-1.5625933,-0.56779927,51.220158,-67.79798,-12.829538,STN
4605904560000,1.555404,-1.72919598321066,11.0288196957589,3.24991100778128,-2.4071145,-1.6581937,-0.6188065,51.802547,-67.19909,-12.953458,STN
4605909149000,1.559993,-1.45500254156327,11.3091749435682,3.43476046370137,-2.4419339,-1.6551393,-0.6774496,52.315792,-66.64375,-13.011296,STN
4605914150000,1.564994,-1.15674428749136,11.8314554759892,3.49968079016519,-2.5051584,-1.5632042,-0.7440339,52.830406,-66.0807,-13.083396,STN
4605919192000,1.570036,-0.856230526990396,12.4324827955436,3.51823101129466,-2.5491407,-1.4172074,-0.79901177,53.32813,-65.51552,-13.172314,STN
4605924204000,1.575048,-0.606107208202237,12.9659497831971,3.49023974083263,-2.5448647,-1.2947289,-0.8362745,53.77013,-64.94878,-13.203801,STN
4605929197000,1.580041,-0.624081801744197,13.1456963755286,3.20713950309181,-2.5173757,-1.2156218,-0.88789266,54.187702,-64.376656,-13.262447,STN
4605934414000,1.585258,-0.635067347812373,13.3331805680026,2.90182006610845,-2.463925,-1.1679744,-0.9795224,54.521328,-63.877575,-13.275323,STN
4605939183000,1.590027,-0.542246068869198,13.5002587863588,2.49711914383383,-2.3661866,-1.169807,-1.0900891,54.85336,-63.394432,-13.309883,STN
4605944223000,1.595067,-0.444150190095114,13.6768312796521,2.06942095799528,-2.2104158,-1.1551461,-1.1792754,55.132305,-62.98701,-13.36376,STN
4605949190000,1.600034,-0.358958627650888,13.8023937453085,1.78871027488588,-2.035403,-1.0616838,-1.2263119,55.39771,-62.605915,-13.44414,STN
4605954495000,1.605339,-0.277361480934911,13.8968743154691,1.60404304551141,-1.8393153,-0.9999864,-1.2461652,55.674145,-62.266125,-13.537957,STN
4605959134000,1.609978,-0.225617786482821,13.9273091211573,1.56044798372514,-1.6496416,-0.92179567,-1.2443326,55.84661,-62.05068,-13.626863,STN
4605964139000,1.614983,-0.254509845378742,13.7346955627888,2.02272092605988,-1.5070046,-0.91446525,-1.2437216,56.02402,-61.87045,-13.718936,STN
4605969144000,1.619988,-0.335872168749276,13.5444799822428,2.4923210805443,-1.3930782,-0.93523467,-1.2403619,56.15073,-61.757595,-13.790653,STN
4605974161000,1.625005,-0.632629345570353,13.3636433259988,2.99309873109438,-1.318858,-1.0363328,-1.2495248,56.299118,-61.667126,-13.855707,STN
4605979177000,1.630021,-0.914293419018224,13.2588580814316,3.50767408146446,-1.2699889,-1.1255192,-1.2837334,56.510944,-61.51792,-13.923141,STN
4605984150000,1.634994,-1.09413017039074,13.657626385651,4.1097361926613,-1.1774428,-1.1533136,-1.3066407,56.73112,-61.39864,-13.984856,STN
4605989189000,1.640033,-1.27635365524216,14.0616870100148,4.71978867171236,-1.0772609,-1.1749994,-1.3008375,57.041393,-61.193516,-14.061459,STN
4605994317000,1.645161,-1.20742981622296,14.2782185550749,5.26305276442596,-0.960891,-1.1725558,-1.3017539,57.352676,-61.01341,-14.144136,STN
4606000468000,1.651312,-0.996697809962562,14.4399437993344,5.87564564343594,-0.84696466,-1.1798862,-1.2776246,57.66451,-60.863552,-14.213992,STN
4606004383000,1.655227,-0.879429939364057,14.4433649533105,6.21546305534313,-0.75502944,-1.2113458,-1.2498302,58.02375,-60.668163,-14.279452,STN
4606009224000,1.660068,-0.762803561204468,14.2800876390622,6.55134715499094,-0.65179324,-1.2034045,-1.2186762,58.36635,-60.50929,-14.341358,STN
4606014109000,1.664953,-0.716611795700593,13.9643714673665,6.82282224025559,-0.5699373,-1.1575897,-1.1554517,58.740067,-60.32697,-14.355845,STN
4606019134000,1.669978,-0.844003871008672,13.2703045230488,6.93703583450479,-0.46639562,-1.1239921,-1.097114,59.105843,-60.18171,-14.363725,STN
4606024238000,1.675082,-0.9757548647243,12.5652388307532,7.01261635658375,-0.36163223,-1.0742066,-1.0537425,59.479977,-60.015606,-14.354909,STN
4606029219000,1.680063,-1.12096037196904,11.8765499500783,6.8010311616542,-0.28863382,-1.0146471,-1.028697,59.831142,-59.87579,-14.3423395,STN
4606034116000,1.68496,-1.26371712141242,11.1994751762046,6.59301415712298,-0.2171626,-0.9126327,-0.9935723,60.208977,-59.691837,-14.354656,STN
4606039179000,1.690023,-1.292869,10.7139423236508,6.22292294559232,-0.14996742,-0.7816021,-0.9593639,60.55373,-59.5317,-14.372214,STN
4606044115000,1.694959,-1.292869,10.292056248716,5.82491739408942,-0.087659165,-0.6374379,-0.9297369,60.858215,-59.395164,-14.396894,STN
4606049215000,1.700059,-1.17873379059175,9.92632172513849,5.34774505268619,-0.046120327,-0.50701815,-0.9129381,61.153046,-59.229774,-14.457749,STN
4606054649000,1.705493,-0.89961105075178,9.63347198364547,4.74831775579003,-0.010995574,-0.36896262,-0.8784242,61.39726,-59.08724,-14.52531,STN
4606059170000,1.710014,-0.640689538331303,9.40267481485993,4.26248400584653,0.023823744,-0.26297748,-0.8558222,61.59292,-58.966198,-14.601362,STN
4606064205000,1.715049,-0.214880329373731,9.21179455095412,3.78773113698741,0.07086037,-0.1731803,-0.82558435,61.748306,-58.86451,-14.681036,STN
4606069175000,1.720019,0.221311913166373,9.02012689691901,3.33269923504401,0.13347405,-0.1459968,-0.7816021,61.825935,-58.839592,-14.723824,STN
4606074173000,1.725017,0.72692684418574,8.81366770026408,2.93242072213908,0.20066923,-0.07574729,-0.7626653,61.866524,-58.829247,-14.780827,STN
4606079129000,1.729973,1.22829291023856,8.60894345484155,2.53550589421655,0.22571471,-0.027794369,-0.70554936,61.841183,-58.898384,-14.776965,STN
4606084129000,1.734973,1.29580743110585,8.47625305989693,2.45904436857312,0.28710666,-0.0009162979,-0.65148777,61.798847,-58.995953,-14.7733755,STN
4606089184000,1.740028,1.32034615286813,8.34946937230717,2.41405683300667,0.35308012,0.032986723,-0.5833763,61.73069,-59.111183,-14.756914,STN
4606094252000,1.745096,1.26213800775013,8.22159927898359,2.41721448068819,0.39736784,0.067500606,-0.53023106,61.597588,-59.314068,-14.675755,STN
4606099162000,1.750006,1.14265350865008,8.09713636739015,2.45704256041292,0.45814893,0.105068825,-0.4822781,61.443672,-59.546318,-14.58164,STN
4606104517000,1.755361,1.02207511271839,7.94313346291301,2.48666762421472,0.5180137,0.1337795,-0.42485678,61.273304,-59.792183,-14.471503,STN
4606109225000,1.760069,0.92003923858061,7.80028352892188,2.50707478199511,0.56382865,0.14996742,-0.38087448,61.089508,-60.054066,-14.354114,STN
4606114210000,1.765054,0.806037164507731,7.63991001944614,2.54567447286625,0.60048056,0.20158553,-0.35246924,60.89869,-60.310547,-14.245412,STN
4606119198000,1.770042,0.685018201313881,7.46881408101686,2.60409747410675,0.6209445,0.23732115,-0.3213151,60.699707,-60.57993,-14.123317,STN
4606124172000,1.775016,0.562795443412108,7.29896657608511,2.65203792139158,0.6533204,0.2452624,-0.29565877,60.510536,-60.838898,-14.01568,STN
4606129266000,1.78011,0.429592969306092,7.12901863058092,2.64744473626777,0.6835582,0.26511553,-0.26847526,60.30314,-61.105717,-13.904056,STN
4606134304000,1.785148,0.301794235666475,6.95947897565167,2.63775784998767,0.6969972,0.28130344,-0.22571471,60.11793,-61.34905,-13.811187,STN
4606140154000,1.790998,0.218870319705616,6.7383485427103,2.54101325250391,0.72326446,0.31673363,-0.19028452,59.918728,-61.6042,-13.71621,STN
4606144207000,1.795051,0.161418929724529,6.58514484275964,2.47398661086259,0.74189585,0.3549127,-0.15271631,59.725918,-61.84048,-13.63451,STN
4606149225000,1.800069,0.180052587483027,6.33799881811043,2.33319212039264,0.7611381,0.4098906,-0.111177474,59.513645,-62.087162,-13.547206,STN
4606154620000,1.805464,0.260352835450307,6.03370320988957,2.14300731560736,0.79259765,0.4841107,-0.04795292,59.278393,-62.34799,-13.449716,STN
4606159276000,1.81012,0.337784485430226,5.8003445645615,2.00629610049642,0.80848014,0.54519725,0.016187929,59.03625,-62.6018,-13.362873,STN
4606164191000,1.815035,0.454615729790403,5.68026796982901,1.98033362283508,0.82924956,0.6401868,0.07941248,58.757957,-62.871525,-13.270438,STN
4606169105000,1.819949,0.571423203805847,5.56021580573635,1.95437642746828,0.8445212,0.6835582,0.106901415,58.468025,-63.156925,-13.174138,STN
4606174120000,1.824964,0.709189809360845,5.44174206069451,1.90911018721691,0.8585711,0.7806858,0.16584991,58.127735,-63.45903,-13.0673895,STN
4606179213000,1.830057,0.90556497029693,5.33373580676397,1.8060132059386,0.88300574,0.88239485,0.22510384,57.772408,-63.769722,-12.955831,STN
4606184304000,1.835148,1.07206851170312,5.24785953492212,1.72972419579539,0.9062186,0.9810496,0.28710666,57.389652,-64.10721,-12.834698,STN
4606189201000,1.840045,1.16387590386416,5.21592658513065,1.71774932399353,0.9315695,1.0778717,0.36560285,56.972668,-64.46058,-12.700695,STN
4606194160000,1.845004,1.25684565222572,5.18358933824155,1.70562284058218,0.956615,1.1606439,0.43127087,56.51369,-64.8537,-12.543198,STN
4606199155000,1.849999,1.32659793698943,5.15222503985405,1.59416643067204,0.9819659,1.2302825,0.5009095,56.02471,-65.26363,-12.36808,STN
4606204325000,1.855169,1.39404582392027,5.12449287065338,1.50243442718715,1.0299188,1.3106114,0.5684101,55.505672,-65.69295,-12.1810665,STN
4606209153000,1.859997,1.43793456658757,5.13180766109793,1.64873035064863,1.0781772,1.398576,0.6407976,54.955467,-66.15227,-11.970207,STN
4606214208000,1.865052,1.4838868437589,5.13946637395982,1.8019047278437,1.1417072,1.430341,0.7131852,54.37578,-66.65429,-11.73034,STN
4606219164000,1.870008,1.43386285689061,5.20569611342807,1.94391783712268,1.2110404,1.4306464,0.768163,53.778126,-67.17566,-11.475684,STN
4606226307000,1.877151,1.25555458574792,5.36674905154292,2.13948186171698,1.287093,1.4138476,0.81031275,53.173866,-67.72053,-11.20083,STN
4606229119000,1.879963,1.16318188821205,5.4398932145872,2.2296805084079,1.3356569,1.3622295,0.8393288,52.597958,-68.2616,-10.916389,STN
4606234311000,1.885155,0.898743650737802,5.61618541381057,2.45214438434915,1.3842206,1.2953397,0.8472701,52.032032,-68.82089,-10.618222,STN
4606239201000,1.890045,0.649686836167483,5.78222332871855,2.66166833530306,1.398576,1.2244794,0.8588765,51.50304,-69.35127,-10.333794,STN
4606244159000,1.895003,0.361412179213313,5.97440639969743,2.88393729304085,1.412015,1.1377366,0.86254174,51.000053,-69.88853,-10.038455,STN
4606249117000,1.899961,0.0650998313426626,6.17194791493949,3.10841636860817,1.4327844,1.0482447,0.87017757,50.519005,-70.42813,-9.729645,STN
4606255636000,1.90648,-0.363816673333632,6.32357480767854,3.31523098620906,1.4340062,0.95447695,0.88025683,50.10767,-70.89561,-9.46723,STN
4606259186000,1.91003,-0.604179615207625,6.38746864426347,3.41259315150349,1.4486669,0.86406887,0.90010995,49.7215,-71.36795,-9.192164,STN
4606264144000,1.914988,-0.960656691492321,6.43001747483788,3.48409208511945,1.4688255,0.83108217,0.93034774,49.387432,-71.77097,-8.970909,STN
4606269128000,1.919972,-1.34348055093942,6.41779974316553,3.48001949372014,1.488984,0.77274454,0.9447031,49.087524,-72.17189,-8.74014,STN
4606274176000,1.92502,-1.78230959598505,6.37539170499837,3.45044621332087,1.493871,0.70952,0.9764681,48.835957,-72.50032,-8.570669,STN
4606279216000,1.93006,-2.60219135021131,6.10863598263166,3.23076500850943,1.5054774,0.68325275,1.0103711,48.59132,-72.83227,-8.395991,STN
4606284106000,1.93495,-3.39767186175228,5.84981941866873,3.01762193479356,1.5146403,0.67103547,1.0387764,48.392357,-73.096245,-8.30375,STN
4606289361000,1.940205,-3.85028214449584,5.62324411444958,2.7922655492877,1.5054774,0.6737844,1.0497719,48.198112,-73.35668,-8.205508,STN
4606294220000,1.945064,-4.07843084838113,5.43814237483811,2.58564041743756,1.4804319,0.7113526,1.0305296,48.000233,-73.61088,-8.10921,STN
4606299361000,1.950205,-4.21985701001975,5.27967342420542,2.35890047416053,1.4376713,0.7696902,1.0024298,47.904343,-73.76435,-8.181059,STN
4606304664000,1.955508,-4.27001354390375,5.15200205659903,2.1172369840905,1.4019357,0.8454375,0.9602802,47.796146,-73.903625,-8.263977,STN
4606309422000,1.960266,-4.28739691896587,5.06311791896587,1.92246424299897,1.3784174,0.93737274,0.893085,47.691723,-74.02396,-8.404103,STN
4606314188000,1.965032,-4.24963639875905,5.02535739875905,1.77142206359876,1.3735305,0.98899084,0.79229224,47.58252,-74.1228,-8.56603,STN
4606319103000,1.969947,-4.15012240334628,5.07539462732796,1.70756727620755,1.4162911,0.9993755,0.6740898,47.453194,-74.23907,-8.755732,STN
4606325288000,1.976132,-3.86696693128174,5.37034810546758,1.86684214454736,1.5036448,1.0207558,0.5647449,47.31245,-74.341965,-8.9732275,STN
4606329107000,1.979951,-3.69829683856646,5.61271307627708,2.06639011802621,1.6126842,1.0296134,0.46975538,47.163643,-74.465515,-9.205399,STN
4606334249000,1.985093,-3.48318108290987,6.056114928751,2.53174249326023,1.6948457,0.9783007,0.37965274,47.032887,-74.57365,-9.4615135,STN
4606339199000,1.990043,-3.27954798738013,6.48778306737046,2.97793930249819,1.7718146,0.88514376,0.30024028,46.893127,-74.70149,-9.69571,STN
4606344251000,1.995095,-3.10799437880571,6.97905047457491,3.41462129295673,1.8060231,0.75655663,0.21563543,46.78518,-74.80782,-9.945986,STN
4606349172000,2.000016,-2.94088921099202,7.4575791584334,3.83997997764526,1.7983873,0.61086524,0.14782938,46.707134,-74.86416,-10.170615,STN
4606354654000,2.005498,-2.70681434600978,8.05512488375311,4.28664995128702,1.7712038,0.51068336,0.105374254,46.65917,-74.90525,-10.3965025,STN
4606359251000,2.010095,-2.4874835407879,8.58720504954332,4.6481398112372,1.7269161,0.4343252,0.09132435,46.650436,-74.92683,-10.616947,STN
4606364181000,2.015025,-2.27212163302457,9.39789814095852,5.06607306242449,1.6551393,0.3839288,0.09773844,46.674232,-74.91368,-10.804802,STN
4606369137000,2.019981,-2.08097116141764,10.5193143962948,5.52483406121627,1.5796975,0.3286455,0.09468412,46.723614,-74.885506,-10.986486,STN
4606374202000,2.025046,-1.88561661365955,11.6653945684656,5.99368483984428,1.5485435,0.344528,0.061391957,46.769924,-74.87275,-11.128583,STN
4606379206000,2.03005,-1.79209679586566,12.9412440422272,6.46677853802416,1.4978416,0.47647488,0.009162978,46.79899,-74.83814,-11.274463,STN
4606384187000,2.035031,-1.81551918651674,14.3793795130119,6.94928022567024,1.4165965,0.7113526,-0.020463986,46.79362,-74.79118,-11.423812,STN
4606389227000,2.040071,-1.7884656084387,15.2349908298054,7.27119374602216,1.221425,0.84940815,-0.038179077,46.765797,-74.77471,-11.502151,STN
4606395301000,2.046145,-1.6727711387413,15.284574309561,7.38688808628356,0.95142263,0.784351,-0.10262536,46.73119,-74.71754,-11.598201,STN
4606399158000,2.050002,-1.59930496000852,15.3160599008382,7.46035418282426,0.52015173,0.71959925,-0.13133603,46.648563,-74.63256,-11.655135,STN
4606404665000,2.055509,-1.35114426180125,15.2005462578335,7.29176259004476,0.41386122,0.6282749,-0.20372356,46.59509,-74.54383,-11.732745,STN
4606409290000,2.060134,-1.07357120584781,15.0260715487914,7.01815487742167,0.3005457,0.61850107,-0.25625798,46.53462,-74.38301,-11.809144,STN
4606414173000,2.065017,-0.604896057531023,15.4299443397518,6.0542916550706,0.2507602,0.7312057,-0.24312437,46.467987,-74.2329,-11.873555,STN
4606419191000,2.070035,0.176509096904579,16.8488114312366,3.91159650801027,0.17562376,1.0384709,-0.16920967,46.3457,-74.06813,-11.941777,STN
4606426142000,2.076986,1.17865955255114,18.0321780520417,1.82287562106748,0.06994407,1.539075,-0.020463986,46.08026,-73.992226,-11.947298,STN
4606429239000,2.080083,1.54361930243358,17.7648510511796,1.78568227493534,-0.10598512,1.9645426,0.17440203,45.743294,-73.91848,-11.931053,STN
4606434187000,2.085031,2.12670643269457,17.3377493397602,1.72625938934869,-0.25595254,2.0360138,0.31337386,45.000546,-74.36162,-11.615492,STN
4606439377000,2.090221,2.71269406934869,16.5957137858707,2.06598729557953,-0.38362336,1.5974126,0.35613444,44.302406,-74.77269,-11.284465,STN
4606444203000,2.095047,3.23376271854976,15.6322987286885,2.75574728928542,-0.46639562,0.73761976,0.37965274,43.723057,-75.16744,-10.918565,STN
4606449432000,2.100276,3.76867956703493,14.6060645437855,3.43874730822908,-0.47586402,-0.24037547,0.44043383,43.26853,-75.61856,-10.441614,STN
4606454683000,2.105527,3.85038197046304,13.8462324734362,3.13644851792039,-0.44532076,-0.9633345,0.5821546,42.99805,-76.05779,-9.926661,STN
4606459128000,2.109972,3.9195434984078,13.2030305018684,2.88055095118603,-0.48258355,-1.1404854,0.8005389,42.90106,-76.4109,-9.345158,STN
4606464184000,2.115028,2.3802062707141,12.0301327987144,0.600372308091925,-0.63346726,-1.1099422,1.0250319,42.94655,-76.74434,-8.714105,STN
4606469137000,2.119981,-0.443191827278331,10.5223714769746,-3.25047528999736,-0.6979135,-0.74097955,1.1044444,42.94381,-77.06794,-8.089192,STN
4606474122000,2.124966,-2.93434525763058,9.45907095039393,-6.07376035903122,-0.7528914,-0.21166481,1.1285735,42.865395,-77.37593,-7.4440494,STN
4606479191000,2.130035,-4.50198313265247,9.62905575586032,-6.04542962385955,-0.6771441,0.2883284,1.0100657,42.694866,-77.65589,-6.8503313,STN
4606484164000,2.135008,-5.74825306257959,9.96282846270693,-5.81204838236311,-0.4392121,0.44318274,0.79045963,42.41939,-78.06678,-6.5870457,STN
4606489197000,2.140041,-5.97623230598508,10.8922821955612,-4.84752099370566,-0.09712757,0.35430184,0.48380527,42.096954,-78.48211,-6.403756,STN
4606494206000,2.14505,-6.18484174835955,11.8174296230532,-3.87254754371176,0.2648101,0.24801129,0.19639318,41.865547,-78.76229,-6.4936805,STN
4606499978000,2.150822,-5.7565724903945,12.8881025398055,-2.19880123197486,0.5500842,0.29016098,0.03390302,41.630962,-79.06139,-6.641327,STN
4606504398000,2.155242,-5.42861855411495,13.707987205787,-0.917103605870029,0.7125743,0.38362336,-0.021991149,41.488308,-79.25348,-6.8834653,STN
4606509158000,2.160002,-5.20825388195278,14.4436099703882,0.407491404941977,0.7281514,0.4361578,-0.03359759,41.350876,-79.43067,-7.1559443,STN
4606514195000,2.165039,-5.10691272739096,15.0757862239896,1.75388063319228,0.63591075,0.5186246,-0.03756821,41.180565,-79.58207,-7.443057,STN
4606519145000,2.169989,-5.11880612298308,15.2239232584612,2.50132358915781,0.43401974,0.5467244,-0.0729984,41.067207,-79.58467,-7.7144012,STN
4606524200000,2.175044,-5.24740623809524,14.880989452381,2.66326432380952,0.19486602,0.6401868,-0.1414153,40.914085,-79.54294,-7.9896727,STN
4606529152000,2.179996,-5.2670961333997,14.4012909437531,2.64374680791438,-0.013439035,0.7275405,-0.20189096,40.81127,-79.36452,-8.283328,STN
4606534145000,2.184989,-5.16236988451966,13.7491330695869,2.41525340896964,-0.1563815,0.7779369,-0.25167647,40.699272,-79.14922,-8.57821,STN
4606539165000,2.190009,-4.91030454023814,13.1921990737101,2.00889576830467,-0.23854288,0.8417723,-0.28496864,40.58567,-78.86878,-8.904937,STN
4606544233000,2.195077,-4.47457895384615,12.751887,1.3805335,-0.28985557,0.958753,-0.28221974,40.448727,-78.57829,-9.223143,STN
4606549140000,2.199984,-4.06847173671611,12.3784574605708,0.763087739994367,-0.29229903,1.0824533,-0.25625798,40.289394,-78.300705,-9.5326,STN
4606554287000,2.205131,-3.67513661477657,12.0961813300789,0.0967318681900113,-0.26053402,1.1921035,-0.22143865,40.10664,-78.03396,-9.829008,STN
4606559156000,2.21,-3.28637155507246,11.8595564347826,-0.405140560289855,-0.16676621,1.239751,-0.18570304,39.850235,-77.87485,-10.0536175,STN
4606564203000,2.215047,-2.81776459167416,11.7339504518741,-0.419633556765617,-0.054367006,1.2910637,-0.16432275,39.566483,-77.734795,-10.266555,STN
4606569437000,2.220281,-2.34561515501331,11.6224118264813,-0.346849787029479,0.008552114,1.25319,-0.106901415,39.2306,-77.70634,-10.396502,STN
4606574166000,2.22501,-1.95715822670807,11.5732969910283,-0.0387632650793651,0.14385876,1.1863003,-0.08246681,38.89344,-77.70446,-10.523164,STN
4606579158000,2.230002,-1.59678592545409,11.5269769085099,0.247338829142281,0.17134771,1.1441506,-0.0027488936,38.54079,-77.77378,-10.560599,STN
4606584172000,2.235016,-1.47161262974268,11.5067876740666,0.348285068819374,0.22632557,1.0888673,0.07788532,38.215164,-77.87249,-10.581902,STN
4606589174000,2.240018,-1.34673891112513,11.4866467584931,0.448989713985873,0.258396,1.0439687,0.13744467,37.896545,-78.00404,-10.545502,STN
4606594210000,2.245054,-1.50578439587233,11.2370115529764,0.0286640795114189,0.30695978,1.0384709,0.18387043,37.58416,-78.16082,-10.485792,STN
4606599115000,2.249959,-1.73001557104081,10.9380361018345,-0.507732111999251,0.37812558,1.0390818,0.20189096,37.285404,-78.33038,-10.41331,STN
4606604409000,2.255253,-1.71502844171009,10.7167277058483,-0.774442226500676,0.47342056,1.0671816,0.22724187,36.972496,-78.52292,-10.314474,STN
4606609243000,2.260087,-1.58546515904266,10.5603588621888,-0.877199271733256,0.58032197,1.108415,0.25809056,36.65813,-78.72868,-10.20719,STN
4606614167000,2.265011,-1.48127792991847,10.4243014743474,-0.852131524363831,0.68661255,1.1349876,0.3145956,36.3163,-78.95228,-10.10775,STN
4606619188000,2.270032,-1.39416004458536,10.3015439579181,-0.737294208506959,0.77366084,1.1383474,0.3857614,35.972466,-79.19175,-9.99239,STN
4606624190000,2.275034,-1.33771798784893,10.1872100591133,-0.57958939773399,0.86101454,1.153619,0.44959682,35.60516,-79.46549,-9.847678,STN
4606629148000,2.279992,-1.43517647389163,10.1141161945813,-0.204373990374384,0.93554014,1.1291844,0.5103779,35.25138,-79.75559,-9.680056,STN
4606634176000,2.28502,-1.5751132928702,10.0432513912249,0.154647036987203,0.9673051,1.1029172,0.54550266,34.896954,-80.047516,-9.498212,STN
4606639231000,2.290075,-1.87012105978062,9.98424969408897,0.434904295414991,0.9456194,1.0519099,0.5412266,34.560024,-80.336494,-9.307563,STN
4606644172000,2.295016,-2.15404578220011,9.92040674792703,0.648062308347153,0.9117164,0.9990701,0.52931476,34.254826,-80.584854,-9.136012,STN
4606649305000,2.300149,-2.43484367661692,9.83435593283582,0.675236327114428,0.8671232,0.95630956,0.51251596,33.964657,-80.81987,-8.965734,STN
4606654301000,2.305145,-2.70057773015799,9.74272844730483,0.698240003791822,0.8188649,0.93279123,0.48838675,33.71307,-80.98146,-8.85114,STN
4606659162000,2.310006,-2.8909425767658,9.58264930223048,0.689587062379182,0.7852673,0.9245446,0.4746423,33.472477,-81.134224,-8.737472,STN
4606664145000,2.314989,-3.086085146329,9.41855253615242,0.680716951895911,0.7696902,0.8885035,0.46395215,33.258125,-81.222336,-8.680156,STN
4606669148000,2.319992,-3.14387388139796,9.24866846589314,0.675854461860204,0.73945236,0.8933904,0.44043383,33.037994,-81.2978,-8.629318,STN
4606674156000,2.325,-3.18875140960981,9.07813310891738,0.671366709039019,0.70249504,0.8979719,0.42485678,32.83166,-81.369095,-8.577808,STN
4606679291000,2.330135,-3.14957772661217,8.95988084196185,0.758011672098093,0.6966918,0.9068295,0.419359,32.633797,-81.39647,-8.566532,STN
4606684976000,2.33582,-3.08034800658492,8.84614676294278,0.881635978147139,0.6814202,0.8894198,0.4007276,32.446022,-81.41337,-8.561519,STN
4606689176000,2.34002,-2.96395604120235,8.81479986314761,1.04305279814272,0.66645396,0.86101454,0.3998113,32.265945,-81.4185,-8.565982,STN
4606694471000,2.345315,-2.7805504398827,8.80488584261975,1.28594135286413,0.6417139,0.80481493,0.3924809,32.10268,-81.41577,-8.575455,STN
4606699182000,2.350026,-2.62790860626107,8.80975125162434,1.49171910886001,0.60994893,0.72418076,0.39614612,31.956314,-81.41329,-8.5820675,STN
4606704301000,2.355145,-2.47071522160999,8.8262982647034,1.70682595942115,0.56107974,0.6432411,0.40103304,31.829529,-81.40896,-8.588858,STN
4606709134000,2.359978,-2.32700779368285,8.84261131478298,1.91004201555651,0.5027421,0.5561928,0.4175264,31.726677,-81.41862,-8.580288,STN
4606714222000,2.365066,-2.20136928710786,8.86355093833262,2.12467438685002,0.42241332,0.47250426,0.42363504,31.648575,-81.42657,-8.572786,STN
4606719313000,2.370157,-2.21695089369202,8.85142148051948,2.37327122504638,0.33658674,0.40775254,0.4251622,31.586618,-81.448326,-8.550924,STN
4606724196000,2.37504,-2.51376076586271,8.77379412987013,2.67921384730983,0.26328292,0.36285394,0.42149702,31.544498,-81.46939,-8.529419,STN
4606729167000,2.380011,-2.7790022048994,8.67858278282906,2.94766054633697,0.19211712,0.31856623,0.41416663,31.524252,-81.495224,-8.50219,STN
4606734206000,2.38505,-2.93835363395792,8.53405496029796,3.09218848495623,0.12767084,0.26633725,0.39400807,31.51992,-81.51404,-8.480783,STN
4606739186000,2.39003,-3.09583926934419,8.39121936668714,3.23502419329596,0.0870483,0.19058995,0.3717115,31.575281,-81.463005,-8.525767,STN
4606744152000,2.394996,-3.25335929856872,8.21242876113744,3.34053624953555,0.023518313,0.09896017,0.3436117,31.651186,-81.40056,-8.578243,STN
4606749165000,2.400009,-3.41262924599052,8.01220336398104,3.42699714737441,-0.040927973,0.0061086523,0.29840767,31.750069,-81.32285,-8.641957,STN
4606755138000,2.405982,-3.61291004641157,7.75297649095755,3.49353080144679,-0.093462385,-0.08155051,0.267559,31.90077,-81.189125,-8.754295,STN
4606759172000,2.410016,-3.75264433531315,7.56911578659813,3.5229485141443,-0.16676621,-0.12186762,0.2452624,32.065456,-81.03825,-8.876249,STN
4606764113000,2.414957,-3.90788080138127,7.32130311466414,3.5318175156859,-0.19730948,-0.19364429,0.21380283,32.285053,-80.83444,-9.04341,STN
4606769133000,2.419977,-4.04432976807947,7.03930829536424,3.50452771284768,-0.2648101,-0.22235495,0.16920967,32.505234,-80.611595,-9.219339,STN
4606774161000,2.425005,-4.1387012497931,6.74551223625616,3.44489151089655,-0.32436943,-0.22357668,0.12980886,32.756943,-80.33594,-9.440936,STN
4606779164000,2.430008,-4.14342166655172,6.4292408137931,3.31743887827586,-0.40286562,-0.22357668,0.08582657,33.018932,-80.038506,-9.673952,STN
4606784144000,2.434988,-4.10736517570948,6.12937458664712,3.16531185777624,-0.48502702,-0.2507602,0.04734206,33.302895,-79.69311,-9.946466,STN
4606789180000,2.440024,-3.97007989742086,5.86312383395152,2.9489832732511,-0.5717699,-0.2782491,0.0036651916,33.59032,-79.326675,-10.229473,STN
4606794562000,2.445406,-3.81634747938072,5.58302883166784,2.72429494799437,-0.67256266,-0.32986724,-0.0125227375,33.889954,-78.943344,-10.52026,STN
4606799145000,2.449989,-3.57233972235046,5.41623872253343,2.63781115783955,-0.75228053,-0.35735616,-0.022907447,34.194313,-78.54337,-10.81794,STN
4606804341000,2.455185,-3.2956946633216,5.22713957196341,2.53975971257565,-0.8188649,-0.39950588,-0.04886922,34.498825,-78.15776,-11.097077,STN
4606809197000,2.460041,-3.0588529060964,5.07992869027271,2.45860101630728,-0.8732319,-0.4437936,-0.06505715,34.814808,-77.7647,-11.372732,STN
4606814191000,2.465035,-2.94889800400349,5.11026124224671,2.43964333463612,-0.93615097,-0.49266282,-0.07574729,35.147522,-77.35793,-11.649969,STN
4606819102000,2.469946,-2.84077054621849,5.14008966890756,2.42100072857143,-0.9978484,-0.528093,-0.089491755,35.456295,-76.99537,-11.8798,STN
4606826836000,2.47768,-2.67475412408452,5.31345718606075,2.20289329146356,-1.0571023,-0.6044512,-0.103847094,35.79383,-76.62151,-12.108693,STN
4606829204000,2.480048,-2.62438304818105,5.38016477525513,2.11576492205547,-1.1346822,-0.6444628,-0.09712757,36.13298,-76.23878,-12.3335,STN
4606834187000,2.485031,-2.51838681877776,5.52053805099652,1.9324200467343,-1.1548407,-0.7147123,-0.099571034,36.488552,-75.87099,-12.539193,STN
4606839188000,2.490032,-2.42539213300717,5.64558239301949,1.66376120059327,-1.2140946,-0.77091193,-0.1001819,36.852814,-75.48921,-12.739921,STN
4606844329000,2.495173,-2.36469791242006,5.73283030045458,1.16682756166115,-1.276403,-0.8167268,-0.09743301,37.235462,-75.10333,-12.936851,STN
4606849142000,2.499986,-2.30787603269127,5.81451172011711,0.701598694868634,-1.2944235,-0.8396343,-0.089491755,37.578335,-74.77947,-13.085609,STN
4606854338000,2.505182,-2.2733060358547,5.86984331886946,0.37171007021424,-1.2605205,-0.8573494,-0.09437868,37.932873,-74.451706,-13.2348995,STN
4606859182000,2.510026,-2.2522942040221,5.90766478291512,0.136376889772896,-1.1530081,-0.8848383,-0.10293079,38.296032,-74.133934,-13.380917,STN
4606864182000,2.515026,-2.24468395557357,6.03010023640049,0.219257250556546,-1.0989466,-0.90408057,-0.124311075,38.593998,-73.88711,-13.490572,STN
4606869132000,2.519976,-2.25237024012971,6.2414731820835,0.653532646207134,-1.0002918,-0.9239337,-0.14721853,38.898373,-73.662575,-13.601699,STN
4606874553000,2.525397,-2.26222436784943,6.49546839194693,1.16812225053996,-0.9120218,-0.8762862,-0.15515977,39.160896,-73.47692,-13.685361,STN
4606879232000,2.530076,-2.28526754054304,6.94250721265042,2.00689616198704,-0.8765916,-0.78038037,-0.14019357,39.41242,-73.299706,-13.770669,STN
4606884237000,2.535081,-2.30649111084604,7.41501341269061,2.79037454599115,-0.8915578,-0.6786713,-0.12156218,39.693672,-73.088844,-13.874017,STN
4606889192000,2.540036,-2.28703999390064,7.81570790850959,2.22240025758321,-0.9963212,-0.5739079,-0.0888809,39.9424,-72.87712,-13.973578,STN
4606894152000,2.544996,-2.26756924918839,8.21680673782587,1.65385283669454,-1.1594223,-0.48197266,-0.05131268,40.22511,-72.58271,-14.067831,STN
4606899311000,2.550155,-2.3404227122364,8.24553194312422,1.21224502960305,-1.2809844,-0.42546764,-0.010995574,40.48442,-72.28725,-14.154856,STN
4606904202000,2.555046,-2.46078105215311,8.05876850574163,0.876071639712919,-1.3213016,-0.4437936,0.021685716,40.735992,-71.986725,-14.233428,STN
4606909159000,2.560003,-2.61348052863067,7.92184158330479,0.646619665518796,-1.280679,-0.5329799,0.031154128,40.906174,-71.800575,-14.26479,STN
4606914157000,2.565001,-2.82059444068331,7.87437806481565,0.607785795745065,-1.2180653,-0.6948592,0.016493361,41.10076,-71.61565,-14.288692,STN
4606919155000,2.569999,-3.03721996695681,7.84724896149983,0.609619691864747,-1.1554517,-0.84299403,0.00580322,41.294075,-71.452835,-14.315158,STN
4606924169000,2.575013,-3.31050684514563,7.93968399029126,0.850755155339806,-1.1365148,-0.97585726,0.0018325958,41.52762,-71.29317,-14.335736,STN
4606929171000,2.580015,-3.58313966618681,8.03189779444258,1.0913135096083,-1.1472049,-1.074512,-0.00061086525,41.807026,-71.104645,-14.3674345,STN
4606934175000,2.585019,-3.84540539207493,8.27040037608069,1.7293105157781,-1.2195925,-1.135904,-0.018936822,42.111397,-70.90513,-14.399633,STN
4606939257000,2.590101,-4.10838818252882,8.55968169272334,2.50510953251081,-1.3680327,-1.1963795,-0.052534413,42.44084,-70.68648,-14.43163,STN
4606944138000,2.594982,-4.28761193743693,8.98166798052472,3.29399153037336,-1.5635096,-1.2394456,-0.07238753,42.8295,-70.37652,-14.502542,STN
4606949159000,2.600003,-4.40891646014127,9.53966929162462,4.14312369596367,-1.8234328,-1.3158038,-0.051618114,43.239304,-70.03007,-14.564306,STN
4606954242000,2.605086,-4.48805686417343,9.93347193362786,4.50902384542279,-2.1471913,-1.3579534,-0.04337143,43.74266,-69.51795,-14.681292,STN
4606959156000,2.61,-4.53157300246584,10.1848987909175,4.4896832946368,-2.3112087,-1.38025,-0.045814894,44.254677,-68.9943,-14.787978,STN
4606964154000,2.614998,-4.50450185124567,10.4493683410465,4.46321655022978,-2.62275,-1.3961325,-0.118507855,44.844845,-68.29312,-14.904785,STN
4606969139000,2.619983,-4.43136909183262,10.7188055211642,4.4324237353866,-2.8130345,-1.4850134,-0.25625798,45.45927,-67.57873,-15.026905,STN
4606974169000,2.625013,-4.29465657098366,11.0492007427349,4.37760142921373,-2.9110782,-1.611768,-0.4370741,46.080196,-66.81837,-15.15243,STN
4606979162000,2.630006,-3.73358425253866,11.7728271052747,4.16261113894067,-2.905275,-1.7030923,-0.6270532,46.72135,-66.0259,-15.305458,STN
4606984162000,2.635006,-3.03145657547108,12.4533989060064,3.92849369069716,-2.8561006,-1.7189748,-0.78801614,47.355347,-65.23837,-15.4480715,STN
4606989195000,2.640039,-2.0008217640389,13.0367093690697,3.64936341354221,-2.8050933,-1.5549575,-0.91782504,47.972546,-64.43961,-15.6346855,STN
4606994429000,2.645273,-0.929027088291633,13.6433151635608,3.35908567250724,-2.7980683,-1.2525792,-1.0290025,48.47595,-63.736588,-15.763222,STN
4606999191000,2.650035,-0.28849589454502,14.0989740941008,3.51679233355625,-2.8264735,-1.0100657,-1.1102476,48.956623,-63.033085,-15.925363,STN
4607004376000,2.65522,0.20960327900406,14.5377755131757,3.93978142208423,-2.8561006,-0.9654725,-1.2110404,49.42041,-62.32335,-16.12689,STN
4607009213000,2.660057,0.675999389255857,14.9615431811057,4.31216039855048,-2.842356,-0.91446525,-1.2767084,49.65935,-61.81358,-16.170391,STN
4607014190000,2.665034,1.1700701429041,15.5158663079386,4.51300218776336,-2.8371637,-0.79229224,-1.2571607,49.870125,-61.30127,-16.23206,STN
4607019113000,2.669957,1.65878027354711,16.0641750789651,4.71166486172257,-2.8652635,-0.6713409,-1.2131784,50.051945,-60.79262,-16.218645,STN
4607026062000,2.676906,2.09484478090206,16.2380795282129,4.17046001377618,-2.876259,-0.59895337,-1.1707232,50.214973,-60.298817,-16.211866,STN
4607029213000,2.680057,2.26284014669749,16.2466215389696,3.82877452906209,-2.833804,-0.5381723,-1.1362094,50.34754,-59.82423,-16.21123,STN
4607034362000,2.685206,2.31153767695137,15.8998519378505,3.05514842241427,-2.6731462,-0.45906523,-1.0943651,50.410976,-59.437572,-16.126467,STN
4607039195000,2.690039,2.23068727884527,15.3721973769422,2.20834719304955,-2.3765712,-0.46944994,-1.0680978,50.484863,-59.100643,-16.039406,STN
4607044358000,2.695202,1.82122680110743,14.6253946766715,1.87216761848479,-2.021964,-0.7031059,-1.0622946,50.545662,-58.90426,-15.905536,STN
4607049144000,2.699988,1.08119395351894,13.7288166828814,2.19474609892362,-1.7443258,-0.86437434,-1.0705414,50.5919,-58.763832,-15.783548,STN
4607054358000,2.705202,0.136191298029318,12.8629757229395,2.502559823289,-1.6447546,-1.112691,-1.0647382,50.659225,-58.714203,-15.643657,STN
4607059182000,2.710026,-0.859447038675857,12.1588529566062,2.74922694523833,-1.6352862,-1.2064588,-1.0613784,50.72972,-58.70649,-15.511518,STN
4607064136000,2.71498,-2.022140226385,11.5719002445067,3.13415814077373,-1.6218473,-1.2076806,-1.072374,50.945545,-58.574623,-15.445287,STN
4607069132000,2.719976,-3.37791115086112,11.1578625195554,3.69432697956223,-1.5809193,-1.2009611,-1.1029172,51.18151,-58.452217,-15.375295,STN
4607074165000,2.725009,-4.62648055872069,10.7880755716567,4.25533179078759,-1.5375478,-1.2000448,-1.1911873,51.520824,-58.1752,-15.42771,STN
4607080153000,2.730997,-4.49633525176935,11.0001641193578,4.87713754887787,-1.4880677,-1.2302825,-1.2348641,51.860367,-57.917698,-15.4728,STN
4607084108000,2.734952,-4.41037588487014,11.1402459841136,5.2878325677902,-1.3891076,-1.2247849,-1.2357804,52.32676,-57.47989,-15.681822,STN
4607089170000,2.740014,-4.01801630043053,11.4032057729841,5.70533476342273,-1.3509285,-1.2620476,-1.2205088,52.813007,-57.04309,-15.882511,STN
4607094187000,2.745031,-3.50518336638264,11.7005628094896,6.07164407274195,-1.2938126,-1.3472633,-1.2092078,53.307796,-56.641506,-16.073431,STN
4607099159000,2.750003,-2.9819132363133,11.9564994915602,6.2712647825489,-1.2434162,-1.4074335,-1.1737776,53.837738,-56.21115,-16.217949,STN
4607104346000,2.75519,-2.41848449890149,12.1783221464678,6.28901055788157,-1.1691961,-1.4343116,-1.1389582,54.373466,-55.810028,-16.348963,STN
4607109109000,2.759953,-1.93205058086842,12.2760447763067,6.26118085950932,-1.0516045,-1.3961325,-1.0955868,54.888023,-55.447975,-16.395592,STN
4607114289000,2.765133,-1.51494240003137,11.9990101725544,6.07130332295915,-0.9117164,-1.3274102,-1.0754282,55.39154,-55.118748,-16.439814,STN
4607119189000,2.770033,-1.12038060734768,11.7369504122482,5.89168943703332,-0.75716746,-1.2434162,-1.0644327,55.83094,-54.870296,-16.413628,STN
4607124158000,2.775002,-0.733258245387499,11.4677971529623,5.71070462637112,-0.59895337,-1.1395692,-1.0622946,56.237705,-54.663956,-16.40013,STN
4607129207000,2.780051,-0.634746931122158,11.1170967647299,5.55308637542173,-0.44226643,-1.0189233,-1.0622946,56.609955,-54.500538,-16.401627,STN
4607134179000,2.785023,-0.537737968054763,10.7717447484313,5.39787188864803,-0.27122417,-0.88331115,-1.0836749,56.93296,-54.39782,-16.370262,STN
4607139198000,2.790042,-0.434105723942224,10.4747018161657,5.17594973014298,-0.12034045,-0.763887,-1.1114693,57.22312,-54.33041,-16.358295,STN
4607144171000,2.795015,-0.327561073309989,10.215288349966,4.9119043263204,0.022602014,-0.6435465,-1.1252137,57.473297,-54.30364,-16.369999,STN
4607149944000,2.800788,-0.209529375562442,9.96096802076232,4.61449855797955,0.1554652,-0.56138515,-1.1334605,57.70205,-54.291096,-16.393454,STN
4607154078000,2.804922,-0.127739229631236,9.80147743817787,4.40593371019523,0.2846632,-0.5332854,-1.1377366,57.910034,-54.311882,-16.428585,STN
4607159034000,2.809878,-0.0482154318603012,9.62697998173662,4.18898008868952,0.3408628,-0.4783075,-1.1264355,58.07381,-54.352352,-16.463928,STN
4607164025000,2.814869,0.0181491893740254,9.46362081501655,3.99499111818862,0.44959682,-0.46028697,-1.1001683,58.23257,-54.438457,-16.493773,STN
4607169020000,2.819864,0.127239153887226,9.30601204404195,3.86936863651096,0.5525276,-0.41691554,-1.0467176,58.343697,-54.548267,-16.511116,STN
4607174063000,2.824907,0.256150826003432,9.14947617025739,3.77268485586273,0.63346726,-0.408058,-0.9987647,58.450542,-54.680836,-16.518978,STN
4607179048000,2.829892,0.366111428362754,8.99294347826985,3.71407585124394,0.68019843,-0.37507126,-0.9324858,58.509655,-54.84338,-16.51484,STN
4607184048000,2.834892,0.46497388836069,8.83476395932693,3.67947401372974,0.7293731,-0.3268129,-0.86467975,58.55004,-55.031002,-16.500257,STN
4607189073000,2.839917,0.570291384769361,8.69758517363585,3.67996656459779,0.76144356,-0.27947086,-0.8072584,58.56459,-55.233063,-16.46211,STN
4607194036000,2.84488,0.67723987024189,8.57281220813801,3.69779130054378,0.7984009,-0.20525073,-0.7486154,58.544777,-55.455627,-16.416506,STN
4607199026000,2.84987,0.725658730549337,8.42881749569485,3.75850991231273,0.829555,-0.16279559,-0.69974613,58.513836,-55.68335,-16.349781,STN
4607204285000,2.855129,0.721322206423282,8.25969246611848,3.86258658190115,0.8604037,-0.13408493,-0.6462954,58.45388,-55.92658,-16.274836,STN
4607209083000,2.859927,0.700263817114094,8.09191943456376,3.91919569731544,0.8772025,-0.099571034,-0.5946773,58.37944,-56.172195,-16.183064,STN
4607214103000,2.864947,0.616998058508335,7.86814280001082,3.84113399088547,0.9049969,-0.034208454,-0.5494733,58.278915,-56.432343,-16.08708,STN
4607219178000,2.870022,0.537161359048422,7.64835608363773,3.72970737059099,0.9297369,0.016493361,-0.48808134,58.19362,-56.67985,-15.984548,STN
4607224127000,2.874971,0.466136733677999,7.44416035290812,3.56990199595392,0.9728029,0.07269296,-0.4269948,58.08026,-56.94259,-15.879688,STN
4607229098000,2.879942,0.392266411611851,7.23036943598804,3.38698516406632,1.0073168,0.1600467,-0.355829,57.94873,-57.203957,-15.780969,STN
4607234103000,2.884947,0.309752467913382,6.98717051372656,3.13075773297092,1.0558805,0.25992316,-0.28863382,57.788532,-57.484768,-15.67617,STN
4607239191000,2.890035,0.228398294525723,6.74129268955442,2.87033594195972,1.0952814,0.33536503,-0.22266038,57.600964,-57.770958,-15.572944,STN
4607244140000,2.894984,0.198723485263487,6.52862306135866,2.6181000322446,1.1346822,0.38148534,-0.1572978,57.384182,-58.075703,-15.460771,STN
4607249117000,2.899961,0.173516973168357,6.32112751472617,2.36754214077079,1.1734722,0.45937067,-0.113926366,57.133835,-58.399937,-15.368086,STN
4607254324000,2.905168,0.183631866400609,6.15423170510142,2.12984206267748,1.1921035,0.54458636,-0.038789943,56.855293,-58.73955,-15.2552595,STN
4607259187000,2.910031,0.201692187635947,6.00567550524709,1.93030857508109,1.237613,0.62796944,0.034208454,56.548412,-59.111996,-15.149136,STN
4607264160000,2.915004,0.265301853408701,5.89208695700248,1.84398114747186,1.2950343,0.677755,0.09590584,56.219517,-59.4977,-15.029859,STN
4607269280000,2.920124,0.343217311685509,5.78173391181912,1.77209798761562,1.3542882,0.7119634,0.16768251,55.85885,-59.925587,-14.893235,STN
4607274190000,2.925034,0.556661336317232,5.74951596868791,1.8929153584618,1.396438,0.73853606,0.23793201,55.47985,-60.368248,-14.742246,STN
4607279176000,2.93002,0.773409178845495,5.71679933641658,2.01560281488523,1.4434745,0.7104363,0.32834008,55.096046,-60.850243,-14.561069,STN
4607284197000,2.935041,0.908544651830725,5.68355326041779,2.06020271272643,1.4975362,0.677755,0.39858958,54.700962,-61.347202,-14.365543,STN
4607289259000,2.940103,1.01317568067525,5.64992172729515,2.07515006945194,1.5247196,0.70554936,0.4343252,54.29105,-61.852383,-14.155967,STN
4607294295000,2.945139,1.10028241052706,5.61528307413045,2.09457153157408,1.5711454,0.73548174,0.46578476,53.88884,-62.391743,-13.89689,STN
4607299188000,2.950032,1.09361632013657,5.57528660139412,2.13790111911231,1.5949692,0.7480045,0.52320606,53.476765,-62.93582,-13.620662,STN
4607304244000,2.955088,1.08672816297034,5.53395773032221,2.18267414069279,1.6313156,0.77274454,0.58062744,53.05177,-63.511345,-13.337674,STN
4607309138000,2.959982,1.05887413180262,5.47316298205203,2.19913331197183,1.6716328,0.80481493,0.65393126,52.613655,-64.09854,-13.034755,STN
4607314145000,2.964989,0.983833310925274,5.36529185866588,2.1569228915493,1.7107282,0.8597928,0.73945236,52.155846,-64.69834,-12.715983,STN
4607319126000,2.96997,0.892979867571681,5.28143607062058,2.1396951307934,1.7537941,0.89461213,0.8051204,51.710415,-65.30835,-12.4000435,STN
4607324156000,2.975,0.755806991442459,5.26251568413197,2.19172619363708,1.7876972,0.89888823,0.87689704,51.25012,-65.93226,-12.05966,STN
4607329180000,2.980024,0.556134601938562,5.32619849544438,2.33582332036982,1.8118263,0.8509353,0.9388999,50.800915,-66.5575,-11.725952,STN
4607334129000,2.984973,0.160346555592007,5.65130989935878,2.77048337798986,1.7901406,0.7620544,1.0009027,50.356495,-67.1828,-11.367235,STN
4607339154000,2.989998,-0.241519464390098,5.98141392131673,3.21181835263943,1.7647897,0.65118235,1.0396926,49.952885,-67.792274,-11.025706,STN
4607344144000,2.994988,-0.630738731725089,6.27131366295786,3.50756108918866,1.7256943,0.5849035,1.0830641,49.5568,-68.394104,-10.661755,STN
4607349146000,2.99999,-1.01279450592753,6.53073454224104,3.68679709127609,1.6945401,0.47342056,1.103528,49.203762,-68.98492,-10.279763,STN
4607354367000,3.005211,-1.41583822677447,6.76004156705723,3.8227381237339,1.68385,0.40561453,1.1362094,48.938538,-69.446945,-9.982333,STN
4607359180000,3.010024,-1.79076085988186,6.93857604328459,3.90754209315387,1.6374242,0.33353242,1.153619,48.70592,-69.883965,-9.677037,STN
4607364204000,3.015048,-2.17415384250425,7.06412405442618,4.00376530532113,1.5995506,0.2959642,1.1636983,48.520786,-70.25611,-9.438092,STN
4607369171000,3.020015,-2.54400301054507,7.11806047691747,4.10778539640399,1.5647314,0.2968805,1.1453724,48.346592,-70.60792,-9.203656,STN
4607374418000,3.025262,-2.9349602206287,7.1728807714917,4.21261316730593,1.5033394,0.30573806,1.1004738,48.22984,-70.89178,-9.043802,STN
4607379311000,3.030155,-3.30614639109481,7.16897355208038,4.18135528961894,1.432479,0.3371976,1.024421,48.111126,-71.1514,-8.902363,STN
4607384191000,3.035035,-3.6763463730843,7.16507671359126,4.15018045963479,1.357648,0.40225476,0.9288206,48.042248,-71.30986,-8.874876,STN
4607389286000,3.04013,-3.96980307470687,7.16617876197655,3.92446938040201,1.2834278,0.54092115,0.81397796,47.952026,-71.43491,-8.8810005,STN
4607394182000,3.045026,-4.19233151423786,7.17054206113903,3.58413190904523,1.1908818,0.7556403,0.7076874,47.83,-71.52289,-8.920344,STN
4607399185000,3.050029,-4.28679648063454,7.18664680429719,3.20464033948594,1.1047498,0.9761627,0.5717699,47.72756,-71.5267,-9.08718,STN
4607405362000,3.056206,-4.19651816200803,7.22465867309237,2.68672900546185,1.067487,1.1187997,0.40775254,47.599075,-71.50176,-9.293601,STN
4607409609000,3.060453,-4.11847677423847,7.25403548929504,2.3470262664926,1.0635164,1.1841623,0.23945917,47.45312,-71.4896,-9.562548,STN
4607414220000,3.065064,-3.65728983687792,7.36234440982673,2.36449545899201,1.0897835,1.2030991,0.109650314,47.290276,-71.45554,-9.86405,STN
4607419150000,3.069994,-3.16419688498299,7.4781464003323,2.3831732119788,1.1432343,1.1746938,0.009773844,47.08471,-71.506775,-10.159662,STN
4607424125000,3.074969,-2.62149451243084,7.59938503061601,2.49810183555883,1.2202033,1.0848967,-0.04153884,46.897182,-71.5516,-10.464931,STN
4607429197000,3.080041,-2.00335068638879,7.72928482523054,2.75342207797861,1.3112222,0.9068295,-0.073303826,46.7485,-71.59305,-10.77376,STN
4607434121000,3.084965,-1.40843112566528,7.86798183040698,3.00035730008119,1.4037683,0.711658,-0.06383542,46.566265,-71.738716,-10.949977,STN
4607439243000,3.090087,-0.806041912061301,8.05218356835482,3.2542568622653,1.4883732,0.54153204,-0.035430185,46.43008,-71.89493,-11.108661,STN
4607444181000,3.095025,-0.296953944262684,8.22711447117001,3.47836608903175,1.5375478,0.45845437,0.021380283,46.286476,-72.136475,-11.145131,STN
4607449144000,3.099988,0.0368021756700623,8.3963429050539,3.65229531001879,1.5381587,0.2742785,0.05222898,46.220028,-72.378426,-11.158083,STN
4607454269000,3.105113,0.248701942057151,8.48379069272295,3.68922813861657,1.4877623,0.11636983,0.11209377,46.128548,-72.69426,-11.061219,STN
4607459182000,3.110026,0.113235589719139,8.34493770654286,3.360722283776,1.38025,0.025961773,0.17440203,46.067905,-72.995094,-10.948329,STN
4607464142000,3.114986,-0.023526695564097,8.20475638933276,3.02907379201756,1.2461652,0.008246681,0.2180789,46.010998,-73.320885,-10.775221,STN
4607469132000,3.119976,-0.274808936320247,8.02781201931272,2.73452787346994,1.1175779,0.03726278,0.23426682,45.964024,-73.622475,-10.593419,STN
4607475087000,3.125931,-0.724677457276816,7.7692670741681,2.43461541313809,0.9950995,0.21166481,0.20311269,45.88065,-73.8878,-10.424824,STN
4607479179000,3.130023,-1.00680283378886,7.59900612176428,2.28497751744035,0.84391034,0.30451632,0.18692477,45.78981,-74.1425,-10.271044,STN
4607484191000,3.135035,-1.28792469974693,7.4081208582791,2.23638862364425,0.79168135,0.5403103,0.12889257,45.613464,-74.372444,-10.15973,STN
4607489194000,3.140038,-1.56854175788503,7.21757836561822,2.18788698045553,0.7165449,0.8029824,0.05100725,45.43544,-74.52173,-10.137722,STN
4607494204000,3.145048,-1.74649844733439,7.09069880510245,2.30952217787945,0.6637051,1.0812315,-0.014049901,45.190098,-74.65336,-10.141357,STN
4607499347000,3.150191,-1.82977970007957,7.02211413268351,2.59855714095882,0.6282749,1.3185526,-0.06963864,44.8884,-74.75871,-10.173387,STN
4607504383000,3.155227,-1.66908615720926,7.23466313188729,3.11612722351118,0.64873886,1.4544702,-0.09315695,44.59024,-74.79836,-10.295698,STN
4607509236000,3.16008,-1.31354988838966,7.67120756395856,3.80919803063813,0.70157874,1.496009,-0.095294975,44.258095,-74.832695,-10.426908,STN
4607514204000,3.165048,-0.855147281707925,8.20731378268815,4.45122170446918,0.7367035,1.466382,-0.06169739,43.95738,-74.82093,-10.58557,STN
4607519161000,3.170005,-0.279391690529988,8.8540532185579,5.00725957016116,0.75777835,1.3487904,0.0027488936,43.67371,-74.825745,-10.724046,STN
4607524501000,3.175345,0.370737880317219,9.71819625554712,5.56497721003965,0.7305948,1.1658363,0.11636983,43.433372,-74.82698,-10.794303,STN
4607529153000,3.179997,1.21267601662027,12.0147328039315,5.67021947707753,0.6630942,0.93645644,0.26725355,43.23818,-74.84737,-10.822271,STN
4607534117000,3.184961,2.11108119903822,14.465293299671,5.78252012487978,0.56046885,0.7275405,0.42730024,43.0484,-74.940765,-10.70122,STN
4607539253000,3.190097,2.40120739688716,15.5955877237354,5.6505396848249,0.46486846,0.58093286,0.5696318,42.901096,-75.04701,-10.534705,STN
4607544786000,3.19563,2.34966222723735,16.0131031673152,5.3670410902821,0.41447207,0.4615087,0.66767573,42.80066,-75.16134,-10.328603,STN
4607549135000,3.199979,2.08056826180058,15.9777945745275,4.79155176684666,0.39828414,0.4089743,0.6969972,42.52025,-75.59347,-9.813605,STN
4607554163000,3.205007,1.64571460627502,15.7401945410111,3.93529366532911,0.36377025,0.33628133,0.71959925,42.28312,-76.00127,-9.28827,STN
4607559149000,3.209993,1.17547194959298,15.5339656372424,2.78799819191046,0.25167647,0.3726278,0.7128797,42.00401,-76.41188,-8.775508,STN
4607564155000,3.214999,0.655119974945306,15.3632255075045,1.26759466828797,0.1414153,0.57360244,0.6844745,41.707455,-76.786606,-8.290123,STN
4607569171000,3.220015,0.125896491497036,15.1203012270957,-0.249999250980525,0.059864793,0.90194255,0.70371675,41.342728,-77.1822,-7.872917,STN
4607574214000,3.225058,-0.483424401973751,14.167470145724,-1.71809448902964,-0.018325957,1.2928963,0.7171558,40.914017,-77.52635,-7.4952507,STN
4607579126000,3.22997,-1.07691720957409,13.239390377392,-3.14805360251312,-0.022296581,1.5830573,0.6979135,40.347378,-78.00932,-7.186296,STN
4607584191000,3.235035,-1.43691928989643,12.3479184587714,-3.15521819969958,0.09621128,1.5778649,0.59895337,39.773216,-78.47207,-6.909075,STN
4607589197000,3.240041,-1.69843903835086,11.491346702269,-2.61322808987272,0.23396139,1.2153164,0.43279803,39.23864,-78.90746,-6.6597404,STN
4607594168000,3.245012,-1.98789604688625,10.7392270744312,-1.97301996079321,0.35124752,0.75961095,0.28038713,38.687088,-79.40655,-6.480722,STN
4607599311000,3.250155,-2.40935230570458,10.3645994285229,-0.89262020266893,0.42394048,0.45020768,0.22724187,38.216816,-79.8994,-6.315444,STN
4607604143000,3.254987,-2.80532287591851,10.0126257195925,0.122447195980985,0.43860126,0.37873647,0.21471913,37.91607,-80.22162,-6.272794,STN
4607609163000,3.260007,-3.22489501117609,9.62718019583295,0.797363913952298,0.3817908,0.50426924,0.21288654,37.654232,-80.526436,-6.2373033,STN
4607614323000,3.265167,-3.68098997160742,9.17108485817418,0.341268812060678,0.26297748,0.6429357,0.2134974,37.41413,-80.80911,-6.202168,STN
4607619238000,3.270082,-4.07537716070226,8.77979900929934,-0.114221501106301,0.15851954,0.6658431,0.17440203,37.341976,-80.812004,-6.3456693,STN
4607624181000,3.275025,-4.02224799449255,8.87087756862273,-0.808696619543049,0.13622294,0.63224554,0.14905111,37.248535,-80.80738,-6.481353,STN
4607629178000,3.280022,-3.96853841659452,8.96295111928812,-1.51075855901876,0.21197024,0.5323691,0.119729586,37.16942,-80.75697,-6.677711,STN
4607634129000,3.284973,-3.74897698406462,9.54370678520144,-1.95819059398684,0.4089743,0.3912592,0.12370021,37.111954,-80.72439,-6.8655596,STN
4607639210000,3.290054,-3.39475254579178,10.5190368587954,-2.22507204437575,0.61300325,0.2947425,0.13133603,37.071495,-80.69776,-7.0551653,STN
4607644174000,3.295018,-3.15769087922734,11.5032927316493,-2.18866332481426,0.77518797,0.09896017,0.13469578,37.02736,-80.793655,-7.1932263,STN
4607649142000,3.299986,-3.00216250882615,12.5118715346211,-1.92944912808321,0.82986045,0.02107485,0.1282817,36.977837,-80.89189,-7.3316064,STN
4607654151000,3.304995,-2.90562106667303,13.2726682144426,-1.46415737993123,0.8793405,0.116675265,0.15302174,36.879944,-81.111855,-7.3781605,STN
4607659169000,3.310013,-2.85971755879263,13.8189203416754,-0.826098165039641,0.86467975,0.23426682,0.17989981,36.800587,-81.307625,-7.4236116,STN
4607664162000,3.315006,-2.88871905502392,14.1226909964115,-0.310409974312201,0.7812967,0.32559118,0.18173242,36.69839,-81.50647,-7.4346232,STN
4607669143000,3.319987,-3.00759375797448,14.1369557621611,0.060479371974681,0.64873886,0.4266894,0.15577064,36.56233,-81.67585,-7.4469275,STN
4607674187000,3.325031,-3.15377862505121,14.1648490794756,0.248244689118189,0.56107974,0.5519168,0.121256754,36.42299,-81.787544,-7.463913,STN
4607679139000,3.329983,-3.32863281185989,14.2085630065547,0.204531132272634,0.5375614,0.68539083,0.08735373,36.254738,-81.874954,-7.4859614,STN
4607684150000,3.334994,-3.61733579752225,14.9061800228503,0.425665642120767,0.5833763,0.8350528,0.06872234,36.07533,-81.90299,-7.5419693,STN
4607689196000,3.34004,-4.02532524915114,16.2942310356061,0.926783022300633,0.65087694,0.9621128,0.056199603,35.867535,-81.92083,-7.6016145,STN
4607694227000,3.345071,-4.33818567184302,17.189007432166,1.43897390732326,0.71959925,1.0913107,0.06994407,35.62471,-81.92118,-7.6783752,STN
4607699193000,3.350037,-4.45427966448221,17.0684480026289,1.97032802774387,0.73273283,1.181108,0.077579886,35.36125,-81.91585,-7.7538376,STN
4607704581000,3.355425,-4.50807908344627,16.7110433009681,2.38394634704743,0.6713409,1.1691961,0.06536258,35.13138,-81.85363,-7.8652167,STN
4607709161000,3.360005,-4.36795945905131,15.8236170918683,2.31600938480155,0.552833,1.0955868,0.02687807,34.89768,-81.78716,-7.9726458,STN
4607714165000,3.365009,-4.18609099483783,14.8533334722899,2.18329461739554,0.3903429,0.95356065,0.00061086525,34.72953,-81.67093,-8.104419,STN
4607719147000,3.369991,-3.79108831849615,13.8820919172105,1.61634990786013,0.23090707,0.806953,-0.036651913,34.587467,-81.541695,-8.240771,STN
4607724307000,3.375151,-3.38212582208801,12.8955468660723,1.02014249677691,0.10720685,0.62858033,-0.058948494,34.49298,-81.404366,-8.376454,STN
4607729943000,3.380787,-2.93712155875755,12.0314109887834,0.269844515306298,0.07452556,0.5027421,-0.051923547,34.428543,-81.26702,-8.507383,STN
4607734749000,3.385593,-2.5667400289241,11.3181405518349,-0.347224347711426,0.0870483,0.44226643,-0.06078109,34.35761,-81.17273,-8.603464,STN
4607739195000,3.390039,-2.30040252870726,10.8564887142202,-0.727199153172644,0.12034045,0.4428773,-0.05589417,34.307045,-81.08659,-8.689918,STN
4607744152000,3.394996,-2.00345358840701,10.3417770275229,-1.15084627658048,0.1432479,0.46700647,-0.055588737,34.217075,-81.065895,-8.725262,STN
4607749375000,3.400219,-1.67094617577667,9.9870186414632,-1.44597046552901,0.19456059,0.5323691,-0.05681047,34.116314,-81.0508,-8.758082,STN
4607754171000,3.405015,-1.35340887909338,9.77800693007789,-1.62282664846416,0.25350907,0.6264423,-0.035430185,34.001446,-81.04462,-8.782823,STN
4607759193000,3.410037,-1.04706648343358,9.68783201417066,-1.67032531613824,0.31429017,0.7464773,-0.0018325958,33.8073,-81.08947,-8.769286,STN
4607764332000,3.415176,-0.796198829687022,9.90357780660618,-1.38935362148027,0.37140608,0.8558222,0.034513887,33.590927,-81.14232,-8.747229,STN
4607769117000,3.419961,-0.624323770188995,10.1519746828042,-1.02137927082897,0.4196644,0.9279043,0.06291912,33.31667,-81.24815,-8.674966,STN
4607774162000,3.425006,-0.570345605027465,10.51182958691,-0.414124464672191,0.44990227,0.9841039,0.08582657,33.018093,-81.36018,-8.591799,STN
4607779214000,3.430058,-0.507293842863806,10.7892376268657,0.135576137488806,0.43463063,1.0412198,0.105068825,32.708767,-81.50794,-8.464237,STN
4607784175000,3.435019,-0.408427182399541,10.7210537795637,0.435585277784156,0.37904188,1.0870347,0.12980886,32.38932,-81.660034,-8.326684,STN
4607789160000,3.440004,-0.309082231298077,10.6525400769231,0.737045782596154,0.31581733,1.097114,0.15332718,32.092625,-81.80421,-8.189311,STN
4607794155000,3.444999,-0.265200797819977,10.4670679039119,0.840154744151158,0.24220806,1.0528263,0.18570304,31.801702,-81.95551,-8.041913,STN
4607799943000,3.450787,-0.312568351063426,10.0460227785796,0.608580062609191,0.17989981,0.98440933,0.21685717,31.518248,-82.11125,-7.888128,STN
4607804146000,3.45499,-0.419095387384002,9.70028961389881,0.425660206193156,0.13347405,0.90408057,0.25167647,31.263876,-82.2757,-7.7240987,STN
4607809162000,3.460006,-0.711575061656519,9.19601469473021,0.173522569685072,0.109650314,0.8378017,0.28680122,31.027699,-82.4473,-7.552655,STN
4607814118000,3.464962,-1.01156437124625,8.75203597540984,-0.038124909425877,0.10262536,0.7761043,0.29993483,30.807753,-97.39156,-7.3915277,STN
4607819136000,3.46998,-1.33346524118456,8.39201504098361,-0.190604289028556,0.11209377,0.7165449,0.32589662,30.608072,-97.218735,-7.2184258,STN
4607824209000,3.475053,-1.660756304095,8.04469797542997,-0.321219128042588,0.13500121,0.6588182,0.34605515,30.433134,-97.08993,-7.0887,STN
4607829181000,3.480025,-1.99440121260351,7.81937936882337,-0.286554723197743,0.16920967,0.6462954,0.35246924,30.263783,-96.959526,-6.95658,STN
4607834149000,3.484993,-2.3277777020384,7.59424203221403,-0.251918206047866,0.19547687,0.623388,0.37018433,30.123478,-96.88171,-6.875919,STN
4607839184000,3.490028,-2.54698367118527,7.51028377007003,-0.080838612099075,0.24465153,0.5925393,0.37720928,29.99074,-96.80712,-6.7967453,STN
4607844148000,3.494992,-2.75247893751189,7.44041543788363,0.099997195660932,0.26267207,0.5720753,0.38912117,29.863125,-96.7277,-6.711561,STN
4607849138000,3.499982,-2.82758624765101,7.4124484,0.329653538951032,0.269697,0.54733527,0.39767328,29.77096,-96.713,-6.6900864,STN
4607854151000,3.504995,-2.81565261610738,7.4124484,0.592190874282873,0.26053402,0.50701815,0.41874814,29.690922,-96.69217,-6.6615467,STN
4607859135000,3.509979,-2.79059437588451,7.41154193387556,0.847962166154941,0.23945917,0.47342056,0.44776422,29.641245,-96.71082,-6.675163,STN
4607864180000,3.515024,-2.7070894702318,7.40662988060187,1.08374089768198,0.19883664,0.39461896,0.47555858,29.617924,-96.72292,-6.6832433,STN
4607869146000,3.51999,-2.62496640052596,7.40489738754901,1.30161598214593,0.17989981,0.3023783,0.49754974,29.618029,-96.73862,-6.698927,STN
4607874159000,3.525003,-2.54232759649039,7.41407937035479,1.47148453368079,0.1572978,0.21777347,0.516792,29.63988,-96.746445,-6.70835,STN
4607879198000,3.530042,-2.47938328912442,7.42297692867777,1.63561467327898,0.13347405,0.11575896,0.5317582,29.6952,-96.74718,-6.7139277,STN
4607884139000,3.534983,-2.53976914,7.4296866,1.75638634,0.12644911,0.022602014,0.5381723,29.772667,-96.74661,-6.7181935,STN
4607889177000,3.540021,-2.60134046497696,7.4365279932648,1.87952895423609,0.10293079,-0.05589417,0.54305923,29.86972,-96.74116,-6.71973,STN
4607894175000,3.545019,-2.68625327683921,7.44596277156769,1.9632454,0.07422013,-0.12736541,0.54244834,29.991098,-96.73838,-6.723305,STN
4607899144000,3.549988,-2.82225975637769,7.46107438054409,1.9632454,0.05589417,-0.24281894,0.5421429,30.146936,-96.73738,-6.727875,STN
4607904385000,3.555229,-2.9990845740398,7.47819091452106,1.92804742543267,0.03023783,-0.34972036,0.5345071,30.330935,-96.764984,-6.760914,STN
4607909184000,3.560028,-3.19899923299398,7.49520500175845,1.85573788778343,0.00061086525,-0.45204028,0.51893,30.545588,-96.7993,-6.798513,STN
4607914140000,3.564984,-3.41426841044464,7.50920663137413,1.7826151423414,-0.009162978,-0.52015173,0.5128214,30.786673,-83.13893,-6.860997,STN
4607919191000,3.570035,-3.65930047394066,7.51309594604808,1.71260593492804,-0.04337143,-0.5500842,0.49846604,31.04441,-83.06566,-6.93199,STN
4607924122000,3.574966,-3.89851114610437,7.51689285966069,1.64425998328375,-0.059253927,-0.5543602,0.4813618,31.324495,-82.94975,-7.0430436,STN
4607929209000,3.580053,-4.0959608958247,7.46964541693811,1.59842772291975,-0.07788532,-0.5342017,0.4550946,31.604263,-82.82334,-7.16152,STN
4607934102000,3.584946,-4.27172386970684,7.40951623778502,1.56142503224756,-0.11209377,-0.5161811,0.44073927,31.88404,-82.69163,-7.2819643,STN
4607939205000,3.590049,-4.29572542694119,7.31636136787924,1.52468315300526,-0.1282817,-0.4804455,0.39064834,32.170837,-82.49654,-7.4634757,STN
4607944214000,3.595058,-4.26472262587019,7.21449497525621,1.48925133410581,-0.16157386,-0.46792278,0.35124752,32.45766,-82.297714,-7.644726,STN
4607949198000,3.600042,-4.02527552594312,7.058445877705,1.48885871620927,-0.21380283,-0.4642576,0.30543262,32.753315,-82.05608,-7.8650713,STN
4607954212000,3.605056,-3.63909218247243,6.86336361346489,1.51274632513059,-0.28069258,-0.47403142,0.2489276,33.0484,-81.79847,-8.096985,STN
4607959154000,3.609998,-3.26549110915421,6.69140906102806,1.52487547102191,-0.34422258,-0.4822781,0.20861048,33.337093,-81.533745,-8.33252,STN
4607964152000,3.614996,-2.92240880862175,6.61789122414499,1.48076497360229,-0.40653083,-0.44348818,0.19700404,33.614544,-81.25859,-8.572981,STN
4607969111000,3.619955,-2.59245691282895,6.53969700427632,1.4321782275282,-0.46273044,-0.41813725,0.18570304,33.862988,-81.03463,-8.756379,STN
4607974160000,3.625004,-2.2970655,6.4397185,1.36401098571429,-0.5177083,-0.41233405,0.17715092,34.106045,-80.80313,-8.940866,STN
4607979181000,3.630025,-2.02209345938449,6.34867849277403,1.29686201718381,-0.5702427,-0.3894266,0.18661933,34.31031,-80.62355,-9.070343,STN
4607984130000,3.634974,-1.93417580969646,6.34068594123103,1.23691811011804,-0.63132924,-0.35124752,0.19456059,34.508636,-80.43433,-9.202422,STN
4607989157000,3.640001,-1.84487251105396,6.33256742100337,1.17602944153457,-0.6957755,-0.3286455,0.21044308,34.67812,-80.296394,-9.279121,STN
4607994169000,3.645013,-1.84585837609132,6.36966694841914,1.04388380982329,-0.74067414,-0.3210097,0.21471913,34.8409,-80.150925,-9.357642,STN
4607999113000,3.649957,-1.882039634435,6.4239388831598,0.885590691229344,-0.7800749,-0.30909783,0.1966986,34.996086,-79.995514,-9.43887,STN
4608004163000,3.655007,-1.90952475701527,6.5543906950969,0.730386097167098,-0.8145888,-0.28405234,0.16554448,35.13675,-79.85778,-9.497799,STN
4608009205000,3.660049,-1.93108692832902,6.73120022068411,0.579451118617487,-0.8167268,-0.2593123,0.13836098,35.27426,-79.712746,-9.561791,STN
4608014129000,3.664973,-1.95674408032475,6.89929402737296,0.497454502525809,-0.80878556,-0.23823744,0.09590584,35.408916,-79.568115,-9.630308,STN
4608019262000,3.670106,-1.99123380677558,7.06681581309011,0.52209004714343,-0.784351,-0.23396139,0.06169739,35.54152,-79.41907,-9.7046585,STN
4608024125000,3.674969,-2.01617140228825,7.32143445591438,0.611931286971766,-0.7486154,-0.25320363,0.018020526,35.667698,-79.281044,-9.775758,STN
4608029176000,3.68002,-2.02956107292858,7.74097751591622,0.812776486390478,-0.6930266,-0.269697,-0.021685716,35.7921,-79.14083,-9.855332,STN
4608034139000,3.684983,-2.05056470663625,8.17393137515554,1.08929325904189,-0.65484756,-0.26297748,-0.036957346,35.92053,-78.99955,-9.937973,STN
4608039193000,3.690037,-2.10075264554127,8.69086638075487,1.66143493454998,-0.63346726,-0.2779437,-0.03940081,36.059906,-78.85728,-10.026521,STN
4608044156000,3.695,-2.19963059468556,9.11285387936227,2.17594120040744,-0.6236934,-0.29046643,-0.028405234,36.208546,-78.71649,-10.105727,STN
4608049142000,3.699986,-2.41955956581045,9.32855380389725,2.57773445528787,-0.66523224,-0.30390546,-0.00580322,36.36054,-78.57535,-10.181103,STN
4608055153000,3.705997,-2.78479533303208,9.46834218888387,2.85856205097153,-0.73914695,-0.31031954,0.009468411,36.553795,-78.39538,-10.260892,STN
4608059161000,3.710005,-3.30802738725712,9.22551618978762,2.4769784760958,-0.8378017,-0.29229903,0.014660766,36.74227,-78.209854,-10.337011,STN
4608064149000,3.714993,-3.95919542280464,8.92331656815785,2.0020935281217,-0.9575313,-0.22204952,0.004886922,36.977684,-77.944016,-10.451883,STN
4608069127000,3.719971,-4.50420096431839,8.63116513540714,1.63066822031107,-1.0726794,-0.22143865,-0.006414085,37.226536,-77.66599,-10.562932,STN
4608074135000,3.724979,-4.87474154538985,8.35325931777981,1.4307712810003,-1.1203269,-0.2666427,-0.029321533,37.468044,-77.37623,-10.679081,STN
4608079168000,3.730012,-5.13270109756098,8.14612502682927,1.37228639512195,-1.10139,-0.3323107,-0.059864793,37.75495,-77.0034,-10.903142,STN
4608084139000,3.734983,-5.22410203292327,8.04456862443291,1.5178506932518,-1.0512991,-0.4196644,-0.08460484,38.059193,-76.63113,-11.123958,STN
4608089273000,3.740117,-5.31850002168812,7.93968216901088,1.66818807136457,-0.9810496,-0.5149594,-0.11209377,38.391026,-76.21289,-11.386728,STN
4608094175000,3.745019,-5.38380157364669,7.9008656,2.03255226988821,-0.95325524,-0.6453791,-0.10781772,38.753063,-75.80519,-11.636543,STN
4608099140000,3.749984,-5.43402477090045,7.9008656,2.54315516862072,-1.0155635,-0.7861836,-0.12950343,39.14286,-75.38883,-11.89112,STN
4608104120000,3.754964,-5.43181344136272,7.98126064363391,3.19477339358098,-1.1395692,-0.9184359,-0.16737708,39.59576,-74.92451,-12.163331,STN
4608109173000,3.760017,-5.31538684578,8.23739945541334,4.15878668845154,-1.3066407,-1.0567969,-0.18142697,40.085278,-74.449875,-12.421796,STN
4608114127000,3.764971,-5.17496697802943,8.48986268609348,5.04978865359204,-1.5012014,-1.2425,-0.1695151,40.69208,-73.89223,-12.687255,STN
4608119130000,3.769974,-4.95033260280583,8.74905590450087,5.77898611600548,-1.7611245,-1.4709635,-0.124005646,41.343456,-73.30502,-12.929264,STN
4608124978000,3.775822,-4.68775778243653,9.05202651038661,6.63134405328188,-2.1303926,-1.724778,-0.10629055,42.14478,-72.59995,-13.147632,STN
4608129179000,3.780023,-4.49063456921676,9.33577760675976,6.46680616656547,-2.513405,-1.8319849,-0.14263703,42.96104,-71.845634,-13.35462,STN
4608134129000,3.784973,-4.25077821675774,9.72914231532078,5.5793377876948,-2.8316658,-2.0280726,-0.18509217,43.864967,-71.03875,-13.528082,STN
4608139212000,3.790056,-3.91098942190174,10.1595172545542,4.77264296994204,-2.95109,-2.205529,-0.2864958,44.841927,-70.11947,-13.675895,STN
4608144256000,3.7951,-3.48100067340602,10.6128385752829,4.07599445313276,-3.0955596,-2.3335052,-0.37598756,45.851803,-69.12973,-13.808903,STN
4608149162000,3.800006,-3.06277608971847,11.0537573697902,3.39840570938449,-3.1422908,-2.4165828,-0.453262,46.78521,-68.267654,-13.870931,STN
4608154217000,3.805061,-2.34446850440909,11.4994810703636,2.87742298410909,-3.1300735,-2.4889705,-0.50823987,47.745377,-67.382355,-13.933064,STN
4608159222000,3.810066,-1.44683438065909,11.9352259253636,2.47653786310909,-3.0955596,-2.5247061,-0.56779927,48.713905,-66.487015,-14.004387,STN
4608164178000,3.815022,-0.521688619973902,12.3562533063355,2.36948230823434,-3.0863967,-2.450486,-0.6392705,49.503883,-65.78474,-13.970393,STN
4608169126000,3.81997,0.454859538323434,12.7613712516199,2.68504808825594,-3.177721,-2.4010057,-0.68325275,50.302814,-65.06801,-13.938127,STN
4608174210000,3.825054,1.38435278732625,13.168592449305,2.96104566984646,-3.3411274,-2.3689353,-0.70524395,50.96135,-64.48205,-13.784744,STN
4608179150000,3.829994,1.96889737277187,13.5253367910875,3.02121946561279,-3.5326338,-2.2149973,-0.6921103,51.565434,-63.86846,-13.656211,STN
4608184577000,3.835421,2.5803046993675,13.9034567770648,3.024685700495,-3.7675114,-1.9721785,-0.61575216,52.06379,-63.25752,-13.387182,STN
4608189174000,3.840018,2.64487461900266,14.0204898064442,2.10456421295444,-3.92542,-1.7721201,-0.56505036,52.529892,-62.615704,-13.141674,STN
4608195482000,3.846326,2.70033319941643,14.174758230859,0.849045194589169,-3.9736784,-1.6129897,-0.55771995,52.885155,-61.993263,-12.829196,STN
4608199144000,3.849988,2.33467682918612,14.188402400638,0.205053357013694,-4.002084,-1.4327844,-0.61758476,53.184727,-61.33437,-12.55733,STN
4608204136000,3.85498,1.83621789958761,14.207001989807,-0.672829563023654,-3.9480221,-1.1817188,-0.70066243,53.339474,-60.82956,-12.32528,STN
4608209130000,3.859974,1.34224572301483,14.221559,-1.37610371579718,-3.7427714,-0.96486163,-0.7635816,53.464794,-60.35504,-12.135212,STN
4608214153000,3.864997,0.862347392751236,14.221559,-1.45095018557569,-3.3680055,-1.010982,-0.83169305,53.608658,-59.934002,-11.976227,STN
4608219307000,3.870151,0.365162550621701,14.2120035685661,-1.48188462760175,-2.7766879,-1.196685,-0.9221011,53.653423,-59.682602,-11.88609,STN
4608224189000,3.875033,-0.170172283771357,14.0739869524108,-0.892179868879148,-2.266921,-1.1774428,-1.0338894,53.676884,-59.501064,-11.84512,STN
4608229194000,3.880038,-0.718994661103855,13.9324930638698,-0.28761773913588,-2.0292943,-1.0714576,-1.1004738,53.72383,-59.34816,-11.820989,STN
4608234133000,3.884977,-1.16441495613023,13.9658748055814,0.764843928669767,-1.9691241,-0.84421575,-1.108415,53.74848,-59.27589,-11.832326,STN
4608239178000,3.890022,-1.5958790496,14.04228004,1.9513702608,-1.9617938,-0.63591075,-1.1453724,53.76963,-59.239895,-11.881256,STN
4608244152000,3.894996,-1.91969401519744,14.1647193979792,2.74788105538715,-1.9486601,-0.5757405,-1.2675453,53.86572,-59.100937,-12.012157,STN
4608249171000,3.900015,-2.192261214053,14.3133928483349,3.35248462625013,-1.8945986,-0.5012149,-1.3994923,53.914677,-58.97066,-12.182251,STN
4608254144000,3.904988,-1.98295236699443,14.5226424220779,3.97487314642857,-1.7687603,-0.45998153,-1.4431691,54.088036,-58.727463,-12.394214,STN
4608259177000,3.910021,-1.57606867959184,14.7596182857143,4.61426187142857,-1.6203201,-0.44929138,-1.4370605,54.263145,-58.497166,-12.625702,STN
4608264457000,3.915301,-1.12419280538816,14.863204,5.30358826736409,-1.4957036,-0.4334089,-1.3695599,54.466335,-58.218494,-12.850258,STN
4608269127000,3.919971,-0.708713072324097,14.863204,5.92500146463365,-1.4062119,-0.50640726,-1.303281,54.690018,-57.972782,-13.055851,STN
4608274216000,3.92506,-0.281435760560966,14.7773970210362,6.5980206560187,-1.3316863,-0.5858198,-1.2577715,54.94624,-57.720127,-13.1801605,STN
4608279194000,3.930038,-0.114291192109856,13.8488162791196,7.21552701180366,-1.2455542,-0.655153,-1.2296717,55.20927,-57.502975,-13.28146,STN
4608284421000,3.935265,0.0373802904906164,12.9058280176241,7.81576100076212,-1.0913107,-0.7134906,-1.2281445,55.546474,-57.255623,-13.294643,STN
4608289187000,3.940031,-0.0887175231963418,12.4014365667334,7.82880568396685,-0.9221011,-0.7504479,-1.273654,55.892,-57.03713,-13.308506,STN
4608294187000,3.945031,-0.221006459082786,11.8722806174145,7.84249083210441,-0.79290307,-0.7651087,-1.3356569,56.31856,-56.710705,-13.323499,STN
4608299144000,3.949988,-0.313330475939165,11.3577897701894,7.71635925942445,-0.6560693,-0.7431176,-1.3952162,56.744953,-56.43164,-13.349397,STN
4608304151000,3.954995,-0.403752277692875,10.8388474920882,7.5787607253423,-0.52931476,-0.72418076,-1.4471397,57.17734,-56.18269,-13.386123,STN
4608309161000,3.960005,-0.52186204134835,10.2857864202623,7.24100162321277,-0.38606682,-0.70066243,-1.4899004,57.639183,-55.914352,-13.448741,STN
4608314164000,3.965008,-0.668802611579949,9.6980238642132,6.69377463661167,-0.23273966,-0.6374379,-1.50731,58.083317,-55.68328,-13.525638,STN
4608319130000,3.969974,-0.805852293128789,9.233041016535,6.05264035882785,-0.089186326,-0.5540548,-1.5204436,58.53767,-55.440792,-13.629632,STN
4608324178000,3.975022,-0.939079520907588,8.84224114220099,5.33321336591953,0.06047566,-0.43768495,-1.5112807,58.960415,-55.243523,-13.7451315,STN
4608329177000,3.980021,-1.07076904843816,8.48433614531448,4.64006194139932,0.21899518,-0.3631594,-1.4969252,59.36179,-55.079575,-13.876054,STN
4608334141000,3.984985,-1.20120605856902,8.16827717570705,3.97784333502533,0.2846632,-0.22876903,-1.4682146,59.709106,-54.93393,-14.025508,STN
4608339197000,3.990041,-1.23687389933801,7.97148208842528,3.50327276038114,0.42058071,-0.14263703,-1.4358387,60.003975,-54.879772,-14.181888,STN
4608344179000,3.995023,-1.185828337332,7.88853317092611,3.21295108274825,0.54244834,-0.09621128,-1.3952162,60.264057,-54.842224,-14.339625,STN
4608349166000,4.00001,-1.13473154533601,7.80550100481444,2.92233803450351,0.6252206,-0.06352998,-1.3371841,60.45383,-54.861786,-14.507159,STN
4608354125000,4.004969,-0.984817446565482,7.71176835913842,2.71807316089248,0.6985244,-0.03145956,-1.2773192,60.62075,-54.912704,-14.666009,STN
4608359176000,4.01002,-0.743021141706807,7.60625722459329,2.58618426566391,0.7666359,-0.027183503,-1.1988231,60.76968,-54.990093,-14.801804,STN
4608364135000,4.014979,-0.43150295803871,7.47491981563567,2.50431781804175,0.82253003,-0.032070424,-1.1093313,60.8662,-55.13772,-14.928421,STN
4608369132000,4.019976,0.0334290120774193,7.28604118049336,2.5188469321518,0.8585711,-0.00580322,-1.0283916,60.938896,-55.303215,-15.038053,STN
4608374182000,4.025026,0.503292219819355,7.09515922982922,2.53353014733207,0.90010995,0.024129177,-0.9682214,60.986988,-55.50572,-15.08528,STN
4608380144000,4.030988,0.803477173750968,6.91031798111929,2.55860139969985,0.9275989,0.070554934,-0.8918633,61.00422,-55.72366,-15.111151,STN
4608384135000,4.034979,0.947805266363284,6.79559566595662,2.57710510238187,0.9483683,0.13897185,-0.8213083,60.995228,-55.9546,-15.1275625,STN
4608389197000,4.040041,0.984758130193781,6.64539759170798,2.53601971969356,0.96944314,0.18936823,-0.7318166,60.952785,-56.208447,-15.054297,STN
4608394182000,4.045026,0.937426536917531,6.49479699004056,2.45856796115367,0.98532563,0.2556471,-0.6606508,60.87535,-56.4714,-14.978536,STN
4608399147000,4.049991,0.86289146678339,6.35095823790448,2.35562593084609,1.0112875,0.36377025,-0.5897904,60.76052,-56.748123,-14.877488,STN
4608404130000,4.054974,0.749154932574938,6.21534919769915,2.21564250272252,1.0601566,0.4999932,-0.50915617,60.60456,-57.043907,-14.768348,STN
4608409200000,4.060044,0.633998436208646,6.05406946635884,2.07193942507611,1.0934488,0.61361414,-0.44073927,60.420197,-57.34293,-14.670987,STN
4608414448000,4.065292,0.516689818713213,5.80925165105541,1.91892816402476,1.1441506,0.72082096,-0.3494149,60.184097,-57.670822,-14.563437,STN
4608419098000,4.069942,0.423246174021783,5.61574214804357,1.78405905379589,1.2119566,0.81000733,-0.25411993,59.909348,-58.01689,-14.474232,STN
4608424169000,4.075013,0.35272163529649,5.47469307059298,1.63909190777733,1.2684617,0.8732319,-0.16157386,59.59943,-58.38281,-14.369848,STN
4608429186000,4.08003,0.282948097377975,5.33514599475595,1.49566848605083,1.2938126,0.98349303,-0.112399206,59.256107,-58.75608,-14.288205,STN
4608434131000,4.084975,0.291336865113626,5.11343624278585,1.39900493318777,1.3579534,1.072374,-0.012217305,58.881042,-59.170376,-14.170866,STN
4608439131000,4.089975,0.32120837389181,4.86592946977097,1.31365777161572,1.4037683,1.1508701,0.07788532,58.47468,-59.58929,-14.051527,STN
4608444182000,4.095026,0.363355703799191,4.68095791219055,1.27627595033041,1.4373659,1.1835514,0.16126843,58.048923,-60.041668,-13.932024,STN
4608450223000,4.101067,0.426122081080974,4.52689483555577,1.28198192179702,1.4731015,1.201572,0.28313604,57.59018,-60.520775,-13.781557,STN
4608454139000,4.104983,0.478036585295757,4.39401322883246,1.25828972694333,1.5216653,1.1963795,0.3210097,57.134777,-61.000057,-13.643187,STN
4608459178000,4.110022,0.552761797792918,4.1997276576133,1.20847301918035,1.5415184,1.1737776,0.40225476,56.658974,-61.500942,-13.456436,STN
4608464151000,4.114995,0.709684804325909,4.05928228489644,1.14747104280969,1.5876387,1.151481,0.464563,56.19444,-62.02255,-13.2668,STN
4608469134000,4.119978,0.928803349888628,3.95671626511333,1.07753958381204,1.6340646,1.1242975,0.5357288,55.726974,-62.55809,-13.045228,STN
4608474158000,4.125002,1.12125658655953,3.86929153662439,1.02031991771764,1.6899587,1.0830641,0.63407815,55.265644,-63.12124,-12.796541,STN
4608479156000,4.13,1.28683125696887,3.79685259355722,0.975476753052032,1.7519615,1.074512,0.74281216,54.793896,-63.7046,-12.5226,STN
4608484173000,4.135017,1.45303536289997,3.72413827235515,0.930463116171807,1.7996091,1.0665708,0.872621,54.301807,-64.3379,-12.197301,STN
4608489172000,4.140016,1.5817748280746,3.70016951276882,0.90120937250084,1.8438967,1.0629056,0.9978484,53.799538,-64.99511,-11.840018,STN
4608494194000,4.145038,1.6989410749496,3.69208908776882,0.87696807640709,1.8955148,1.0595458,1.1175779,53.286293,-65.67735,-11.445672,STN
4608499146000,4.14999,1.77994215706782,3.73646827363287,0.873438724420786,1.9269744,1.0482447,1.2464706,52.748955,-66.41731,-11.005292,STN
