timestamp,rel_time,acc_x,acc_y,acc_z,gyro_x,gyro_y,gyro_z,azimuth,pitch,roll,label
120445912840000,0,9.25226614991112,4.65391287882678,-0.961725729982224,0.37934732,-0.70005155,-0.043066,228.66191,-113.82857,23.772633,STD
120445917858000,0.005018,9.24040154829153,4.63730233744815,-0.959352809658305,0.42088616,-0.72692966,-0.032070424,229.06154,-114.46331,24.384111,STD
120445922913000,0.010073,9.2251855998115,4.62833964575872,-0.950825294084826,0.453262,-0.7504479,-0.032070424,229.44917,-115.10181,24.99597,STD
120445927871000,0.015031,9.20280964580584,4.63728998063148,-0.92844932138737,0.462425,-0.7519751,-0.0106901415,229.82928,-115.74411,25.608624,STD
120445932868000,0.020028,9.16743606395878,4.64642312852379,-0.90394432714762,0.47586402,-0.7461719,-0.0018325958,230.18571,-116.402145,26.235685,STD
120445937901000,0.025061,9.0700327409316,4.65616366424169,-0.869853133575831,0.4804455,-0.73731434,0.006414085,230.53339,-117.059784,26.860727,STD
120445942880000,0.03004,8.96565450282486,4.67064664440678,-0.833128083728814,0.4718934,-0.7266242,0.014049901,230.8339,-117.752106,27.524324,STD
120445947863000,0.035023,8.82839806214689,4.70496085694915,-0.784107802033898,0.45478916,-0.7244862,0.013439035,231.12646,-118.43703,28.18014,STD
120445952888000,0.040048,8.68610614285714,4.74109812138152,-0.754889558979861,0.43951756,-0.711658,0.01863139,231.3341,-119.18819,28.913065,STD
120445957915000,0.045075,8.5320645,4.78187392272727,-0.786604062727273,0.42913285,-0.66859204,0.032070424,231.52402,-119.93298,29.641249,STD
120445962868000,0.050028,8.38619600049593,4.82864667764332,-0.823238710529657,0.39400807,-0.65668017,0.036651913,231.57742,-120.81499,30.52865,STD
120445967858000,0.055018,8.28191653263242,4.92344578893077,-0.899078068851418,0.3726278,-0.59498274,0.041233405,231.59187,-121.69122,31.412466,STD
120445972911000,0.060071,8.18499188335121,5.02349897170584,-0.978379227396859,0.3387248,-0.49754974,0.04795292,231.26778,-122.97972,32.75277,STD
120445977881000,0.065041,8.15713870038038,5.15348131628792,-1.07586597371501,0.28496864,-0.3817908,0.049480084,230.89856,-124.24936,34.070377,STD
120445982961000,0.070121,8.13169679739303,5.28505239307641,-1.16573635642769,0.22815818,-0.25503623,0.058337633,230.17256,-125.95059,35.843163,STD
120445987896000,0.075056,8.14508905051006,5.3966551549778,-1.13002344838009,0.16249016,-0.1337795,0.05681047,229.36826,-127.615685,37.56227,STD
120445992882000,0.080042,8.15861970381128,5.50941125849155,-1.09394147076603,0.09040806,-0.024129177,0.06383542,228.35938,-129.42131,39.407177,STD
120445997863000,0.085023,8.17213678846699,5.6220542892982,-1.05789567644281,0.034208454,0.04917465,0.057421334,227.26366,-131.1843,41.184254,STD
120446002917000,0.090077,8.18585197534712,5.73634818162841,-1.02132160607349,-0.029932396,0.07513642,0.059864793,226.08537,-47.08479,42.903328,STD
120446007983000,0.095143,8.2055471187399,5.79041596529887,-0.910876545130856,-0.07422013,0.07574729,0.06261369,224.88544,-45.458523,44.494637,STD
120446013277000,0.100437,8.22709747591127,5.83051736260139,-0.787056210422164,-0.12583824,0.05131268,0.059864793,223.6251,-43.864525,46.0299,STD
120446017855000,0.105015,8.23995059229942,5.79409973721294,-0.823473898443272,-0.1881465,0.03604105,0.05467244,222.214,-42.250908,47.55367,STD
120446023525000,0.110685,8.2558695896609,5.74899533879605,-0.868578374432718,-0.22815818,0.01863139,0.05009095,220.78441,-40.72832,48.961983,STD
120446027887000,0.115047,8.26811626805433,5.71429597620444,-0.903277796701847,-0.27916542,0.01740966,0.055283304,219.2869,-39.232815,50.31514,STD
120446032844000,0.120004,8.28203345851657,5.67486343600117,-0.942710404722955,-0.3378085,0.03268129,0.06627888,217.7198,-37.764786,51.612503,STD
120446037902000,0.125062,8.25437376399517,5.58500259081756,-0.728489132964156,-0.39522982,0.034208454,0.071776666,216.12119,-36.3483,52.837643,STD
120446042872000,0.130032,8.22082826560612,5.48915715163109,-0.479291611578735,-0.44073927,0.04795292,0.07819075,214.43625,-34.953682,54.010647,STD
120446047874000,0.135034,8.25158671765456,5.43939251317491,-0.935725454119093,-0.49663344,0.07941248,0.07574729,212.7231,-33.602474,55.120968,STD
120446052892000,0.140052,8.29096634416826,5.39563727107348,-1.48704190208959,-0.5467244,0.10567969,0.07696902,210.92967,-32.271484,56.18081,STD
120446057939000,0.145099,8.29247002881875,5.30781760358915,-1.64970681699567,-0.5870415,0.1142318,0.080634214,209.30074,-31.13637,57.04866,STD
120446062916000,0.150076,8.27737563316795,5.20215541548612,-1.63964369391956,-0.6221663,0.13683382,0.083383106,207.59012,-30.013594,57.87393,STD
120446067858000,0.155018,8.3040766911288,5.1179071957265,-1.31447808030062,-0.6392705,0.16340645,0.07391469,205.47481,-28.654007,58.864384,STD
120446072888000,0.160048,8.34193634826604,5.03745585669516,-0.902757266448571,-0.659429,0.16584991,0.08155051,203.27045,-27.314878,59.796516,STD
120446077874000,0.165034,8.42468863446873,4.9482196972547,-1.1140450325877,-0.66889745,0.1572978,0.08246681,201.12292,-26.075533,60.62521,STD
120446082879000,0.170039,8.52216069140824,4.85562124316218,-1.52342794653788,-0.66767573,0.14294247,0.09010262,198.89731,-24.85497,61.400753,STD
120446087892000,0.175052,8.48630342727542,4.83254026181836,-1.27914630524603,-0.62980205,0.12522738,0.09407325,197.06433,-23.895212,61.969517,STD
120446093202000,0.180362,8.41108479794892,4.82752568652993,-0.837863365693719,-0.6102544,0.099571034,0.10476339,195.18869,-22.941767,62.509357,STD
120446097864000,0.185024,8.37165809485981,4.79610879637383,-0.708340882958879,-0.58093286,0.06352998,0.108123146,193.141,-21.909548,63.09852,STD
120446102897000,0.190057,8.33562040373832,4.75556671136449,-0.631761360829907,-0.54305923,0.035430185,0.0983493,191.0498,-20.89675,63.645935,STD
120446107964000,0.195124,8.31901973176124,4.73406913190862,-0.700094940619012,-0.4990769,0.009468411,0.09865474,189.20105,-20.039495,64.073586,STD
120446112863000,0.200023,8.31408050415833,4.72419093457206,-0.848268787737657,-0.46822822,-0.00580322,0.09254608,187.33052,-19.199316,64.4685,STD
120446117868000,0.205028,8.3158072003638,4.7496181477035,-0.922034421178718,-0.41416663,-0.016493361,0.083383106,185.47809,-18.395386,64.8241,STD
120446122891000,0.210051,8.32018239554343,4.78899399063211,-0.965785477560709,-0.35705075,-0.023823744,0.070249505,183.60704,-17.607454,65.14913,STD
120446127869000,0.215029,8.36005573581848,4.83456450729335,-1.03232389059968,-0.30787608,-0.025961773,0.059253927,181.62788,-16.796196,65.4652,STD
120446132857000,0.220017,8.43231625316045,4.8861788545651,-1.12006833485683,-0.25778514,-0.04153884,0.048258353,179.6434,-16.006096,65.74927,STD
120446137897000,0.225057,8.48944817373118,4.92139439607734,-1.14319368893846,-0.2012801,-0.044898596,0.04337143,177.57365,-15.211428,66.00366,STD
120446142891000,0.230051,8.53835065839375,4.94806852082171,-1.13430234497118,-0.15118915,-0.064446285,0.028405234,175.51968,-14.440533,66.22617,STD
120446147861000,0.235021,8.57223246313659,4.96342760199233,-1.08515546962497,-0.100792766,-0.0888809,0.022602014,173.39987,-13.663812,66.426796,STD
120446152903000,0.240063,8.59281033379501,4.96857204279778,-0.99769900900277,-0.061391957,-0.122478485,0.005497787,171.30962,-12.91344,66.594376,STD
120446157993000,0.245153,8.59350820999899,4.96389801125392,-1.01251011871268,-0.016187929,-0.13927728,-0.0067195175,169.15121,-12.158819,66.73183,STD
120446163077000,0.250237,8.58365303987451,4.95404299548629,-1.08149492037243,0.013439035,-0.16249016,-0.017104227,139.79796,-11.427099,66.8416,STD
120446167857000,0.255017,8.57459779060206,4.91699130889868,-1.16354690784141,0.05100725,-0.17256944,-0.022907447,139.4369,-10.748424,66.91387,STD
120446172908000,0.260068,8.56512722741067,4.86490162904552,-1.25825560546256,0.099265605,-0.18448131,-0.03176499,139.07373,-10.09209,66.96117,STD
120446177866000,0.265026,8.53772525494528,4.80696092520333,-1.34075014638016,0.1423316,-0.16279559,-0.036651913,138.68149,-9.4289,66.982445,STD
120446182856000,0.270016,8.49933697800984,4.74458051381665,-1.41752614909127,0.18051068,-0.13103059,-0.045814894,138.28682,-8.789506,66.973495,STD
120446187894000,0.275054,8.46752790144761,4.68631980289522,-1.47822346886205,0.22266038,-0.103847094,-0.0580322,137.89023,-8.174141,66.943665,STD
120446192980000,0.28014,8.4395107749976,4.63028554999521,-1.52958802190586,0.26053402,-0.07269296,-0.05681047,137.49054,-7.576505,66.87921,STD
120446197858000,0.285018,8.46010180637941,4.60986627189835,-1.55657613464894,0.28221974,-0.03604105,-0.051923547,137.07933,-6.9747334,66.78478,STD
120446202913000,0.290073,8.52065714213766,4.61624047397873,-1.56613748768886,0.32528573,0.0106901415,-0.06078109,136.66081,-6.398785,66.65422,STD
120446207940000,0.2951,8.5808770576385,4.62257936890615,-1.57564587972283,0.35185838,0.04062254,-0.064751714,136.23766,-5.836775,66.50883,STD
120446212945000,0.300105,8.64083342865137,4.62889052249909,-1.58511265953784,0.38056904,0.0693332,-0.0693332,135.80962,-5.297846,66.3298,STD
120446217857000,0.305017,8.69967572523783,4.6350844059054,-1.59440353315448,0.4129449,0.07880162,-0.06627888,135.37813,-4.776832,66.12946,STD
120446222891000,0.310051,8.75997949580302,4.64143212762105,-1.60392516543994,0.45051312,0.08093964,-0.06536258,134.94313,-4.276821,65.905914,STD
120446227864000,0.315024,8.82288027186407,4.65371435089455,-1.61562592542729,0.47891834,0.07452556,-0.064446285,134.50551,-3.7939625,65.66703,STD
120446232898000,0.320058,8.89033989705148,4.67298880984508,-1.63008158095952,0.5164866,0.07147124,-0.06047566,134.0588,-3.3307202,65.412964,STD
120446237886000,0.325046,8.91458658381221,4.65886429251972,-1.62663648381221,0.5537493,0.044898596,-0.06688975,133.61668,-2.9165874,65.18327,STD
120446242903000,0.330063,8.89118792519723,4.60738704810558,-1.60323782519723,0.5757405,0.031154128,-0.069027774,133.17052,-2.5168428,64.94072,STD
120446247870000,0.33503,8.84450028888992,4.53713611810841,-1.57683888946538,0.6059783,0.016798794,-0.067500606,132.71062,-2.1439943,64.70645,STD
120446252924000,0.340084,8.76363699252831,4.43830330457583,-1.54539202332467,0.63132924,0.009773844,-0.07544186,132.25024,-1.7898384,64.46532,STD
120446257973000,0.345133,8.68390896558022,4.3544307367238,-1.5126376025288,0.65057147,0.0018325958,-0.06688975,131.79059,-1.4581227,64.2309,STD
120446262891000,0.350051,8.60891810213543,4.31031843701414,-1.4773478088227,0.6554584,-0.009162978,-0.067500606,131.3318,-1.1444914,63.992325,STD
120446267865000,0.355025,8.54068520287622,4.27430070426297,-1.44427107744222,0.66828656,-0.0018325958,-0.06536258,130.87651,-0.85281974,63.75532,STD
120446272891000,0.360051,8.52585243656908,4.29902232562917,-1.4294381046225,0.6780604,-0.0018325958,-0.056199603,130.645119976998,-0.710280394531453,63.6344175317532,STD
120446277864000,0.365024,8.52906859882974,4.33643802502735,-1.41817205451691,0.68966687,0.009773844,-0.044593163,130.41617,-0.56924415,63.51479,STD
120446282865000,0.370025,8.61564649322107,4.43440792668284,-1.4227287670187,0.68477994,0.008857546,-0.036957346,129.96883,-0.31491938,63.282837,STD
120446287902000,0.375062,8.70284762380477,4.5330830705818,-1.42731828129014,0.6963864,0.026572637,-0.023518313,129.50546,-0.066758275,63.031162,STD
120446292873000,0.380033,8.78890615470244,4.63046527036773,-1.43184765898387,0.6985244,0.06352998,-0.018936822,129.04564,0.17239937,62.77036,STD
120446298213000,0.385373,8.87845554094223,4.73472042443447,-1.43746543110862,0.689056,0.10598512,-0.009162978,128.58293,0.40565518,62.499485,STD
120446302947000,0.390107,8.8954068718452,4.81947752146196,-1.45865470536549,0.6759224,0.15821409,-0.0009162979,128.11948,0.62913287,62.212463,STD
120446307959000,0.395119,8.91335365479529,4.90921190471116,-1.48108830117779,0.6404922,0.20922135,-0.0061086523,127.657646,0.84135073,61.8969,STD
120446312956000,0.400116,8.86158388085456,4.96434277230896,-1.44672729120789,0.605062,0.26297748,-0.005497787,127.19582,1.0466805,61.56487,STD
120446317837000,0.404997,8.79916864482334,5.01235464658998,-1.40351655422145,0.5516113,0.3023783,-0.011911872,126.7475,1.244121,61.22263,STD
120446322889000,0.410049,8.69328659353094,5.04814026067494,-1.28717993315642,0.49602258,0.33108896,-0.011301007,126.306435,1.4374002,60.85578,STD
120446327856000,0.415016,8.58372659062688,5.08148436933707,-1.1633297827158,0.42424592,0.3378085,-0.0143553335,125.882065,1.6255109,60.486057,STD
120446332859000,0.420019,8.49361199201923,5.12205649076923,-1.02664288313462,0.37659842,0.32620203,-0.021380283,125.45563,1.8116492,60.094257,STD
120446337874000,0.425034,8.40586926269231,5.16361926769231,-0.888101482846154,0.31764993,0.30909783,-0.03573562,125.04901,1.9945719,59.705498,STD
120446342891000,0.430051,8.33201877608376,5.20368679895298,-0.765279919118295,0.29168814,0.29352075,-0.04428773,124.64782,2.1607335,59.303062,STD
120446348543000,0.435703,8.25247653141073,5.24842885736591,-0.631053349360764,0.24648413,0.26511553,-0.056505036,124.265305,2.3223534,58.9134,STD
120446352949000,0.440109,8.20578751726998,5.28187951259635,-0.527674681250854,0.21960606,0.25228736,-0.079107046,123.88521,2.4621391,58.506702,STD
120446358013000,0.445173,8.15846908425212,5.31973445664943,-0.409377892147527,0.18661933,0.23487769,-0.09712757,123.5148,2.5968971,58.11396,STD
120446362900000,0.45006,8.1257086607494,5.33136603214988,-0.340595698933858,0.17623462,0.22021692,-0.103847094,123.14511,2.713685,57.70692,STD
120446367925000,0.455085,8.10080263652831,5.32638482730566,-0.300746028972156,0.16126843,0.204029,-0.118507855,122.78337,2.819641,57.310867,STD
120446372947000,0.460107,8.08601508042694,5.25764671100421,-0.296883886043295,0.1301143,0.19211712,-0.14080444,122.43348,2.8999221,56.91732,STD
120446377916000,0.465076,8.07647672188815,5.15749322425336,-0.311191508510724,0.10445796,0.17715092,-0.16554448,122.0827,2.968357,56.5346,STD
120446382900000,0.47006,8.09215356217616,5.08262949119171,-0.356996555129534,0.093462385,0.172264,-0.18875736,121.74099,3.0152912,56.164204,STD
120446387936000,0.475096,8.12098712096453,5.02015699792746,-0.419469088537266,0.071776666,0.16798794,-0.20616703,121.40552,3.0554237,55.802975,STD
120446392909000,0.480069,8.16536511250628,4.9612860775992,-0.472038928980412,0.046120327,0.1685988,-0.21777347,121.08559,3.0817947,55.47058,STD
120446397907000,0.485067,8.21825404389754,4.90358867358112,-0.520120191039679,0.023518313,0.1600467,-0.226631,120.76743,3.1010094,55.146267,STD
120446402998000,0.490158,8.28869043010243,4.84082340091047,-0.548686371168437,0.004886922,0.1432479,-0.24129178,120.48285,3.1017258,54.857517,STD
120446408089000,0.495249,8.36729915895296,4.77608735735964,-0.567182383611533,-0.015882496,0.1301143,-0.24465153,120.19949,3.1017494,54.573273,STD
120446412948000,0.500108,8.4412229576704,4.73685789300727,-0.587846815286781,-0.017715093,0.10445796,-0.25411993,119.9235,3.10361,54.303185,STD
120446418578000,0.505738,8.5259488730112,4.7103810790218,-0.614323645860342,-0.03940081,0.081855945,-0.25992316,119.65339,3.1071596,54.039074,STD
120446422932000,0.510092,8.57008347535771,4.68678838728653,-0.626348404152008,-0.04734206,0.04550946,-0.2602286,119.39855,3.0886848,53.8269,STD
120446427921000,0.515081,8.60438780763116,4.65738452770399,-0.633699361371865,-0.058643065,0.008552114,-0.2666427,119.14798,3.067741,53.623634,STD
120446432897000,0.520057,8.63860275198728,4.62805728671727,-0.641031163962767,-0.051618114,-0.030848695,-0.27580565,118.90394,3.0319443,53.45634,STN
120446437890000,0.52505,8.67293458823529,4.59862985218216,-0.648388014914611,-0.044898596,-0.0693332,-0.28955013,118.66113,2.992327,53.30069,STN
120446442929000,0.530089,8.65024811750542,4.59160020589935,-0.734547807392247,-0.030848695,-0.10476339,-0.2919936,118.41134,2.947555,53.156216,STN
120446447908000,0.535068,8.59284035540573,4.59848913735131,-0.86773391137491,-0.02565634,-0.113926366,-0.30085114,114.20555,2.895438,53.016357,STN
120446452995000,0.540155,8.53418735564652,4.60552749732242,-1.00380896880809,-0.0030543262,-0.106595986,-0.29168814,114.06292,2.836401,52.89949,STN
120446458077000,0.545237,8.47559200577895,4.61255893930653,-1.13975027839634,0.016493361,-0.089186326,-0.29535335,113.93032,2.7695827,52.78287,STN
120446462931000,0.550091,8.44003300983216,4.64062812333896,-1.25589235980733,0.013744468,-0.040011674,-0.301462,113.807625,2.6981723,52.657898,STN
120446467894000,0.555054,8.42587202165061,4.69255271603933,-1.35974115088887,0.028710667,0.02107485,-0.310625,113.68844,2.6163285,52.524796,STN
120446472929000,0.560089,8.44349861996889,4.75959310735952,-1.43010985433599,0.04184427,0.08857546,-0.31520647,113.49194,2.5817354,52.322975,STN
120446477908000,0.565068,8.49912681936613,4.84303579370017,-1.45792405084581,0.059253927,0.1432479,-0.32711834,113.306915,2.5355291,52.11022,STN
120446482870000,0.57003,8.55520617037037,4.91601941223223,-1.47854004880881,0.069027774,0.18020524,-0.32711834,113.08434,2.505102,51.855347,STN
120446488002000,0.575162,8.61424317777778,4.97505626552553,-1.4883795157958,0.0983493,0.20799962,-0.33078352,112.8737,2.458861,51.59205,STN
120446492869000,0.580029,8.66241627992184,5.0195894789448,-1.51036109443087,0.11575896,0.21899518,-0.3268129,112.68092,2.4001079,51.322575,STN
120446497904000,0.585064,8.70010572691744,5.04785661338544,-1.55276199286761,0.15699236,0.23915374,-0.3213151,112.49207,2.325664,51.047115,STN
120446502884000,0.590044,8.71672967853796,5.05993754283037,-1.57707657141518,0.18203785,0.25442538,-0.3173445,112.31383,2.2395248,50.77297,STN
120446508042000,0.595202,8.6935820054358,5.04141940434864,-1.56781750217432,0.21471913,0.29046643,-0.30543262,112.13168,2.141717,50.491394,STN
120446512889000,0.600049,8.65825738767924,5.00949374264472,-1.52651655066383,0.23487769,0.310625,-0.2864958,111.943756,2.042919,50.203983,STN
120446517896000,0.605056,8.57167590759427,4.92291204983537,-1.36353893997876,0.24770586,0.3210097,-0.2660318,111.751495,1.936153,49.913853,STN
120446522856000,0.610016,8.47590696054956,4.83320306810599,-1.20759681560353,0.26206118,0.29718593,-0.24465153,111.55174,1.8244501,49.632473,STN
120446527914000,0.615074,8.35706580078508,4.73337681157998,-1.06023429371933,0.2828306,0.2666427,-0.22876903,111.34653,1.7060181,49.3546,STN
120446532885000,0.620045,8.24824335883866,4.65153346310219,-0.921940800207736,0.2919936,0.19822577,-0.20738874,111.18357,1.5685848,49.118946,STN
120446537895000,0.625055,8.15806459783361,4.60881712963696,-0.798538389484618,0.31245756,0.13194689,-0.18203785,111.010284,1.4245433,48.89419,STN
120446542901000,0.630061,8.10264291067034,4.60203685869672,-0.70996387466286,0.33750305,0.069027774,-0.15118915,110.8464,1.2718087,48.703373,STN
120446547886000,0.635046,8.14023748518555,4.69132400383896,-0.714663190343538,0.34972036,0.05467244,-0.118507855,110.6692,1.119201,48.518944,STN
120446552938000,0.640098,8.1865279708058,4.80987405611993,-0.748614607111155,0.3680463,0.027794369,-0.09437868,110.495544,0.95419925,48.359886,STN
120446558228000,0.645388,8.26147807239373,5.02473132705395,-0.878528220879771,0.3726278,0.043676864,-0.02321288,110.28674,0.80236346,48.193027,STN
120446562886000,0.650046,8.31762391017134,5.22598987342775,-0.982124930375359,0.37568212,0.079107046,-0.0015271631,110.09928,0.6315748,48.009174,STN
120446567901000,0.655061,8.34140753649599,5.4876042994949,-1.05347436897098,0.3747658,0.1518,0.03634648,109.874176,0.4742425,47.810875,STN
120446572912000,0.660072,8.35249009104879,5.7501605426431,-1.10643024771418,0.3381139,0.21746802,0.057421334,109.61259,0.31947348,47.561234,STN
120446577914000,0.665074,8.31108283173262,6.0170051363811,-1.08342642827507,0.28496864,0.27947086,0.08399397,109.33391,0.16998826,47.29502,STN
120446582889000,0.670049,8.26260732085932,6.28073950720721,-1.04973885566182,0.2275473,0.33628133,0.10293079,109.044304,0.007398803,46.965374,STN
120446587924000,0.675084,8.15281182090882,6.53374598918919,-0.925622422001782,0.1572978,0.3594942,0.13255776,108.740845,-0.1435639,46.633564,STN
120446592921000,0.680081,8.0444231561285,6.77872537628402,-0.802055102746061,0.08460484,0.36774087,0.14263703,108.39829,-0.29551113,46.200157,STN
120446597896000,0.685056,7.94205624493554,6.96396131141805,-0.675314783941068,0.0030543262,0.344528,0.15851954,108.04506,-0.4364875,45.77966,STN
120446602894000,0.690054,7.83874641188282,7.13621627933673,-0.55765039725971,-0.0852157,0.29168814,0.16523905,107.65072,-0.5793584,45.277718,STN
120446607972000,0.695132,7.73069516336406,7.22025588392857,-0.501623868836406,-0.16065755,0.2443461,0.1777618,107.2537,-0.7182336,44.7956,STN
120446612851000,0.700011,7.62687829815668,7.30100208928571,-0.447792944815668,-0.25350907,0.19608775,0.1704314,106.83779,-0.8592085,44.271442,STN
120446617900000,0.70506,7.52187173947034,7.33614832256425,-0.43425338456953,-0.33108896,0.15607607,0.16768251,106.42271,-0.9992749,43.775414,STN
120446622871000,0.710031,7.41952267256914,7.35010511066158,-0.438905614883221,-0.4166101,0.106901415,0.15851954,106.02073,-1.1350365,43.31133,STN
120446627908000,0.715068,7.33838487000205,7.31936872663523,-0.447009281232315,-0.48930305,0.048563786,0.1432479,105.64955,-1.2883316,42.84509,STN
120446632912000,0.720072,7.26960167336477,7.26532480840681,-0.456835482228829,-0.552833,-0.020158553,0.13439035,105.284676,-1.437658,42.41024,STN
120446637883000,0.725043,7.24631215763985,7.18302733530342,-0.456355957199051,-0.5919284,-0.10781772,0.11636983,104.93515,-1.5956548,42.002544,STN
120446642909000,0.730069,7.2415548931607,7.08788373463135,-0.451598792067602,-0.6010914,-0.19242255,0.1020145,104.592705,-1.7573107,41.62586,STN
120446647904000,0.735064,7.27582895535714,6.97357597267857,-0.482621669636905,-0.59498274,-0.23854288,0.093767814,104.26454,-1.9164115,41.260376,STN
120446652929000,0.740089,7.32834469196429,6.84944815348214,-0.530363192627976,-0.5919284,-0.31764993,0.089491755,103.9456,-2.0831556,40.938725,STN
120446658018000,0.745178,7.40045457879084,6.72168730281745,-0.672154685110546,-0.54458636,-0.3594942,0.08093964,103.63268,-2.2558978,40.627716,STN
120446662924000,0.750084,7.47859225169243,6.59758594848366,-0.851412039610644,-0.50335294,-0.36835176,0.07360926,103.324875,-2.4361355,40.338455,STN
120446667900000,0.75506,7.55754579478802,6.47799265060288,-1.09347687460132,-0.43982297,-0.34880406,0.06352998,103.02614,-2.6202872,40.063805,STN
120446673444000,0.760604,7.64531285663166,6.34892375912096,-1.40324240283936,-0.37323865,-0.30970868,0.06719518,102.727196,-2.8201015,39.793736,STN
120446677913000,0.765073,7.64877469746189,6.29999184873095,-1.46895314674401,-0.3005457,-0.25961772,0.06352998,102.42782,-3.0240455,39.54871,STN
120446682915000,0.770075,7.60965940463391,6.28043420231696,-1.42494846358533,-0.21991149,-0.22021692,0.0571159,102.12989,-3.251316,39.301945,STN
120446687921000,0.775081,7.57051283208356,6.26086091604178,-1.38090859075599,-0.14508049,-0.18448131,0.054061573,101.82467,-3.4785144,39.069546,STN
120446692898000,0.780058,7.53159303752041,6.24140101876021,-1.33712384303892,-0.07574729,-0.1740966,0.0421497,101.52761,-3.732428,38.83934,STN
120446697961000,0.785121,7.49200072892624,6.22160486446312,-1.29258251740269,-0.014660766,-0.1740966,0.031154128,101.233025,-4.008748,38.608448,STN
120446702921000,0.790081,7.45321387318318,6.20221143659159,-1.24894732578593,0.058948494,-0.17287487,0.028405234,100.94116,-4.3110113,38.38066,STN
120446707924000,0.795084,7.3852750258525,6.1929056036479,-1.16963876510706,0.12339478,-0.18478674,0.02443461,100.659935,-4.634361,38.160534,STN
120446712916000,0.800076,7.30471133100714,6.18816666756542,-1.07485801459159,0.19150625,-0.21410827,0.015882496,100.38277,-4.9829607,37.95106,STN
120446717945000,0.805105,7.23604730074059,6.19638499889912,-0.949452432596077,0.2406809,-0.25442538,0.015882496,100.247250402059,-5.17095024180038,37.853097779998,STN
120446722825000,0.809985,7.1752435361289,6.21041675710568,-0.813812900970777,0.2782491,-0.29932398,-0.010079277,100.115746,-5.35337,37.758038,STN
120446727810000,0.81497,7.1221236746426,6.23122349690763,-0.664540839055054,0.3222314,-0.34880406,-0.016798794,99.844315,-5.7335267,37.568798,STN
120446732805000,0.819965,7.07362279691777,6.25547368255095,-0.509338916602454,0.3436117,-0.41233405,-0.03176499,99.592255,-6.1405954,37.405586,STN
120446737813000,0.824973,7.08054235259594,6.26964199089214,-0.363533294324271,0.35918877,-0.48899764,-0.03848451,99.353004,-6.566661,37.26785,STN
120446743198000,0.830358,7.11597273521445,6.27976482900186,-0.21168981892433,0.34269542,-0.57726765,-0.051923547,99.12359,-6.9980836,37.153534,STN
120446747803000,0.834963,7.15587409408414,6.24243685977816,-0.0617559042869991,0.32436943,-0.6249151,-0.06047566,98.90847,-7.443327,37.05759,STN
120446752838000,0.839998,7.20405955226342,6.17979581445988,0.11171186591386,0.321926,-0.7275405,-0.08368854,98.70953,-7.895988,37.001953,STN
120446757828000,0.844988,7.25460479303685,6.09662798300317,0.270396816064778,0.30695978,-0.83658,-0.09162979,98.53624,-8.349301,36.992523,STN
120446762809000,0.849969,7.30657794621632,6.00213087440571,0.421591987541601,0.27885997,-0.94806284,-0.112704635,98.38054,-8.806512,37.00947,STN
120446767813000,0.854973,7.38518824610223,5.90152622928755,0.59375635681863,0.27030787,-1.0635164,-0.13713925,98.25528,-9.26101,37.10507,STN
120446772846000,0.860006,7.48031363469509,5.79688830183541,0.779250988735938,0.27366763,-1.16492,-0.14630222,98.13787,-9.712494,37.22344,STN
120446777807000,0.864967,7.58937161126393,5.72130335269551,0.978313929806244,0.26419923,-1.2748758,-0.16126843,98.07493,-10.153537,37.413692,STN
120446782805000,0.869965,7.70950253775725,5.66364065248469,1.18974398110631,0.27000242,-1.3762794,-0.1731803,98.02099,-10.598218,37.622894,STN
120446787837000,0.874997,7.85544507879208,5.65518519683168,1.38350341625743,0.2828306,-1.4627168,-0.1777618,98.02243,-11.029715,37.911674,STN
120446792812000,0.879972,8.01583287235644,5.67877162257426,1.56276035041584,0.29535335,-1.5100589,-0.18112154,98.03361,-11.461438,38.20841,STN
120446797806000,0.884966,8.14081971835443,5.72452509280063,1.72048391372627,0.30268374,-1.5076154,-0.17195857,98.070724,-11.879013,38.540894,STN
120446802836000,0.889996,8.24085861867089,5.78645428168513,1.86339734618275,0.32498032,-1.4321736,-0.16249016,98.10703,-12.299435,38.856575,STN
120446807916000,0.895076,8.30245023407885,5.83427942949204,1.83766326484079,0.33169982,-1.241889,-0.15027285,98.14342,-12.71052,39.160202,STN
120446812882000,0.900042,8.33400024109174,5.87033563912055,1.68893048241092,0.32589662,-0.9114109,-0.15302174,98.15822,-13.12071,39.395145,STN
120446817903000,0.905063,8.32945889038738,5.85530902903874,1.50777407340029,0.29749137,-0.40286562,-0.15241088,98.13724,-13.526134,39.531517,STN
120446822939000,0.910099,8.28332855236729,5.78150135523673,1.29096360411286,0.25411993,0.21685717,-0.16584991,98.06794,-13.927085,39.540466,STN
120446827900000,0.91506,8.22601613745858,5.71542499373153,1.14744157155906,0.17959438,0.8210029,-0.16737708,97.92633,-14.320462,39.41759,STN
120446832906000,0.920066,8.14873985089997,5.65961403350945,1.11738961260858,0.10751228,1.2840388,-0.16371189,97.72504,-14.706442,39.16592,STN
120446837883000,0.925043,8.06542678974304,5.61055875040685,1.08233197007495,0.054367006,1.577254,-0.15393804,97.46842,-15.078677,38.821854,STN
120446842931000,0.930091,7.94120307633833,5.60020678329764,1.01504412981799,0.06291912,1.6670512,-0.119729586,97.166595,-15.446475,38.41839,STN
120446847870000,0.93503,7.80774076379066,5.5916322505422,0.918348509897218,0.06688975,1.7531832,-0.10629055,96.83372,-15.801574,37.945522,STN
120446852925000,0.940085,7.63883941442716,5.58706725902876,0.735752538723244,0.09101892,1.767844,-0.0852157,96.48176,-16.159246,37.48211,STN
120446858011000,0.945171,7.46873051167408,5.58181903680246,0.571054421923999,0.13775012,1.7476854,-0.058948494,96.11347,-16.526957,37.012287,STN
120446862967000,0.950127,7.30218057713112,5.57369474286203,0.497934945087299,0.16890424,1.7012597,-0.052534413,95.74469,-16.90065,36.556683,STN
120446867928000,0.955088,7.13546261400205,5.56556225249914,0.424741699609723,0.2049453,1.6065756,-0.062308256,95.364494,-17.298819,36.10938,STN
120446872946000,0.960106,6.92620112114648,5.58809650940963,0.419793324813621,0.23823744,1.4984524,-0.081855945,94.992096,-17.708376,35.688988,STN
120446877891000,0.965051,6.71150467489422,5.61672270888575,0.429335401269394,0.27305678,1.4089607,-0.11178834,94.634735,-18.13379,35.297348,STN
120446882901000,0.970061,6.42962428856369,5.65070199827101,0.480870214071451,0.30848694,1.3622295,-0.14446963,94.281044,-18.58075,34.90733,STN
120446887855000,0.975015,6.13807460332257,5.68529279631288,0.540168422778877,0.33292156,1.382388,-0.1685988,93.9349,-19.039797,34.531395,STN
120446892922000,0.980082,5.84777810001988,5.58810395160072,0.506544342284748,0.33628133,1.4679092,-0.19700404,93.584984,-19.52064,34.11907,STN
120446897849000,0.985009,5.56630105890833,5.4802043171207,0.46432278856731,0.30940324,1.5741998,-0.23884831,93.2382,-20.008715,33.703465,STN
120446902921000,0.990081,5.53142223115789,5.31345421431579,0.610617193389474,0.25137106,1.6362026,-0.2770274,92.85314,-20.501905,33.223343,STN
120446907891000,0.995051,5.52706564516247,5.14354363015103,0.776171023238444,0.18509217,1.6105462,-0.3100141,92.47591,-20.994999,32.75025,STN
120446912910000,1.00007,5.78757831441488,5.07009986037193,1.03584382525223,0.1301143,1.4581354,-0.31337386,92.10567,-21.472965,32.269737,STN
120446917840000,1.005,6.14654390775712,5.03614369392787,1.32689685270523,0.11026118,1.2443326,-0.3005457,91.75385,-21.948153,31.82724,STN
120446922885000,1.010045,6.53327851800795,5.10251783903724,1.06548451364779,0.1282817,1.0858129,-0.2666427,91.46392,-22.379147,31.460064,STN
120446927866000,1.015026,6.92113591305553,5.19948239489975,0.633552254794419,0.17928895,1.0800097,-0.21502456,91.17171,-22.809044,31.123236,STN
120446932855000,1.020015,7.16260024903717,5.29736872866852,-0.0670682195541139,0.24281894,1.2391402,-0.16340645,90.91189,-23.211227,30.851713,STN
120446937898000,1.025058,7.30682641388117,5.3968348540624,-0.957291145358871,0.2782491,1.3408492,-0.11148291,90.64302,-23.610209,30.61002,STN
120446942907000,1.030067,7.29701539938303,5.4397115063012,-1.48967148481845,0.30176744,1.5537357,-0.08979719,90.323685,-24.065554,30.370455,STN
120446947861000,1.035021,7.21064117927582,5.45410731821584,-1.83996738677051,0.3036,1.7229455,-0.044593163,89.96997,-24.512308,30.133606,STN
120446952939000,1.040099,7.02955100053576,5.41817372666604,-1.80686140947457,0.28863382,1.8264871,-0.01985312,89.548454,-25.045628,29.877186,STN
120446957996000,1.045156,6.80649751569696,5.35899622688223,-1.59291214074631,0.24862215,1.8255708,-0.017104227,89.108986,-25.571674,29.61754,STN
120446962903000,1.050063,6.50190150145175,5.3028511655316,-1.09496489552733,0.21410827,1.724778,-0.01740966,88.62152,-26.128878,29.333656,STN
120446967859000,1.055019,6.12698285243382,5.24712013081768,-0.370460280369342,0.20341812,1.5625933,-0.0143553335,88.14483,-26.683962,29.078575,STN
120446972895000,1.060055,5.78409014259494,5.1170545229425,0.249520544889193,0.18936823,1.3854424,-0.024129177,87.70263,-27.214256,28.818235,STN
120446977872000,1.065032,5.46301242010153,4.95418889111588,0.807916719213121,0.15577064,1.2388347,-0.021991149,87.27934,-27.736393,28.603529,STN
120446982859000,1.070019,5.28649355261044,4.80921079879518,1.20836991204819,0.09132435,1.1600331,-0.002443461,86.9036,-28.185091,28.373247,STN
120446987929000,1.075089,5.19386974297189,4.67271234939759,1.5203661060241,-0.009162978,1.1221595,0.018936822,86.54414,-28.616205,28.178154,STN
120446992918000,1.080078,5.35434118964715,4.74587394702404,1.17100689016867,-0.116675265,1.1157454,0.042455133,86.205315,-28.949015,27.95443,STN
120446998778000,1.085938,5.70250767045366,4.96347813954052,0.34411148121171,-0.21288654,1.1759156,0.06688975,85.8553,-29.256973,27.73506,STN
120447002943000,1.090103,5.97469013050148,5.09750364641101,-0.080238011972468,-0.3051272,1.2681563,0.07452556,85.5052,-29.48649,27.494345,STN
120447007977000,1.095137,6.31599726094395,5.24919583638151,-0.511612421046214,-0.36560285,1.3762794,0.09010262,85.13413,-29.69652,27.247728,STN
120447012902000,1.100062,6.63649825924968,5.35947055943875,-0.798225765747836,-0.41813725,1.4535538,0.118507855,84.71723,-29.99884,27.017517,STN
120447017902000,1.105062,6.95099179094437,5.44047633115733,-0.979297862473878,-0.42638394,1.4679092,0.15760323,84.287056,-30.294844,26.789885,STN
120447022928000,1.110088,7.14060847239751,5.47056760502551,-1.00900971891177,-0.42363504,1.4391985,0.1994475,83.82111,-30.657366,26.576162,STN
120447027910000,1.11507,7.22173553735122,5.45704645890799,-0.909854553259021,-0.40530908,1.3558154,0.2284636,83.357956,-31.01892,26.38619,STN
120447032895000,1.120055,7.22409004987406,5.45114679141639,-0.801798246115094,-0.38026363,1.2177598,0.25686884,82.886086,-31.411734,26.244646,STN
120447037901000,1.125061,7.11726427959698,5.4557914786863,-0.681038821414455,-0.3643811,1.1349876,0.2828306,82.41458,-31.80278,26.122562,STN
120447042958000,1.130118,6.95677335364781,5.4731730526962,-0.560159422658345,-0.35735616,0.977079,0.29932398,81.98237,-32.181103,26.05795,STN
120447047865000,1.135025,6.71154029218254,5.51164075943927,-0.444755609534432,-0.34483343,0.8206975,0.3387248,81.554504,-32.55637,26.02648,STN
120447052901000,1.140061,6.47153781831212,5.56427714278841,-0.365793316738499,-0.32589662,0.66981375,0.37934732,81.14591,-32.927975,25.9977,STN
120447057993000,1.145153,6.24670118862383,5.63759367473188,-0.346242313005914,-0.30543262,0.573297,0.41263947,80.74971,-33.29612,26.002811,STN
120447062884000,1.150044,6.06824548424358,5.72121367866794,-0.351688412704091,-0.29016098,0.5131268,0.4456262,80.34391,-33.66882,25.975723,STN
120447068686000,1.155846,5.92021427200761,5.84281079120837,-0.399269924647003,-0.25900686,0.49846604,0.48441613,79.93923,-34.041317,25.973064,STN
120447072857000,1.160017,5.84137301911929,5.94528325831384,-0.444364614156412,-0.2443461,0.5174029,0.4908302,79.50257,-34.447277,25.890959,STN
120447077871000,1.165031,5.80718950173904,6.10155097030408,-0.522498419159972,-0.2452624,0.58001655,0.5015204,79.05144,-34.845837,25.820406,STN
120447082837000,1.169997,5.79332384136477,6.29956200741806,-0.567164672953805,-0.2733622,0.64843345,0.5296202,78.56582,-35.273857,25.703543,STN
120447087889000,1.175049,5.82114547747748,6.59169034864865,-0.543979895495496,-0.29871312,0.7257079,0.5500842,78.06836,-35.695694,25.585505,STN
120447092933000,1.180093,5.86223174269733,6.9097345615289,-0.473227604014916,-0.31703907,0.77824235,0.56291234,77.54945,-36.141834,25.459879,STN
120447097860000,1.18502,5.94043345007251,7.29585503875078,-0.267948231882121,-0.3417791,0.79351395,0.5696318,77.02359,-36.571457,25.342619,STN
120447102910000,1.19007,6.04665024415867,7.73432235029886,0.00372767983608041,-0.36102137,0.7669413,0.56077427,76.48596,-37.04249,25.211464,STN
120447107989000,1.195149,6.20963729523637,8.2673340081507,0.408992593711284,-0.3726278,0.679893,0.5421429,75.96394,-37.500927,25.103994,STN
120447112949000,1.200109,6.37796540839895,8.82224385669291,0.813652510456693,-0.36102137,0.5305365,0.49357912,75.4538,-37.992355,24.991516,STN
120447117865000,1.205025,6.6102741496063,9.61802425984252,1.27826994125984,-0.28924468,0.3390302,0.41691554,74.987434,-38.490417,24.910446,STN
120447122896000,1.210056,6.8488229517199,10.4463953237101,1.70004205,-0.17073683,0.16982053,0.30818152,74.55432,-39.02731,24.825737,STN
120447127872000,1.215032,7.08787441347256,11.3196654940622,1.90982191666667,-0.019547688,0.09132435,0.17440203,74.16935,-39.586475,24.752464,STN
120447132859000,1.220019,7.32192199787337,12.1535258112131,2.07650253966167,0.18509217,0.12461651,-0.0015271631,73.81394,-40.235195,24.645412,STN
120447138114000,1.225274,7.55056656529725,12.89783700116,2.11055605720638,0.39645153,0.59895337,-0.23518312,73.41868,-40.923485,24.437202,STN
120447142911000,1.230071,7.76511873735726,13.5065472936378,2.22624052952692,0.59528816,0.8775079,-0.36774087,73.04576,-41.718292,24.239334,STN
120447147861000,1.235021,8.01161773511419,13.8303791400897,2.70957244887847,0.65668017,1.5170839,-0.65270954,72.56304,-42.55314,23.815018,STN
120447152911000,1.240071,8.30527761187215,14.0068736438356,3.28717708812785,0.6924158,2.0964894,-0.9401216,72.034424,-43.48685,23.338392,STN
120447157970000,1.24513,8.74773509531964,13.642768577911,4.16287367343037,0.5992588,2.408947,-1.2040154,71.4726,-44.401573,22.761822,STN
120447162934000,1.250094,9.21641166306165,13.2287234612133,4.94914432966277,0.40042216,2.402533,-1.3897184,70.88729,-45.274075,22.108017,STN
120447167862000,1.255022,9.91706754193295,12.4306253579786,5.23219060633173,0.16615535,2.1933117,-1.5106697,70.31966,-46.10504,21.424631,STN
120447172910000,1.26007,10.6358462481621,11.5907863620107,5.44233196642162,-0.03970624,1.9016235,-1.5598444,69.81517,-46.73165,20.781149,STN
120447177900000,1.26506,11.3574648911186,10.5273482575005,4.81566311881581,-0.22418754,1.6719382,-1.5442673,69.36277,-47.286335,20.1809,STN
120447182926000,1.270086,12.0579571658473,9.45860768848901,4.15682843229756,-0.37690386,1.5326608,-1.5085317,69.02,-47.64916,19.729477,STN
120447187892000,1.275052,12.4373308228365,8.43077033366107,3.17751563641592,-0.52381694,1.4905112,-1.459968,68.70447,-47.951233,19.321018,STN
120447192924000,1.280084,12.8217464978202,7.38927263541415,2.18518740667842,-0.62888575,1.518611,-1.4141531,68.4257,-48.157494,19.070786,STN
120447197862000,1.285022,12.9711973977695,6.46899057211896,1.35387216156134,-0.6750061,1.5509869,-1.3909402,68.151535,-48.333168,18.839945,STN
120447203911000,1.291071,13.1300116123624,5.37770152276046,0.41470241515993,-0.65484756,1.5500705,-1.3732251,67.87228,-48.48939,18.625534,STN
120447208085000,1.295245,13.2410151993212,4.89257522820117,0.447592346022832,-0.5723807,1.4746287,-1.3655893,67.57142,-48.65202,18.506065,STN
120447212882000,1.300042,13.3685868827522,4.33504028929343,0.485391339398334,-0.4978552,1.2657127,-1.3335189,67.25024,-48.81641,18.4583,STN
120447217856000,1.305016,13.7244508192409,4.07704415625667,0.795663377405106,-0.46486846,1.0048733,-1.2852604,66.957184,-48.986134,18.44418,STN
120447222898000,1.310058,14.1041406825551,3.84266756206194,1.13316566031939,-0.5030475,0.75777835,-1.2153164,66.702126,-49.147263,18.481197,STN
120447227869000,1.315029,14.6341263006078,3.78610332774287,1.46231539436489,-0.5555819,0.5589417,-1.1157454,66.48795,-49.23994,18.592108,STN
120447232850000,1.32001,15.1894305738127,3.75661808606161,1.79156631905841,-0.6236934,0.47769663,-0.9972375,66.288376,-49.305542,18.748222,STN
120447237890000,1.32505,15.644956447138,4.00501601999038,2.04073224957191,-0.66889745,0.376293,-0.93584555,66.14342,-49.285534,18.981428,STN
120447242961000,1.330121,16.093454810101,4.28065587163059,2.28366890756133,-0.73914695,0.35338554,-0.82802784,65.96869,-49.21931,19.252361,STN
120447247860000,1.33502,15.9660297684523,4.70295287726302,2.20952330700956,-0.8179486,0.4269948,-0.7302894,65.779625,-49.0814,19.569939,STN
120447252892000,1.340052,15.7378509230341,5.16378475471173,2.07977455818401,-0.86467975,0.59681535,-0.68111473,65.56148,-48.927944,19.884428,STN
120447257951000,1.345111,15.0652804064321,5.61399621490395,1.94188308289445,-0.8772025,0.7666359,-0.67103547,65.3043,-48.748703,20.218103,STN
120447262848000,1.350008,14.2251114284481,6.04420305551479,1.80522914280164,-0.8881981,0.86315256,-0.68019843,65.01925,-48.55843,20.535694,STN
120447267854000,1.355014,13.3146221745386,6.35646060635116,1.61960530495977,-0.8720101,0.8585711,-0.6988298,64.675316,-48.46253,20.778255,STN
120447272910000,1.36007,12.3842550044487,6.64519539056318,1.42253247474681,-0.83077675,0.818254,-0.70554936,64.31821,-48.37343,21.0069,STN
120447277923000,1.365083,11.3903734260706,6.77029460940919,1.13260285295405,-0.73975784,0.7800749,-0.7113526,63.932457,-48.397987,21.121569,STN
120447282876000,1.370036,10.382087236949,6.83454813347921,0.811335232603939,-0.6081163,0.72356987,-0.6988298,63.560333,-48.44128,21.24918,STN
120447287885000,1.375045,9.51851726573218,6.75563032708023,0.452509101453325,-0.46211955,0.6771441,-0.6612616,63.120228,-48.61962,21.236172,STN
120447292873000,1.380033,8.69695910329058,6.64165673372105,0.0868443737583258,-0.30604348,0.600786,-0.6035349,62.696846,-48.822334,21.251501,STN
120447297859000,1.385019,8.12660610566322,6.521927825381,0.0308313728208843,-0.16523905,0.48930305,-0.52198434,62.149563,-49.168365,21.111298,STN
120447302912000,1.390072,7.61674157817498,6.39901414703669,0.0581455440042333,-0.07941248,0.39370266,-0.45814893,61.61676,-49.51864,21.006475,STN
120447307934000,1.395094,7.23604439863071,6.16106276525934,0.194522430191909,-0.046731193,0.3231477,-0.4202753,61.081047,-49.919174,20.870632,STN
120447312909000,1.400069,6.91973162788382,5.8694618619917,0.382333144273859,-0.045814894,0.27305678,-0.39400807,60.561203,-50.307606,20.775326,STN
120447317850000,1.40501,6.93781241239507,5.48780269092695,0.671514799071263,-0.06841691,0.25503623,-0.38698313,60.032143,-50.687305,20.634686,STN
120447322937000,1.410097,7.07702940167887,5.06145094516878,1.0065055148598,-0.09254608,0.24220806,-0.36774087,59.51464,-51.044758,20.525826,STN
120447327864000,1.415024,7.21877868771525,4.79709778338933,1.18202528324234,-0.12003502,0.21013765,-0.35216382,58.996426,-51.3442,20.396809,STN
120447332858000,1.420018,7.36942937805544,4.67908805323394,1.20964455724486,-0.14294247,0.19425514,-0.34422258,58.483128,-51.62484,20.284122,STN
120447337890000,1.42505,7.52122638922722,4.56018037158757,1.2374739899202,-0.15699236,0.13255776,-0.32345316,57.968704,-51.810127,20.19703,STN
120447342959000,1.430119,7.6741395548929,4.44039836875262,1.26550805077698,-0.172264,0.03970624,-0.29016098,57.47085,-51.97921,20.134447,STN
120447347863000,1.435023,7.70600523722304,4.30212210192024,1.16083063087149,-0.1685988,-0.070249505,-0.2510656,56.972145,-52.136646,20.09413,STN
120447352908000,1.440068,7.68697413599212,4.1498738882324,0.994309240300345,-0.16157386,-0.17684549,-0.2098322,56.4979,-52.279324,20.086954,STN
120447357980000,1.44514,7.59994171939436,3.9730476422552,0.877227466206793,-0.15302174,-0.26236662,-0.16737708,56.022804,-52.37095,20.148485,STN
120447362959000,1.450119,7.48119760344656,3.78780682137663,0.786981863691603,-0.13683382,-0.31215215,-0.1133155,55.563126,-52.453465,20.241802,STN
120447367853000,1.455013,7.30994153341081,3.61800186368391,0.762533059209762,-0.089491755,-0.36957347,-0.052534413,55.103516,-52.53387,20.374708,STN
120447372900000,1.46006,7.10398522312609,3.44949242631222,0.771894740780554,-0.058337633,-0.43676865,0.019242255,54.65407,-52.599384,20.539278,STN
120447377860000,1.46502,6.87959286699009,3.23479843382858,0.767309002739034,-0.027794369,-0.5009095,0.08246681,54.21241,-52.657536,20.727692,STN
120447382900000,1.47006,6.63567194521932,2.98112052236709,0.752673696492824,-0.025045475,-0.5540548,0.15241088,53.77718,-52.699055,20.94924,STN
120447387894000,1.475054,6.39149152747545,2.70379184487474,0.733645602395155,-0.036957346,-0.57604593,0.21502456,53.34049,-52.71914,21.173588,STN
120447393549000,1.480709,6.11317787679178,2.3708094404515,0.708796192465816,-0.05222898,-0.5687156,0.27366763,52.90339,-52.72419,21.42208,STN
120447397863000,1.485023,5.91014541830944,2.10423155188172,0.652856187738949,-0.06841691,-0.5674938,0.31673363,52.467255,-52.70225,21.669634,STN
120447402873000,1.490033,5.68562833378136,1.77939814596774,0.54298607468638,-0.07574729,-0.5699373,0.35308012,52.025967,-52.667557,21.933035,STN
120447407941000,1.495101,5.49626511405277,1.47506421993404,0.441238483982228,-0.05100725,-0.59681535,0.3848451,51.593052,-52.612194,22.19385,STN
120447412861000,1.500021,5.36245652849029,1.21176345188714,0.354910354814034,-0.024740042,-0.6215554,0.41080686,51.159615,-52.54909,22.46526,STN
120447417844000,1.505004,5.24518121113908,0.957891611915251,0.252116918910216,0.018936822,-0.66828656,0.43310347,50.739124,-52.483295,22.740894,STN
120447422899000,1.510059,5.18932664238515,0.744628372739669,0.0947083296103419,0.04795292,-0.70188415,0.4605924,50.320713,-52.41322,23.02877,STN
120447427844000,1.515004,5.14225235865412,0.568813660284235,-0.0527332798421647,0.083383106,-0.7131852,0.49388456,49.91272,-52.339535,23.328224,STN
120447432856000,1.520016,5.11062920951529,0.460392481878588,-0.188259747188612,0.11178834,-0.7458665,0.5131268,49.520466,-52.266415,23.641533,STN
120447437852000,1.525012,5.07941627001147,0.36958362434964,-0.327197752927923,0.1459968,-0.7672467,0.5375614,49.122833,-52.192757,23.975422,STN
120447442980000,1.53014,5.04868111231877,0.349093437204548,-0.485996738070304,0.19058995,-0.784351,0.573297,48.730797,-52.118763,24.323545,STN
120447447839000,1.534999,5.00258485655804,0.351128393943875,-0.629627380478777,0.21563543,-0.78954333,0.6096435,48.347942,-52.049377,24.688108,STN
120447452880000,1.54004,4.91032416222088,0.409398383814122,-0.760734836137598,0.24770586,-0.79504114,0.64812803,47.9663,-51.97917,25.067244,STN
120447457980000,1.54514,4.81274768195763,0.483226514903214,-0.88131281917458,0.25473082,-0.8005389,0.679893,47.61522,-51.89875,25.483093,STN
120447463177000,1.550337,4.70368110149744,0.592292986222608,-0.976746005898466,0.2678644,-0.8042041,0.70463306,47.26139,-51.814198,25.909126,STN
120447467866000,1.555026,4.60105109528371,0.691825758018739,-1.05138402080219,0.27580565,-0.8054258,0.7287622,46.99271,-51.714653,26.384302,STN
120447472899000,1.560059,4.45389871142226,0.808532947878724,-1.03108707997684,0.3005457,-0.8063421,0.7425067,46.721516,-51.610847,26.863737,STN
120447477874000,1.565034,4.30922237283285,0.926565647999628,-1.00514827491034,0.30665436,-0.7959574,0.766025,46.502876,-51.496468,27.366383,STN
120447482854000,1.570014,4.16742539801171,1.055069099751,-0.956405609928459,0.32650748,-0.7993172,0.7791586,46.286644,-51.380623,27.871347,STN
120447488000000,1.57516,4.0199969034875,1.18662900885288,-0.900720325732375,0.35705075,-0.8014552,0.79045963,46.080208,-51.269745,28.356499,STN
120447492954000,1.580114,3.8672653865007,1.29863209650177,-0.783626159165147,0.3921755,-0.7877107,0.8029824,45.867165,-51.15255,28.842802,STN
120447497856000,1.585016,3.73578550728805,1.40962715164105,-0.654546503581557,0.4269948,-0.77396625,0.8005389,45.66229,-51.053764,29.291481,STN
120447502897000,1.590057,3.68791575141299,1.52451461572633,-0.463067340122955,0.462425,-0.76144356,0.8014552,45.45104,-50.95064,29.74172,STN
120447507956000,1.595116,3.65056428092416,1.6319869163335,-0.268639293890105,0.49968776,-0.7583892,0.799928,45.21357,-50.878876,30.127625,STN
120447512940000,1.6001,3.66015358704169,1.70390676228026,-0.0672637232365645,0.52839845,-0.7742717,0.78954333,44.980324,-50.806778,30.512524,STN
120447517857000,1.605017,3.67210976164003,1.77303358902015,0.136018605164698,0.56077427,-0.8005389,0.766025,44.696518,-50.78395,30.810446,STN
120447522889000,1.610049,3.69603036999901,1.83522722070883,0.365656613260796,0.5839872,-0.84574294,0.73273283,44.430553,-50.761337,31.110804,STN
120447527862000,1.615022,3.72654921504826,1.90812732207997,0.586931688585779,0.600786,-0.872621,0.6966918,44.196793,-50.735554,31.398514,STN
120447533303000,1.620463,3.79839324217057,2.05181532273981,0.797331873837896,0.6026186,-1.0100657,0.6588182,44.018528,-50.71202,31.69818,STN
120447537872000,1.625032,3.86850181006289,2.18458228592163,0.965487588316401,0.6133087,-1.061073,0.6383542,43.844166,-50.68212,31.976751,STN
120447542902000,1.630062,4.00833138113208,2.40830982351234,1.09599535507983,0.6169739,-1.1979067,0.6044512,43.74683,-50.656845,32.269196,STN
120447547916000,1.635076,4.15538009537902,2.6405189885262,1.21946622969226,0.6102544,-1.3396275,0.6035349,43.745914,-50.590107,32.605583,STN
120447552913000,1.640073,4.39533887508603,2.98398941218169,1.26181191114935,0.5891795,-1.4908166,0.6035349,43.792645,-50.524563,32.94691,STN
120447558001000,1.645161,4.64977023479916,3.34336959625363,1.30891059567264,0.5897904,-1.627345,0.6209445,43.90391,-50.447838,33.308987,STN
120447562908000,1.650068,5.05460166708404,3.84234779323851,1.41717937507763,0.5882632,-1.7449366,0.6426302,44.052555,-50.361816,33.681293,STN
120447568061000,1.655221,5.48464069432617,4.39397828222596,1.53043130347559,0.59131753,-1.8771889,0.655153,44.209015,-50.289513,34.047752,STN
120447572947000,1.660107,5.95260981453609,5.25578261237746,1.63236519423705,0.63255095,-1.997224,0.66981375,44.392193,-50.21072,34.425045,STN
120447578162000,1.665322,6.44521613590103,6.19814474723636,1.74121603004036,0.6814202,-2.107485,0.6762278,44.623245,-50.13427,34.814472,STN
120447582905000,1.670065,6.81185049363923,7.32195839949991,1.84084491305492,0.7593055,-2.195755,0.66889745,44.880905,-50.060287,35.20483,STN
120447587859000,1.675019,7.19479517174066,8.49576671350237,1.94490594751711,0.8781188,-2.2605069,0.6579019,45.18359,-50.01138,35.585052,STN
120447592980000,1.68014,7.48640410022004,10.0456274218844,1.9401319209842,1.0036516,-2.3038783,0.6356053,45.504063,-49.969223,35.955048,STN
120447597857000,1.685017,7.72932435807161,11.6339518845769,1.89808801519304,1.1343768,-2.2944098,0.61208695,45.82287,-49.935577,36.311466,STN
120447603039000,1.690199,7.7886603174677,13.1781841836479,1.59505780243562,1.2287555,-2.1933117,0.6017023,46.18562,-49.971756,36.587597,STN
120447607985000,1.695145,7.7798534304174,14.6048711486939,1.22077268939295,1.2571607,-1.9669861,0.5907067,46.49439,-50.00892,36.836105,STN
120447612897000,1.700057,7.60801006475256,15.8224145410315,0.806775508362915,1.2568552,-1.5968018,0.5546656,46.809513,-50.173035,36.929214,STN
120447617929000,1.705089,7.32122194756734,16.9343486312383,0.353951906901232,1.2183707,-1.1713341,0.47891834,47.017612,-50.332005,36.98662,STN
120447622948000,1.710108,6.88921528502429,17.3563052413022,0.248963475134111,1.1878275,-0.79168135,0.35827246,47.335163,-50.611153,36.91895,STN
120447627910000,1.71507,6.39507998817298,17.4579027940719,0.304380523314869,1.1872166,-0.6469063,0.27855456,47.574112,-50.880825,36.83391,STN
120447632897000,1.720057,5.96119837458112,17.0046613371475,0.633591705116469,1.2067643,-0.45265114,0.112399206,47.833645,-51.30605,36.574345,STN
120447637887000,1.725047,5.56572935292195,16.2088409652636,1.13158960626073,1.3115277,-0.37232238,-0.03970624,48.06863,-51.733135,36.310333,STN
120447643022000,1.730182,5.48529899174157,14.1125703699438,2.33990982542135,1.4037683,-0.36743546,-0.17440203,48.301487,-52.237858,35.94603,STN
120447647902000,1.735062,5.56406557301498,11.5132744673221,3.8189704284176,1.4792101,-0.42455134,-0.30726522,48.52098,-52.76664,35.55759,STN
120447652936000,1.740096,6.01375677976359,9.55050192321681,5.15639340253587,1.5149459,-0.5216789,-0.44501534,48.703777,-53.295105,35.1459,STN
120447658038000,1.745198,6.80358704937361,8.21272742048899,6.34113867808648,1.4676038,-0.66431594,-0.59528816,48.916973,-53.84188,34.71559,STN
120447662918000,1.750078,7.84799205657715,7.10723966129542,7.55940485803054,1.3616186,-0.84849185,-0.7333437,48.89477,-54.186005,34.415855,STN
120447667908000,1.755068,9.14650394104265,6.11574006255924,8.87301618293839,1.1908818,-1.0409144,-0.86315256,48.93655,-54.54589,34.09808,STN
120447672932000,1.760092,10.4392335562259,5.53365547997231,9.43619553328059,0.98349303,-1.2990049,-0.96577793,49.09393,-54.765053,33.906456,STN
120447677927000,1.765087,11.7166305802591,5.17882275373356,9.58759081663535,0.73731434,-1.6132951,-1.0235047,49.337566,-54.98532,33.708855,STN
120447682908000,1.770068,12.6596801510649,4.98472071594849,8.33349674591382,0.4120286,-1.9291124,-1.0143417,49.61933,-55.009094,33.6768,STN
120447687930000,1.77509,13.4124259650322,4.88467237722635,6.22771468766716,0.036957346,-2.1114557,-0.93676186,49.9581,-55.004745,33.659157,STN
120447692938000,1.780098,13.7213566052429,4.9588366924441,3.93943103373169,-0.3436117,-2.0308216,-0.8359691,50.286392,-54.809002,33.827663,STN
120447698001000,1.785161,13.7493943828065,5.14575800713184,1.50478164673285,-0.6759224,-1.6276505,-0.7098254,50.557037,-54.563362,34.01422,STN
120447702942000,1.790102,13.8216225083258,5.37441837266122,-0.0332506287314562,-0.98349303,-1.0100657,-0.569021,50.792698,-54.170464,34.406796,STN
120447707984000,1.795144,13.9337010444041,5.64730475419316,-0.886020386567767,-1.2754866,-0.464563,-0.4352415,50.90539,-53.73131,34.803867,STN
120447712945000,1.800105,14.1753113003244,5.7804884664377,-1.50619545785155,-1.5809193,-0.10629055,-0.30970868,50.95557,-53.26329,35.28706,STN
120447718695000,1.805855,14.5745731539783,5.81200902072124,-2.0262867977676,-1.8707749,0.05100725,-0.22540927,50.88678,-52.76942,35.75653,STN
120447722918000,1.810078,14.9965307146571,5.68776346927281,-1.94367721809971,-2.0754147,0.08307768,-0.19303341,50.8443784108352,-52.3777070685409,36.1492978870648,STN
120447747933000,1.835093,18.1501564085183,4.20276465926815,0.906562277384523,-1.6749926,-0.57604593,-0.31490102,50.593212,-50.05739,38.475864,STN
120447753495000,1.840655,18.41720500694,4.21423077457988,0.915172564254201,-1.352761,-1.3377949,-0.3371976,50.910473,-49.606575,39.026337,STN
120447757972000,1.845132,18.2981835635751,4.48627995284787,0.441212006471521,-0.9505063,-2.2293527,-0.31398472,51.432095,-49.19747,39.57844,STN
120447762883000,1.850043,18.1676241915927,4.78470155536608,-0.0786942475536608,-0.45906523,-2.4141395,-0.2171626,51.874332,-48.68202,40.187042,STN
120447767905000,1.855065,18.0341138747336,5.08986817883309,-0.610351589788331,-0.048563786,-1.248914,-0.064751714,52.137043,-48.180206,40.770603,STN
120447772897000,1.860057,17.3008612644973,5.24603174307916,-1.49596045883439,0.18509217,0.8151997,0.08735373,52.138844,-47.683083,41.326168,STN
120447777916000,1.865076,15.7134463867897,5.19467413695969,-2.89195187096163,0.24007004,2.4856107,0.2012801,51.835934,-47.1791,41.85839,STN
120447782859000,1.870019,14.3117126650718,5.11871172129187,-4.07352221602871,0.22235495,3.2965343,0.32375857,51.137154,-46.741676,42.305386,STN
120447788069000,1.875229,13.147890484051,4.98939808791866,-4.94390246862041,0.118507855,3.610519,0.45814893,49.99513,-46.283573,42.712326,STN
120447792897000,1.880057,12.1352261499654,4.8632795193392,-5.52494319240281,-0.035430185,3.796833,0.6017023,48.72412,-46.013893,42.942455,STN
120447797886000,1.885046,11.2088612863785,4.7214888228806,-5.71399712533386,-0.1777618,3.9739838,0.70707655,47.355427,-45.72101,43.17585,STN
120447802870000,1.89003,10.3335387207855,4.60311259624733,-5.74441741707175,-0.28221974,4.1129556,0.7538077,46.025772,-45.52001,43.33297,STN
120447808024000,1.895184,9.53696311763562,4.53113297268131,-5.43250571495236,-0.3707952,4.1508293,0.766025,44.69285,-45.296875,43.50273,STN
120447812844000,1.900004,8.84586549676838,4.54910482516258,-5.06141112656328,-0.41233405,4.062865,0.7458665,43.38023,-45.100918,43.63797,STN
120447817908000,1.905068,8.27331552114057,4.81111932641321,-4.44519148474237,-0.42210788,3.857614,0.71593404,42.129044,-44.90598,43.77586,STN
120447823543000,1.910703,7.73334472119601,5.17562443813953,-3.78289577488372,-0.43127087,3.5323284,0.70707655,40.96525,-44.744267,43.872738,STN
120447827912000,1.915072,7.45135942514476,5.56087211707641,-3.30232928910299,-0.47128254,3.33227,0.71837753,39.860844,-44.58559,43.971867,STN
120447832889000,1.920049,7.11324604488249,5.95903370105193,-2.78306895395186,-0.5045747,2.889698,0.7516697,39.003227,-44.517635,44.003532,STN
120447837885000,1.925045,6.68702361122062,6.14947348463798,-2.40672361661296,-0.5723807,2.4120014,0.7846564,38.26035,-44.44007,44.058807,STN
120447842930000,1.93009,6.26378404545643,6.34197009890042,-2.04133605462656,-0.6762278,1.930945,0.75869465,37.70848,-44.432194,44.052567,STN
120447847906000,1.935066,5.95729450039419,6.53476207018672,-1.90786481695021,-0.7840455,1.4715744,0.68630713,37.350033,-44.4195,44.078022,STN
120447852927000,1.940087,5.704686910465,6.75689820558003,-1.78715592661772,-0.8765916,1.0531317,0.61819565,37.133827,-44.445423,44.0667,STN
120447857994000,1.945154,5.82819799927558,7.1654353113069,-1.75865329516397,-0.9398162,0.6835582,0.6075055,37.085384,-44.466854,44.081345,STN
120447862880000,1.95004,5.95643802400515,7.56011338259751,-1.73867104514948,-0.97524637,0.35308012,0.63713247,37.141922,-44.50431,44.082825,STN
120447867889000,1.955049,6.19386745030687,7.97324084715898,-1.80515126468026,-1.0045679,0.064446285,0.6646214,37.328175,-44.539715,44.10178,STN
120447872970000,1.96013,6.436883443818,8.40139887240356,-1.83465471335312,-1.0204504,-0.1872302,0.66889745,37.574814,-44.561893,44.135918,STN
120447877911000,1.965071,6.69898673058358,8.9256052504451,-1.41341730913947,-1.01312,-0.48380527,0.6627888,37.94801,-44.57918,44.191605,STN
120447883067000,1.970227,6.96215650469219,9.4746216847322,-0.950491748071292,-0.96669424,-0.88789266,0.6600399,38.427147,-44.587498,44.269886,STN
120447887927000,1.975087,7.0848950821224,10.0163638562335,-0.230990279325271,-0.8698721,-1.4144585,0.68783426,39.063957,-44.593037,44.371544,STN
120447893329000,1.980489,7.22132178896972,10.6185225415113,0.568751888198599,-0.72234815,-2.0350976,0.7125743,39.85849,-44.650036,44.43508,STN
120447897889000,1.985049,7.09485188304274,10.7117337291901,1.01810125264623,-0.539394,-2.6621506,0.72418076,40.845844,-44.70753,44.51793,STN
120447902862000,1.990022,6.93413592532808,10.7742341955381,1.48685576182415,-0.35460728,-3.232699,0.6603453,42.037773,-44.78393,44.59578,STN
120447907977000,1.995137,6.63751241460987,10.4241910750398,1.66253094730295,-0.20005837,-3.7076466,0.52778757,43.348095,-44.933273,44.58582,STN
120447912846000,2.000006,6.3033840736465,9.92763932921974,1.70893768286226,-0.09193522,-4.053091,0.39614612,44.797333,-45.10077,44.55317,STN
120447917905000,2.005065,6.04659571411555,9.33284569833234,1.46452133090133,0.007330383,-4.178013,0.31520647,46.244583,-45.302536,44.459488,STN
120447922924000,2.010084,5.83188773674806,8.70780682013103,1.09236058769109,0.06688975,-4.3148465,0.2837469,47.787846,-45.523533,44.331375,STN
120447927912000,2.015072,5.79164334766881,8.05828682315112,0.58405242011656,0.106901415,-4.320039,0.22937989,49.245853,-45.750706,44.171246,STN
120447932903000,2.020063,5.83006582295016,7.39549486173634,0.0125147051024919,0.16584991,-4.238183,0.17898351,50.672455,-45.981815,43.986134,STN
120447937882000,2.025042,5.89747015650451,6.77013825942733,-0.470341452313485,0.23732115,-4.0872993,0.11881329,52.018547,-46.172558,43.821266,STN
120447942947000,2.030107,5.97917142178738,6.15016971360349,-0.922101453522243,0.31306845,-3.8902953,0.05467244,53.26558,-133.6265,43.626232,STN
120447947898000,2.035058,6.06575193791833,5.53876147322709,-1.13055065835657,0.4343252,-3.6884043,-0.018325957,54.42657,-133.49777,43.484367,STN
120447952925000,2.040085,6.156858652251,4.91540105593625,-1.23124732651394,0.59712076,-3.5158348,-0.10567969,55.478683,-133.35522,43.310757,STN
120447958045000,2.045205,6.33325898896283,4.2889151218798,-1.10385567299887,0.84329945,-3.35365,-0.19792034,56.474762,-133.29752,43.199326,STN
120447962911000,2.050071,6.53842229312993,3.69728076565988,-0.879607186458483,1.187522,-3.0692923,-0.28771752,57.31833,-133.23074,43.060665,STN
120447967894000,2.055054,6.93385292432113,3.31629628288076,-0.995162522849272,1.600467,-2.4834726,-0.36987892,57.914337,-133.23553,42.97795,STN
120447972947000,2.060107,7.40996081266234,3.02110950844156,-1.25226081337662,2.090381,-1.493871,-0.41996986,58.214275,-133.25171,42.898975,STN
120447977912000,2.065072,7.89063767549387,3.00668472738324,-1.49678867940432,2.5567765,-0.22540927,-0.44837508,58.169365,-133.36662,42.922592,STN
120447982885000,2.070045,8.37794109407355,3.11765477140107,-1.73802794714821,2.905275,1.0647382,-0.44684792,57.72651,-133.5048,42.984367,STN
120447987880000,2.07504,8.50335977835051,3.57407139824544,-0.383455853172086,3.112053,2.146275,-0.41172317,56.909996,-133.76988,43.186077,STN
120447992933000,2.080093,8.47457851546392,4.18328372858842,1.66963755281523,3.1807754,2.855184,-0.3378085,55.762306,-134.06372,43.442062,STN
120447997862000,2.085022,8.3725081577622,4.6085483235236,3.24529359280071,3.12763,3.1224377,-0.24465153,54.44781,-134.4357,43.78784,STN
120448002882000,2.090042,8.23482328021924,4.96462823661861,4.65537089143788,3.0045407,2.9113839,-0.1591304,53.084454,-134.82675,44.161144,STN
120448007991000,2.095151,8.11854574202463,5.32263816348298,5.41166349454087,2.817616,2.40742,-0.04734206,51.77799,-135.0614,44.42505,STN
120448012916000,2.100076,8.01793042276738,5.66564557403277,5.81412544014351,2.5228734,1.8252654,0.0571159,50.597492,-135.30644,44.696552,STN
120448017856000,2.105016,7.78546684331109,5.98708690736129,5.86015469116446,2.1743748,1.5815301,0.101098195,49.39587,-135.426,44.882736,STN
120448022954000,2.110114,7.45476310250025,6.30320063835043,5.66075966763622,1.9963076,1.2308935,0.16554448,48.479122,-135.57584,45.074295,STN
120448027907000,2.115067,7.02817823538799,6.6219176818472,5.30791001675643,1.6722436,1.103528,0.19028452,47.533024,-135.63416,45.201965,STN
120448032908000,2.120068,6.52659953356274,6.95152662855576,4.84454686594853,1.4272866,1.1646146,0.172264,46.65731,-135.6957,45.32516,STN
120448037887000,2.125047,6.02914655003964,7.22011514026952,4.37111190118906,1.2696834,1.382388,0.11636983,45.820114,-135.68092,45.371357,STN
120448043001000,2.130161,5.5195887960761,7.45305581331748,3.876112882283,1.1600331,1.7128662,0.04062254,44.92009,-135.65007,45.405087,STN
120448047860000,2.13502,5.18494234603436,7.56371801392544,3.55222088336075,1.0555751,2.025629,-0.029932396,44.02927,-135.52713,45.339916,STN
120448052914000,2.140074,4.95054323839547,7.59467653475877,3.32666715315241,0.9193522,2.1487186,-0.0852157,43.100643,-135.38675,45.253986,STN
120448057959000,2.145119,4.78517139386982,7.58710581605112,3.16669109386982,0.74220127,2.0030272,-0.09560041,42.30889,-135.17476,45.082256,STN
120448062887000,2.150047,4.72894495808513,7.52065622211632,3.11046465808513,0.5164866,1.6175711,-0.03145956,41.59772,-134.9719,44.912262,STN
120448067896000,2.155056,4.65085028660791,7.43036365098189,2.90274234478398,0.23640485,1.0714576,0.049785517,41.121952,-134.74295,44.704597,STN
120448072954000,2.160114,4.55340502639142,7.31899781927388,2.55936437175975,-0.04734206,0.4978552,0.112399206,40.836697,-134.53159,44.507954,STN
120448078446000,2.165606,4.50651492759393,7.07778677492109,1.99864291465228,-0.2648101,0.10751228,0.1386664,40.733906,-134.33371,44.319557,STN
120448082902000,2.170062,4.51520537532838,6.78665797817941,1.39465949675186,-0.39522982,-0.03481932,0.10903945,40.766834,-134.1394,44.131687,STN
120448087919000,2.175079,4.69922704086605,6.35829005678635,0.681334401057408,-0.3903429,0.10445796,0.027183503,40.874752,-133.94432,43.94007,STN
120448092950000,2.18011,5.06992276293154,5.82125671112646,-0.0695617126849478,-0.32162055,0.47128254,-0.07391469,40.945137,-133.73645,43.734997,STN
120448097897000,2.185057,5.46122177600549,5.32223164425152,-0.676031026221307,-0.26145032,0.92485,-0.16829337,40.971287,-133.5694,43.569046,STN
120448102929000,2.190089,5.89140959833235,4.84949785221699,-1.13458285138905,-0.24678956,1.3478742,-0.23182335,40.864536,-46.614655,43.385273,STN
120448107934000,2.195094,6.28622247593647,4.38375521315553,-1.35780574554989,-0.27580565,1.641395,-0.27214047,40.67355,-46.70846,43.29096,STN
120448112939000,2.200099,6.63574085901508,3.92411448131056,-1.26204731182699,-0.32528573,1.7489072,-0.28771752,40.396988,-46.809566,43.18837,STN
120448117854000,2.205014,6.90034954678416,3.55296706523023,-1.0745147528052,-0.38423425,1.7162259,-0.28771752,40.065285,-46.808426,43.188076,STN
120448122920000,2.21008,7.0570409688567,3.28883035036449,-0.743224554641506,-0.40103304,1.4963144,-0.2828306,39.77544,-46.808254,43.18683,STN
120448127841000,2.215001,7.20000602029076,3.08861693497542,-0.494475140928773,-0.42577308,1.153619,-0.26542094,39.457203,-46.71743,43.275864,STN
120448132909000,2.220069,7.31676270076352,3.06831132853258,-0.479245999705052,-0.3830125,0.7761043,-0.23182335,39.24843,-46.62119,43.371613,STN
120448137863000,2.225023,7.43513860614774,3.07979750505702,-0.61029186222707,-0.32528573,0.43096542,-0.19333886,39.047897,-46.480904,43.51099,STN
120448143023000,2.230183,7.56743824323252,3.15819727104611,-1.05619029720972,-0.24312437,0.21502456,-0.14813483,38.94956,-46.330215,43.662304,STN
120448148467000,2.235627,7.703535640353,3.27903284778449,-1.52062971061774,-0.16340645,0.13133603,-0.11728613,38.91098,-46.16268,43.831467,STN
120448152932000,2.240092,7.81078415228983,3.42600326891779,-1.8940139565072,-0.07544186,0.15699236,-0.0870483,38.914436,-45.983604,44.012638,STN
120448157934000,2.245094,7.91352358399811,3.59646532854314,-2.2656223443753,-0.003970624,0.24037547,-0.0720821,38.98361,-45.799866,44.19916,STN
120448162902000,2.250062,7.93146886196134,3.79386399513437,-2.40918498969354,0.06078109,0.35827246,-0.03359759,39.024174,-45.600624,44.399372,STN
120448167938000,2.255098,7.92479322781417,3.99616929994044,-2.53377542447886,0.11453723,0.43249258,0.0018325958,39.067757,-134.60373,44.602264,STN
120448172945000,2.260105,7.44880491497915,4.23892336185229,-2.26246207870756,0.18845193,0.49174652,0.052534413,39.065826,-134.82544,44.819633,STN
120448178035000,2.265195,6.93750914355498,4.4931100219021,-1.96925916056226,0.2510656,0.52412236,0.11026118,39.020866,-135.04318,45.03028,STN
120448182901000,2.270061,5.98979182914964,4.86011828508623,-1.3978414285475,0.34422258,0.55833083,0.1826487,38.950474,-135.28214,45.25933,STN
120448188174000,2.275334,4.96145544458443,5.23968358872937,-0.793155810649575,0.47708577,0.64721173,0.24770586,38.811317,-135.44598,45.41405,STN
120448192967000,2.280127,4.01105541140736,5.37417402653579,-0.412099178700264,0.6462954,0.82650065,0.27275133,38.62259,-135.62292,45.58058,STN
120448198227000,2.285387,2.9941998271982,5.51131156948649,-0.00056856924063063,0.78801614,1.0433578,0.226631,38.35763,-135.62405,45.5777,STN
120448202942000,2.290102,2.68503290201802,5.39334010313514,0.215034684746306,0.8304713,1.1902709,0.12797627,38.053658,-135.62198,45.57198,STN
120448207950000,2.29511,2.35665369495495,5.26803764216216,0.444035977634234,0.68294734,1.1835514,0.05009095,37.654396,-135.47089,45.42573,STN
120448212998000,2.300158,2.70428913877044,5.31288993656181,0.522786150994359,0.35308012,1.1337659,0.012217305,37.226276,-135.30608,45.267918,STN
120448218219000,2.305379,3.27796357349651,5.41328274299646,0.556250494684004,0.1572978,0.9599747,0.0070249503,36.865032,-135.13306,45.09997,STN
120448222930000,2.31009,4.26157752703603,5.61399180884045,0.416497830647896,-0.37782016,0.915687,0.013744468,36.4684,-134.91336,44.892868,STN
120448227900000,2.31506,5.50085056306388,5.87337464928853,0.195542178543748,-0.5119051,0.8549059,0.0290161,36.162075,-134.70041,44.68704,STN
120448232902000,2.320062,6.85243676208178,6.356365266171,0.0589917060594796,-0.70341134,0.7968737,0.05131268,35.82475,-134.53815,44.532806,STN
120448237892000,2.325052,8.24964227700191,6.9421353649352,-0.0370361587651964,-0.7467828,0.7147123,0.061086524,35.536472,-134.38028,44.379097,STN
120448242956000,2.330116,9.54510985377585,7.72253154112554,0.00400300163540164,-0.65057147,0.58459806,0.014966198,35.280437,-134.34357,44.343548,STN
120448247910000,2.33507,10.759152010582,8.56688400952381,0.104412527513228,-0.4288274,0.43127087,-0.08002335,35.07718,-45.704082,44.295593,STN
120448252919000,2.340079,11.5139022155089,10.4229753424091,0.214436990482971,-0.13439035,0.33536503,-0.19547687,34.88575,-45.67276,44.32639,STN
120448258051000,2.345211,11.9820251448913,12.9716443502982,0.332649830690783,0.15424347,0.3839288,-0.29749137,34.702885,-45.666195,44.332676,STN
120448262888000,2.350048,11.9766006678952,14.2742340843571,0.501197978525799,0.4166101,0.5656612,-0.38820487,34.46953,-45.648983,44.34989,STN
120448267906000,2.355066,11.5879381254095,14.6825758892301,0.725047999508599,0.6197228,0.86437434,-0.4636467,34.173847,-45.65682,44.342163,STN
120448272920000,2.36008,11.1995853976249,15.0905921924652,0.948719582850123,0.7626653,1.1985176,-0.5500842,33.820377,-45.937206,44.061,STN
120448277908000,2.365068,10.8132464653972,15.4964927350532,1.17123132152334,0.818254,1.4801265,-0.6337727,33.381493,-46.22159,43.775356,STN
120448282896000,2.370056,10.2868011810865,15.3899861448692,1.79263561307847,0.7834347,1.6517797,-0.7516697,32.85075,-46.526207,43.46854,STN
120448287984000,2.375144,9.66423575331992,14.9684064426559,2.67010999440644,0.6899723,1.6820174,-0.906524,32.286636,-46.849262,43.142242,STN
120448292968000,2.380128,10.1715646059845,13.4489293988352,3.90384258166483,0.54611355,1.6157386,-1.067487,31.71685,-47.355644,42.628323,STN
120448297905000,2.385065,11.2634972402852,11.3600142552465,5.3233554524149,0.34055737,1.4862351,-1.2055426,31.189745,-47.873398,42.100246,STN
120448302931000,2.390091,12.0425888324092,10.0729028456448,5.71515432541585,0.06169739,1.3695599,-1.2904528,30.64898,-48.43839,41.51539,STN
120448307974000,2.395134,12.6429394466106,9.23932227580039,5.53375334902522,-0.32742378,1.2486086,-1.3185526,30.193007,-48.99852,40.928055,STN
120448312903000,2.400063,13.0830985337206,8.45507174791868,5.0970521935463,-0.7703011,1.1927143,-1.3066407,29.59326,-49.307106,40.571827,STN
120448317912000,2.405072,13.3204471189631,7.70174788835108,4.28181123209638,-0.981355,1.0525209,-1.2476922,29.094778,-49.593224,40.22817,STN
120448322942000,2.410102,13.4163731326383,7.08619633949223,3.37048777325997,-1.3793337,0.91232723,-1.1640037,28.591194,-49.702854,40.04105,STN
120448327908000,2.415068,13.3980091436432,6.59036571234675,2.39719055590308,-1.7033978,0.7690793,-1.0650436,28.157106,-49.775555,39.878284,STN
120448332880000,2.42004,13.2961157445055,6.09731264258242,1.43916952065934,-1.9688187,0.6658431,-0.97158116,27.786436,-49.71977,39.840908,STN
120448337884000,2.425044,13.10107125,5.604826325,0.49320554,-2.1456642,0.61453044,-0.8756753,27.459427,-49.62056,39.83157,STN
120448342989000,2.430149,12.8460328351112,5.13295470505433,-0.299922761951949,-2.2244658,0.6105598,-0.79045963,27.181356,-49.441196,39.91363,STN
120448347902000,2.435062,12.5505289377928,4.70611501847273,-0.909693563662646,-2.2192733,0.63621616,-0.7058548,26.91763,-49.232098,40.01696,STN
120448352916000,2.440076,12.297319283483,4.27509621846935,-1.36370964720812,-2.1432207,0.67164636,-0.61544675,26.716246,-48.985123,40.18435,STN
120448357997000,2.445157,12.0883157907068,3.84283956742483,-1.65821420812183,-2.0314324,0.70402217,-0.54183745,26.510214,-48.728943,40.361374,STN
120448362981000,2.450141,11.9341637385321,3.42329528381808,-1.88075365923287,-1.8872682,0.7284568,-0.4718934,26.266956,-48.44928,40.578094,STN
120448368018000,2.455178,11.8352952844037,3.00428138258833,-2.03141034889713,-1.7143933,0.7452556,-0.4251622,26.01943,-48.171066,40.80074,STN
120448372919000,2.460079,11.7648188156206,2.66878745078568,-2.09266281281265,-1.5482379,0.7425067,-0.39461896,25.755884,-47.87093,41.058113,STN
120448377891000,2.465051,11.729400423431,2.42971196284519,-2.0351075325523,-1.3613132,0.68661255,-0.38881573,25.512478,-47.582886,41.317863,STN
120448382879000,2.470039,11.6783665049061,2.24023738020478,-1.98166358020478,-1.1636983,0.5571091,-0.38148534,25.277136,-47.27499,41.614697,STN
120448387922000,2.475082,11.5804975589804,2.19902935767918,-1.94045555767918,-0.97402465,0.40317106,-0.37323865,25.07892,-46.980988,41.913548,STN
120448392897000,2.480057,11.3826090536873,2.22488406258856,-1.88806733864884,-0.7629707,0.26053402,-0.3381139,24.900496,-46.670013,42.24296,STN
120448397904000,2.485064,11.0189442631474,2.35886565659116,-1.81629141155573,-0.5335908,0.17134771,-0.27763826,24.76207,-46.364464,42.58413,STN
120448403569000,2.490729,10.4934635369772,2.50440202236262,-1.77410600473112,-0.3191771,0.14874569,-0.21991149,24.624708,-46.067883,42.925976,STN
120448407985000,2.495145,9.97564655196395,2.61210804175727,-1.77824858386718,-0.10720685,0.20005837,-0.1872302,24.492476,-45.7736,43.276665,STN
120448412839000,2.499999,9.40127333546326,2.74979800127795,-1.70711939600639,0.082161374,0.24556783,-0.17195857,24.357529,-45.511497,43.595325,STN
120448417886000,2.505046,8.79323580890575,2.93317431659345,-1.47548613173922,0.16920967,0.35735616,-0.17531833,24.177504,-45.24824,43.912212,STN
120448422857000,2.510017,8.22801784289821,3.11489977546833,-1.20794588392507,0.3753767,0.44929138,-0.19456059,23.99775,-45.049393,44.16877,STN
120448427910000,2.51507,7.72438815264149,3.30196219607493,-0.853006936628011,0.5537493,0.47678033,-0.21960606,23.802794,-44.851013,44.422585,STN
120448432854000,2.520014,7.2757347197006,3.45654441934555,-0.548406136006141,0.6814202,0.44776422,-0.23548855,23.580019,-44.72705,44.59278,STN
120448437994000,2.525154,6.91201646233567,3.55101674138758,-0.331119864362345,0.77091193,0.3735441,-0.24770586,23.36939,-44.608223,44.762283,STN
120448442974000,2.530134,6.6022978573627,3.63244498230259,-0.149815263661633,0.82619524,0.28344148,-0.24709499,23.15225,-44.5477,44.861973,STN
120448447886000,2.535046,6.42584220623257,3.68221449827835,-0.0593251713073002,0.8567385,0.17348573,-0.226631,22.975597,-44.48013,44.973003,STN
120448452908000,2.540068,6.25088968678414,3.71880213976772,0.0235373905398478,0.8549059,0.062002823,-0.1881465,22.809582,-44.44259,45.046047,STN
120448458614000,2.545774,6.08675672246696,3.66956235330396,0.0563639377004405,0.8304713,-0.042455133,-0.1554652,22.686037,-44.3944,45.13189,STN
120448462881000,2.550041,5.97566568713163,3.62513183168959,0.0611542137015717,0.7602218,-0.14813483,-0.112399206,22.584503,-44.347195,45.211796,STN
120448467867000,2.555027,5.90999791208252,3.53132048658153,-0.0420382335915521,0.6969972,-0.22327125,-0.06994407,22.511385,-44.28476,45.306946,STN
120448473528000,2.560688,5.84116028846494,3.42197861043985,-0.149478378025084,0.6395759,-0.27030787,-0.02565634,22.452225,-44.208458,45.4114,STN
120448477907000,2.565067,5.80412018318318,3.32937830855856,-0.205038574624625,0.5849035,-0.2919936,0.026572637,22.40969,-44.11202,45.534035,STN
120448482856000,2.570016,5.76225868945416,3.22472453052464,-0.267830858929518,0.54153204,-0.33505958,0.07238753,22.38098,-43.99424,45.677593,STN
120448487884000,2.575044,5.72365293831629,3.09220103461841,-0.261723360802518,0.48472157,-0.39461896,0.12156218,22.364048,-43.85596,45.83933,STN
120448492953000,2.580113,5.68545876113297,2.9537470924764,-0.242626262240362,0.43463063,-0.4654793,0.1685988,22.36586,-43.702168,46.015774,STN
120448497905000,2.585065,5.68266336552169,2.78583219030297,-0.250270484118243,0.40225476,-0.5204572,0.23243423,22.383524,-43.517395,46.223274,STN
120448502919000,2.590079,5.68708532658624,2.60895351685238,-0.263536376546643,0.3662137,-0.55833083,0.267559,22.419836,-43.32494,46.437138,STN
120448507964000,2.595124,5.67596166700711,2.37966331458897,-0.372609431144488,0.35735616,-0.6084218,0.2938262,22.467623,-43.106335,46.67707,STN
120448512925000,2.600085,5.65693262811655,2.12752971664163,-0.529598301580054,0.39645153,-0.6469063,0.30970868,22.522217,-42.880802,46.923485,STN
120448517855000,2.605015,5.64725007222056,1.92028605541904,-0.673099053684947,0.42424592,-0.6533204,0.3295618,22.574284,-42.62101,47.20317,STN
120448522948000,2.610108,5.64237806904405,1.73027386161223,-0.814390177896314,0.49266282,-0.6554584,0.36102137,22.636051,-42.35507,47.48994,STN
120448527909000,2.615069,5.62806780052959,1.61251031726245,-0.82073008365414,0.54611355,-0.6536258,0.39920044,22.73086,-42.04835,47.81994,STN
120448532874000,2.620034,5.60869757535391,1.53018718893981,-0.757777129941949,0.5723807,-0.65087694,0.43493605,22.82195,-41.73332,48.156673,STN
120448537965000,2.625125,5.54911227327594,1.51836964894826,-0.651510142917369,0.59742624,-0.6444628,0.47861293,22.946,-41.379566,48.533592,STN
120448543186000,2.630346,5.46923213174758,1.54055859774563,-0.522814429881956,0.57818395,-0.6478226,0.528093,23.070072,-41.012424,48.920692,STN
120448547910000,2.63507,5.35808569093589,1.57761131112749,-0.370277322689757,0.5177083,-0.6597345,0.571159,23.169153,-40.626774,49.322426,STN
120448552922000,2.640082,5.19133483109801,1.63824796344878,-0.163102126462786,0.43218717,-0.6646214,0.61453044,23.26361,-40.226273,49.736115,STN
120448557947000,2.645107,4.9834261861975,1.74994098701535,-0.00696697365105009,0.31887165,-0.66706485,0.66248333,23.303331,-39.837353,50.1338,STN
120448562894000,2.650054,4.74424777705977,1.90301517285945,0.103055105541195,0.19028452,-0.6768387,0.7012733,23.345697,-39.43945,50.53858,STN
120448567894000,2.655054,4.43546878473449,2.24492101440106,0.173199466739812,0.05681047,-0.68569624,0.73639804,23.343851,-39.06545,50.916283,STN
120448572935000,2.660095,4.06858995730977,2.74479350834996,0.209887359059561,-0.08246681,-0.7165449,0.7583892,23.354336,-38.686623,51.2979,STN
120448577898000,2.665058,3.83380366639064,3.14659107357416,0.245254874632026,-0.22632557,-0.7641924,0.7593055,23.385046,-38.367355,51.61875,STN
120448582902000,2.670062,3.75443735689887,3.43925426860573,0.279977620790808,-0.34330627,-0.82741696,0.7687739,23.434685,-38.043003,51.944355,STN
120448587918000,2.675078,3.73641640927607,3.70541817968098,0.328410453541104,-0.44623706,-0.8903361,0.75747293,23.526455,-37.85784,52.129593,STN
120448592997000,2.680157,3.77699999986258,3.94891957363436,0.39047944305865,-0.5323691,-0.9651671,0.73426,23.650263,-37.67739,52.310127,STN
120448597895000,2.685055,3.81613731561227,4.18374332389693,0.450336483944049,-0.59528816,-1.0412198,0.70952,23.829676,-37.56185,52.425728,STN
120448602914000,2.690074,3.85624147807607,4.42436815088098,0.511672230821104,-0.65270954,-1.078788,0.6780604,24.021727,-37.459026,52.52844,STN
120448607998000,2.695158,3.95221409184804,4.72958867827463,0.645464281509695,-0.6768387,-1.1618657,0.65240407,24.28938,-37.369884,52.61852,STN
120448613049000,2.700209,4.11492325207756,5.10764813296399,0.86560008365651,-0.6765333,-1.2513574,0.60903263,24.571983,-37.299225,52.69017,STN
120448617883000,2.705043,4.28118051152091,5.53287467077947,1.08589881705323,-0.6872234,-1.3435981,0.5653558,24.888367,-37.315002,52.674934,STN
120448622900000,2.71006,4.46843507674905,6.06266858314639,1.32795986286122,-0.6740898,-1.4300356,0.5271767,25.236294,-37.345055,52.645947,STN
120448627853000,2.715013,4.65361139850374,6.61432542917706,1.55330547281795,-0.62858033,-1.4972308,0.48563787,25.65048,-37.437706,52.554493,STN
120448632858000,2.720018,4.84144586577307,7.23759400492519,1.74967781571072,-0.5708536,-1.5476271,0.4352415,26.085854,-37.545986,52.44766,STN
120448637963000,2.725123,5.0308446028531,7.87655135087009,1.93947780550384,-0.48563787,-1.5833627,0.37659842,26.546818,-37.74558,52.249165,STN
120448642927000,2.730087,5.18956538905301,8.53548267503035,2.00200411647106,-0.3866777,-1.5931365,0.31642818,27.00561,-37.95899,52.036957,STN
120448647879000,2.735039,5.34826263407422,9.18061345588955,2.06061126080486,-0.28619036,-1.5952746,0.23579398,27.480629,-38.285305,51.711407,STN
120448652889000,2.740049,5.51268982353863,9.70208219768922,2.07940300407324,-0.15515977,-1.6035212,0.1328632,27.948353,-38.628597,51.36906,STN
120448657983000,2.745143,5.69467020055339,10.2226325455011,2.08456513322402,-0.044593163,-1.6120734,0.005192355,28.437738,-39.076073,50.922295,STN
120448662867000,2.750027,6.08292818005739,10.5821310824964,1.88803933974175,0.05009095,-1.6374242,-0.13103059,28.921751,-39.541794,50.45731,STN
120448667878000,2.755038,6.48153013317601,10.9167049443461,1.68073052827925,0.14844026,-1.6395624,-0.26297748,29.427084,-40.08216,49.917492,STN
120448672907000,2.760067,6.88406207313668,10.907233413766,1.41553306201573,0.23060162,-1.5824465,-0.36835176,29.89806,-40.634277,49.365673,STN
120448677946000,2.765106,7.28665358777293,10.877997790393,1.16301752183406,0.34513888,-1.4538593,-0.48075095,30.381186,-138.80356,48.803463,STN
120448682870000,2.77003,7.67041766673283,10.592514767368,1.08813665680826,0.46792278,-1.3087788,-0.571159,30.811827,-138.23953,48.238907,STN
120448688039000,2.775199,8.06746227575012,10.2731985094934,1.03043801111658,0.605062,-1.1640037,-0.63804877,31.188786,-137.73567,47.73364,STN
120448692877000,2.780037,8.36829378002951,9.7353480784063,1.23099226797836,0.7498371,-1.0311406,-0.6603453,31.49269,-137.2396,47.23549,STN
120448698197000,2.785357,8.69154730609896,9.13262705677023,1.46145486432681,0.87781334,-0.92271197,-0.66706485,31.732985,-136.85117,46.843792,STN
120448702874000,2.790034,8.88483280782509,8.46686588415804,1.7835976363061,0.98929626,-0.87872964,-0.6627888,31.93422,-136.47708,46.46535,STN
120448707877000,2.795037,9.09159085040276,7.75469929305715,2.12819466179517,1.0329732,-0.81336707,-0.65087694,32.064583,-136.23488,46.21809,STN
120448712876000,2.800036,9.23999732390566,6.95801063022187,2.46384079780132,1.1053606,-0.79320854,-0.6377433,32.189617,-136.00566,45.981983,STN
120448717883000,2.805043,9.3837646769938,6.15291545452728,2.79929698756746,1.1459832,-0.7867944,-0.6218608,32.288937,-135.79066,45.759533,STN
120448722961000,2.810121,9.54257744109589,5.54507084657534,2.97288744109589,1.1621711,-0.8231409,-0.61178154,32.373516,-135.68816,45.64769,STN
120448728651000,2.815811,9.72172929954338,4.88320433059361,3.15203929954338,1.1511755,-0.8723156,-0.58093286,32.45704,-135.60106,45.550117,STN
120448732941000,2.820101,9.97518439116068,4.51530824155308,3.18096543298224,1.1071932,-0.89980453,-0.5326745,32.562122,-135.62294,45.558727,STN
120448737870000,2.82503,10.2871487616687,4.11560400636101,3.1955887946613,1.0512991,-0.89552844,-0.46395215,32.66939,-135.66132,45.582874,STN
120448742964000,2.830124,10.5485056601193,3.7958634354998,3.3106402524167,0.9935723,-0.874759,-0.39736784,32.767982,-135.80621,45.71178,STN
120448747846000,2.835006,10.7841023246606,3.51218549728507,3.44526702545249,0.9294315,-0.83291477,-0.34055737,32.852276,-135.96686,45.857094,STN
120448752784000,2.839944,10.9754076707961,3.32531568443339,3.34957081700853,0.8164214,-0.7257079,-0.31490102,32.89778,-136.22374,46.09929,STN
120448757805000,2.844965,11.1609511596263,3.15442012694963,3.20797163206743,0.68325275,-0.5332854,-0.28893927,32.888004,-136.49239,46.357147,STN
120448762792000,2.849952,11.2817791694282,3.18173876477066,3.19743051806426,0.5534439,-0.27458394,-0.26389378,32.781864,-136.82378,46.683723,STN
120448767770000,2.85493,11.392558026369,3.2395362215296,3.20706343590624,0.40469822,-0.058643065,-0.24129178,32.61117,-137.15363,47.015133,STN
120448772839000,2.859999,11.5141502103113,3.47536533486381,3.52858938274319,0.2678644,0.051618114,-0.21044308,32.40401,-137.53482,47.399826,STN
120448777814000,2.864974,11.6346521631323,3.73027330081712,3.88546050604086,0.14263703,0.046731193,-0.17928895,32.15476,-137.91241,47.78552,STN
120448782781000,2.869941,11.5449090502138,4.08380286250373,3.68227405958039,0.029626964,-0.00030543262,-0.15668693,31.887339,-138.28735,48.171097,STN
120448787831000,2.874991,11.410260795267,4.46370411387094,3.36007923905737,-0.119729586,-0.01985312,-0.16340645,31.610418,-138.65178,48.54872,STN
120448792789000,2.879949,11.0014273150158,5.01928314103196,2.37904651822218,-0.27122417,0.03145956,-0.15057829,31.292744,-138.97867,48.89376,STN
120448798104000,2.885264,10.4992494820442,5.6570487948895,1.1738201910221,-0.45020768,0.16126843,-0.099571034,30.949766,-139.30502,49.239548,STN
120448802936000,2.890096,10.1190777809278,6.05614895554124,0.252034680301915,-0.6243043,0.23854288,-0.07147124,30.666262,-139.56003,49.510803,STN
120448807917000,2.895077,9.74146534664949,6.43376106887887,-0.665650656645803,-0.7171558,0.38973203,-0.02076942,30.29649,-139.82922,49.796783,STN
120448812860000,2.90002,9.53240905944351,6.71594554631113,-1.36480804702782,-0.89827734,0.5366451,0.006414085,30.098297,-139.98526,49.962734,STN
120448817857000,2.905017,9.41640260897976,6.9479590265704,-1.94988559455101,-1.0913107,0.6637051,0.02565634,29.847042,-140.14757,50.134495,STN
120448822894000,2.910054,9.4691059677292,7.07309886288365,-2.13833574025461,-1.2589933,0.7128797,0.04550946,29.805285,-140.2117,50.202225,STN
120448827873000,2.915033,9.58204273837955,7.15780176025856,-2.18068706610086,-1.4291192,0.6759224,0.046731193,29.746298,-140.27103,50.26544,STN
120448832883000,2.920043,9.82046037506185,7.08834783917862,-1.85645526745176,-1.5509869,0.51893,0.023518313,29.801836,-140.29463,50.29085,STN
120448837897000,2.925057,10.1103271331024,6.9552940923998,-1.38126367618011,-1.6123788,0.19975294,-0.0036651916,29.944801,-140.31384,50.311184,STN
120448842928000,2.930088,10.5012376435162,6.77509809638853,-0.843883071302708,-1.5968018,-0.22785273,-0.042455133,30.226423,-140.31088,50.308235,STN
120448847862000,2.935022,10.9278599995039,6.57819531992261,-0.290680181385058,-1.5079209,-0.7663304,-0.082161374,30.690823,-140.2962,50.29215,STN
120448852937000,2.940097,11.4604051743049,6.56250178115053,0.0643271190719079,-1.3307699,-1.323745,-0.09040806,31.288712,-140.30447,50.297237,STN
120448857926000,2.945086,12.0284355900288,6.63579617029722,0.311695208893576,-1.1029172,-1.8206838,-0.04795292,32.079838,-140.31137,50.29633,STN
120448862857000,2.950017,12.6140690269206,6.84333599494419,0.322863513407748,-0.88697636,-2.2375994,0.05131268,32.933617,-140.40906,50.382473,STN
120448868351000,2.955511,13.2852672088922,7.17893467366101,0.1550641379758,-0.70341134,-2.5900686,0.17287487,33.963783,-140.51956,50.47138,STN
120448872882000,2.960042,13.8666710041584,7.4526413853831,0.0363388979041481,-0.516792,-2.8955014,0.28130344,35.096275,-140.69556,50.61341,STN
120448877871000,2.965031,14.5372311925356,7.75066834323734,-0.0729376550379457,-0.33292156,-3.1673362,0.35216382,36.354492,-140.88924,50.755463,STN
120448882859000,2.970019,15.1871502779672,8.02157159318252,-0.283443210911063,-0.096516706,-3.3405166,0.36835176,37.70708,-141.11743,50.907272,STN
120448887890000,2.97505,15.8241873362256,8.27041469587853,-0.58703124845987,0.19639318,-3.2592716,0.34208453,39.040344,-141.34993,51.04216,STN
120448892920000,2.98008,16.1864992672977,8.63209886776617,-1.44670435250317,0.5681047,-2.6597073,0.31398472,40.203373,-141.6153,51.195732,STN
120448897863000,2.985023,16.3620483662535,9.06173128759637,-2.65706801717576,0.9505063,-2.112372,0.30940324,41.321533,-141.88269,51.329258,STN
120448902883000,2.990043,15.2139318679245,9.19752898113208,-3.49101710566038,1.1212431,-0.6114761,0.3155119,41.72596,-142.17467,51.535862,STN
120448907923000,2.995083,12.9441870087083,9.08077263860668,-3.99540499303338,1.3338243,1.0140363,0.32253686,41.802113,-142.47533,51.766953,STN
120448912855000,3.000015,11.3952388252508,8.85287697073579,-3.94042378277592,1.3646729,2.2858577,0.3494149,41.447567,-142.7406,51.989334,STN
120448917861000,3.005021,10.562364412579,8.49656687504645,-3.28125050105909,1.2070698,2.982244,0.39492437,40.625763,-143.008,52.268272,STN
120448922875000,3.010035,9.81003639989288,8.1220038171398,-2.72317723003749,1.0002918,3.2577443,0.45112398,39.54768,-143.12993,52.434868,STN
120448927873000,3.015033,9.23063301028388,7.71180695457954,-2.37963703640064,0.75991637,3.2559118,0.4908302,38.30706,-143.25111,52.624607,STN
120448932856000,3.020016,8.76231102163797,7.38592488174965,-2.0697275672685,0.52381694,3.1383202,0.5186246,36.964706,-143.31976,52.78155,STN
120448938044000,3.025204,8.41088980711959,7.15010268805956,-1.78766583284318,0.33933565,2.9770517,0.5186246,35.68104,-143.38591,52.93023,STN
120448942911000,3.030071,8.10823784574973,7.00717066845739,-1.49308406291802,0.183565,2.7608054,0.49113566,34.530823,-143.44173,53.060867,STN
120448947870000,3.03503,7.85720486701187,7.02766326787487,-1.12934208160734,0.08155051,2.4733934,0.45081854,33.521503,-143.49054,53.170708,STN
120448952883000,3.040043,7.64604074676739,7.06252721220445,-0.815365546698715,-0.031154128,2.112983,0.41691554,32.64954,-143.5206,53.252956,STN
120448957916000,3.045076,7.48526352944177,7.11454343755519,-0.564742218458746,-0.17440203,1.7027869,0.38820487,31.962727,-143.53847,53.309677,STN
120448962857000,3.050017,7.35472216749683,7.15972715313995,-0.382806639302666,-0.31673363,1.3154984,0.3585779,31.407671,-143.52182,53.326508,STN
120448967872000,3.055032,7.26090899824202,7.19725246982127,-0.288993401476707,-0.46731192,0.95172805,0.34330627,31.05426,-143.49876,53.326305,STN
120448972866000,3.060026,7.18076826181456,7.23315703639083,-0.243837147708873,-0.59559363,0.6310238,0.33261612,30.851246,-143.44244,53.28765,STN
120448977905000,3.065065,7.12303227397807,7.26683619516451,-0.282327702438684,-0.7031059,0.36102137,0.36193767,30.806229,-143.39087,53.247276,STN
120448982848000,3.070008,7.06149834387977,7.26261134387977,-0.360513658528772,-0.8231409,0.13927728,0.40286562,30.87295,-143.32822,53.193665,STN
120448987914000,3.075074,6.98954451433656,7.19065751433656,-0.514015271750049,-0.9419542,-0.054367006,0.45356745,31.055405,-143.27371,53.14418,STN
120448992938000,3.080098,6.90812220851907,7.08419038236751,-0.639630131688955,-1.0516045,-0.14294247,0.48197266,31.295198,-143.21335,53.087788,STN
120448997893000,3.085053,6.80940849727588,6.91496694749876,-0.714840533006439,-1.1459832,-0.30909783,0.47647488,31.65703,-143.1533,53.027584,STN
120449002836000,3.089996,6.71521720481411,6.81445230469451,-0.734813944562942,-1.1707232,-0.48716503,0.44684792,32.075188,-143.0965,52.967564,STN
120449007986000,3.095146,6.62673211511014,6.86361060231237,-0.631581468234825,-1.1924089,-0.68294734,0.38789943,32.567352,-143.02469,52.890274,STN
120449012856000,3.100016,6.55378083936087,6.89674720859314,-0.476811892118083,-1.1823297,-0.8891144,0.35308012,33.125896,-142.97543,52.8324,STN
120449017901000,3.105061,6.50200136586126,6.90145438430437,-0.189670971947584,-1.1508701,-1.1169671,0.35796702,33.769363,-142.91684,52.76029,STN
120449022892000,3.110052,6.42902413191919,6.81231390527177,0.07396114163367,-1.1349876,-1.3640621,0.37995818,34.488773,-142.83417,52.66015,STN
120449027892000,3.115052,6.29543726323232,6.46222391008177,0.281251336919865,-1.1129965,-1.6239853,0.3912592,35.29754,-142.74658,52.54802,STN
120449032875000,3.120035,6.16226681343179,6.09790123905798,0.450979592508732,-1.0940597,-1.9031507,0.36987892,36.182804,-142.65091,52.424755,STN
120449037882000,3.125042,6.02828506953398,5.66246082121545,0.455764647652929,-1.0482447,-2.1719313,0.29138273,37.15178,-142.5383,52.27558,STN
120449042947000,3.130107,5.91376959846892,5.23227771726039,0.434322903094825,-0.9831876,-2.3945918,0.19303341,38.169666,-142.44554,52.14068,STN
120449047886000,3.135046,5.88962964991324,4.85569421731142,0.303967085108707,-0.90102625,-2.5674667,0.10781772,39.24803,-142.33054,51.973278,STN
120449053698000,3.140858,5.88363683756562,4.43944001405819,0.14889595225198,-0.7987063,-2.6963592,0.038179077,40.351326,-142.23878,51.818634,STN
120449057976000,3.145136,5.91279925443545,4.17333280786547,0.0322462010321203,-0.65270954,-2.7913487,-0.008857546,41.47585,-142.12903,51.634068,STN
120449063218000,3.150378,5.95185941987121,3.84684740861086,-0.103100012950874,-0.48533243,-2.8707612,-0.042455133,42.62104,-142.06015,51.474068,STN
120449067907000,3.155067,6.06340067893284,3.54527314420423,-0.0493950048215271,-0.2648101,-2.960253,-0.07666359,43.769836,-141.9829,51.288975,STN
120449072924000,3.160084,6.1827443549218,3.22260347379945,0.00806671959411224,-0.01282817,-3.0815098,-0.10476339,44.95441,-141.96623,51.138054,STN
120449077911000,3.165071,6.35545758762665,2.9515726795722,0.176718595788353,0.27366763,-3.2345314,-0.122478485,46.149994,-141.9545,50.966034,STN
120449082858000,3.170018,6.53970728879337,2.69459256007573,0.370665837616416,0.5552765,-3.3765576,-0.14385876,47.348263,-141.9476,50.770817,STN
120449087943000,3.175103,6.7674350047472,2.66464027614821,0.319172678224624,0.82741696,-3.4223726,-0.1337795,48.560925,-142.02972,50.630302,STN
120449092930000,3.18009,6.99784571259166,2.67846495807603,0.222400174193362,1.0607675,-3.3893857,-0.09040806,49.76201,-142.13377,50.479664,STN
120449097883000,3.185043,7.30123337683406,2.79670905428198,-0.0553068574760994,1.271516,-3.2076533,-0.06383542,50.91101,-142.31012,50.377453,STN
120449102838000,3.189998,7.62596035147429,2.94474617408675,-0.384808957189293,1.3686435,-2.780353,0.010079277,51.918472,-142.52571,50.31544,STN
120449107968000,3.195128,7.92746646728972,3.26582907838785,-0.885250486218847,1.5448782,-2.039679,0.08246681,52.704414,-142.80933,50.328857,STN
120449112850000,3.20001,8.20511310747663,3.61630178440421,-1.40413216900117,1.7269161,-0.9505063,0.1423316,53.147655,-143.12251,50.42977,STN
120449117899000,3.205059,8.25506214788732,4.15534170342052,-1.64127584869215,1.9022343,0.38912117,0.14996742,53.169147,-143.49617,50.663567,STN
120449123369000,3.210529,8.2119429993598,4.81171288761661,-1.77542472211451,2.072971,1.758681,0.116675265,52.714237,-143.88664,51.012997,STN
120449127888000,3.215048,7.95939344881591,5.51548766946637,-1.40590064353015,2.2385156,2.882673,0.082161374,51.791386,-144.30074,51.47532,STN
120449132905000,3.220065,7.5194321724029,6.41563911902958,-0.642289143342806,2.371379,3.6144896,0.06414085,50.46796,-144.70804,52.013493,STN
120449137885000,3.225045,7.05464861058718,7.1313967879673,0.482608585203868,2.4694228,3.8414261,0.07391469,48.931812,-145.00493,52.483875,STN
120449142999000,3.230159,6.56152186912571,7.76611433913867,1.84481023024823,2.4788911,3.6291504,0.109650314,47.304977,-145.29512,52.958836,STN
120449147896000,3.235056,6.10759695549425,7.99154358583908,2.82159924565517,2.3506095,3.1074715,0.10873401,45.665382,-145.35193,53.229923,STN
120449152928000,3.240088,5.65117211393103,8.01370011806896,3.64582279986207,2.0958786,2.497828,0.06627888,44.207184,-145.39783,53.45323,STN
120449158203000,3.245363,5.20413025397384,7.76658171434924,3.93407322164021,1.7519615,1.9446895,-0.03023783,42.830994,-145.20337,53.464375,STN
120449162904000,3.250064,4.83398334914939,7.30331609178861,3.67334087031904,1.3854424,1.5473217,-0.16493362,41.699886,-144.97658,53.405346,STN
120449167878000,3.255038,4.44234099548064,6.8131473603237,3.3974670742179,1.0219775,1.3558154,-0.31887165,40.64237,-144.60378,53.21492,STN
120449172939000,3.260099,4.04384844382853,6.31440511063654,3.11676798252754,0.7257079,1.3246613,-0.45142943,39.723423,-144.19214,52.968403,STN
120449177915000,3.265075,3.78683574322682,5.92814459334444,2.78189995482258,0.4868596,1.4205672,-0.54519725,38.903774,-143.74612,52.67877,STN
120449182902000,3.270062,3.61830564595177,5.60981018784552,2.4073888176436,0.31123585,1.5824465,-0.59620446,38.10005,-143.27399,52.36065,STN
120449187933000,3.275093,3.55142044205006,5.36166328160681,2.1209429212526,0.22693644,1.7458528,-0.6001751,37.39436,-142.8728,52.082428,STN
120449193556000,3.280716,3.56740462764421,5.14854195680222,1.88118163947759,0.20250183,1.8616118,-0.5858198,36.668335,-142.46379,51.7949,STN
120449197899000,3.285059,3.69473695736616,4.92016554493943,1.82252546991012,0.2012801,1.861001,-0.5684101,36.013996,-142.10278,51.53341,STN
120449202894000,3.290054,3.92372979470496,4.61172624687378,1.84589207600625,0.21380283,1.7232509,-0.5149594,35.40502,-141.76137,51.280655,STN
120449207900000,3.29506,4.25861688951563,4.27658723580625,1.79106836088289,0.21227567,1.4144585,-0.4896085,34.938984,-141.45439,51.038563,STN
120449212866000,3.300026,4.70086268489679,3.91695891395872,1.65499275495606,0.106901415,1.0464121,-0.4605924,34.588993,-141.1656,50.804073,STN
120449217894000,3.305054,5.16492782319126,3.65220511349542,1.33522875754307,-0.08674286,0.72784597,-0.43768495,34.226723,-140.93216,50.61947,STN
120449222901000,3.310061,5.64165366252584,3.47756298409292,0.853782833749385,-0.376293,0.5225952,-0.38728857,33.995113,-140.71295,50.44214,STN
120449227868000,3.315028,6.07806267807925,3.49604483505758,0.274639192428265,-0.6404922,0.43066,-0.34055737,33.77436,-140.58257,50.346897,STN
120449232861000,3.320021,6.4794156705446,3.71072200347453,-0.411394236786063,-0.8210029,0.44135013,-0.310625,33.60792,-140.45923,50.257694,STN
120449237883000,3.325043,6.7827474821061,3.93318670756319,-0.636909802949346,-0.89949906,0.4801401,-0.3042109,33.536766,-140.44217,50.263187,STN
120449242919000,3.330079,6.96103335386152,4.16447681894295,-0.280337601574583,-0.8891144,0.5030475,-0.30879238,33.473507,-140.42915,50.272648,STN
120449247853000,3.335013,7.08677895758049,4.3231781180878,-0.166064632706341,-0.80664754,0.4746423,-0.31337386,33.604237,-140.46405,50.312,STN
120449252860000,3.34002,7.1522732531122,4.39802846939512,-0.348512614978537,-0.6994407,0.42241332,-0.31245756,33.734283,-140.4975,50.34904,STN
120449257913000,3.345073,7.17719305945471,4.43052295990423,-0.662037822557412,-0.60903263,0.4202753,-0.3136793,33.74137,-140.49419,50.356983,STN
120449263143000,3.350303,7.13803613685136,4.39626060790579,-1.1906573101075,-0.55741453,0.47769663,-0.2855795,33.74797,-140.49991,50.372272,STN
120449267834000,3.354994,7.07361721968896,4.39596242903998,-1.58756355775097,-0.5564982,0.6243043,-0.2678644,33.746925,-140.5009,50.379913,STN
120449272904000,3.360064,6.94776577875586,4.4540476161599,-1.86830883100389,-0.5503896,0.8695667,-0.23548855,33.677235,-140.51422,50.40178,STN
120449277868000,3.365028,6.79201232507959,4.50872803382561,-2.010723717607,-0.516792,1.104139,-0.18997909,33.6729,-140.55266,50.440334,STN
120449282877000,3.370037,6.57142053643438,4.55963383461266,-1.89618572120623,-0.45448375,1.2687671,-0.11636983,33.588615,-140.60794,50.49872,STN
120449287879000,3.375039,6.33605680293998,4.61186395692119,-1.75292325814618,-0.38240165,1.3261884,-0.043066,33.435986,-140.66629,50.560486,STN
120449292961000,3.380121,5.91872069066966,4.68142007074316,-1.26603118768885,-0.33444872,1.3594806,-0.008246681,33.22457,-140.73474,50.634216,STN
120449297897000,3.385057,5.49815253524804,4.76310452038562,-0.777448594348263,-0.3032946,1.3390167,0.06719518,32.960308,-140.79318,50.70071,STN
120449302860000,3.39002,4.96834774986945,4.94447904493874,-0.176048591679052,-0.24648413,1.2651019,0.12767084,32.71268,-140.85847,50.77206,STN
120449307894000,3.395054,4.46174692576442,5.12739339280751,0.393147391504517,-0.1863139,1.1685852,0.13164146,32.403084,-140.85367,50.778942,STN
120449312893000,3.400053,4.16232376122307,5.30205702849201,0.688412006407227,-0.08979719,1.0931433,0.08979719,32.127396,-140.85461,50.78842,STN
120449317844000,3.405004,3.8657756340688,5.47504355785268,0.980841513985407,-0.0143553335,1.02717,0.0061086523,31.793083,-140.73073,50.678364,STN
120449322895000,3.410055,3.94535015536617,5.88833347775245,0.94773086830443,0.034208454,0.9960158,-0.11942416,31.488632,-140.58583,50.54417,STN
120449327850000,3.41501,4.105235498791,6.34447729402438,0.844275545571301,0.019547688,1.02717,-0.25595254,31.19611,-140.41666,50.38409,STN
120449332861000,3.420021,4.77999451953064,6.91583408591909,0.630761169159466,-0.027488936,1.0925325,-0.38545597,30.885052,-140.13676,50.11458,STN
120449337858000,3.425018,5.57883626412019,7.51261592360566,0.391108739010212,-0.059253927,1.1866057,-0.5149594,30.561674,-139.82303,49.809456,STN
120449342950000,3.43011,6.77896082273642,8.28355450060362,0.380578839088531,-0.056199603,1.2748758,-0.6423248,30.194025,-139.43954,49.433125,STN
120449347844000,3.435004,8.04262854929577,9.07098925352113,0.437161007183099,-0.002443461,1.3432927,-0.745561,29.814812,-139.03456,49.032703,STN
120449352879000,3.440039,9.22468073795513,10.0337400018389,0.763817292545973,0.10048734,1.3860532,-0.8200866,29.451797,-138.63525,48.63511,STN
120449357954000,3.445114,10.3820915093784,11.0481501894079,1.1704749847352,0.23518312,1.4459181,-0.8756753,29.072351,-41.776215,48.223446,STN
120449363001000,3.450161,11.2684855317145,12.0271545998535,1.56874592698346,0.3943135,1.575116,-0.90469146,28.595224,-42.14861,47.848797,STN
120449367901000,3.455061,11.9757698105506,12.9603768837136,1.95185822759054,0.54550266,1.7330247,-0.9440922,28.103378,-42.52634,47.46706,STN
120449372929000,3.460089,12.3855070089646,13.360049294935,2.38118215324966,0.6441574,1.8802432,-1.0204504,27.50523,-42.929806,47.05577,STN
120449377911000,3.465071,12.6592450199014,13.5225812947557,2.82172900221425,0.6713409,1.9520199,-1.1203269,26.903542,-43.334152,46.641163,STN
120449382898000,3.470058,12.9620655096092,13.397333685921,3.25173740489095,0.5665775,1.9587394,-1.2247849,26.263098,-43.79159,46.1672,STN
120449387930000,3.47509,13.300262415677,12.9446693741093,3.67318316045131,0.3885103,1.933083,-1.3100005,25.643106,-44.249546,45.688644,STN
120449392970000,3.48013,13.6362887878301,12.3228326181344,3.93704457689527,0.27000242,1.8316795,-1.3570372,25.010206,-44.711933,45.19785,STN
120449397899000,3.485059,13.9633375147103,11.6165963518426,4.10293885936339,0.013744468,1.647809,-1.4019357,24.459848,-45.172863,44.70127,STN
120449402885000,3.490045,14.1779080711841,10.8730516228611,3.95880657303217,-0.22510384,1.4245378,-1.4181237,23.890705,-45.56151,44.268154,STN
120449408051000,3.495211,14.3278731060917,10.0845286783025,3.61533950403833,-0.47678033,1.2226468,-1.3946054,23.416706,-45.930714,43.84718,STN
120449413035000,3.500195,14.3958432529098,9.34267302801342,3.13296846038666,-0.7528914,1.0665708,-1.3332134,22.954212,-46.18561,43.53147,STN
120449417909000,3.505069,14.4142599345038,8.6290219287828,2.56665211197475,-1.0064005,0.9798279,-1.2577715,22.564499,-46.413364,43.23432,STN
120449422912000,3.510072,14.4253300010998,8.06644478866227,2.07934084208158,-1.2541064,0.95447695,-1.1774428,22.192617,-46.520596,43.05367,STN
120449427907000,3.515067,14.4301127560488,7.64078838764247,1.66803225644871,-1.4636332,0.91538155,-1.0952814,21.873075,-46.593353,42.897934,STN
120449432898000,3.520058,14.4558143845316,7.36172685697168,1.38490220196078,-1.6151277,0.82833326,-1.0155635,21.607227,-46.561172,42.852943,STN
120449437904000,3.525064,14.4985428600713,7.20030784661319,1.20449256524064,-1.7308867,0.73639804,-0.95325524,21.368217,-46.50319,42.824593,STN
120449442912000,3.530072,14.4962850578973,7.13499071933749,0.985100791577533,-1.7757853,0.66859204,-0.88361657,21.146246,-46.378754,42.86812,STN
120449448396000,3.535556,14.4509013378781,7.15516130837254,0.707755002788286,-1.7733418,0.62949663,-0.82253003,20.955477,-46.239357,42.92408,STN
120449452853000,3.540013,14.2501443902369,7.12905428575813,0.458196076960199,-1.758681,0.6478226,-0.7464773,20.759272,-46.06287,43.01935,STN
120449457986000,3.545146,13.8258421528724,7.0489081544356,0.142326767707682,-1.7379116,0.6844745,-0.6646214,20.57403,-45.873455,43.127872,STN
120449462934000,3.550094,13.2563161515192,6.85607847170842,-0.182971374255864,-1.7302758,0.76144356,-0.5656612,20.371832,-45.670876,43.2539,STN
120449467910000,3.55507,12.4148741536514,6.46869773375533,-0.544950165351812,-1.7461584,0.8368854,-0.46609017,20.156372,-45.451927,43.393917,STN
120449472922000,3.560082,11.5673445529051,6.07851440203891,-0.90954777406823,-1.7391334,0.93951076,-0.37812558,19.898392,-45.247234,43.521423,STN
120449477894000,3.565054,10.7815133068672,5.68092833464558,-1.18561884668805,-1.6972891,1.0225884,-0.28588495,19.618393,-45.02095,43.668495,STN
120449483052000,3.570212,10.0659293592834,5.24939258942829,-1.31671828904125,-1.5836681,1.0668762,-0.20830505,19.316175,-44.7858,43.825798,STN
120449487912000,3.575072,9.4859005674548,4.88102792350487,-1.37875382475661,-1.4312572,1.0687088,-0.17928895,19.012331,-44.598804,43.942825,STN
120449492939000,3.580099,8.95860829468011,4.52950000384214,-1.39549320164291,-1.3261884,1.0348058,-0.124005646,18.706087,-44.391212,44.08531,STN
120449497915000,3.585075,8.47638195707842,4.21796379928869,-1.39819792702117,-1.102001,0.926988,-0.10170906,18.398869,-44.21576,44.209263,STN
120449502787000,3.589947,8.11616517678695,4.01559466299445,-1.36177157039382,-0.8228355,0.7489208,-0.1020145,18.138987,-44.044758,44.34807,STN
120449507813000,3.594973,7.74456223390007,3.80682880112769,-1.32419380594205,-0.48899764,0.52412236,-0.10934488,17.942377,-43.90124,44.483242,STN
120449512786000,3.599946,7.65378135076441,3.74465716354371,-1.47355751575853,-0.106901415,0.31490102,-0.16279559,17.819775,-43.792885,44.617207,STN
120449518057000,3.605217,7.57957596068209,3.69024002900823,-1.64670304713838,0.31581733,0.16340645,-0.24007004,17.769047,-43.716446,44.754757,STN
120449522845000,3.610005,7.72347277078423,3.82657053923202,-1.54780329808005,0.75319684,0.0852157,-0.33322698,17.720615,-43.68721,44.861935,STN
120449527829000,3.614989,7.88832935493702,3.98172958791142,-1.42658531977855,1.1325442,0.015577064,-0.4364632,17.7369,-43.698666,44.956585,STN
120449532781000,3.619941,8.01489128968556,4.12509698960545,-1.14984503085319,1.4165965,-0.02443461,-0.54153204,17.773012,-43.741398,45.037647,STN
120449537797000,3.624957,8.13996298429802,4.26941101660324,-0.856406870949329,1.6056592,-0.064751714,-0.66248333,17.845226,-43.82204,45.092762,STN
120449542820000,3.62998,8.27332882114064,4.84084006718423,-0.736173055377725,1.6972891,-0.07452556,-0.6960809,17.897623,-43.900696,45.144638,STN
120449547774000,3.634934,8.40554988295013,5.44055364496865,-0.632285614292824,1.7412714,-0.058337633,-0.6065892,17.952112,-43.9704,45.202442,STN
120449552854000,3.640014,8.08729259648799,5.60324440859519,-0.5326669386183,1.7421877,-0.02107485,-0.4859433,17.948563,-44.032616,45.247875,STN
120449557895000,3.645055,7.72588644103512,5.71925123641405,-0.434507324038817,1.6966782,0.020463986,-0.42638394,17.930967,-44.071507,45.305817,STN
120449562860000,3.65002,7.4117417794767,5.6122162327269,-0.329994593096893,1.6154331,0.058643065,-0.35460728,17.87584,-44.10615,45.3512,STN
120449567858000,3.655018,7.10842774889616,5.43609854364268,-0.222367107352821,1.4914275,0.12095132,-0.25320363,17.78686,-44.100952,45.423347,STN
120449572896000,3.660056,6.91515898975543,5.16506226077988,-0.121090494273647,1.3365731,0.18570304,-0.13072516,17.667961,-44.110397,45.464737,STN
120449577886000,3.665046,6.75087378977507,4.87404248079756,-0.0225192762596994,1.1866057,0.22632557,-0.0033597588,17.52795,-44.07809,45.538555,STN
120449582856000,3.670016,6.57142186134649,4.49888145095763,0.0851518735538789,1.0488557,0.23487769,0.059253927,17.344265,-44.03523,45.610012,STN
120449588050000,3.67521,6.37895929164248,4.08027549750435,0.200629375182821,0.9807441,0.20738874,0.21533,17.15024,-43.92298,45.746418,STN
120449592918000,3.680078,6.1744744988404,3.68355782337504,0.257540215949547,0.86193085,0.13500121,0.25320363,16.935732,-43.805153,45.878483,STN
120449597863000,3.685023,5.95770317308514,3.27891799517852,0.296077343881599,0.7629707,0.045814894,0.30757064,16.734236,-43.63519,46.061928,STN
120449602855000,3.690015,5.77970789675344,3.0093104817198,0.244946654630009,0.6740898,-0.035430185,0.37110063,16.51413,-43.42025,46.28389,STN
120449607957000,3.695117,5.61297968998733,2.78541838656527,0.159200762357414,0.61300325,-0.1301143,0.42638394,16.336535,-43.19021,46.52187,STN
120449612862000,3.700022,5.41611938787879,2.65306557575758,0.105054671818182,0.550695,-0.22815818,0.49235737,16.15485,-42.92249,46.79586,STN
120449617861000,3.705021,5.19914635110637,2.55521502625966,0.0625109415305252,0.4636467,-0.33475417,0.5476407,16.014746,-42.640453,47.084793,STN
120449622887000,3.710047,5.03918691683233,2.5018290316876,0.0748277585506281,0.38759398,-0.42913285,0.602924,15.890973,-42.334362,47.399124,STN
120449627870000,3.71503,4.95578564844347,2.50704161436374,0.158229137430912,0.29168814,-0.51007247,0.68752885,15.801414,-42.002743,47.73869,STN
120449632853000,3.720013,4.89983110501728,2.55158759971358,0.284957521380741,0.21135938,-0.59315014,0.7486154,15.766446,-41.67623,48.075245,STN
120449637898000,3.725058,4.8616563249679,2.62316541196049,0.442428593721482,0.12064589,-0.70005155,0.79779,15.769935,-41.328632,48.432877,STN
120449642916000,3.730076,4.873370033268,2.70228584860363,0.590088005862812,0.03604105,-0.83199847,0.84207773,15.7809925,-40.98159,48.788033,STN
120449647864000,3.735024,4.91980414047036,2.7858672900539,0.729390438987751,-0.042455133,-0.9682214,0.9083566,15.833593,-40.61575,49.162884,STN
120449652856000,3.740016,4.99598681325721,2.85480588583317,0.8467587585988,-0.11026118,-1.1078042,0.96761054,15.926818,-40.25893,49.527927,STN
120449658002000,3.745162,5.1009036644281,2.91203320034836,0.946906536591833,-0.15821409,-1.244638,1.0268645,16.07074,-39.886723,49.910427,STN
120449662860000,3.75002,5.18976395995351,2.93591949142724,1.01262866913064,-0.19517145,-1.3677273,1.0848967,16.25782,-39.523933,50.285057,STN
120449667861000,3.755021,5.26992052734542,2.92701315449558,1.04825387735937,-0.20189096,-1.4498887,1.1456778,16.478537,-39.148907,50.673485,STN
120449672877000,3.760037,5.32934725134998,2.88687987394074,1.06331708114066,-0.21105394,-1.5143349,1.1939361,16.739038,-38.766266,51.070465,STN
120449677876000,3.765036,5.34387078958439,2.78037387633734,1.03426995412074,-0.21135938,-1.5170839,1.2202033,16.999586,-38.379475,51.471348,STN
120449682865000,3.770025,5.32287370005224,2.6762792449018,0.989673717540744,-0.19608775,-1.5118915,1.2324207,17.302074,-37.981194,51.885777,STN
120449687885000,3.775045,5.2324684403364,2.57582879316757,0.91433590496239,-0.18936823,-1.4654657,1.2391402,17.578115,-37.583946,52.29709,STN
120449692953000,3.780113,5.14275889201968,2.52508239022285,0.867234539851435,-0.17195857,-1.3912456,1.2281445,17.862448,-37.180782,52.715176,STN
120449697879000,3.785039,5.05751926341096,2.53928897026701,0.857763486488657,-0.1572978,-1.2788464,1.1942415,18.099829,-36.789177,53.118977,STN
120449702881000,3.790041,4.97352500096097,2.60738376159104,0.885413447424212,-0.16768251,-1.1817188,1.171945,18.328798,-36.406387,53.513664,STN
120449707888000,3.795048,4.89276730927284,2.74514694689915,0.961420689577967,-0.1731803,-1.0833695,1.1527027,18.497978,-36.03869,53.890644,STN
120449712870000,3.80003,4.82007172441315,2.96999343134552,1.08294253034662,-0.19272798,-0.99173975,1.1371256,18.621548,-35.694798,54.24135,STN
120449717883000,3.805043,4.75772930328638,3.32007058531615,1.26997004410149,-0.21594086,-0.9459248,1.1508701,18.714579,-35.353348,54.588287,STN
120449722864000,3.810024,4.67258549598851,3.72524021980983,1.41808446246038,-0.23518312,-0.93126404,1.1679744,18.8461161793255,-35.0448539793856,54.9015212697889,STN
120449727876000,3.815036,4.55372896409469,4.21492850570523,1.51316958868859,-0.26053402,-0.91904676,1.1982121,18.978472,-34.73444,55.216705,STN
120449732835000,3.819995,4.43452153930131,4.77414273362445,1.56005761965066,-0.27885997,-0.9297369,1.2238685,19.132141,-34.48867,55.465416,STN
120449738000000,3.82516,4.30773853877919,5.47849349924055,1.53188355960699,-0.29016098,-0.95325524,1.2357804,19.280903,-34.243614,55.713108,STN
120449742905000,3.830065,4.21918119841017,6.20423303505564,1.45446414856916,-0.28955013,-0.9728029,1.2345587,19.44383,-34.109856,55.848274,STN
120449747864000,3.835024,4.20502439658188,7.07251757036963,1.25626882442369,-0.2950479,-0.990518,1.2134838,19.613249,-33.982956,55.97664,STN
120449752834000,3.839994,4.20763750186297,7.94845435712104,1.05242800090604,-0.29993483,-1.0213667,1.1630874,19.800648,-34.03589,55.92449,STN
120449757926000,3.845086,4.25728126201771,8.86190016601853,0.829030924697139,-0.28955013,-1.0372492,1.0815369,19.987572,-34.10425,55.85697,STN
120449762853000,3.850013,4.3266648094372,9.69875445319493,0.640909180584706,-0.29871312,-1.0882565,0.93615097,20.378872,-34.333675,55.630516,STN
120449767856000,3.855016,4.44529451042758,10.4424720093324,0.513153961856966,-0.28313604,-1.1640037,0.75228053,20.78111,-34.593964,55.373623,STN
120449773503000,3.860663,4.61498937627184,11.2067847398733,0.416430213572663,-0.24129178,-1.278541,0.5546656,21.387999,-35.016956,54.956345,STN
120449777871000,3.865031,4.81173960103667,11.6605146181609,0.42847614125168,-0.16829337,-1.3716979,0.36132678,22.002426,-35.480278,54.498737,STN
120449782869000,3.870029,5.03727722593361,12.1152819089212,0.423120002170125,-0.10781772,-1.5897768,0.2761111,22.810457,-36.065296,53.92109,STN
120449787892000,3.875052,5.26682051006224,12.1202720822614,0.283397972778008,0.02565634,-1.808772,0.11301007,23.632153,-36.70764,53.28538,STN
120449792957000,3.880117,5.50774833373277,12.0585019580587,0.137460742905932,0.23976462,-1.9807305,-0.042760566,24.530638,-37.40762,52.59047,STN
120449797864000,3.885024,5.77523618534052,11.7581650392451,-0.0220934099810266,0.5128214,-2.0748038,-0.16768251,25.451899,-141.8815,51.881493,STN
120449802873000,3.890033,6.06092910901001,11.3865571190211,-0.148896799017427,0.82527894,-2.0821342,-0.27214047,26.391487,-141.19122,51.187607,STN
120449808035000,3.895195,6.40919543965517,10.7266838448276,-0.125984548103448,1.1655309,-1.9975294,-0.36285394,27.283579,-140.49716,50.48227,STN
120449813060000,3.90022,6.76361315170983,10.0744891654694,-0.071917132630514,1.4627168,-1.8148806,-0.46028697,28.107618,-139.88797,49.85173,STN
120449817856000,3.905016,7.28407061731081,9.33562591638001,0.355601471060299,1.738828,-1.5537357,-0.56291234,28.814384,-139.27922,49.21178,STN
120449822939000,3.910099,7.84954652693932,8.56099951184712,0.858584899227362,2.0027218,-1.1490375,-0.6469063,29.300817,-138.82988,48.723797,STN
120449827871000,3.915031,8.56969219954672,7.91384129138766,1.96313294838776,2.239432,-0.62125,-0.70371675,29.590265,-138.38478,48.236477,STN
120449832889000,3.920049,9.26470766966967,7.27172718629539,3.10671823987624,2.4248295,-0.049785517,-0.6881397,29.494217,-138.14474,47.965023,STN
120449837886000,3.925046,9.68712673873874,6.74914684684685,4.38704044894895,2.5082128,0.39461896,-0.62888575,29.230053,-137.92134,47.715145,STN
120449843681000,3.930841,10.1612719495228,6.1295830897561,5.83579152941676,2.42147,0.67347896,-0.5510005,28.771372,-137.85242,47.63282,STN
120449847860000,3.93502,10.3564990530223,5.55663505487805,6.54454922036055,2.141999,0.8014552,-0.49113566,28.19925,-137.7981,47.57524,STN
120449853142000,3.940302,10.5776990140999,4.84585032464295,7.32834885686346,1.7299703,0.72051555,-0.4914411,27.46643,-137.82907,47.6242,STN
120449857916000,3.945076,10.5277911065223,4.33429566165742,6.94156361540071,1.2403619,0.5421429,-0.5360342,26.730488,-137.85568,47.676304,STN
120449862866000,3.950026,10.4760432760848,3.80388184058947,6.5405190101974,0.66859204,0.32650748,-0.61483586,25.949547,-137.9535,47.812138,STN
120449867861000,3.955021,10.075412941736,3.80688032241379,5.44828915853151,0.074830994,0.10842858,-0.67256266,25.253542,-138.03369,47.930553,STN
120449872897000,3.960057,9.6023004026952,3.9167953637931,4.21055048984344,-0.47219884,-0.024129177,-0.66859204,24.622322,-138.10068,48.034405,STN
120449877868000,3.965028,9.17932406099778,4.22864462880226,3.11579694203191,-0.96486163,-0.05681047,-0.6536258,24.0982,-138.23651,48.198914,STN
120449882878000,3.970038,8.76261419935367,4.58720894247627,2.04010354564734,-1.1691961,-0.14019357,-0.6178902,23.659788,-138.37694,48.360092,STN
120449887921000,3.975081,8.81493556849246,4.92013213936418,1.69485043049509,-1.5176947,-0.31642818,-0.58368176,23.461653,-138.47687,48.47134,STN
120449892918000,3.980078,8.95544400415106,5.24475576602207,1.49135515639364,-1.7666223,-0.6291912,-0.58368176,23.365068,-138.57822,48.57768,STN
120449897901000,3.985061,9.63566208229476,5.57842087885262,1.66267574081108,-1.9294178,-1.0491611,-0.59589905,23.580002,-41.387688,48.61226,STN
120449902863000,3.990023,10.3924117452028,5.91214266739862,1.88829056787339,-2.0002782,-1.5564847,-0.62796944,23.970947,-41.360847,48.63824,STN
120449907958000,3.995118,11.4668057446561,6.25656790821036,1.90656999457115,-1.9715676,-2.0949624,-0.6389651,24.607174,-41.35974,48.638912,STN
120449913274000,4.000434,12.6461071656381,6.61627767982291,1.88380352684912,-1.8692477,-2.5601363,-0.6093381,25.423527,-41.360855,48.63819,STN
120449917900000,4.00506,13.8007527666867,7.26740876107436,1.00469895668471,-1.6899587,-2.8200593,-0.52748215,26.340874,-41.317276,48.682484,STN
120449922943000,4.010103,15.1318166819002,8.16769216651634,-0.437690219623171,-1.4731015,-2.9141326,-0.4071417,27.371906,-138.7372,48.737076,STN
120449927909000,4.015069,16.1576450831035,8.81052785064447,-1.06266387674407,-1.1872166,-2.8478537,-0.2761111,28.421637,-138.90112,48.898705,STN
120449932910000,4.02007,17.0151617048498,9.30774322749386,-1.20198023938512,-0.8353582,-2.610227,-0.15118915,29.421312,-139.0841,49.075783,STN
120449937893000,4.025053,17.8695918840463,9.80316898691008,-1.3407951634084,-0.42638394,-2.071444,-0.046120327,30.422283,-139.32397,49.299187,STN
120449943017000,4.030177,18.7481991965495,10.3126134162195,-1.48353802327098,0.019242255,-1.0900891,0.02443461,31.091246,-139.57303,49.528774,STN
120449947901000,4.035061,18.2627578029655,9.95795162364414,-1.76824115163698,0.40408736,0.13439035,0.073303826,31.408377,-139.82935,49.767876,STN
120449952901000,4.040061,17.0095475332869,9.11453685600557,-2.14468044907951,0.5748242,1.2977833,0.15088372,31.305367,-140.10284,50.03394,STN
120449957915000,4.045075,15.5576091320867,8.12787518269516,-2.77924099436034,0.52290064,2.112983,0.20769419,30.855,-140.41113,50.343307,STN
120449962877000,4.050037,14.0013458527753,7.06529015479371,-3.56442552763431,0.32895094,2.62275,0.24831672,30.032087,-140.71681,50.662212,STN
120449967857000,4.055017,12.6779237920664,6.31350646839483,-4.1318409050369,0.07360926,3.0085113,0.30115658,28.991348,-141.00763,50.970192,STN
120449972897000,4.060057,11.5068672385609,5.7747314447786,-4.55039333086716,-0.17989981,3.1850514,0.38606682,27.836975,-141.30429,51.284443,STN
120449977861000,4.065021,10.4204694702503,5.4065220101149,-4.69771267203529,-0.40103304,3.5164459,0.4288274,26.55903,-141.59212,51.585648,STN
120449982913000,4.070073,9.40796118793599,5.25762384610177,-4.47932846665983,-0.5045747,3.7638462,0.5290093,25.260962,-141.91019,51.90995,STN
120449987888000,4.075048,8.51646769147795,5.13130993778308,-4.12961564760628,-0.68477994,3.8768563,0.6239988,23.89039,-37.781845,52.21438,STN
120449992942000,4.080102,7.72804941412396,5.02554640381406,-3.62483575151967,-0.8527679,3.8563924,0.6740898,22.485174,-37.464935,52.514835,STN
120449997858000,4.085018,7.13277448825953,5.04596846632338,-3.11216463007209,-1.0054842,3.687488,0.66920286,21.094578,-37.20626,52.741516,STN
120450002858000,4.090018,6.72929508558187,5.21184333759011,-2.56522590710608,-1.1523973,3.3670893,0.6291912,19.806509,-36.946156,52.95697,STN
120450007929000,4.095089,6.43591701871985,5.50807063512383,-1.96002544200064,-1.276403,2.9150488,0.5876524,18.640512,-36.74729,53.098217,STN
120450012863000,4.100023,6.38018948041171,6.05014853644259,-1.27102927161788,-1.3411547,2.3429737,0.5723807,17.70759,-36.55308,53.23437,STN
120450017866000,4.105026,6.41898481971219,6.67193680535059,-0.606072042590303,-1.3500122,1.6777414,0.57604593,17.061045,-36.43789,53.296555,STN
120450022889000,4.110049,6.57230163428627,7.38276911964458,0.0211329685763956,-1.3243558,0.9239337,0.6001751,16.748316,-36.32297,53.376728,STN
120450027879000,4.115039,6.75377532478485,8.06647344027539,0.460477921790017,-1.2788464,0.1432479,0.64812803,16.84843,-36.29496,53.395615,STN
120450032911000,4.120071,6.98309126282272,8.72026743958692,0.611728837314974,-1.2363913,-0.58551437,0.68233645,17.282286,-36.268116,53.438007,STN
120450037871000,4.125031,7.14854320231847,9.23374776608129,0.648673713396803,-1.1817188,-1.2092078,0.6942484,17.943626,-36.303318,53.427677,STN
120450043034000,4.130194,7.23147185232834,9.57521939700079,0.521841495943173,-1.1074986,-1.6988163,0.6933321,18.869347,-36.339645,53.433125,STN
120450047837000,4.134997,7.23405704580753,9.7612524582719,0.428838177098201,-1.0403035,-2.0778582,0.66523224,19.989086,-36.43414,53.385918,STN
120450052900000,4.14006,7.11490001517743,9.74218744883515,0.371642805381893,-0.9379836,-2.3906212,0.6264423,21.276028,-36.53963,53.33166,STN
120450057872000,4.145032,6.91283446329511,9.5793487594825,0.317171302275801,-0.82527894,-2.6398542,0.60048056,22.689903,-36.674942,53.243855,STN
120450062908000,4.150068,6.54886142556111,9.14447142810938,0.265175142746251,-0.7134906,-2.8506026,0.56505036,24.187159,-36.829304,53.1291,STN
