timestamp,rel_time,acc_x,acc_y,acc_z,gyro_x,gyro_y,gyro_z,azimuth,pitch,roll,label
3124448746000,0,1.69103258343737,-9.51658894405668,0.767531345033354,-0.02321288,0.012217305,0.025350908,354.00366,78.90953,9.939573,STD
3124453758000,0.005012,1.69318631188715,-9.51551208295526,0.768488558371806,-0.016187929,0.018936822,0.023823744,354.03998,78.84527,9.947769,STD
3124458752000,0.010006,1.69533230547817,-9.514439089272,0.769442333992761,-0.023823744,0.017104227,0.023823744,354.07104,78.78632,9.953985,STD
3124463751000,0.015005,1.69748044764107,-9.51336502130593,0.770397064535243,-0.0106901415,0.012217305,0.014660766,354.1025,78.72184,9.962978,STD
3124468754000,0.020008,1.69963030866147,-9.51229009391359,0.771352559014947,-0.010079277,0.013133603,0.021685716,354.13376,78.665,9.96706,STD
3124473857000,0.025111,1.70182314111941,-9.5111936808648,0.772327151925186,-0.0125227375,0.0125227375,0.021685716,354.16272,78.603745,9.975687,STD
3124478784000,0.030038,1.70394034384728,-9.51013508257137,0.773268131597683,-0.0070249503,0.014660766,0.030848695,354.19138,78.54638,9.979403,STD
3124483742000,0.034996,1.70607086772079,-9.50906982372444,0.774215031783645,-0.008857546,0.009162978,0.0290161,354.21713,78.488686,9.986289,STD
3124488757000,0.040011,1.70822588531369,-9.50799231805333,0.775172818075013,-0.017104227,0.0015271631,0.025350908,354.24185,78.43402,9.990961,STD
3124493757000,0.045011,1.71037445719097,-9.50691803523068,0.776127739601801,-0.005192355,-0.0030543262,0.029626964,354.26495,78.379295,9.993833,STD
3124498752000,0.050006,1.71252088049637,-9.50584482669086,0.777081706207062,-0.004581489,-0.0009162979,0.02565634,354.2874,78.325554,9.999976,STD
3124503751000,0.055005,1.71466902265926,-9.50477075872478,0.778036436749544,-0.0018325958,-0.0030543262,0.03756821,354.30603,78.27581,10.000541,STD
3124508753000,0.060007,1.71681845396529,-9.50369604618902,0.778991740244942,-0.0070249503,-0.004886922,0.029321533,354.32544,78.22241,10.007771,STD
3124513929000,0.065183,1.71904265557265,-9.50258394861102,0.779980275009473,-0.006414085,0.0018325958,0.036957346,354.34525,78.175606,10.006838,STD
3124518725000,0.069979,1.72110356571733,-9.50155349652754,0.780896235737967,0.0018325958,0.00580322,0.03176499,354.36377,78.12443,10.01194,STD
3124523769000,0.075023,1.72327104502712,-9.50046976001605,0.781859560574191,0.0061086523,0.009468411,0.027794369,354.3833,78.07703,10.014244,STD
3124528766000,0.08002,1.72541832776127,-9.49939612176311,0.782813909148062,0.004886922,0.020158553,0.027488936,354.40546,78.030014,10.016511,STD
3124533743000,0.084997,1.72755701620791,-9.49832678064145,0.783764438035826,0.005192355,0.022907447,0.028099801,354.42587,77.98261,10.01963,STD
3124538766000,0.09002,1.72971547151582,-9.49724755611782,0.784723752201637,-0.00061086525,0.010079277,0.025045475,354.4444,77.93668,10.02387,STD
3124543759000,0.095013,1.73186103539247,-9.49617477729113,0.785677336838287,-0.0027488936,0.017715093,0.022907447,354.46893,77.89175,10.026723,STD
3124548757000,0.100011,1.73400874784099,-9.49510092418162,0.786631876396464,-0.004581489,0.023518313,0.018325957,354.4889,77.84761,10.031459,STD
3124553746000,0.105,1.73615259286013,-9.49402900478118,0.787584697095893,-0.004886922,0.025045475,0.021991149,354.50903,77.80627,10.03414,STD
3124558756000,0.11001,1.73830546188116,-9.49295257339289,0.788541528465734,-0.007330383,0.010079277,0.026572637,354.52563,77.76596,10.037998,STD
3124563757000,0.115011,1.74045446347281,-9.49187807571369,0.789496640976827,-0.008857546,0.013744468,0.023518313,354.54764,77.72585,10.042069,STD
3124568745000,0.119999,1.74259787877758,-9.49080637116982,0.79044927069195,-0.01160644,0.018325957,0.025350908,354.56476,77.6897,10.0438,STD
3124573759000,0.125013,1.74475246665611,-9.48972908035527,0.791406865999013,-0.011301007,0.021991149,0.025045475,354.5824,77.65322,10.046739,STD
3124578745000,0.129999,1.74689502253213,-9.48865780552453,0.792359113745525,-0.011301007,0.0125227375,0.023518313,354.59705,77.6185,10.049654,STD
3124583732000,0.134986,1.74903800812253,-9.48758631583723,0.793311552476343,-0.006414085,0.003970624,0.02076942,354.6126,77.58366,10.052678,STD
3124588765000,0.140019,1.75120076057419,-9.48650494274796,0.794272776485208,-0.01160644,0.004581489,0.02321288,354.62753,77.55242,10.054518,STD
3124593748000,0.145002,1.75334202730708,-9.48543431248691,0.795224451278804,-0.01160644,-0.00061086525,0.02107485,354.63818,77.51886,10.058819,STD
3124598748000,0.150002,1.75549059918436,-9.48436002966427,0.796179372805592,-0.01282817,0.002443461,0.024740042,354.65073,77.4893,10.06032,STD
3124603751000,0.155005,1.75764046020476,-9.48328510227194,0.797134867285295,-0.014660766,0.008857546,0.02321288,354.69543,77.429634,10.079032,STD
3124608799000,0.160053,1.75980965837205,-9.48220050633419,0.79809895605874,-0.01160644,0.0033597588,0.028710667,354.73703,77.3725,10.094722,STD
3124613719000,0.164973,1.76192385309929,-9.48114341203672,0.799038598841099,0.0015271631,0.003970624,0.031154128,354.7823,77.313644,10.110888,STD
3124618729000,0.169983,1.76407672212032,-9.48006698064843,0.79999543021094,-0.0018325958,0.00580322,0.032375857,354.82596,77.25885,10.125677,STD
3124623820000,0.175074,1.76626439800576,-9.47897314587841,0.800967731309515,-0.004581489,0.010995574,0.027183503,354.8707,77.20164,10.14112,STD
3124628791000,0.180045,1.76840050816615,-9.47790509389614,0.801917114291448,-0.010995574,0.014049901,0.022602014,354.91507,77.14693,10.155727,STD
3124635293000,0.186547,1.77119451103536,-9.47650809651358,0.803158894244882,-0.011301007,0.016187929,0.01863139,354.96057,77.09154,10.171086,STD
3124638738000,0.189992,1.7726748770588,-9.47576791564877,0.803816835176839,-0.0036651916,0.02076942,0.025045475,355.00717,77.03816,10.184152,STD
3124643752000,0.195006,1.77482946493733,-9.47469062483423,0.804774430483902,0.0015271631,0.009773844,0.02565634,355.04996,76.98407,10.200071,STD
3124648749000,0.200003,1.77697674767148,-9.47361698658128,0.805728779057773,0.002443461,0.014966198,0.02687807,355.09808,76.932014,10.212732,STD
3124653753000,0.205007,1.77912703840626,-9.47254184433238,0.806684464521782,-0.0018325958,0.0076358155,0.03145956,355.13895,76.881905,10.224817,STD
3124658740000,0.209994,1.78127002399665,-9.47147035464507,0.8076369032526,0.008857546,0.012217305,0.0290161,355.18463,76.82873,10.237435,STD
3124663749000,0.215003,1.7834224633033,-9.47039413811335,0.808593543638136,0.0012217305,0.004581489,0.027794369,355.2241,76.78193,10.248846,STD
3124668737000,0.219991,1.78556587860807,-9.46932243356948,0.809546173353259,0.0015271631,0.004581489,0.026267206,355.26678,76.73228,10.260136,STD
3124673784000,0.225038,1.78773464706099,-9.46823805248831,0.810510071142398,0.0027488936,0.004581489,0.02687807,355.30692,76.68512,10.27109,STD
3124678758000,0.230012,1.78987204636451,-9.46716935593634,0.811460027077247,-0.006414085,0.0067195175,0.025045475,355.34744,76.640015,10.282673,STD
3124683740000,0.234994,1.79201288338302,-9.46609894053186,0.812411510886538,-0.006414085,0.020158553,0.021991149,355.39087,76.59399,10.293545,STD
3124688746000,0.24,1.79416403354655,-9.46502336856983,0.813367578319158,-0.004581489,0.021991149,0.025961773,355.43094,76.551506,10.302936,STD
3124693747000,0.245001,1.7963130351382,-9.46394887089063,0.814322690830251,-0.010995574,0.02565634,0.028710667,355.4752,76.51071,10.3124275,STD
3124699506000,0.25076,1.79878776022645,-9.46271151193551,0.815422569444805,-0.016187929,0.032070424,0.01863139,355.5207,76.46852,10.323804,STD
3124703760000,0.255014,1.80061576517963,-9.46179751211,0.816235016679795,-0.016493361,0.040011674,0.022602014,355.5665,76.43135,10.329793,STD
3124708773000,0.260027,1.80276992334379,-9.46072043615202,0.817192421002553,-0.01740966,0.040317107,0.024129177,355.61203,76.3936,10.338902,STD
3124713720000,0.264974,1.80489572035916,-9.4596575407273,0.818137220361156,-0.013744468,0.034513887,0.02076942,355.65762,76.35593,10.34774,STD
3124718756000,0.27001,1.80705976195395,-9.45857552306833,0.819099017322937,-0.017715093,0.029626964,0.023823744,355.7027,76.32263,10.353843,STD
3124723812000,0.275066,1.80923239783625,-9.45748920827808,0.820064633970824,-0.022907447,0.03634648,0.027488936,355.74908,76.289345,10.360023,STD
3124728823000,0.280077,1.81138569657166,-9.45641256203322,0.821021656324971,-0.024740042,0.03726278,0.029626964,355.79184,76.25751,10.365839,STD
3124733747000,0.285001,1.8135016101564,-9.45535460830948,0.821962063044551,-0.02321288,0.03970624,0.03176499,355.8363,76.22777,10.369867,STD
3124738746000,0.29,1.8156497523193,-9.45428054034341,0.822916793587033,-0.03268129,0.03848451,0.02565634,355.87976,76.200035,10.375384,STD
3124743758000,0.295012,1.81780348076908,-9.45320367924199,0.823874006925485,-0.04337143,0.029932396,0.03604105,355.9205,76.1772,10.375515,STD
3124748760000,0.300014,1.8199529120751,-9.45212896670622,0.824829310420884,-0.0580322,0.027183503,0.03604105,355.9628,76.15423,10.379724,STD
3124753753000,0.305007,1.82209847595175,-9.45105618787953,0.825782895057534,-0.06261369,0.025961773,0.038789943,356.00204,76.134964,10.380254,STD
3124758727000,0.309981,1.82423587525526,-9.44998749132756,0.826732850992382,-0.080634214,0.027794369,0.040011674,356.04102,76.121346,10.380918,STD
3124763753000,0.315007,1.8263956197063,-9.44890762223424,0.827692738111109,-0.09162979,0.021991149,0.044898596,356.07675,76.10928,10.379922,STD
3124769042000,0.320296,1.82866837903808,-9.44777124586445,0.828702854102145,-0.10720685,0.01160644,0.054367006,356.11105,76.10326,10.377167,STD
3124773821000,0.325075,1.83072198403838,-9.44674444634257,0.829615568097448,-0.10842858,0.008552114,0.057421334,356.14548,76.09669,10.374569,STD
3124778828000,0.330082,1.83287356391628,-9.44566865952397,0.830571826514373,-0.11728613,0.007941248,0.055283304,356.1772,76.09572,10.371003,STD
3124783642000,0.334896,1.83494220891972,-9.44463434002233,0.831491224960365,-0.11453723,0.010995574,0.054367006,356.20856,76.09393,10.366102,STD
3124788740000,0.339994,1.83713289280579,-9.44353900125637,0.832464862949077,-0.10629055,0.020463986,0.058948494,356.2412,76.09371,10.359871,STD
3124793762000,0.345016,1.84172892247933,-9.44187998885671,0.83013931905533,-0.1133155,0.023518313,0.058948494,356.27286,76.09492,10.35523,STD
3124798750000,0.350004,1.85347799682918,-9.43852309187192,0.818150464274908,-0.11575896,0.02687807,0.0571159,356.3069,76.09453,10.34927,STD
3124803744000,0.354998,1.86524120398699,-9.43516215691963,0.806147188257781,-0.106595986,0.028710667,0.057726767,356.3602,76.05137,10.371179,STD
3124808825000,0.360079,1.8772093368602,-9.43174267143854,0.793934804308438,-0.1133155,0.018020526,0.053450707,356.4113,76.010956,10.394852,STD
3124813718000,0.364972,1.8887346417507,-9.42844970893923,0.782174285775839,-0.11362094,0.0036651916,0.051923547,356.46164,75.96905,10.417102,STD
3124818772000,0.370026,1.9006391769881,-9.4250483943119,0.770026797391667,-0.12064589,-0.009468411,0.048563786,356.50958,75.92912,10.440938,STD
3124823797000,0.375051,1.91247540365369,-9.42166659652751,0.757949011651566,-0.108123146,-0.023823744,0.042760566,356.55325,75.88543,10.466049,STD
3124828820000,0.380074,1.9243069193833,-9.41828614473229,0.745876032990368,-0.122783914,-0.040317107,0.042455133,356.59247,75.849464,10.490686,STD
3124835302000,0.386556,1.93957506291492,-9.41392379383906,0.730296290270501,-0.12767084,-0.05222898,0.03176499,356.62964,75.80659,10.519746,STD
3124838804000,0.390058,1.94782391182695,-9.41156696680604,0.721879095113918,-0.13225232,-0.065973446,0.03176499,356.6611,75.769394,10.546138,STD
3124843730000,0.394984,1.95942694716122,-9.40825179548546,0.710039259779443,-0.13897185,-0.070554934,0.026267206,356.6926,75.73086,10.576564,STD
3124848717000,0.399971,1.97117366604308,-9.40489557149526,0.698052808538472,-0.13805555,-0.06811147,0.010079277,356.72278,75.69016,10.609672,STD
3124853703000,0.404957,1.98291802945694,-9.40154002049964,0.686068760836952,-0.13255776,-0.07880162,0.0030543262,356.74774,75.65138,10.6419115,STD
3124858728000,0.409982,1.99475425612254,-9.39815822271525,0.673990975096851,-0.1386664,-0.0888809,-0.007330383,356.77457,75.611275,10.678734,STD
3124863725000,0.414979,2.00652452968432,-9.39479526877921,0.661980488461372,-0.12614368,-0.08979719,-0.020158553,356.80145,75.56538,10.717491,STD
3124868716000,0.41997,2.01828067043815,-9.39143635281067,0.649984423062598,-0.11636983,-0.086132,-0.03023783,356.82715,75.52039,10.757797,STD
3124873729000,0.424983,2.03008863148783,-9.38806263096128,0.637935479795907,-0.1142318,-0.08674286,-0.035124753,356.8517,75.4738,10.799575,STD
3124878718000,0.429972,2.04184006130567,-9.38470506098191,0.625944221476034,-0.115453534,-0.08674286,-0.042760566,356.87808,75.4243,10.8437805,STD
3124883710000,0.434964,2.05359855752749,-9.38134547201879,0.613945752537809,-0.111177474,-0.07788532,-0.046120327,356.9068,75.3743,10.886749,STD
3124888715000,0.439969,2.06538767483323,-9.37797713412608,0.601916037586724,-0.111177474,-0.08857546,-0.054367006,356.9304,75.32374,10.93317,STD
3124893725000,0.444979,2.07718856947893,-9.37460543126045,0.589874304938386,-0.10567969,-0.08582657,-0.055588737,356.96008,75.27327,10.976417,STD
3124898711000,0.449965,2.08893293289279,-9.37124988026483,0.577890257236865,-0.10873401,-0.095294975,-0.06780604,356.984,75.22142,11.02514,STD
3124903753000,0.455007,2.10080920251427,-9.36785664157251,0.565771611326102,-0.11728613,-0.09865474,-0.061391957,357.00943,75.17448,11.06745,STD
3124908795000,0.460049,2.11268547213575,-9.36446340288019,0.553652965415339,-0.11056661,-0.09193522,-0.07238753,357.03638,75.12003,11.116965,STD
3124913669000,0.464923,2.12416602313438,-9.36118322727797,0.541938114132304,-0.113926366,-0.089186326,-0.07544186,357.06033,75.073296,11.161732,STD
3124918715000,0.469969,2.13605171462783,-9.35778729660732,0.529809854063738,-0.12217305,-0.092240654,-0.08582657,357.08527,75.023415,11.210508,STD
3124923775000,0.475029,2.14797038267319,-9.35438194401249,0.517647944442861,-0.116980694,-0.10873401,-0.09101892,357.10684,74.97325,11.2581,STD
3124928707000,0.479961,2.15958755081542,-9.3510627347244,0.505793687871681,-0.116980694,-0.10476339,-0.09132435,357.13345,74.92558,11.305207,STD
3124933689000,0.484943,2.17132249235731,-9.34770987570712,0.493819254327964,-0.12614368,-0.112399206,-0.09865474,357.1524,74.87716,11.356004,STD
3124939007000,0.490261,2.1838488711449,-9.34413089050963,0.481037231528789,-0.12064589,-0.12156218,-0.10262536,357.1717,74.827774,11.404676,STD
3124943708000,0.494962,2.19492192618071,-9.34096714297044,0.469738192570737,-0.12217305,-0.13164146,-0.10354166,357.1885,74.78159,11.453815,STD
3124948722000,0.499976,2.20673224269838,-9.33759274812647,0.457686845764595,-0.13439035,-0.1469131,-0.10934488,357.20148,74.73556,11.505017,STD
3124953627000,0.504881,2.2182858132048,-9.33429170969215,0.445897484758587,-0.12980886,-0.15485434,-0.11362094,357.21344,74.68787,11.555051,STD
3124958644000,0.509898,2.23010319612645,-9.33091529586443,0.433838927334093,-0.14019357,-0.15363261,-0.11759156,357.2238,74.64505,11.605793,STD
3124963635000,0.514889,2.24185933688028,-9.32755637989589,0.421842861935319,-0.1432479,-0.14874569,-0.11575896,357.23267,74.60136,11.655179,STD
3124968627000,0.519881,2.2536178331021,-9.32419679093277,0.409844392997094,-0.14752395,-0.15577064,-0.11942416,357.23883,74.55871,11.706625,STD
3124973667000,0.524921,2.26548939178759,-9.32080489822962,0.397730554165232,-0.14202617,-0.14385876,-0.11453723,357.2512,74.518005,11.752821,STD
3124978641000,0.529895,2.27720548958554,-9.31745742316901,0.385775348937121,-0.14202617,-0.14569137,-0.11056661,357.25763,74.47902,11.800242,STD
3124983579000,0.534833,2.28883679053573,-9.31413417591342,0.373906671129237,-0.1432479,-0.14172074,-0.11362094,357.26913,74.43967,11.846307,STD
3124988651000,0.539905,2.30078372419701,-9.31072074738358,0.361715919034951,-0.1600467,-0.13683382,-0.11301007,357.27982,74.40572,11.889247,STD
3124993637000,0.544891,2.31277460430814,-9.32285728984792,0.344813252723101,-0.1600467,-0.12644911,-0.11178834,357.29315,74.36925,11.93138,STD
3124998630000,0.549884,2.32517719628444,-9.3598265496032,0.320008072257221,-0.15271631,-0.12797627,-0.11148291,357.30432,74.33521,11.972957,STD
3125003704000,0.554958,2.33778099193589,-9.39739555100483,0.294800484497583,-0.15607607,-0.12156218,-0.11759156,357.31335,74.2715,12.073,STD
3125008723000,0.559977,2.35024816780792,-9.43455732042438,0.269866136258399,-0.1685988,-0.12156218,-0.11484267,357.31995,74.210884,12.168925,STD
3125013718000,0.564972,2.3626557277762,-9.47154138861538,0.245051019809957,-0.16584991,-0.13775012,-0.110872045,357.32428,74.14783,12.264768,STN
3125018744000,0.569998,2.37514029162015,-9.50875498755992,0.220081895631806,-0.16126843,-0.14508049,-0.12003502,357.332,74.08513,12.361171,STN
3125024501000,0.575755,2.38944065653254,-9.55138106975723,0.191481169827265,-0.16432275,-0.1563815,-0.12156218,357.33356,74.02663,12.453456,STN
3125028722000,0.579976,2.39992560360483,-9.58263427332765,0.170511278630294,-0.16737708,-0.17379116,-0.1255328,357.33212,73.9655,12.54783,STN
3125035256000,0.58651,2.41615603340117,-9.63101343279912,0.138050423600441,-0.18020524,-0.1881465,-0.13103059,357.32867,73.906746,12.641627,STN
3125038703000,0.589957,2.42471836757748,-9.65653577174894,0.12092575765494,-0.19181168,-0.20677789,-0.14202617,357.3197,73.846924,12.737345,STN
3125043725000,0.594979,2.43719299543747,-9.69371975382206,0.0959765054419122,-0.20097467,-0.21533,-0.1469131,357.30975,73.78975,12.831253,STN
3125048711000,0.599965,2.44957819944184,-9.73063718405236,0.0712061009149995,-0.21410827,-0.22571471,-0.15790866,357.295,73.732056,12.929116,STN
3125053710000,0.604964,2.46199569539408,-9.76765086911478,0.046371112501434,-0.2275473,-0.23793201,-0.16615535,357.27768,73.676094,13.026203,STN
3125058722000,0.609976,2.47444548329418,-9.80476080900933,0.0214715402012161,-0.25228736,-0.25717425,-0.17928895,357.25638,73.62125,13.126697,STN
3125063716000,0.61497,2.48685055926646,-9.84173747298248,-0.00333860825594443,-0.2733622,-0.2602286,-0.20647246,357.23764,73.5634,13.231325,STN
3125068744000,0.619998,2.4993400911024,-9.87896588036273,-0.028317668416658,-0.2837469,-0.27122417,-0.22449298,357.21158,73.50741,13.336395,STN
3125073804000,0.625058,2.51190911081,-9.91643122271437,-0.0534557042983625,-0.2846632,-0.2883284,-0.23365596,357.18405,73.44951,13.44492,STN
3125078743000,0.629997,2.52417756700286,-9.95300065470543,-0.0779926132350697,-0.29718593,-0.2910773,-0.24831672,357.15897,73.39019,13.55768,STN
3125083717000,0.634971,2.53653296305535,-9.98982923432146,-0.102703401866611,-0.31703907,-0.29260445,-0.2837469,357.13104,73.32553,13.677421,STN
3125088706000,0.63996,2.54892561904769,-10.0267688772053,-0.127488710367367,-0.32070425,-0.28130344,-0.28924468,357.10556,73.26429,13.790067,STN
3125094122000,0.645376,2.56237894132761,-10.0668701211137,-0.154395351145096,-0.35124752,-0.27916542,-0.3145956,357.07996,73.19791,13.916348,STN
3125098718000,0.649972,2.57379538689602,-10.1008999063802,-0.177228239072431,-0.36163223,-0.27152961,-0.33017266,357.0592,73.130325,14.038155,STN
3125103703000,0.654957,2.5861781069044,-10.1378099323926,-0.201993675608063,-0.38453966,-0.26847526,-0.36102137,357.0399,73.0602,14.16895,STN
3125108727000,0.659981,2.59865770275637,-10.1750087229014,-0.226952863803652,-0.4025602,-0.26053402,-0.3817908,357.0246,72.99001,14.298058,STN
3125113711000,0.664965,2.61103793876876,-10.211911344696,-0.251713332348003,-0.42271876,-0.24373524,-0.40591997,357.01453,72.91582,14.433484,STN
3125118762000,0.670016,2.62358460251246,-10.2493100490869,-0.276806656308179,-0.44318274,-0.22999077,-0.42730024,357.00677,72.840454,14.570899,STN
3125123791000,0.675045,2.63607661834438,-10.2865458606851,-0.301790684460173,-0.46853364,-0.226631,-0.4615087,357.00262,72.76023,14.715481,STN
3125128768000,0.680022,2.64843946638484,-10.3233966529546,-0.326516377065557,-0.48930305,-0.22449298,-0.49571714,357.00305,72.67753,14.862466,STN
3125133719000,0.684973,2.66073773052958,-10.36005493556,-0.351112901897636,-0.5213735,-0.20189096,-0.52412236,357.01163,72.59358,15.013186,STN
3125138710000,0.689964,2.67313535451389,-10.3970093868796,-0.375908146380954,-0.5552765,-0.18509217,-0.5525276,357.02057,72.504814,15.170381,STN
3125143728000,0.694982,2.68560004638993,-10.4341637520812,-0.400837526628858,-0.5867361,-0.19761491,-0.57818395,357.02847,72.414246,15.331618,STN
3125148714000,0.699968,2.6979852503943,-10.4710811823115,-0.42560793115577,-0.6068946,-0.22418754,-0.61178154,357.03848,72.31811,15.499372,STN
3125153699000,0.704953,2.71036797040268,-10.507991208324,-0.450373367691402,-0.63163465,-0.22418754,-0.64599,357.05347,72.22057,15.670228,STN
3125158730000,0.709984,2.72286495422659,-10.5452418283578,-0.475367331825959,-0.65179324,-0.1966986,-0.65270954,357.0687,72.123886,15.83895,STN
3125163734000,0.714988,2.73529487015877,-10.5822925345095,-0.500227160195929,-0.6844745,-0.18906279,-0.66981375,357.0797,72.02107,16.01717,STN
3125168768000,0.720022,2.74779930597064,-10.6195653671969,-0.525236028304328,-0.700357,-0.1863139,-0.68111473,357.09705,71.91881,16.190739,STN
3125173721000,0.724975,2.76010253810735,-10.6562384582379,-0.549842489118969,-0.7171558,-0.1957823,-0.71685034,357.11435,71.81043,16.372269,STN
3125178685000,0.729939,2.77243309419995,-10.6929929956754,-0.5745035978377,-0.7284568,-0.17928895,-0.7458665,357.13986,71.7025,16.549957,STN
3125183659000,0.734913,2.78478849025244,-10.7298215752914,-0.599214386469242,-0.7519751,-0.16768251,-0.77854776,357.16232,71.588234,16.735294,STN
3125188709000,0.739963,2.79733267000015,-10.7672128754645,-0.624302742438136,-0.7672467,-0.15454891,-0.8191703,357.19107,71.465256,16.926195,STN
3125193691000,0.744945,2.81113866267573,-10.7626113811184,-0.646352499429676,-0.79534656,-0.14110987,-0.84513205,357.22348,71.34241,17.117422,STN
3125198675000,0.749929,2.82830141490634,-10.6608267395986,-0.662085023344836,-0.8176431,-0.12767084,-0.8885035,357.2614,71.20616,17.320124,STN
3125203697000,0.754951,2.84559502279199,-10.558266051454,-0.677937498285032,-0.8695667,-0.1282817,-0.93370754,357.29413,71.0841,17.5482,STN
3125208681000,0.759935,2.8627577750226,-10.4564814099342,-0.693670022200193,-0.9049969,-0.13194689,-0.977079,357.3316,70.94989,17.78228,STN
3125213701000,0.764955,2.88004449576851,-10.3539615663489,-0.709516183928545,-0.9737192,-0.16982053,-1.0320568,357.36072,70.80728,18.028145,STN
3125218700000,0.769954,2.89725890154717,-10.2518705906351,-0.725296056932535,-1.029308,-0.20952678,-1.102001,357.3901,70.64926,18.28503,STN
3125223694000,0.774948,2.91445608947647,-10.1498817263193,-0.741060146906915,-1.1191051,-0.25381452,-1.1667526,357.4083,70.4851,18.551516,STN
3125228723000,0.779977,2.93177380235121,-10.0471780822176,-0.756934718088565,-1.1911873,-0.29138273,-1.2449434,357.41904,70.29918,18.836515,STN
3125234264000,0.785518,2.95085462299925,-9.93401823096131,-0.77442547150227,-1.2681563,-0.3295618,-1.3154984,357.41766,70.10281,19.132576,STN
3125238714000,0.789968,2.96617850891943,-9.8431390867472,-0.788472367855092,-1.3478742,-0.3475823,-1.398576,357.4133,69.8844,19.448076,STN
3125243725000,0.794979,2.98343423753652,-9.74080304367824,-0.804290120130146,-1.4165965,-0.3494149,-1.4752395,357.40353,69.64998,19.775303,STN
3125248716000,0.79997,3.00062109475621,-9.63887544620125,-0.82004474028676,-1.4773777,-0.34972036,-1.5497651,357.39023,69.39492,20.118498,STN
3125253706000,0.80496,3.01780450840604,-9.53696827100386,-0.835796203837453,-1.5222762,-0.36102137,-1.6242907,357.37408,69.11898,20.475994,STN
3125258748000,0.810002,3.03516698768909,-9.43399913726734,-0.851711810896088,-1.5693128,-0.3576616,-1.6609426,357.36218,68.834,20.835464,STN
3125263719000,0.814973,3.05228497351139,-9.33247998538232,-0.867403298934263,-1.600467,-0.3594942,-1.7168368,357.34625,68.52223,21.213663,STN
3125268690000,0.819944,3.06940295933369,-9.23096083349731,-0.883094786972438,-1.616044,-0.35369098,-1.7418822,357.3327,68.209015,21.584864,STN
3125273771000,0.825025,3.08689973784166,-9.12719523085644,-0.899133501662031,-1.6609426,-0.33505958,-1.7876972,357.3227,67.87565,21.969255,STN
3125278760000,0.830014,3.10407970792161,-9.02530847793864,-0.914881808606801,-1.7046194,-0.3042109,-1.8106046,357.31714,67.54184,22.345552,STN
3125283716000,0.83497,3.12114604019587,-8.92409566024761,-0.930525947556146,-1.7641789,-0.2275473,-1.8102992,357.33075,67.203636,22.719053,STN
3125288696000,0.83995,3.138295018147,-8.8223927078462,-0.946245845047619,-1.8038851,-0.23273966,-1.8237382,357.32788,66.8561,23.095148,STN
3125293725000,0.844979,3.15561273102174,-8.71968906374446,-0.962120416229268,-1.8185458,-0.26145032,-1.853976,357.34036,66.50575,23.466988,STN
3125298716000,0.84997,3.17279958824143,-8.61776146626747,-0.977875036385883,-1.7864754,-0.27275133,-1.8710803,357.3555,66.15688,23.830582,STN
3125303708000,0.854962,3.189989889031,-8.51581344651088,-0.993632813148419,-1.7324139,-0.27916542,-1.883603,357.36234,65.80284,24.193474,STN
3125308757000,0.860011,3.20737647330314,-8.41270135681717,-1.00957051644851,-1.6627752,-0.25717425,-1.8658879,357.3736,65.45529,24.544523,STN
3125313716000,0.86497,3.224453136287,-8.31142727228734,-1.02522412521562,-1.6114625,-0.23548855,-1.8316795,357.382,114.887535,24.88659,STN
3125318782000,0.870036,3.24189826124692,-8.20796800384045,-1.04121549081638,-1.5754215,-0.27885997,-1.7935003,357.37604,115.21997,25.214773,STN
3125323780000,0.875034,3.25910922345571,-8.10589745040627,-1.05699220721445,-1.5509869,-0.376293,-1.7345519,357.35922,115.53208,25.519724,STN
3125328749000,0.880003,3.27622032213827,-8.00441914308045,-1.07267738204078,-1.5286902,-0.4373795,-1.6728544,357.3398,115.82785,25.805996,STN
3125333759000,0.885013,3.29347260718549,-7.90210352229109,-1.08849197770991,-1.5033394,-0.44715336,-1.6056592,357.3058,116.10095,26.06741,STN
3125338762000,0.890016,3.31070078724362,-7.79993085745891,-1.10428447713759,-1.4453071,-0.41386122,-1.5213599,357.26657,116.34709,26.300575,STN
3125343756000,0.89501,3.32789797517292,-7.69794199314313,-1.12004856711197,-1.393689,-0.38026363,-1.4480561,357.22498,116.57338,26.51253,STN
3125349418000,0.900672,3.34739546777519,-7.58231104605542,-1.13792126984224,-1.3130548,-0.3210097,-1.3603969,357.20343,116.76658,26.692326,STN
3125353758000,0.905012,3.3623405610097,-7.49367835259717,-1.15162093954364,-1.2366967,-0.25534168,-1.2742649,357.1958,116.935196,26.84811,STN
3125358766000,0.91002,3.37958595891718,-7.39140357636701,-1.16742922200093,-1.1572843,-0.19883664,-1.153619,357.20602,117.06424,26.96618,STN
3125363754000,0.915008,3.39676248542727,-7.28953724572881,-1.18317437233978,-1.0677924,-0.17104226,-1.108415,357.22842,117.18564,27.078857,STN
3125368787000,0.920041,3.41409397258149,-7.18675191250868,-1.19906156994512,-1.0057896,-0.27763826,-1.0479393,357.2276,117.265076,27.149609,STN
3125373849000,0.925103,3.43152532326193,-7.08337433318018,-1.21504030912219,-0.8765916,-0.37782016,-0.97585726,357.2385,117.32255,27.202717,STN
3125378857000,0.930111,3.44877072116941,-6.98109955695001,-1.23084859157948,-0.77274454,-0.41416663,-0.88361657,357.23685,117.35485,27.231035,STN
3125383654000,0.934908,3.46528952583439,-6.88313388171517,-1.24599083018723,-0.6835582,-0.44684792,-0.7870999,357.2054,117.36188,27.235758,STN
3125388741000,0.939995,3.48280696576157,-6.7792457453967,-1.26204848451235,-0.6151413,-0.4654793,-0.6908886,357.16827,117.34061,27.214035,STN
3125393758000,0.945012,3.4959767600034,-6.69731919675911,-1.27870763701497,-0.54367006,-0.47769663,-0.6078109,357.12393,117.293945,27.168936,STN
3125398756000,0.95001,3.49765042790421,-6.67293151727542,-1.29759613088385,-0.5027421,-0.46944994,-0.52412236,357.08154,117.220116,27.097572,STN
3125403748000,0.955002,3.49932208659986,-6.64857311471787,-1.31646194948999,-0.46914452,-0.43951756,-0.44837508,357.0122,117.3509,27.227076,STN
3125408772000,0.960026,3.50100446105639,-6.62405856855419,-1.33544870283078,-0.43951756,-0.40561453,-0.37690386,356.9467,117.456215,27.332321,STN
3125413720000,0.964974,3.50266138558084,-6.59991486345508,-1.35414823617677,-0.42119157,-0.31612277,-0.3136793,356.90836,117.54021,27.418034,STN
3125419469000,0.970723,3.50458653899457,-6.57186268871483,-1.37587491709958,-0.39675698,-0.20280726,-0.24617869,356.88824,117.60054,27.481792,STN
3125423868000,0.975122,3.5060596212466,-6.55039782235854,-1.39249966390415,-0.35521814,-0.08368854,-0.18478674,356.89798,117.64281,27.529577,STN
3125428765000,0.980019,3.50769946752717,-6.52650297113171,-1.41100645751678,-0.29810223,0.017104227,-0.13408493,356.9371,117.667305,27.561594,STN
3125435273000,0.986527,3.50987878539402,-6.49474726523338,-1.43560155917719,-0.25228736,0.10140363,-0.079107046,357.00775,117.67206,27.57547,STN
3125438751000,0.990005,3.51104345465353,-6.47777640704124,-1.44874565314998,-0.19914207,0.16584991,-0.029626964,357.1021,117.66249,27.576826,STN
3125443771000,0.995025,3.51272448963995,-6.45328137882832,-1.46771728964894,-0.14294247,0.20097467,0.015271631,357.21146,117.63792,27.563957,STN
3125448752000,1.000006,3.5143924647928,-6.42897665063539,-1.48654153694004,-0.09468412,0.22174409,0.04062254,357.3336,117.6047,27.542768,STN
3125453746000,1.005,3.51606479322351,-6.40460848910246,-1.50541491396709,-0.055588737,0.23335053,0.070554934,357.46063,117.55768,27.507565,STN
3125458817000,1.010071,3.5177629064538,-6.37986460701726,-1.52457929019941,0.0106901415,0.24007004,0.10934488,357.5889,117.501175,27.462717,STN
3125463751000,1.015005,3.51941514283288,-6.35578921474584,-1.54322591459899,0.07666359,0.24220806,0.12522738,357.71512,117.44404,27.416098,STN
3125468763000,1.020017,3.52109349887908,-6.33133322243446,-1.56216731741428,0.10476339,0.23518312,0.15607607,357.83636,117.37345,27.354511,STN
3125473906000,1.02516,3.52281572257133,-6.30623801723545,-1.58160379679957,0.18692477,0.21960606,0.18509217,357.95084,117.30029,27.28944,STN
3125478798000,1.030052,3.52445389451427,-6.28236756344709,-1.60009169435991,0.25595254,0.18570304,0.2312125,358.05258,117.21643,27.211367,STN
3125483754000,1.035008,3.52611349797894,-6.25818482244645,-1.61882146138957,0.34483343,0.15790866,0.26175576,358.1463,117.13175,27.13053,STN
3125488731000,1.039985,3.52778013366168,-6.23389961220428,-1.63763059183883,0.41874814,0.10995574,0.29626966,358.21765,62.96323,27.036766,STN
3125493759000,1.045013,3.52946384758831,-6.20936554808983,-1.65663246202146,0.49113566,0.06566802,0.33383787,358.276,63.063107,26.935242,STN
3125498753000,1.050007,3.53113617601902,-6.1849973865569,-1.67550583904851,0.57360244,0.043066,0.3885103,358.3205,63.17217,26.821157,STN
3125503747000,1.055001,3.53280850444973,-6.16062922502398,-1.69437921607557,0.64476824,0.014049901,0.45234573,358.3432,63.288334,26.696407,STN
3125508813000,1.060067,3.53450494334239,-6.13590974037724,-1.71352469625559,0.72356987,-0.034513887,0.5149594,358.3466,63.41236,26.559612,STN
3125513723000,1.064977,3.53614914290082,-6.11195145581042,-1.73208061960418,0.8081747,-0.060170226,0.5815437,358.342,63.547405,26.407,STN
3125518760000,1.070014,3.53783587063519,-6.08737347630675,-1.75111650268093,0.86651236,-0.0711658,0.6536258,358.32037,63.69301,26.239153,STN
3125523826000,1.07508,3.53953230952785,-6.06265399166001,-1.77026198286095,0.9224065,-0.07147124,0.7275405,358.2875,63.847725,26.056374,STN
3125528794000,1.080048,3.54119593140285,-6.03841269680706,-1.7890371004161,0.9837985,-0.06261369,0.81153446,358.2472,64.01477,25.855062,STN
3125533741000,1.084995,3.54285252105978,-6.01427387119565,-1.80773285455163,1.0253373,-0.047647487,0.8918633,358.2018,64.19058,25.638964,STN
3125538762000,1.090016,3.54453389091372,-5.98977396349505,-1.82670827026105,1.0836749,-0.03145956,0.96852684,358.15234,64.37572,25.405596,STN
3125543755000,1.095009,3.5462058844769,-5.96541068144981,-1.84557786807765,1.1230757,-0.009773844,1.0345002,358.10208,64.56806,25.158215,STN
3125548742000,1.099996,3.54787586883492,-5.94107667633072,-1.86442479063149,1.1575897,0.023518313,1.1172725,358.05255,64.77236,24.890228,STN
3125553740000,1.104994,3.54954953673573,-5.91668899684703,-1.88331328450038,1.1829406,0.04062254,1.1908818,357.99728,64.978424,24.612812,STN
3125558763000,1.110017,3.55123157632473,-5.89217933017104,-1.90229625863071,1.2009611,0.083383106,1.2330315,357.95316,65.1841,24.326675,STN
3125563752000,1.115006,3.5529022304178,-5.86783556607657,-1.92115073960548,1.2131784,0.15790866,1.3139712,357.91522,65.40633,24.01469,STN
3125568739000,1.119993,3.55457221477582,-5.84350156095748,-1.93999766215933,1.2385293,0.21624629,1.3793337,357.87857,65.61986,23.70194,STN
3125573799000,1.125053,3.55626664446332,-5.81881135323689,-1.95912046707661,1.2556335,0.3032946,1.4385877,357.86563,65.8392,23.372633,STN
3125578809000,1.130063,3.55794433077446,-5.7943651199009,-1.97805431147099,1.2547172,0.3915646,1.4770721,357.8635,66.0554,23.036575,STN
3125583708000,1.134962,3.55958484679008,-5.77046050969869,-1.99656866350454,1.260215,0.49663344,1.498147,357.88574,66.26603,22.693014,STN
3125588740000,1.139994,3.56126990018682,-5.74590692763347,-2.01558565052899,1.2727377,0.61483586,1.5192219,357.9315,66.4712,22.34261,STN
3125593697000,1.144951,3.5352109563658,-5.76341219116219,-1.9978548883979,1.2990049,0.7467828,1.5451837,358.00616,66.666145,21.987799,STN
3125598750000,1.150004,3.40575743194293,-5.93601657331814,-1.84442862629545,1.3292428,0.88300574,1.5796975,358.11038,66.85187,21.62685,STN
3125603718000,1.154972,3.27635591052263,-6.11458853217748,-1.67997878576996,1.3793337,0.97524637,1.6166549,358.2518,66.969376,21.3287,STN
3125608761000,1.160015,3.13639600506645,-6.33176781919656,-1.4579732968522,1.4153748,1.0577132,1.6380352,358.42334,67.07643,21.025372,STN
3125613713000,1.164967,2.99966940888194,-6.54160390397217,-1.2519402560742,1.4495832,1.1252137,1.6588045,358.72467,67.17654,20.678944,STN
3125618754000,1.170008,2.86339083497328,-6.74115477818328,-1.09132629151124,1.4840971,1.1609493,1.6807957,359.02985,67.26171,20.328566,STN
3125623828000,1.175082,2.75364435050005,-6.95013126161006,-0.947115764640063,1.5238034,1.1688906,1.6927075,359.4865,67.30987,19.94154,STN
3125628857000,1.180111,2.73456846063967,-7.18381040198039,-0.861274419618774,1.5488489,1.1716396,1.6896533,359.93774,67.33703,19.554895,STN
3125635243000,1.186497,2.78650165897123,-7.47293345178727,-0.786538880556234,1.5671748,1.171945,1.675298,0.55951816,67.28824,19.147718,STN
3125638755000,1.190009,2.88033602207498,-7.62541426503923,-0.774809575217088,1.5723672,1.1688906,1.643533,1.1631364,67.21056,18.74873,STN
3125643658000,1.194912,3.01133541908457,-7.83828824777681,-0.758434636698343,1.5552629,1.1255192,1.6038266,1.9745997,66.97763,18.381397,STN
3125648747000,1.200001,3.22875330784508,-8.10381423396226,-0.829806036395233,1.5210545,1.0665708,1.5519031,2.755927,66.71842,18.026367,STN
3125653676000,1.20493,3.44907025889772,-8.36631975396227,-0.909495166658391,1.466382,1.0259482,1.5180001,3.5060258,66.44659,17.678225,STN
3125658808000,1.210062,3.68972962699115,-8.61656269911505,-1.07611950702434,1.4523321,0.9233228,1.4489723,4.499336,65.89961,17.451769,STN
3125663649000,1.214903,3.91817945478681,-8.8496745695897,-1.24396017547265,1.3942999,0.8237518,1.3521502,5.4484897,65.361275,17.235945,STN
3125668759000,1.220013,4.1379031697818,-9.00964221194471,-1.4563972697818,1.320996,0.73761976,1.2452488,6.884547,64.324425,17.216387,STN
3125674711000,1.225965,4.39062494490133,-9.18307861775189,-1.70911904490133,1.2345587,0.6728681,1.1203269,8.2338,63.328144,17.198244,STN
3125678820000,1.230074,4.57735374650138,-9.24545439647383,-1.95772410181818,1.1355985,0.59498274,1.0027353,9.883709,61.99553,17.3307,STN
3125683715000,1.234969,4.80464329498623,-9.29711107526171,-2.28316150181818,1.0167851,0.5198463,0.87109387,11.435946,60.752697,17.446924,STN
3125688710000,1.239964,4.94056674067763,-9.31975958936002,-2.63347869157916,0.86926126,0.4474588,0.7440339,12.970763,59.512337,17.622974,STN
3125693729000,1.244983,5.0500889381811,-9.33404539171785,-2.99061649102437,0.71959925,0.3894266,0.61850107,14.427688,58.366886,17.784576,STN
3125698725000,1.249979,5.04296163616302,-9.33374850159046,-3.32156787689861,0.54825157,0.3680463,0.48533243,15.867244,57.306202,17.990618,STN
3125703733000,1.254987,5.00005457564612,-9.32898094532803,-3.64575513161034,0.38973203,0.4089743,0.35308012,17.260368,56.338673,18.175951,STN
3125708751000,1.260005,4.86844481103804,-9.18715333330061,-3.61320860371043,0.2406809,0.4896085,0.21380283,18.490276,55.63036,18.353138,STN
3125713717000,1.264971,4.70972226241472,-9.0027549682454,-3.46615680097178,0.100792766,0.5821546,0.11209377,19.709862,54.99387,18.509758,STN
3125718700000,1.269954,4.5504563623362,-8.81772535626994,-3.31860159898896,0.005497787,0.65393126,0.027488936,20.750954,54.631092,18.632004,STN
3125723776000,1.27503,4.38821801017914,-8.62924245231902,-3.16829250702331,-0.07574729,0.6780604,-0.033292156,21.797506,54.312912,18.744003,STN
3125728795000,1.280049,4.2140878893641,-8.41598486170512,-2.90778421075783,-0.1160644,0.6737844,-0.0842994,22.872658,54.016937,18.853418,STN
3125733716000,1.28497,4.03728247945976,-8.1949780993247,-2.60279496636654,-0.13652839,0.625526,-0.13041973,23.935232,53.752007,18.957394,STN
3125738714000,1.289968,3.80372177347377,-7.96748103952347,-2.4293447350138,-0.13897185,0.60231316,-0.17073683,25.021059,53.459118,19.021551,STN
3125744499000,1.295753,3.48079466129461,-7.70120806094693,-2.36136018879231,-0.13500121,0.6026186,-0.1872302,26.090225,53.189957,19.075834,STN
3125748713000,1.299967,3.26719792754491,-7.48564211717943,-2.35502056621929,-0.13652839,0.6059783,-0.19608775,27.24188,52.823803,19.10854,STN
3125753703000,1.304957,3.02544437964072,-7.21921985566797,-2.36982179438365,-0.12889257,0.61636305,-0.19883664,28.379118,52.481613,19.122799,STN
3125758780000,1.310034,2.85038984797857,-6.91483715387238,-2.33484236863127,-0.13408493,0.61453044,-0.20189096,29.42075,52.21041,19.080986,STN
3125763716000,1.31497,2.71684260527034,-6.60169173592791,-2.27497631021919,-0.12492194,0.6081163,-0.20372356,30.451996,51.954906,19.025583,STN
3125768716000,1.31997,2.59156255008093,-6.22615713263829,-2.24510423680853,-0.122783914,0.6001751,-0.1994475,31.344439,51.807964,18.936401,STN
3125773836000,1.32509,2.47018159911454,-5.80132373113396,-2.23576724433019,-0.12522738,0.63407815,-0.18753563,32.239494,51.673527,18.832825,STN
3125778750000,1.330004,2.34533313761641,-5.36662146514909,-2.21098933549055,-0.115453534,0.68936145,-0.2012801,33.090153,51.537575,18.718401,STN
3125783712000,1.334966,2.21123442250023,-4.90174586962656,-2.17075974896059,-0.116980694,0.732122,-0.19914207,33.93753,51.419834,18.588358,STN
3125788704000,1.339958,2.10727712286384,-4.43747754101854,-2.10390187734924,-0.115453534,0.7984009,-0.19853121,34.73509,51.308773,18.450554,STN
3125793731000,1.344985,2.05598511973152,-3.97585015552951,-1.99105959899851,-0.13225232,0.86132,-0.17715092,35.536083,51.214584,18.296583,STN
3125798714000,1.349968,2.1214625202473,-3.73997242874807,-1.85017396043277,-0.17928895,0.89675015,-0.16249016,36.26924,51.132393,18.143599,STN
3125803704000,1.354958,2.30611585061824,-3.73073977187017,-1.67936966358192,-0.28069258,0.88147855,-0.15760323,37.00246,51.07632,17.982826,STN
3125808730000,1.359984,2.60816348699764,-3.88457582257169,-1.61578318629869,-0.45448375,0.79229224,-0.20799962,37.704205,50.99955,17.848053,STN
3125813860000,1.365114,3.07779012529551,-4.26835676984274,-1.70162893005448,-0.6963864,0.634689,-0.28985557,38.38942,50.9679,17.730604,STN
3125818724000,1.369978,3.52290310048252,-4.71274132880355,-1.67076279651403,-0.94134337,0.46731192,-0.39187005,39.237026,50.77735,17.619652,STN
3125823826000,1.37508,3.98961969148203,-5.2660649098966,-1.51679453500739,-1.0317514,0.3304781,-0.4541783,40.05385,50.617393,17.533401,STN
3125828799000,1.380053,4.42308752703863,-5.94130732005462,-0.926603689165041,-0.86498517,0.14782938,-0.43188173,40.923912,50.36954,17.474804,STN
3125835249000,1.386503,4.95330520944206,-7.01981904264534,0.495344713293016,-0.31031954,0.025961773,-0.37934732,41.77041,50.063293,17.426983,STN
3125838702000,1.389956,5.02821036125253,-8.1731409509495,1.61205711577374,0.48808134,0.10354166,-0.344528,42.639225,49.649784,17.385147,STN
3125843727000,1.394981,4.90668662413131,-10.4869552933737,3.62935348683434,1.2250903,0.07422013,-0.36254853,43.437664,49.135124,17.372547,STN
3125848661000,1.399915,4.26504919808539,-12.5729333665518,5.36365457726402,1.4648548,-0.09162979,-0.39400807,43.851295,48.79148,17.498035,STN
3125853702000,1.404956,2.8416125792265,-14.4307957020869,6.77322651581466,1.3130548,-0.6282749,-0.48624873,44.182316,48.360607,17.706152,STN
3125858674000,1.409928,1.5822084195391,-15.9786560677566,6.74415456683081,0.36835176,-1.3301591,-0.5693264,44.47044,48.14442,17.82831,STN
3125863723000,1.414977,0.615523448566082,-16.9358164885759,3.64885770791806,-0.9242391,-1.4340062,-0.63529986,44.78881,48.059326,17.950876,STN
3125868725000,1.419979,0.713411385972055,-17.2727376505968,1.47026267084297,-1.4437801,-0.66675943,-0.6817256,45.477436,48.03946,17.652925,STN
3125873839000,1.425093,3.36454828148052,-16.1397739418895,1.38868928381605,-1.1612549,0.2321288,-0.6585127,46.168926,48.138004,17.365618,STN
3125878698000,1.429952,5.6277361301063,-15.2451165201647,1.21863175916007,-0.72082096,0.68203104,-0.71837753,46.99349,48.797462,16.978401,STN
3125883993000,1.435247,6.29885613609837,-15.5463275833681,0.383695069654022,-0.45204028,0.838718,-0.90285885,47.966904,49.38835,16.527824,STN
3125888680000,1.439934,6.89291458144018,-15.8129519937995,-0.355369758243018,-0.40866885,0.79534656,-1.0977248,48.915348,49.608387,16.413908,STN
3125893727000,1.444981,7.53260158243018,-16.1000553433722,-1.15120081998749,-0.600786,0.6731735,-1.2082914,49.89665,49.81703,16.30614,STN
3125898686000,1.44994,8.59120550732357,-16.3564782809587,-1.82609686284953,-0.9456194,0.65118235,-1.2773192,50.91492,50.044437,16.219162,STN
3125903703000,1.454957,10.7161612493818,-16.5529801516074,-2.24651821807114,-1.2815952,0.68111473,-1.3002267,51.924606,50.31828,16.154867,STN
3125908757000,1.460011,12.1766663902565,-16.3920073810897,-2.41406960196725,-1.5216653,0.62980205,-1.2647965,53.027973,50.70073,16.16347,STN
3125913723000,1.464977,10.9226792709857,-14.8147267056339,-1.56664886177773,-1.67316,0.5012149,-1.2577715,54.119434,51.145676,16.18386,STN
3125918767000,1.470021,9.42632268564893,-13.3887863203381,-0.81069025962188,-1.670411,0.36987892,-1.2611313,55.030815,51.580193,16.478434,STN
3125923806000,1.47506,7.29540856589756,-12.4673098277474,-0.354751398477772,-1.5134187,0.41233405,-1.1817188,55.930737,52.01823,16.726973,STN
3125928821000,1.480075,5.28076916078045,-11.7348194992117,0.269249075700828,-1.2974777,0.6627888,-1.067487,56.752262,52.35468,16.924673,STN
3125933721000,1.484975,3.60680970275916,-11.5313550628695,1.35131123460899,-1.142318,0.81397796,-0.9263771,57.543938,52.67825,17.09789,STN
3125938690000,1.489944,1.98675808308826,-11.4088222317195,2.31980067827256,-1.0384709,0.70096785,-0.7498371,58.40778,52.976185,17.013016,STN
3125943726000,1.49498,0.646268458971907,-11.610616427376,2.80026292226539,-0.9877691,0.40958515,-0.5195409,59.232048,53.281303,16.88551,STN
3125948717000,1.499971,-0.52707857823926,-11.779268017723,3.21042756827201,-0.89949906,0.28252518,-0.3979787,60.206215,53.509098,16.495197,STN
3125953695000,1.504949,-1.09188509539973,-11.8251872147948,3.3619609665575,-0.83199847,0.19883664,-0.14966199,61.05013,53.78021,16.068756,STN
3125958724000,1.509978,-1.55386896411368,-11.8613335195002,3.44851799635191,-0.6930266,0.27366763,0.09896017,61.838875,54.09176,15.517095,STN
3125963719000,1.514973,-1.27426635139575,-11.8275881995364,3.08214212081024,-0.56779927,0.42149702,0.31215215,62.57899,54.408504,14.9316635,STN
3125968737000,1.519991,-0.90909829513882,-11.7640412712183,2.71997005983598,-0.48930305,0.58123827,0.46303585,63.188026,54.777916,14.314122,STN
3125973720000,1.524974,-0.05567055420413,-11.5282879148306,2.39463032955242,-0.44929138,0.70005155,0.55833083,63.789764,55.131306,13.65696,STN
3125978693000,1.529947,0.795058704885285,-11.2645735172073,2.10368132962816,-0.4089743,0.743423,0.58459806,64.41002,55.47493,13.013162,STN
3125983715000,1.534969,1.64641906554589,-10.7746846681171,2.07514403314873,-0.34972036,0.76083267,0.5852089,65.03505,55.799797,12.354023,STN
3125988722000,1.539976,2.45383505533923,-10.2665153094395,2.05171074637168,-0.26206118,0.7510588,0.57757306,65.83952,55.992413,11.704669,STN
3125993727000,1.544981,2.87329815052114,-9.57369387826942,2.07527617616519,-0.13805555,0.75869465,0.5635232,66.637314,56.15627,11.072357,STN
3125999610000,1.550864,3.28732438226601,-8.71852166068966,2.11174304050157,0.0015271631,0.8426886,0.550695,67.36958,56.241543,10.576524,STN
3126003706000,1.55496,3.36110484334975,-8.01233736275862,2.16092996564263,0.14263703,0.9663888,0.52687126,68.10541,56.293373,10.09289,STN
3126008719000,1.559973,3.45140304926108,-7.14805467586207,2.22112870971787,0.3051272,1.0906999,0.539394,68.67542,56.298977,9.725058,STN
3126013719000,1.564973,3.3541310374376,-6.37511629472448,2.30133099823823,0.44959682,1.1542299,0.56382865,69.25757,56.272396,9.357333,STN
3126018674000,1.569928,3.21943995673877,-5.62734845210923,2.38493242556523,0.61819565,1.1386528,0.5907067,69.842255,56.199375,8.986079,STN
3126023798000,1.575052,3.03481644072781,-5.19085429545118,2.36318370122712,0.77640975,1.0571023,0.6450737,70.302704,56.04332,8.674552,STN
3126028700000,1.579954,2.84610074545647,-4.86308494089707,2.31352156152544,0.9053023,0.9117164,0.70157874,70.733826,55.85356,8.373517,STN
3126033652000,1.584906,2.77080627295236,-4.88942418083589,2.1742214972269,1.0100657,0.70157874,0.766025,71.05087,55.57985,8.100407,STN
3126038715000,1.589969,2.70837823437655,-4.96145647518075,2.02055255248094,1.1007792,0.47983465,0.8417723,71.31367,55.28016,7.8407106,STN
3126043725000,1.594979,2.72085027195345,-5.43071255353467,1.72695793276907,1.1527027,0.39187005,0.91324353,71.532745,54.9532,7.570079,STN
3126048658000,1.599912,2.74356949596037,-5.94871114557084,1.41797629648937,1.171945,0.2312125,0.9428705,71.67072,54.613026,7.343548,STN
3126053703000,1.604957,2.93352033028059,-6.55785649322876,1.01367199902085,1.1759156,0.100792766,0.97585726,71.8032,54.28985,7.099306,STN
3126058685000,1.609939,3.16594266784879,-7.1807484685795,0.59066338250682,1.1582005,0.025045475,1.0128145,71.90052,53.97055,6.869885,STN
3126063721000,1.614975,3.40005636920051,-7.77872110656787,0.185622915258873,1.1249083,-0.0125227375,1.042747,72.07733,53.715332,6.6148477,STN
3126069556000,1.62081,3.67097431966703,-8.45857173088181,-0.274426488267472,1.0995574,-0.015271631,1.0827587,72.231865,53.468735,6.3619766,STN
3126073712000,1.624966,3.82886536299834,-8.90638250581395,-0.557083399692691,1.0580186,-0.006414085,1.0827587,72.505035,53.310333,6.1026673,STN
3126078720000,1.629974,3.99816165568937,-9.4242300872093,-0.870779507533223,1.0522153,0.018325957,1.0919216,72.766815,53.157402,5.837429,STN
3126083726000,1.63498,4.11649366618033,-9.73579981266414,-1.07177425377882,1.028697,0.032986723,1.0815369,73.203964,53.063335,5.5340114,STN
3126088721000,1.639975,4.20489831572804,-9.92656741844179,-1.20670746679311,1.0100657,0.029932396,1.0616838,73.63044,52.979954,5.2403483,STN
3126093724000,1.644978,4.25566458597997,-9.92892908412017,-1.27727751341917,0.9859365,0.01985312,1.0283916,74.09194,53.00222,4.970333,STN
3126098715000,1.649969,4.27845800934669,-9.79216854391989,-1.30007098438722,0.9416488,-0.00580322,0.9963212,74.542946,53.042442,4.716602,STN
3126103702000,1.654956,4.29775887663249,-9.54407625849973,-1.2630273712898,0.9193522,-0.040927973,0.96883225,75.00651,53.121433,4.4754596,STN
3126108745000,1.659999,4.31339702096061,-9.16876057690232,-1.15877296690772,0.8918633,-0.110872045,0.9462303,75.45317,53.219032,4.258338,STN
3126113716000,1.66497,4.32806972652716,-8.81661469307424,-1.13834594629796,0.8756753,-0.17989981,0.9059132,75.88651,53.311283,4.069093,STN
3126118793000,1.670047,4.34260522559043,-8.46776129895366,-1.16741709620329,0.86101454,-0.23884831,0.8698721,76.302895,53.415176,3.900081,STN
3126123755000,1.675009,4.38052454298759,-8.12469317756824,-1.23138159751861,0.83077675,-0.2846632,0.8249735,76.684204,53.48199,3.764041,STN
3126128806000,1.68006,4.43333804965757,-7.77420290888337,-1.31780383151365,0.79717916,-0.3200934,0.7800749,77.05532,53.55817,3.6486387,STN
3126133716000,1.68497,4.45597844390104,-7.46543505293441,-1.37520027571922,0.76083267,-0.3567453,0.72692966,77.422226,53.597126,3.5255256,STN
3126138960000,1.690214,4.4607944956847,-7.15721377330265,-1.41854383659379,0.7131852,-0.3820962,0.66431594,77.788284,53.653133,3.4233825,STN
3126143717000,1.694971,4.48550532537253,-6.90066680485814,-1.5475642607675,0.6417139,-0.39767328,0.6239988,78.13307,53.704987,3.3334026,STN
3126148715000,1.699969,4.52947170810369,-6.6515232892427,-1.76251167258624,0.6078109,-0.37751472,0.5338962,78.495926,53.76216,3.2707403,STN
3126153693000,1.704947,4.59883002451613,-6.42027692476427,-2.10713507468983,0.49388456,-0.29626966,0.43799037,78.86052,53.84052,3.21766,STN
3126158707000,1.709961,4.6893854523871,-6.20103782141936,-2.55991121870968,0.33567044,-0.16065755,0.3304781,79.25679,53.94395,3.1775267,STN
3126163721000,1.714975,4.76919631955241,-6.02136824622104,-2.87990775050059,0.09896017,-0.03023783,0.22021692,79.67954,54.113945,3.1602883,STN
3126168758000,1.720012,4.84021861283863,-5.87458888953671,-3.08824005800942,-0.16218472,0.03176499,0.12522738,80.1318,54.338226,3.1546183,STN
3126173715000,1.724969,4.84511360460894,-5.78248707472067,-3.04798846869763,-0.39645153,-0.015882496,0.06963864,80.52422,54.730595,3.2217436,STN
3126178706000,1.72996,4.78670147793296,-5.74076412709497,-2.76844445820531,-0.5140431,-0.12980886,0.05131268,80.92718,55.16209,3.304768,STN
3126183692000,1.734946,4.70188075335721,-5.73353614373819,-2.47312523629762,-0.569021,-0.24953845,0.055588737,81.30136,55.676163,3.435112,STN
3126188690000,1.739944,4.51619185362578,-5.85732864412613,-2.11603128631254,-0.5662721,-0.2910773,0.0693332,81.67079,56.204098,3.5750854,STN
3126193682000,1.744936,4.36144742336346,-5.99766858210986,-1.79756957993444,-0.5626069,-0.2284636,0.06505715,82.061066,56.65983,3.6813307,STN
3126198686000,1.74994,4.33288530515546,-6.20712353572067,-1.63571799098043,-0.59803706,-0.13103059,0.043982297,82.453964,57.123135,3.7902339,STN
3126203673000,1.754927,4.28994066494958,-6.46090831486059,-1.45236993840716,-0.6759224,-0.040317107,0.017104227,82.92439,57.500984,3.809383,STN
3126209037000,1.760291,4.17312134729088,-6.95358078956891,-1.14762412177675,-0.7892379,-0.0030543262,-0.009468411,83.410995,57.898956,3.8293102,STN
3126213682000,1.764936,4.09419283467069,-7.33346950811799,-0.921040476384703,-0.88239485,-0.0009162979,-0.020463986,83.96369,58.273808,3.792785,STN
3126218688000,1.769942,4.12498687055191,-7.49928324686002,-0.871296347341766,-0.9767735,-0.004886922,-0.03573562,84.5291,58.682747,3.7643626,STN
3126228681000,1.779935,4.1864580652305,-7.83028138734127,-0.7719968903849,-1.0952814,-0.035430185,-0.06872234,85.66057,59.563454,3.7034562,STN
3126233720000,1.784974,4.2384431206744,-7.99484572896186,-0.705429907677939,-1.1759156,-0.06414085,-0.09621128,86.221016,60.049328,3.6669824,STN
3126238755000,1.790009,4.44702007461659,-8.14179773790798,-0.515814411305545,-1.2779301,-0.095294975,-0.13164146,86.78208,60.55598,3.645583,STN
3126243715000,1.794969,4.65409361681957,-8.28586097757391,-0.355894050417941,-1.3927728,-0.1908954,-0.14355333,87.316025,61.097706,3.6517391,STN
3126248750000,1.800004,4.88198538760078,-8.42438343471411,-0.489948039543138,-1.4471397,-0.37659842,-0.19028452,87.831055,61.645008,3.6970632,STN
3126253701000,1.804955,5.10607519040867,-8.56059489157632,-0.621765576814012,-1.5418239,-0.64599,-0.28099802,88.26785,62.230816,3.819435,STN
3126258784000,1.810038,5.41761803116394,-8.61579143318474,-0.997374893786033,-1.5925257,-0.80878556,-0.35155296,88.69128,62.81064,3.959824,STN
3126263650000,1.814904,5.72228872691431,-8.66195360138682,-1.37590499599703,-1.6652187,-0.8393288,-0.43127087,89.09662,63.40931,4.1428413,STN
3126268713000,1.819967,5.7431587221902,-8.646172870317,-1.67991546455331,-1.7828102,-0.8035932,-0.5204572,89.531136,64.04158,4.3708267,STN
3126273750000,1.825004,5.72925718282421,-8.62300363804034,-1.97184793639769,-1.9419407,-0.72082096,-0.61361414,89.98343,64.688995,4.615697,STN
3126278759000,1.830013,5.68201522765326,-8.49662956872377,-1.92270935343363,-2.116648,-0.63529986,-0.7141015,90.49343,65.41795,4.893404,STN
3126283645000,1.834899,5.62933723694606,-8.35296236679971,-1.8077759419302,-2.2559254,-0.61453044,-0.82650065,91.02226,66.15744,5.1938224,STN
3126288714000,1.839968,5.45579729819528,-8.16603305923184,-1.97978434608977,-2.3716843,-0.58246,-0.9275989,91.601425,66.96146,5.508334,STN
3126293734000,1.844988,5.2644740174919,-7.97470996436835,-2.19780403789912,-2.4862216,-0.4615087,-1.0351112,92.223274,67.77077,5.840615,STN
3126298716000,1.84997,4.95947859700407,-7.79486685008726,-2.27659374470622,-2.651766,-0.28863382,-1.1420126,92.850266,68.57321,6.1834764,STN
3126303709000,1.854963,4.60713298545666,-7.61869411692845,-2.2997743063409,-2.8457158,-0.15882497,-1.2195925,93.506805,69.37906,6.538563,STN
3126308741000,1.859995,4.3054001848742,-7.64752573301,-2.2701792151258,-2.9981265,-0.17715092,-1.2883148,94.168625,70.2101,6.904791,STN
3126313725000,1.864979,4.03532595203597,-7.7873857267859,-2.21230624796403,-3.090062,-0.31581733,-1.4129313,94.84381,71.02494,7.3064127,STN
3126318719000,1.869973,3.98453483163065,-8.04323849705305,-2.33668444891945,-3.148094,-0.47647488,-1.5381587,95.45525,71.836205,7.7088923,STN
3126323742000,1.874996,4.04303936534755,-8.3582636323323,-2.55270150328375,-3.2100968,-0.57757306,-1.6358972,96.051414,72.607994,8.143425,STN
3126328715000,1.879969,4.22558862757442,-8.7411962890185,-2.72157942948512,-3.2403347,-0.59223384,-1.6887369,96.600395,73.333565,8.56108,STN
3126333711000,1.884965,4.51909121796058,-9.18866736987128,-2.85149040140788,-3.250414,-0.56505036,-1.738828,97.13828,73.990585,9.006157,STN
3126338702000,1.889956,4.88672827418374,-9.65858294960454,-2.86434698693977,-3.2305608,-0.5519168,-1.7574593,97.63747,74.610695,9.490629,STN
3126343726000,1.89498,5.32093391847495,-10.1513328145407,-2.77653009559927,-3.2036827,-0.54428095,-1.7715092,98.14126,75.13709,9.979863,STN
3126348720000,1.899974,5.70512900442957,-10.6839400590609,-2.61291463286741,-3.120605,-0.5467244,-1.7956384,98.67721,75.56693,10.475802,STN
3126353707000,1.904961,6.05301827581455,-11.2480846775273,-2.39195798654395,-3.0121765,-0.573297,-1.8585575,99.20564,75.87981,10.979925,STN
3126358742000,1.909996,6.40226432565222,-11.9299093612831,-2.03085945655263,-2.8609874,-0.6441574,-1.9663752,99.718765,76.04733,11.520317,STN
3126363721000,1.914975,6.74593359648767,-12.6995350894325,-1.55649894136636,-2.6218336,-0.75869465,-2.085494,100.20868,76.0755,12.073854,STN
3126368729000,1.919983,7.02129836800308,-13.5248989163454,-1.04583606838088,-2.3625214,-0.88208944,-2.2244658,100.63248,75.943375,12.682816,STN
3126373791000,1.925045,7.24555950612953,-14.3985832365073,-0.503871486996916,-2.1252003,-1.1224649,-2.3628268,100.98716,75.6865,13.315791,STN
3126378766000,1.93002,7.21220385797452,-15.1216194100251,-0.297426076945039,-1.8478674,-1.3939945,-2.5213463,101.161964,75.23492,14.055788,STN
3126383717000,1.934971,6.92999934429462,-15.7080755585418,-0.412071664080722,-1.5717562,-1.5454891,-2.6392434,101.29884,74.70101,14.802241,STN
3126388697000,1.939951,6.50517316556164,-16.0121526372707,-0.585251699452849,-1.344209,-1.5033394,-2.6700919,101.31073,74.082664,15.567601,STN
3126393718000,1.944972,5.79841793816114,-15.754212969853,-0.874144315497264,-1.1606439,-1.3655893,-2.5867088,101.30463,73.4448,16.3091,STN
3126398713000,1.949967,5.37321681076649,-15.2564489944742,-1.04298593916221,-1.0079277,-1.3100005,-2.399784,101.26759,72.89283,16.933939,STN
3126403697000,1.954951,5.25410258673797,-14.4949679770053,-1.0812726984492,-0.8549059,-1.4764613,-2.1841488,101.20473,72.37275,17.505922,STN
3126408752000,1.960006,5.13006317472784,-13.6737582962675,-1.19113583234837,-0.68661255,-1.6563611,-1.9941696,101.20787,72.00815,17.904755,STN
3126413717000,1.964971,4.99801232052877,-12.7124285101089,-1.52390378858032,-0.52870387,-1.6841555,-1.8493946,101.20934,71.693184,18.243996,STN
3126418669000,1.969923,4.83832800044577,-11.8479808998514,-1.82845289093611,-0.3735441,-1.6368134,-1.7321084,101.10556,71.3825,18.574385,STN
3126423776000,1.97503,4.63484427761268,-11.0873399185736,-2.10460929965329,-0.22907446,-1.5888605,-1.6169603,100.99818,71.11638,18.853777,STN
3126429223000,1.980477,4.18764913801247,-10.4426773703949,-2.41596166573777,-0.05467244,-1.498147,-1.486846,100.908775,70.868324,19.111748,STN
3126435226000,1.98648,3.41105669047799,-9.93762069846968,-2.7798197366144,0.09896017,-1.352761,-1.3674219,100.85499,70.65577,19.330326,STN
3126438668000,1.989922,2.9259162645601,-9.74005959644775,-2.96541021705907,0.21868975,-1.2913691,-1.3045027,100.818985,70.47566,19.514957,STN
3126443729000,1.994983,2.13012449913259,-9.63996008219744,-3.19063433316811,0.2648101,-1.1685852,-1.2134838,100.848076,70.3425,19.650606,STN
3126448673000,1.999927,1.48358178313785,-9.6112840768553,-3.46899534063051,0.3622431,-1.0531317,-1.1456778,100.860435,70.27694,19.717815,STN
3126453697000,2.004951,1.06905066268357,-9.71020631221852,-3.85997340900725,0.45814893,-0.8881981,-1.0809261,100.926994,70.23858,19.756979,STN
3126458693000,2.009947,0.808957171007537,-9.80305758280444,-4.24146252186632,0.54275376,-0.68233645,-1.0057896,100.86681,70.18071,19.816126,STN
3126463719000,2.014973,0.885328487040857,-9.88420176467672,-4.60899973695954,0.6414085,-0.43860126,-0.9147707,100.87152,70.150375,19.846697,STN
3126468686000,2.01994,1.00430924386901,-9.93092774728342,-4.94479640175456,0.73945236,-0.21502456,-0.8014552,100.84553,70.12587,19.871883,STN
3126473814000,2.025068,1.23441230673412,-9.89665741172366,-5.22385755059316,0.84299403,-0.0027488936,-0.6753115,100.89146,70.13565,19.861958,STN
3126478733000,2.029987,1.43233244541081,-9.78902793015201,-5.43957108882047,0.93645644,0.19883664,-0.55771995,100.98286,70.150406,19.847246,STN
3126483714000,2.034968,1.57919277846835,-9.50448554964403,-5.53594802364826,1.0235047,0.4092797,-0.41263947,101.141304,70.21238,19.784552,STN
3126488696000,2.03995,1.71156310697413,-9.15332490827283,-5.57186713869516,1.0858129,0.6096435,-0.27152961,101.35202,70.2685,19.727804,STN
3126493729000,2.044983,1.79042608413948,-8.54706585816546,-5.3796388087739,1.1377366,0.77182823,-0.14385876,101.613365,70.36415,19.63071,STN
3126498674000,2.049928,1.84714301156919,-7.96442773616728,-5.12870938346977,1.1899655,0.9068295,-0.024740042,101.920815,70.45888,19.534113,STN
3126503702000,2.054956,1.84239381042509,-7.41114555492652,-4.68703330513857,1.2596041,0.9963212,0.07971791,102.260574,70.58633,19.403715,STN
3126508772000,2.060026,1.83760493814972,-6.85324168482099,-4.24166780849196,1.3069462,1.0497719,0.17287487,102.62322,70.709145,19.276382,STN
3126513721000,2.064975,1.83293035651445,-6.30865268025446,-3.80693135032548,1.3451253,1.03786,0.24587326,102.9889,70.85498,19.124651,STN
3126518719000,2.069973,1.84104210886076,-5.79478437417721,-3.28462647046414,1.3842206,0.9440922,0.30573806,103.33342,71.00976,18.962944,STN
3126523806000,2.07506,1.90042550028129,-5.41564418267229,-2.42128339165495,1.4349225,0.7892379,0.35613444,103.651436,71.180305,18.784485,STN
3126528804000,2.080058,1.96270371462867,-5.07643020856649,-1.62516502740069,1.4749341,0.59803706,0.38698313,103.9353,71.32891,18.619085,STN
3126533719000,2.084973,2.06432291005181,-5.08455973740933,-1.37721427036269,1.5231925,0.4746423,0.41874814,104.18677,71.486,18.441841,STN
3126538723000,2.089977,2.16778220891192,-5.09283647440415,-1.12477366238342,1.5479325,0.22052236,0.43035457,104.35031,71.65658,18.237316,STN
3126543725000,2.094979,2.29613866637203,-5.18014376574347,-1.02038423568061,1.5980235,-0.079107046,0.4596761,104.45038,71.82604,18.027603,STN
3126548684000,2.099938,2.43140184459831,-5.29208586085248,-0.964413212477902,1.6517797,-0.35827246,0.5122105,104.47085,71.992004,17.81766,STN
3126553700000,2.104954,2.50314919737166,-5.39907080160726,-1.05156995403233,1.7168368,-0.6020077,0.5708536,104.3944,72.11571,17.639496,STN
3126558752000,2.110006,2.54889179270114,-5.50427888072232,-1.19794653134159,1.7873917,-0.75441855,0.6377433,104.256714,72.24197,17.4523,STN
3126563717000,2.114971,2.4967215658187,-5.53914912541894,-1.42048524714315,1.8622227,-0.8011498,0.72051555,104.079544,72.34088,17.282436,STN
3126568688000,2.119942,2.38138242257218,-5.52953752178478,-1.69441615144357,1.9104811,-0.7275405,0.81183994,103.890205,72.446335,17.096426,STN
3126573764000,2.125018,2.17498529068425,-5.44182900791426,-1.94975260997527,1.9559906,-0.57910025,0.9056077,103.710686,72.560036,16.894903,STN
3126578779000,2.130033,1.9176233356657,-5.30819899956719,-2.18731740804823,2.017077,-0.38331795,1.0085385,103.56379,72.68308,16.668198,STN
3126583712000,2.134966,1.63121455897709,-5.20121082718747,-2.3481704334139,2.0751092,-0.15760323,1.1462886,103.47817,72.81317,16.427362,STN
3126588719000,2.139973,1.325232688688,-5.10385273052306,-2.47798093850914,2.1154263,0.083383106,1.2880094,103.44844,72.95359,16.157606,STN
3126593728000,2.144982,1.0061527995614,-5.04034887622807,-2.508224495,2.1560488,0.31978795,1.4495832,103.47895,73.14427,15.824508,STN
3126598715000,2.149969,0.680308003703704,-4.99845462518519,-2.47563999111111,2.1908681,0.5448918,1.6084082,103.56743,73.351074,15.452872,STN
3126603726000,2.15498,0.403615623443238,-5.00913022176703,-2.38958911481737,2.2128594,0.7101309,1.7806722,103.70764,73.61138,15.006399,STN
3126608740000,2.159994,0.166606189579467,-5.06127210952616,-2.26160406725568,2.2296581,0.84207773,1.9538525,103.89238,73.889336,14.515471,STN
3126613719000,2.164973,0.0244475349746747,-5.12591591627768,-2.18234973467077,2.2153027,0.9233228,2.1022928,104.097595,74.21965,13.939914,STN
3126618704000,2.169958,-0.0371896656063164,-5.2017773779422,-2.14441917711789,2.1832323,1.0134255,2.2250767,104.33223,74.5614,13.324379,STN
3126623714000,2.174968,0.0222615872196874,-5.27471584272401,-2.07295434330648,2.1340578,1.1410962,2.3448062,104.5897,74.92922,12.635094,STN
3126628727000,2.179981,0.194702679739831,-5.34462429575769,-1.97042177681778,2.0842721,1.2052372,2.4608707,104.843765,75.29755,11.918078,STN
3126635241000,2.186495,0.594708481132812,-5.51799517433594,-1.67229754025391,2.0344868,1.2770138,2.5512786,105.130615,75.665634,11.162763,STN
3126638697000,2.189951,0.872675303632813,-5.64081770183594,-1.45250981150391,1.9782871,1.2544118,2.5848763,105.40032,76.018654,10.400617,STN
3126643719000,2.194973,1.34092292562939,-5.82546909265373,-1.05855137569129,1.9596558,1.1655309,2.634662,105.656586,76.320045,9.64814,STN
3126648718000,2.199972,1.89909603962031,-6.01811281992365,-0.559653300730499,1.9242256,0.9960158,2.6758952,105.87572,76.5989,8.905273,STN
3126653689000,2.204943,2.42937430888428,-6.29123972217011,-0.117142484132768,1.8845193,0.77304995,2.7085764,105.999146,76.73094,8.284708,STN
3126658822000,2.210076,2.94813115965545,-6.66811437871381,0.277467398077027,1.8234328,0.47158796,2.7116308,106.043175,76.840164,7.6895123,STN
3126663695000,2.214949,3.41898949427027,-7.09238000972973,0.550249153965405,1.7345519,0.14263703,2.6633725,105.966896,76.741745,7.2860417,STN
3126668718000,2.219972,3.8402269627027,-7.7268364972973,0.529447276454054,1.6255124,-0.20738874,2.5497515,105.79608,76.63282,6.9282775,STN
3126673686000,2.22494,4.18302835831292,-8.33630814578231,0.35217914164201,1.5280794,-0.535118,2.3692408,105.56033,76.43479,6.639898,STN
3126678728000,2.229982,4.41956341237386,-8.92764578093465,-0.0641224922523758,1.4300356,-0.8741482,2.143526,105.22995,76.231544,6.4239297,STN
3126683648000,2.234902,4.65603272263163,-9.54452462916132,-0.660611412822286,1.3475688,-1.1963795,1.8845193,104.85884,76.034676,6.3042517,STN
3126688713000,2.239967,4.90999356383483,-10.2536986803319,-1.6285377461622,1.2901474,-1.4703526,1.6074919,104.42507,75.82514,6.2713113,STN
3126693682000,2.244936,5.15423078029007,-10.8971989226478,-2.62014878095946,1.2305881,-1.6261233,1.2959507,104.013916,75.6846,6.3616834,STN
3126698719000,2.249973,5.39192445007438,-11.4443428134994,-3.70995210601525,1.2040154,-1.6169603,0.96791595,103.60089,75.517,6.530542,STN
3126703679000,2.254933,5.5988447649234,-11.8646718816693,-4.715486977813,1.2229522,-1.4450017,0.6618725,103.321754,75.51393,6.7809606,STN
3126708703000,2.259957,5.68526181130481,-11.7528386501849,-5.42715560690967,1.2577715,-1.1096367,0.40011674,103.11778,75.46867,7.081009,STN
3126713683000,2.264937,5.67790760875567,-11.5309574360087,-5.87350223005324,1.2803736,-0.6536258,0.21655174,103.11972,75.6082,7.4059153,STN
3126718741000,2.269995,5.43910138513114,-11.029463867679,-5.68245705166634,1.2672399,-0.20097467,0.08460484,103.22489,75.69173,7.750212,STN
3126723713000,2.274967,5.16087810125074,-10.5419369237641,-5.3626294951757,1.2140946,0.18417588,-0.06078109,103.48638,75.85354,8.089039,STN
3126728729000,2.279983,4.76032904109589,-10.0650927808219,-4.67597409863014,1.0903945,0.33964106,-0.2134974,103.80635,75.979614,8.44113,STN
3126733699000,2.284953,4.35119499782068,-9.61294999655897,-4.05886870929077,0.9468411,0.56596667,-0.28863382,104.239914,76.0611,8.741602,STN
3126738714000,2.289968,3.90130836926018,-9.21815176725291,-3.62734492841713,0.8585711,0.70157874,-0.43157628,104.69308,76.09532,9.092221,STN
3126743691000,2.294945,3.42420993511154,-8.78422645732299,-3.26449273889428,0.6826419,0.7797695,-0.5384777,105.16199,76.0761,9.380649,STN
3126748717000,2.299971,2.77449966259295,-8.11506363110249,-3.2567117824119,0.5155703,0.7657196,-0.6246097,105.64228,76.040016,9.694911,STN
3126754241000,2.305495,2.06041300413838,-7.37959696734562,-3.24815985172971,0.32559118,0.70738196,-0.7089091,106.11642,75.98907,9.964141,STN
3126758840000,2.310094,1.71299118934459,-6.92214548401689,-3.27046699216928,0.13439035,0.689056,-0.7687739,106.59534,75.952095,10.245587,STN
3126763693000,2.314947,1.42333226433454,-6.48765709650181,-3.30317054350623,-0.028099801,0.7415904,-0.8078693,107.07573,75.923164,10.540377,STN
3126768737000,2.319991,1.32063790614127,-6.1597335638231,-3.19765392083421,-0.20280726,0.818254,-0.82650065,107.51838,75.960625,10.768345,STN
3126773816000,2.32507,1.3053453362817,-5.88446709343953,-3.02943543946762,-0.37140608,0.8927795,-0.82436264,107.97145,76.00874,10.998915,STN
3126778755000,2.330009,1.39417202038929,-5.99371356627481,-2.98653332443631,-0.5839872,0.9233228,-0.79320854,108.417885,76.100845,11.1992855,STN
3126783688000,2.334942,1.50797620680285,-6.19400895717865,-2.97287678594141,-0.83658,0.86437434,-0.799928,108.8563,76.20062,11.411204,STN
3126788752000,2.340006,1.67437293341672,-6.46897875815453,-3.17088310632156,-1.105666,0.7464773,-0.8179486,109.28289,76.30159,11.614472,STN
3126793725000,2.344979,1.85767111975368,-6.7668382989897,-3.45041288594246,-1.3231341,0.6264423,-0.82986045,109.68742,76.40676,11.821675,STN
3126798715000,2.349969,2.01356566733212,-7.22760102005445,-3.19237312785844,-1.3933836,0.5589417,-0.80878556,110.08369,76.50027,12.029028,STN
3126803702000,2.354956,2.15321343339383,-7.78137659727768,-2.62415124041137,-1.2730432,0.6169739,-0.7480045,110.4774,76.57119,12.23033,STN
3126808744000,2.359998,2.23923863613756,-8.65103438352438,-1.50250924677288,-0.90469146,0.7296785,-0.65026605,110.88145,76.61452,12.4322,STN
3126813720000,2.364974,2.29479035403147,-9.67411332504371,-0.104455486803964,-0.34300083,0.8399397,-0.5329799,111.296265,76.616615,12.611681,STN
3126818712000,2.369966,2.20024745207186,-11.4037927520525,1.33976035917705,0.25625798,0.9798279,-0.43218717,111.80094,76.58585,12.719621,STN
3126824148000,2.375402,1.98402429066937,-13.8174481609195,2.9438352126572,0.7663304,1.094976,-0.37232238,112.32382,76.527695,12.806332,STN
3126828753000,2.380007,1.39649152696729,-15.2559585708223,3.83475488095491,1.0094548,1.106277,-0.39003745,112.87658,76.44731,12.787886,STN
3126835302000,2.386556,0.13213961821397,-16.6589454557029,4.6055659272679,0.96669424,0.5723807,-0.48288897,113.28488,76.33829,12.787861,STN
3126838687000,2.389941,-0.195348859659197,-17.1100095757513,4.96028644294124,0.004581489,0.21502456,-0.54061574,113.67088,76.320755,12.667039,STN
3126843756000,2.39501,0.135536101503666,-17.0949695705876,5.38141286946194,-0.42577308,-0.31642818,-0.64599,113.83865,76.20702,12.613589,STN
3126848709000,2.399963,0.762708905587069,-16.5581992199349,5.6443064178713,-1.02717,-0.29657507,-0.659429,114.00271,76.33072,12.396066,STN
3126853699000,2.404953,2.0355081294968,-14.9161906924367,5.59572612753888,-1.0852021,0.16279559,-0.63224554,114.13792,76.41183,12.216,STN
3126858703000,2.409957,3.08110702127468,-13.3216730989578,4.83021625625814,-0.7440339,0.5839872,-0.6542367,114.28765,76.447685,12.083528,STN
3126863717000,2.414971,3.70184398968835,-11.8203554329592,2.73703284583626,-0.22449298,0.906524,-0.7464773,114.53714,76.446495,11.966426,STN
3126868664000,2.419918,4.1907493526649,-10.75290991893,0.913310858872779,0.16279559,1.2974777,-0.80756384,114.94179,76.25017,12.022852,STN
3126873812000,2.425066,4.46257663054932,-10.435778085971,-0.521332719358791,0.22876903,1.5054774,-0.7302894,115.37519,76.04492,12.058202,STN
3126878696000,2.42995,4.91894595561155,-11.145340555534,-1.37890985654197,0.100792766,1.3610078,-0.5873469,115.88846,75.824684,12.23972,STN
3126883712000,2.434966,5.68713254921496,-13.3986874041481,-1.49995739001745,0.02565634,1.031446,-0.49021935,116.396065,75.60513,12.406177,STN
3126888672000,2.439926,6.92761182104738,-15.2701458671322,-1.37387578795212,-0.054367006,0.6239988,-0.44776422,116.8976,75.47223,12.61029,STN
3126893997000,2.445251,9.30829635471322,-16.5011838820948,-0.702400734984539,-0.15271631,0.17256944,-0.3885103,117.277626,75.38227,12.7931795,STN
3126898648000,2.449902,11.125280885695,-17.254969105913,-0.411326940479406,-0.29260445,-0.15515977,-0.25625798,117.58102,75.33828,12.978782,STN
3126903699000,2.454953,12.5484117071477,-17.3996151878075,-0.714617117380149,-0.410196,-0.25534168,-0.26145032,117.81911,75.27909,13.188407,STN
3126908707000,2.459961,13.3691529502011,-16.9996558998276,-0.923277713789504,-0.45570546,-0.10751228,-0.41905355,118.038086,75.02759,13.595463,STN
3126913714000,2.464968,12.4690945918406,-15.0158539212794,-0.863579960540126,-0.50243664,0.25137106,-0.5119051,118.287674,74.80392,13.966603,STN
3126918683000,2.469937,11.4104598644273,-13.1870078080947,-0.662539928595815,-0.559858,0.537256,-0.49174652,118.615906,74.44851,14.48499,STN
3126923838000,2.475092,9.43499706138032,-12.0316334977974,0.298006067577093,-0.5681047,0.6786713,-0.35094208,119.00182,74.104294,14.965531,STN
3126928903000,2.480157,7.49218981676474,-10.9079079655823,1.24786423301876,-0.47616947,0.70005155,-0.21197024,119.41593,73.773964,15.397897,STN
3126933715000,2.484969,5.58376525524592,-10.2325408004885,2.35812726430554,-0.37232238,0.63255095,-0.15454891,119.8407,73.459755,15.8023405,STN
3126938696000,2.48995,3.79872711970542,-9.57209263578526,3.39071947658184,-0.3213151,0.4746423,0.0009162979,120.15469,73.319626,15.968562,STN
3126943727000,2.494981,2.84132356655046,-9.07659438295276,3.91561180949974,-0.17928895,0.30176744,0.19425514,120.44039,73.19095,16.108213,STN
3126948647000,2.499901,1.90504340723375,-8.59202841119052,4.42892333364128,-0.025350908,0.15057829,0.41233405,120.61775,73.22879,16.022827,STN
3126953701000,2.504955,1.15549749442214,-8.33466471476865,4.77540890150011,0.14110987,0.06566802,0.61819565,120.75481,73.30044,15.889679,STN
3126958768000,2.510022,0.438085748826536,-8.1125883242127,5.09567678600929,0.32375857,0.06383542,0.79045963,120.862305,73.40256,15.707926,STN
3126963721000,2.514975,0.217690651332576,-8.20564386649458,5.16914202426433,0.50488013,0.09743301,0.94225967,120.95183,73.60388,15.358323,STN
3126968807000,2.520061,0.0231080330509548,-8.30403834200173,5.2148338403896,0.6743952,0.09621128,1.0311406,120.98495,73.84171,14.915474,STN
3126973798000,2.525052,0.188228691291335,-8.43246619268784,4.92587251736877,0.816116,0.036651913,1.0454959,120.990456,74.05379,14.458844,STN
3126978945000,2.530199,0.361031932028013,-8.55925991596148,4.61938807913627,0.9147707,-0.0106901415,1.031446,120.989,74.23737,13.974305,STN
3126983723000,2.534977,0.614723710995039,-8.46801968154849,4.02076456098629,1.0097603,0.018020526,0.9981538,120.97441,74.36307,13.498524,STN
3126989059000,2.540313,0.898042951800409,-8.36612393210777,3.35223063615407,1.1029172,0.1518,0.9502009,120.979965,74.43349,13.0580225,STN
3126993725000,2.544979,1.14578800007587,-8.27702243906235,2.7676393143274,1.1930199,0.30665436,0.8756753,120.987114,74.44001,12.639392,STN
3126998651000,2.549905,1.40733795888532,-8.18295601069935,2.15047325103589,1.3051136,0.4578435,0.8216137,121.02212,74.38366,12.230049,STN
3127003698000,2.554952,1.50755741218062,-8.01920851927901,2.02060120488711,1.4019357,0.5742133,0.77763146,121.078705,74.26572,11.839317,STN
3127008708000,2.559962,1.57888290581622,-7.84535272163895,1.97602277136486,1.5039502,0.66737026,0.7483099,121.1575,74.085434,11.458911,STN
3127013714000,2.564968,1.46509736647515,-7.94939336713588,1.77008604263143,1.5766432,0.73914695,0.7254025,121.32135,73.9203,11.185283,STN
3127018663000,2.569917,1.27901866294168,-8.16270270745954,1.50231414918127,1.6267341,0.7690793,0.69913524,121.48814,73.71955,10.922146,STN
3127023809000,2.575063,1.38532864909091,-8.62330452727273,1.10359631418182,1.6368134,0.82894415,0.68019843,121.678185,73.48502,10.678656,STN
3127028747000,2.580001,1.65912703103098,-9.20212414728288,0.652069110218385,1.5864171,0.93187493,0.66645396,121.87666,73.240814,10.439479,STN
3127035240000,2.586494,2.01914584308786,-9.96321685540884,0.0583538134718131,1.5250251,1.0647382,0.6081163,122.11363,73.02127,10.1944685,STN
3127038730000,2.589984,2.21265664765871,-10.3723056512443,-0.260769301520569,1.2614367,1.0906999,0.58551437,122.33539,72.85887,9.948186,STN
3127043825000,2.595079,2.49594340256564,-10.7426376049308,-0.856839145492083,1.1609493,1.03786,0.5510005,122.56452,72.65854,9.722481,STN
3127048720000,2.599974,2.76843803984265,-11.003386866807,-1.48404656786631,0.93615097,0.89675015,0.52564955,122.766174,72.54532,9.510616,STN
3127053718000,2.604972,3.04666647643315,-11.2696227832231,-2.12445161322409,0.754724,0.7357872,0.51251596,123.03789,72.55685,9.373305,STN
3127058773000,2.610027,3.32806798643015,-11.5388950036079,-2.77216019751453,0.6056729,0.6536258,0.50671273,123.287224,72.61108,9.250796,STN
3127063686000,2.61494,3.32446298457078,-11.3683136105143,-3.00953273312102,0.4841107,0.68416905,0.5128214,123.52846,72.69815,9.133917,STN
3127068773000,2.620027,3.19941645810438,-11.0024364913965,-3.08363444649682,0.36774087,0.8005389,0.5225952,123.76696,72.81712,9.022335,STN
3127073741000,2.624995,3.0639127938404,-10.5300435045009,-2.90690142069384,0.2855795,0.8949176,0.49846604,124.10658,73.086655,8.999659,STN
3127079401000,2.630655,2.89944007491656,-9.90504714969151,-2.51764930397492,0.18173242,0.93034774,0.473726,124.45538,73.38199,8.973796,STN
3127083783000,2.635037,2.85419898247846,-9.38533361797292,-2.21629397841609,0.1133155,0.91813046,0.43768495,124.821815,73.673805,8.9471,STN
3127088712000,2.639966,2.83967173086787,-8.78487139023389,-1.87732329095199,0.019547688,0.8384125,0.40439278,125.17489,73.98414,8.932811,STN
3127093723000,2.644977,2.94744411883883,-8.19438739915331,-1.7782337363169,-0.0720821,0.73792523,0.37323865,125.50204,74.24848,8.913261,STN
3127098718000,2.649972,3.11620372573329,-7.61578252918053,-1.80234230193529,-0.21074851,0.6417139,0.33933565,125.806496,74.53223,8.91322,STN
3127103693000,2.654947,3.32088132259982,-7.09435474848905,-1.89352531863668,-0.35918877,0.58246,0.30634892,126.08589,74.76268,8.929447,STN
3127108745000,2.659999,3.54618160200139,-6.59102443397404,-2.01815945504805,-0.5335908,0.5513059,0.25809056,126.34745,75.01428,8.968218,STN
3127113792000,2.665046,3.73499987137378,-6.16736182273577,-2.06540044470449,-0.70646566,0.5552765,0.1908954,126.61945,75.24886,9.0549345,STN
3127118738000,2.669992,3.90268673242207,-5.79006636105812,-2.07471637602517,-0.86284715,0.56046885,0.13958271,126.88486,75.50042,9.156985,STN
3127123805000,2.675059,4.04787346826894,-5.46570394110637,-1.92740054628066,-0.9673051,0.59315014,0.122478485,127.1805,75.74487,9.30182,STN
3127128797000,2.680051,4.17606905948952,-5.18082499273016,-1.6947494993048,-1.0152581,0.66431594,0.07544186,127.494316,75.97628,9.471959,STN
3127133717000,2.684971,4.29507918692225,-4.93516125373163,-1.39378180745159,-1.0595458,0.72784597,0.054367006,127.822655,76.183014,9.673135,STN
3127138708000,2.689962,4.41135292634037,-4.70726462734261,-1.04496037551231,-1.0726794,0.7654142,0.05497787,128.16693,76.364334,9.884005,STN
3127143713000,2.694967,4.54084704597066,-4.58491156867966,-0.710309045356712,-1.0693196,0.77274454,0.059253927,128.55444,76.47306,10.110323,STN
3127149393000,2.700647,4.69935711429863,-4.5411846434385,-0.344096244794011,-1.0580186,0.73426,0.049480084,128.9412,76.558716,10.345264,STN
3127153699000,2.704953,4.87526020290392,-4.57474314120055,-0.15124392211947,-1.0488557,0.6588182,0.005192355,129.32426,76.57888,10.593461,STN
3127158780000,2.710034,5.11708906601053,-4.65535289427012,0.0242005272909764,-1.0173961,0.5494733,-0.024740042,129.687,76.57739,10.846685,STN
3127163720000,2.714974,5.41960101566704,-4.81807262905836,0.032591368722565,-0.98654735,0.42210788,-0.067500606,130.03505,76.51902,11.118066,STN
3127168723000,2.719977,5.78789969183777,-5.06037454283402,-0.1079436957257,-0.93492925,0.2828306,-0.12461651,130.35114,76.42922,11.407962,STN
3127173716000,2.72497,6.11848295107249,-5.30751701781529,-0.159548458731877,-0.87689704,0.22693644,-0.1853976,130.67546,76.29056,11.723981,STN
3127178683000,2.729937,6.4160781171996,-5.55787483014896,-0.135929791700099,-0.8167268,0.20066923,-0.2565634,130.9731,76.11775,12.062313,STN
3127183696000,2.73495,6.66392171684637,-5.74330940059353,0.0534601611831041,-0.7641924,0.14844026,-0.3173445,131.27359,75.89128,12.464264,STN
3127188691000,2.739945,6.86266722782669,-5.86634224419824,0.394166739435157,-0.6722572,0.047036625,-0.3399465,131.55602,75.63469,12.874295,STN
3127193681000,2.744935,6.93177344011065,-6.11143333118949,0.727261125242047,-0.56779927,-0.071776666,-0.32467487,131.8582,75.34717,13.301487,STN
3127198681000,2.749935,6.8702745268524,-6.48042715652045,1.05367868106106,-0.4841107,-0.17837265,-0.29718593,132.13713,75.043816,13.728977,STN
3127203683000,2.754937,6.80172780513204,-6.8939650363727,1.32965399870453,-0.4251622,-0.24862215,-0.28405234,132.38649,74.70898,14.158684,STN
3127208685000,2.759939,6.72535013125062,-7.35700543507723,1.54924010395615,-0.40866885,-0.3182608,-0.29749137,132.60793,74.370125,14.584985,STN
3127213704000,2.764958,6.74745637017286,-7.80354565334704,1.47782919178395,-0.43127087,-0.37201694,-0.29871312,132.776,74.055824,14.966557,STN
3127219171000,2.770425,6.89359588469223,-8.26760268943734,1.03941065358014,-0.4636467,-0.419359,-0.31490102,132.92982,73.73502,15.35221,STN
3127223705000,2.774959,7.01479518208217,-8.65246360065619,0.67581276585084,-0.49846604,-0.4156938,-0.32711834,133.062,73.44022,15.698656,STN
3127228754000,2.780008,7.14976105162823,-9.08103941467117,0.270915162157583,-0.5369505,-0.3387248,-0.36560285,133.2067,73.13994,16.050686,STN
3127235273000,2.786527,7.24702559748322,-9.40022499259771,-0.288767389565732,-0.6536258,-0.10751228,-0.4822781,133.42819,72.84979,16.40422,STN
3127238754000,2.790008,7.26347682684564,-9.46273972601658,-0.604631886592973,-0.90010995,-0.05681047,-0.5421429,133.6208,72.57938,16.749123,STN
3127243720000,2.794974,7.22921447830217,-9.4614089115715,-1.00827274521071,-0.97005403,-0.018020526,-0.64660084,133.94551,72.27307,17.139978,STN
3127248748000,2.800002,7.09295755840323,-9.30082033350177,-1.33431577566246,-1.1102476,-0.10048734,-0.75625116,134.24965,71.967125,17.54464,STN
3127253668000,2.804922,6.94748597749513,-9.1580013119883,-1.6926156051462,-1.2244794,-0.25686884,-0.8555168,134.55843,71.64722,17.971031,STN
3127258833000,2.810087,6.77392752959064,-9.03265340701754,-2.1361543922807,-1.3066407,-0.42058071,-0.97433007,134.84113,71.28683,18.428423,STN
3127263649000,2.814903,6.61583215826164,-8.92123043112825,-2.47049994037378,-1.409877,-0.5815437,-1.0983357,135.07669,70.900986,18.908253,STN
3127268757000,2.820011,6.45620541569267,-8.8148130068229,-2.65431247956096,-1.5741998,-0.7690793,-1.2327261,135.25563,70.469765,19.418192,STN
3127273738000,2.824992,6.22836970829884,-8.69786096648926,-2.9234236494382,-1.7232509,-1.0231993,-1.3439035,135.36687,70.0042,19.947018,STN
3127278768000,2.830022,5.83904869982259,-8.55067868480189,-3.39345736853933,-1.8289305,-1.185384,-1.4184291,135.44887,69.496925,20.491898,STN
3127283716000,2.83497,5.43070669785488,-8.42928735982093,-3.7341060680097,-1.9758437,-1.1963795,-1.4581354,135.46378,111.03845,21.03806,STN
3127288785000,2.840039,4.94625444429211,-8.36590074874091,-3.7657991844432,-2.116648,-1.1450669,-1.4471397,135.44896,111.597916,21.576979,STN
3127293723000,2.844977,4.47323420788061,-8.32005616071517,-3.80333700248732,-2.2424862,-1.1282681,-1.4465289,135.31215,112.20703,22.126923,STN
3127298755000,2.850009,3.98427977683101,-8.37464826749741,-3.88403818268729,-2.357329,-1.094976,-1.42973,135.19138,112.82917,22.65326,STN
3127303718000,2.854972,3.50203000709747,-8.4284917941191,-3.96363276880264,-2.484389,-1.0228939,-1.3860532,135.02379,113.40445,23.094593,STN
3127308765000,2.860019,3.01161804097917,-8.48324663571886,-4.04457451293405,-2.6367998,-0.9016371,-1.3261884,134.87926,113.99365,23.513947,STN
3127313703000,2.864957,2.54936555726243,-8.52989645957656,-4.1244414289611,-2.7669141,-0.82344633,-1.2522738,134.74297,114.588234,23.904432,STN
3127318775000,2.870029,2.30542158641064,-8.48684764106352,-4.21532272865583,-2.860682,-0.6728681,-1.2095132,134.66635,115.19642,24.280397,STN
3127323806000,2.87506,2.07335594122646,-8.45014005330758,-4.27168603358764,-2.8842003,-0.52320606,-1.1307116,134.48462,115.6787,24.489664,STN
3127328760000,2.880014,1.99546710082086,-8.50512060260744,-3.81351604925157,-2.9040534,-0.42577308,-1.0662653,134.33324,116.17608,24.684353,STN
3127334678000,2.885932,1.98196946964153,-8.63778944920134,-3.24129563420319,-2.8857274,-0.5421429,-1.0848967,134.12851,116.66853,24.840824,STN
3127338759000,2.890013,2.3122580871471,-9.01526186255572,-2.74041826054978,-2.787378,-0.81245077,-1.1786644,133.90417,117.16994,24.986723,STN
3127343661000,2.894915,2.70899290778232,-9.46867273495542,-2.13877628906018,-2.644741,-1.0442741,-1.2800682,133.69012,117.611855,25.08938,STN
3127348753000,2.900007,3.327320559293,-10.1921177578968,-1.60947912692346,-2.514016,-1.2095132,-1.402852,133.40927,118.07956,25.205088,STN
3127353665000,2.904919,3.97012635804535,-10.9467160365383,-1.12038775090603,-2.3732114,-1.2962561,-1.5436565,133.07726,118.56189,25.336475,STN
3127358807000,2.910061,4.81668298747431,-11.8747530784813,-0.567232031138076,-2.2327125,-1.323745,-1.7110336,132.90984,118.95633,25.485155,STN
3127363653000,2.914907,5.65685362573637,-12.7830454168705,-0.0358809207084842,-2.0998492,-1.3478742,-1.8674151,132.71257,119.36312,25.661705,STN
3127368871000,2.920125,6.8270888737444,-14.7533202926713,0.794020701557229,-1.9538525,-1.3344351,-2.0442605,132.58374,119.75575,25.909307,STN
3127373717000,2.924971,7.99472760905365,-16.8851451059754,1.64321231256647,-1.8008307,-1.2654073,-2.11451,132.46379,120.13755,26.169327,STN
3127378751000,2.930005,8.38567934510285,-17.5624522880974,1.79129117877392,-1.6777414,-1.1334605,-2.1413882,132.37054,120.530754,26.506052,STN
3127383704000,2.934958,8.35169723334357,-17.445942987207,1.56312672989459,-1.6355917,-0.95233893,-2.1248949,132.31342,120.91751,26.852589,STN
3127388710000,2.939964,8.41485652014324,-16.6293147853874,1.24021976513479,-1.5916094,-0.81183994,-2.0131063,132.25128,121.19063,27.166286,STN
3127393717000,2.944971,8.51979284064458,-15.5131748953546,0.877712915328758,-1.4819591,-0.91874135,-1.9214766,132.16652,121.45999,27.474333,STN
3127398716000,2.94997,8.27723573344914,-14.5112924394904,0.488095486807566,-1.2831224,-1.1725558,-1.8576412,132.09337,121.71302,27.76116,STN
3127404360000,2.955614,7.82863196352056,-13.4367305605096,0.0342757556166763,-1.0387764,-1.4321736,-1.749518,131.99557,121.91871,28.000849,STN
3127408788000,2.960042,7.21227629951846,-12.7293313582665,-0.177421492722311,-0.8558222,-1.6310102,-1.6716328,131.75424,122.26619,28.323357,STN
3127413719000,2.964973,6.40879926666667,-12.0016545333333,-0.349234222666667,-0.6740898,-1.7302758,-1.6496416,131.47241,122.562744,28.61071,STN
3127418744000,2.969998,5.40552729489577,-11.4617242838496,-0.572439484878239,-0.5833763,-1.8912388,-1.6441438,131.0809,122.88852,28.873743,STN
3127423849000,2.975103,4.32448889464251,-10.9807334315215,-0.815315911685174,-0.4007276,-1.9071213,-1.611768,130.71623,123.15743,29.11831,STN
3127428817000,2.980071,3.35508677047114,-10.5447825885766,-1.03221827018105,-0.2666427,-1.7208074,-1.5628988,130.32808,123.38171,29.299881,STN
3127433944000,2.985198,2.38752088954686,-10.1076587842353,-1.24832442294688,-0.183565,-1.3906348,-1.5170839,129.99348,123.573074,29.477346,STN
3127438824000,2.990078,1.83855151967984,-9.75355276438219,-1.55397036756378,-0.109650314,-1.0797043,-1.462106,129.6369,123.657486,29.54443,STN
3127443730000,2.994984,1.42018639363682,-9.41980119209605,-1.89712374033017,-0.028405234,-0.84665924,-1.3799446,129.37517,123.70651,29.608929,STN
3127448716000,2.99997,1.28291407127269,-9.15563644628509,-2.26701658067652,0.060170226,-0.6960809,-1.2855659,129.11418,123.66818,29.58482,STN
3127453695000,3.004949,1.26872409413749,-8.92386698437655,-2.64541485144331,0.1826487,-0.5384777,-1.1707232,128.94437,123.58675,29.55146,STN
3127458749000,3.010003,1.44666741068959,-8.74466704732266,-2.9860798451887,0.28955013,-0.38148534,-1.033584,128.69351,123.508026,29.495886,STN
3127463722000,3.014976,1.71015544344991,-8.59410286425608,-3.30132451547125,0.38056904,-0.21960606,-0.8872818,128.51218,123.38214,29.418505,STN
3127468724000,3.019978,2.07984490651163,-8.48778324651163,-3.52744233922481,0.4633413,-0.06841691,-0.7315111,128.34169,123.26426,29.339945,STN
3127474567000,3.025821,2.57486146856361,-8.39082141915185,-3.73667619928865,0.5653558,0.042455133,-0.5726862,128.22806,123.094025,29.229765,STN
3127478719000,3.029973,2.91508207936742,-8.21246927588824,-3.93127172558777,0.68233645,0.096516706,-0.39614612,128.14645,122.93764,29.126402,STN
3127483715000,3.034969,3.31358621532947,-7.89467447964154,-4.20871137792304,0.8017606,0.0983493,-0.23915374,128.0984,122.73422,28.99007,STN
3127488693000,3.039947,3.51577342085803,-7.41297676606048,-4.41545354043002,0.93676186,0.112704635,-0.09040806,128.0931,122.54866,28.875393,STN
3127493720000,3.044974,3.56898042527881,-6.79867837620818,-4.57023720892193,1.073901,0.12308934,0.03848451,128.09969,122.31666,28.724964,STN
3127498718000,3.049972,3.57644434168823,-6.27351063247571,-4.52576365420104,1.2198979,0.12644911,0.17592919,128.11317,122.12747,28.61066,STN
3127503691000,3.054945,3.55086797665381,-5.81313654742958,-4.33742888730655,1.3338243,0.110872045,0.32650748,128.13525,121.89325,28.458714,STN
3127508783000,3.060037,3.52467958921056,-5.34174607064395,-4.14458741676024,1.4437801,0.0720821,0.4633413,128.13626,121.69627,28.334831,STN
3127513718000,3.064972,3.49929865990333,-4.88488982497681,-3.95769176531758,1.5152513,0.042760566,0.5335908,128.14095,121.47322,28.189484,STN
3127518735000,3.069989,3.48140187478158,-4.53996936754687,-3.61116593774418,1.5482379,-0.06811147,0.6404922,128.10304,121.21591,28.00385,STN
3127523738000,3.074992,3.47199523290468,-4.32361670260135,-3.0985034643369,1.6209309,-0.22052236,0.74128497,128.04631,120.93449,27.79884,STN
3127528721000,3.079975,3.42662175126218,-4.16826581284039,-2.56814308145498,1.6630806,-0.42363504,0.8155051,127.94577,120.6976,27.63207,STN
3127533719000,3.084973,3.33623881733254,-4.08739676215464,-2.01157480202743,1.6927075,-0.6227771,0.8775079,127.80484,120.43594,27.433949,STN
3127538715000,3.089969,3.22245007774417,-4.00115788307152,-1.4938220682408,1.7150042,-0.788627,0.9300423,127.59373,120.15822,27.231165,STN
3127544199000,3.095453,3.06359605729339,-3.89867145278564,-0.981389542257781,1.7244726,-0.91690874,0.96669424,127.338425,119.871185,27.008856,STN
3127548683000,3.099937,2.91567208986398,-3.81915244398992,-0.58560169418136,1.7150042,-0.98837996,1.0250319,127.06869,119.52624,26.751768,STN
3127553732000,3.104986,2.72079737572796,-3.73633063197985,-0.17636472836272,1.738217,-0.9776898,1.1093313,126.79117,119.164825,26.478771,STN
3127558701000,3.109955,2.4991454084983,-3.68533705900009,0.138112881680324,1.7626517,-0.9221011,1.1884383,126.509155,118.76405,26.19217,STN
3127563753000,3.115007,2.22741130154682,-3.68088240532179,0.320753812732713,1.7983873,-0.8008443,1.2800682,126.2566,118.33978,25.887896,STN
3127568673000,3.119927,1.91493610111005,-3.69275960038059,0.473862107446876,1.8417587,-0.6579019,1.3701707,126.03838,117.852455,25.550928,STN
3127573801000,3.125055,1.41132508244,-3.76544578826514,0.541356383721324,1.8863518,-0.46944994,1.4651603,125.87227,117.34383,25.201382,STN
3127578670000,3.129924,0.921406681104254,-3.85856206578997,0.591527876142233,1.9168952,-0.24556783,1.568091,125.7339,116.77608,24.809788,STN
3127583725000,3.134979,0.388208038987847,-4.00565119060008,0.614510554593619,1.9364429,-0.05100725,1.6927075,125.64087,116.18489,24.398703,STN
3127588701000,3.139955,-0.155079654872898,-4.18653347608806,0.610321064795638,1.9346102,0.08735373,1.8161024,125.55079,115.5244,23.921696,STN
3127593711000,3.144965,-0.766380790216899,-4.49462947985934,0.512512889145857,1.919644,0.19425514,1.9407189,125.50196,114.84485,23.42396,STN
3127598703000,3.149957,-1.33941490955215,-4.81038289072105,0.401511982915406,1.8887954,0.27885997,2.0693061,125.53642,114.01738,22.782896,STN
3127603650000,3.154904,-1.8062919563372,-5.14782852933945,0.253590552863694,1.8674151,0.36102137,2.1972823,125.593025,113.17288,22.11699,STN
3127608611000,3.159865,-2.20830112609728,-5.52725652167717,0.0883107624228029,1.8576412,0.36713,2.25562,125.65949,112.20947,21.3226,STN
3127613631000,3.164885,-2.33738972880306,-6.08333047065992,-0.15000664280285,1.8606955,0.2837469,2.3612995,125.718056,111.213905,20.482855,STN
3127618619000,3.169873,-2.36933111883568,-6.62619981471395,-0.440685420080424,1.8414533,0.1518,2.434298,125.74848,110.142624,19.550617,STN
3127623660000,3.174914,-2.12225610025589,-7.14682215061232,-0.890714848773533,1.7983873,0.03481932,2.4770586,125.7512,109.06782,18.600618,STN
3127628649000,3.179903,-1.84989984485881,-7.65777199788748,-1.3390251128476,1.7446312,-0.05222898,2.4862216,125.70876,107.96982,17.606264,STN
3127634870000,3.186124,-1.0857588187756,-8.22927229618452,-1.94263228851045,1.6841555,-0.1731803,2.456289,125.61545,106.89191,16.617071,STN
3127638644000,3.189898,-0.598864440220897,-8.53077248675594,-2.23953128278761,1.6398678,-0.21380283,2.441323,125.52221,105.87563,15.663374,STN
3127643615000,3.194869,0.117719567422539,-8.78204193617437,-2.40704436243769,1.6285667,-0.32498032,2.3994787,125.36902,104.89516,14.735932,STN
3127648621000,3.199875,0.838171785714286,-9.02883587394958,-2.54501618067227,1.600467,-0.49113566,2.360994,125.193405,104.04741,13.919335,STN
3127653637000,3.204891,1.55421346326531,-9.24509040696278,-2.5305992452581,1.5732834,-0.689056,2.3017402,124.97485,103.23523,13.134325,STN
3127658617000,3.209871,2.2265028013871,-9.47060326899832,-2.51232379008224,1.5430456,-0.89552844,2.2339342,124.692024,102.60106,12.516807,STN
3127663607000,3.214861,2.70945164296047,-9.74995575983355,-2.47444547283266,1.5183055,-1.0732902,2.1365013,124.36038,102.00802,11.937962,STN
3127668607000,3.219861,3.16893903986909,-10.0355091129624,-2.45328571715759,1.488984,-1.2000448,1.9960022,123.94258,101.62671,11.567083,STN
3127673647000,3.224901,3.48966658524249,-10.356237158187,-2.52987742200734,1.4563028,-1.2562444,1.8209893,123.49859,101.2921,11.241659,STN
3127678608000,3.229862,3.8031909814505,-10.6555644471561,-2.62679603551466,1.4172074,-1.2504412,1.6029104,123.001144,101.1328,11.090038,STN
3127683607000,3.234861,4.10470304445975,-10.8487200614052,-2.86706351068687,1.3967434,-1.1847731,1.3552046,122.51602,101.029106,10.993971,STN
3127688652000,3.239906,4.40096187749926,-11.025441620448,-3.12433394836672,1.3710871,-1.0115929,1.1166617,122.06718,101.024536,10.994178,STN
3127693611000,3.244865,4.62592850546729,-11.0488756238034,-3.49927819780914,1.3158038,-0.7330383,0.883922,121.681465,101.07791,11.052394,STN
3127698618000,3.249872,4.83593784379317,-11.0658928204066,-3.86770888115256,1.2406673,-0.41447207,0.6554584,121.39524,101.2118,11.187622,STN
3127703636000,3.25489,4.83119574961516,-10.9995036009473,-4.10955588229722,1.1181889,-0.25534168,0.45081854,121.15245,101.39124,11.367511,STN
3127708747000,3.260001,4.81174198072993,-10.9373934097324,-4.34543774944039,1.0381655,0.06780604,0.25870144,121.076294,101.6592,11.63268,STN
3127713610000,3.264864,4.61230942782482,-10.9464587043309,-4.44062130760097,0.850019,0.36346483,0.17379116,121.04406,101.940704,11.907863,STN
3127718886000,3.27014,4.39205966183812,-10.9546228085287,-4.5319411793211,0.65240407,0.65240407,0.028710667,121.13899,102.249825,12.205909,STN
3127723662000,3.274916,4.11527402401664,-10.9286740815998,-4.37624940481278,0.4859433,0.88270026,-0.08674286,121.30404,102.56497,12.506852,STN
3127728993000,3.280247,3.80632422602118,-10.8997099561271,-4.20246530726172,0.34300083,1.0989466,-0.19883664,121.576675,102.860756,12.7831745,STN
3127733652000,3.284906,3.34181707318393,-10.6912764737249,-3.84215725332303,0.23426682,1.2846496,-0.2910773,121.90346,103.18045,13.079473,STN
3127738658000,3.289912,2.83136329992272,-10.4566327967543,-3.44285047815559,0.16462818,1.4352279,-0.3726278,122.277885,103.52532,13.397663,STN
3127743611000,3.294865,2.43738178763338,-10.199712832416,-3.17458924868022,0.121256754,1.5836681,-0.44990227,122.70324,103.83117,13.678657,STN
3127748609000,3.299863,2.13093466376502,-9.92014650533528,-3.00792506379872,0.11942416,1.7278323,-0.5030475,123.16474,104.149254,13.971908,STN
3127753642000,3.304896,1.89769981574928,-9.60889742755132,-2.84415864445106,0.106595986,1.8029687,-0.5488624,123.64061,104.38238,14.1914625,STN
3127758603000,3.309857,1.6903742480115,-9.29319715917882,-2.6839525887831,0.08979719,1.7638733,-0.6072,124.11707,104.631424,14.427167,STN
3127763612000,3.314866,1.49890597932197,-8.91053243735131,-2.77481237214512,0.07452556,1.6331482,-0.6545421,124.59238,104.84477,14.631294,STN
3127768611000,3.319865,1.31382434722443,-8.50714960904044,-2.95040264357653,0.03268129,1.4874569,-0.6973027,125.04367,105.073135,14.847683,STN
3127773655000,3.324909,1.27816279040744,-8.05877133287184,-3.01156475379747,-0.016187929,1.3610078,-0.7079928,125.45879,105.27398,15.037987,STN
3127778630000,3.329884,1.29700958802413,-7.60173699495649,-3.03041150221519,-0.0842994,1.2550226,-0.6899723,125.830864,105.47966,15.228203,STN
3127783613000,3.334867,1.42344944677021,-7.11362041236522,-2.96526229495499,-0.17470746,1.1074986,-0.6768387,126.17391,105.68431,15.407626,STN
3127788678000,3.339932,1.59618999662677,-6.6049953570185,-2.86449705353645,-0.2302962,0.9483683,-0.6575964,126.47744,105.8829,15.576478,STN
3127793625000,3.344879,1.86205431160116,-6.04821753528353,-2.60997546674667,-0.3173445,0.84574294,-0.6554584,126.76651,106.1019,15.755334,STN
3127798914000,3.350168,2.19132346887689,-5.42513905913591,-2.26550917541754,-0.4129449,0.8054258,-0.66614854,127.023186,106.32322,15.929293,STN
3127803631000,3.354885,2.57995135991887,-4.95058030890477,-1.89245440436546,-0.5338962,0.79717916,-0.6704246,127.26751,106.58074,16.131048,STN
3127808642000,3.359896,3.02953320793896,-4.47782420717597,-1.47068181566544,-0.6020077,0.75441855,-0.6762278,127.48704,106.8456,16.33356,STN
3127813620000,3.364874,3.48410699710895,-4.11068557559343,-1.22187934580037,-0.7440339,0.66248333,-0.7012733,127.68448,107.16856,16.583073,STN
3127818636000,3.36989,3.94703449193548,-3.80369141612903,-1.07569164354839,-0.8894198,0.64599,-0.7266242,127.89258,107.49968,16.833527,STN
3127823649000,3.374903,4.25143923150358,-3.60028507064439,-0.521147399761336,-0.95905846,0.7819075,-0.7101309,128.12889,107.88174,17.145086,STN
3127828623000,3.379877,4.46934010083532,-3.453438800358,0.24624281402148,-0.86009824,1.0537425,-0.64843345,128.40544,108.25483,17.451551,STN
3127834751000,3.386005,4.45157657620452,-3.80156854444444,1.72401362428712,-0.48838675,1.4737124,-0.45570546,128.83391,108.62431,17.793901,STN
3127838630000,3.389884,4.36391079478859,-4.16319047444444,2.80157392614553,0.28527406,1.5146403,-0.40408736,129.22865,108.9722,18.154037,STN
3127843621000,3.394875,4.08500728679172,-5.3011246976987,3.47731064358925,0.49205196,1.4178182,-0.32986724,129.70285,109.27148,18.491238,STN
3127848621000,3.399875,3.6960825140205,-6.8846037636434,3.68566304157803,0.7449502,1.210124,-0.31612277,130.15367,109.5099,18.824665,STN
3127853674000,3.404928,3.29787147030264,-9.02648963448843,3.5564916539819,0.8546005,0.8594874,-0.36926803,130.50273,109.62349,19.082193,STN
3127858764000,3.410018,2.89228670875926,-11.6516486876109,3.13307895452135,0.8546005,0.3539964,-0.41813725,130.74063,109.73726,19.321127,STN
3127863718000,3.414972,2.64874923595434,-13.8688866894948,2.93594813210738,0.63316184,-0.32650748,-0.47616947,130.79721,109.7282,19.416311,STN
3127869302000,3.420556,2.66570448363982,-15.7170095134221,3.12810778292116,0.116980694,-0.9923506,-0.55924714,130.69984,109.76514,19.520008,STN
3127873779000,3.425033,3.06260490256081,-16.7723803758157,3.0538736633775,-0.5002986,-1.2855659,-0.6740898,130.48888,109.64641,19.43547,STN
3127878725000,3.429979,3.85876580880957,-17.5404417523235,2.7588258381056,-0.72082096,-0.850019,-0.7171558,130.298,109.542145,19.358002,STN
3127883697000,3.434951,4.28285867100739,-17.6768218824263,2.32317454987975,-0.45448375,0.18448131,-0.6575964,130.20885,109.38024,19.227806,STN
3127888708000,3.439962,4.24438845586532,-17.0271031297764,1.71192654797364,-0.038789943,1.1539245,-0.64751714,130.23358,109.25904,19.136503,STN
3127893705000,3.444959,4.03315676111607,-15.9944593535714,1.34697788776786,0.2443461,1.7238617,-0.5821546,130.47107,109.18928,19.096651,STN
3127898719000,3.449973,3.13817639573661,-13.4381386053571,1.94720416352679,0.26236662,1.8322903,-0.46944994,130.85155,109.113,19.051567,STN
3127903676000,3.45493,2.35467263335634,-11.2144679455729,2.52002394794912,0.15515977,1.7088956,-0.4120286,131.3514,109.10013,19.062113,STN
3127908773000,3.460027,1.70011083756655,-9.38073198540722,3.07832672263853,0.129198,1.2980887,-0.3222314,131.78183,109.05312,19.032406,STN
3127913694000,3.464948,1.6499359090317,-8.43982703016952,2.96866241675127,0.23854288,0.82833326,-0.20861048,132.15074,108.98597,18.978897,STN
3127918734000,3.469988,2.5467674401111,-8.82814597279954,1.79908308680203,0.47769663,0.4972443,-0.02107485,132.42386,108.87852,18.877853,STN
3127923668000,3.474922,3.74279601823887,-9.83086705432438,0.584324203902726,0.63163465,0.3912592,0.121256754,132.60864,71.25017,18.748095,STN
3127928733000,3.479987,5.7690542845656,-12.4231462723083,-0.83786164018435,0.5708536,0.46792278,0.115453534,132.73735,71.38325,18.605318,STN
3127933663000,3.484917,7.78175498572854,-14.6368290997006,-2.04502765046906,0.22052236,0.5360342,0.02565634,132.88766,71.40476,18.576519,STN
3127938871000,3.490125,10.0366282336327,-15.9907484937126,-2.75683094651697,-0.23609942,0.52290064,-0.04550946,133.02917,71.43131,18.543808,STN
3127943684000,3.494938,11.5491141633876,-16.8869252425846,-2.99478398993309,-0.47678033,0.49327368,-0.02076942,133.2504,71.30624,18.674835,STN
3127948718000,3.499972,11.3902286954959,-16.7424831768701,-1.96443710678118,-0.41783184,0.3539964,0.02687807,133.43196,71.17201,18.81602,STN
3127953704000,3.504958,10.8781586564547,-16.3233420887283,-1.0019416265896,-0.23732115,0.07574729,0.005497787,133.63655,70.83804,19.158575,STN
3127958752000,3.510006,9.2713588583815,-15.051874900289,-0.205527712138728,-0.09010262,-0.013744468,0.015882496,133.85107,70.538284,19.461567,STN
3127963877000,3.515131,7.66103975941095,-13.8080011721123,0.553110156603774,-0.06566802,0.19211712,0.07971791,134.06883,109.71827,19.718208,STN
3127968751000,3.520005,6.20895098792453,-12.8027087283019,1.08582916037736,-0.13775012,0.45814893,0.17989981,134.2764,109.9497,19.949093,STN
3127974126000,3.52538,4.64290222919974,-11.7020644366016,1.66548492943574,-0.18967366,0.61208695,0.2910773,134.45514,110.03409,20.033688,STN
3127978731000,3.529985,3.6636114851534,-10.8410455248874,2.08180172786956,-0.16340645,0.63132924,0.4196644,134.66998,110.08279,20.082605,STN
3127983947000,3.535201,2.65368376049971,-9.98187681022438,2.49309375773814,-0.076052725,0.5714644,0.54275376,134.85916,70.02809,19.971825,STN
3127988782000,3.540036,2.15133234704529,-9.69264430467658,2.61107018179502,0.0290161,0.514654,0.6462954,135.0477,70.16618,19.832695,STN
3127993751000,3.545005,1.63505847456234,-9.39539584137421,2.73231627303362,0.14080444,0.49541172,0.7330383,135.18916,70.40209,19.592728,STN
3127999237000,3.550491,1.36357036955842,-9.36907337436499,2.4316256360297,0.24740042,0.53786683,0.820392,135.32254,70.660255,19.326546,STN
3128003742000,3.554996,1.22869425208089,-9.43651149912075,2.05650138065651,0.34972036,0.56138515,0.850019,135.4346,70.91756,19.056225,STN
3128008793000,3.560047,1.35807926556425,-9.42456028139359,1.60378176098076,0.39920044,0.60994893,0.9108001,135.5343,71.25302,18.69964,STN
3128013745000,3.564999,1.62387589651603,-9.36948519005302,1.14402539255905,0.4654793,0.6072,0.93859446,135.6139,71.57369,18.348852,STN
3128018797000,3.570051,1.89503998770513,-9.31329791996971,0.674984767909114,0.5381723,0.63316184,0.9477574,135.71985,71.903694,17.98311,STN
3128023796000,3.57505,2.16335932496844,-9.25770010462005,0.210864799060136,0.625526,0.7247916,0.9450085,135.8334,72.222466,17.61803,STN
3128028741000,3.579995,2.29725410236074,-9.03525356205095,0.157909634928805,0.6805039,0.8393288,0.9236283,135.95058,72.52312,17.260809,STN
3128033860000,3.585114,2.37959305257068,-8.73334457152188,0.276843624975833,0.732122,0.9111055,0.87995136,136.07114,72.798325,16.915787,STN
3128038717000,3.589971,2.35601334955029,-8.4238704360488,0.473062382880182,0.7623598,0.91904676,0.8164214,136.25073,72.984634,16.674583,STN
3128043770000,3.595024,2.25095556096351,-8.08368323150005,0.743210901507288,0.79320854,0.8561276,0.7672467,136.42126,73.15042,16.447138,STN
3128048777000,3.600031,2.13138587123043,-7.79122283910515,0.869711171565996,0.82924956,0.7733554,0.72082096,136.58778,73.26777,16.258745,STN
3128053781000,3.605035,2.00273529254586,-7.52534502723937,0.912594690331096,0.83658,0.70371675,0.6930266,136.73126,73.36872,16.083717,STN
3128058750000,3.610004,1.91772448766234,-7.27078632792208,0.837535271233766,0.79779,0.657291,0.655153,136.85388,73.44611,15.918678,STN
3128063721000,3.614975,1.89926881909285,-7.03086311829812,0.5791564074937,0.7461719,0.65393126,0.6123924,136.96156,73.508125,15.765954,STN
3128068669000,3.619923,1.90693219088948,-6.79406586804943,0.305069704983819,0.6597345,0.66828656,0.58093286,137.0661,73.56937,15.610756,STN
3128073834000,3.625088,1.97484421643621,-6.55152284730803,-0.0199378364401295,0.56688297,0.71685034,0.55955255,137.17369,73.6214,15.46612,STN
3128078682000,3.629936,2.03276714289536,-6.35422745858627,-0.337247666696162,0.4550946,0.73945236,0.54550266,137.29582,73.6732,15.340116,STN
3128083715000,3.634969,2.07740149994855,-6.23024342113386,-0.699281299447474,0.35002577,0.74006325,0.5338962,137.42043,73.72489,15.221409,STN
3128088713000,3.639967,2.10535971970803,-6.12985537226277,-1.0630954419708,0.23487769,0.7339546,0.5164866,137.5727,73.77443,15.132445,STN
3128093714000,3.644968,2.10075987560507,-6.0746570509028,-1.43568307848156,0.12461651,0.74464476,0.4999932,137.72594,73.8289,15.049378,STN
3128098686000,3.64994,2.10666457400593,-5.97498941246291,-1.77498297982196,0.034513887,0.75228053,0.5009095,137.90836,73.90436,14.975391,STN
3128103703000,3.654957,2.14468380692384,-5.73736920672601,-2.02210819228487,-0.011301007,0.7984009,0.49296826,138.10283,73.97644,14.911488,STN
3128108731000,3.659985,2.17168681760804,-5.49384160498492,-2.15378441085427,-0.096516706,0.8570439,0.47861293,138.34386,74.08047,14.848006,STN
3128113719000,3.664973,2.16208499280402,-5.23459203449246,-1.90413676542714,-0.17745635,0.8668178,0.47800204,138.58109,74.18589,14.787374,STN
3128118696000,3.66995,2.16148139562389,-4.97151884138577,-1.59253536454761,-0.2764165,0.7968737,0.4792238,138.82823,74.29292,14.750063,STN
3128124530000,3.675784,2.19452163879361,-4.64662294438202,-0.992303877794205,-0.3726278,0.57604593,0.4896085,139.03104,74.40345,14.718505,STN
3128128767000,3.680021,2.22919135996805,-4.42046252254168,-0.571860726874314,-0.48441613,0.5021312,0.4978552,139.25706,74.502045,14.688651,STN
3128133713000,3.684967,2.30484980401318,-4.18875859320156,-0.132096273914346,-0.5015204,0.3555236,0.50426924,139.39536,74.5954,14.668429,STN
3128138713000,3.689967,2.39975406607922,-3.99769196927689,0.254549224557594,-0.5491679,0.22876903,0.5225952,139.50836,74.65639,14.658797,STN
3128143753000,3.695007,2.56637377392805,-3.97138370038154,0.421168973612827,-0.5742133,0.13347405,0.5235115,139.58858,74.70764,14.658842,STN
3128148919000,3.700173,2.74530249577881,-3.95086939535669,0.58109774001583,-0.5934556,0.055283304,0.5204572,139.6491,74.74145,14.656476,STN
3128153742000,3.704996,3.07188107935838,-4.05810408729422,0.517731729702406,-0.59650993,0.0036651916,0.49205196,139.69125,74.76541,14.665199,STN
3128158845000,3.710099,3.42564809441624,-4.1956281035533,0.399746614482234,-0.6114761,-0.02107485,0.4392121,139.74248,74.77305,14.687397,STN
3128163758000,3.715012,3.81734038619289,-4.47745573969543,-0.0301596446984772,-0.6423248,-0.0015271631,0.37415496,139.7941,74.76744,14.723573,STN
3128168726000,3.71998,4.21553988793172,-4.80507084835252,-0.500221822588329,-0.69913524,0.077579886,0.2706133,139.894,74.695404,14.831034,STN
3128173784000,3.725038,4.633784833684,-5.39638247260818,-1.1924892494204,-0.7602218,0.2434298,0.11942416,140.0299,74.59149,14.969926,STN
3128178722000,3.729976,5.04637300641643,-5.98549579327896,-1.82138503446006,-0.8604037,0.45814893,-0.059864793,140.24303,74.40349,15.215353,STN
3128183733000,3.734987,5.49434306278864,-6.6645240591923,-2.13732176493073,-1.0369438,0.6429357,-0.29871312,140.50246,74.1592,15.518664,STN
3128188725000,3.739979,5.93480584040305,-7.33550801956564,-2.41643950851105,-1.2147056,0.68752885,-0.52290064,140.82268,73.82216,15.937229,STN
3128194349000,3.745603,6.36686587162982,-8.03101932960282,-2.33740415237723,-1.357648,0.6062838,-0.74220127,141.16284,73.413055,16.419075,STN
3128198863000,3.750117,6.70937818191565,-8.58206508934954,-2.27632276082916,-1.4101825,0.5390886,-0.9245446,141.56961,72.92309,16.976446,STN
3128203640000,3.754894,7.02237129014602,-9.08191987194935,-2.23895045522312,-1.4288138,0.34697145,-0.9987647,141.9115,72.390526,17.560574,STN
3128208652000,3.759906,7.32942667390364,-9.58836111032448,-2.20372215551622,-1.4547756,0.18112154,-1.1273518,142.26414,71.75275,18.23019,STN
3128213622000,3.764876,7.37154774155359,-9.86916757640118,-2.21776247882006,-1.5738943,0.06536258,-1.2116512,142.57059,71.1035,18.895008,STN
3128218829000,3.770083,7.3968165511607,-10.1258426429212,-2.21540062394142,-1.7583756,-0.07941248,-1.2913691,142.84718,109.58814,19.585363,STN
3128223690000,3.774944,7.19737713591711,-9.92176539683172,-2.01132313569792,-1.9978348,-0.32925636,-1.3494014,143.05315,110.297585,20.275242,STN
3128228863000,3.780117,6.9771926519436,-9.6787265539253,-1.81105118856707,-2.2247713,-0.6542367,-1.3903292,143.18489,111.016205,20.95317,STN
3128234813000,3.786067,6.60802587698171,-9.02182693978659,-1.82733795304878,-2.3796256,-1.0876455,-1.4312572,143.20432,111.754074,21.624876,STN
3128238660000,3.789914,6.3693393923971,-8.59710545817454,-1.83786823589939,-2.6087,-1.1603385,-1.4416419,143.23225,112.46456,22.243454,STN
3128243655000,3.794909,5.90499033567345,-8.24742038443486,-2.33705014485007,-2.7003298,-1.1856894,-1.4682146,143.14453,113.194496,22.856224,STN
3128248627000,3.799881,5.43222199869622,-7.91313942581486,-2.86712368644068,-2.8964176,-1.0748174,-1.5173893,143.07997,113.95107,23.462605,STN
3128253646000,3.8049,5.00306445251841,-7.79284385462871,-3.22395588536731,-3.090062,-0.9007208,-1.5607607,143.02768,114.715485,24.053461,STN
3128258611000,3.809865,4.58181736512045,-7.68871536000398,-3.56473997321322,-3.2281175,-0.70188415,-1.6136005,143.02051,115.50797,24.652136,STN
3128263724000,3.814978,4.53089539064842,-7.78460339120791,-3.40590349453492,-3.2895093,-0.5161811,-1.6401732,142.94943,116.32484,25.21762,STN
3128268608000,3.819862,4.51220307493256,-7.89208486532121,-3.21430611173943,-3.2974505,-0.3830125,-1.625207,142.92224,117.15706,25.779581,STN
3128273732000,3.824986,4.63910254506753,-8.12671921274222,-2.62294850366999,-3.3108897,-0.28588495,-1.5726726,142.84973,117.98082,26.286285,STN
3128278618000,3.829872,4.77190510574477,-8.36026857821492,-2.02762689265023,-3.3249395,-0.38453966,-1.5583172,142.75137,118.816666,26.783716,STN
3128283697000,3.834951,4.92997479960934,-8.76680616698387,-1.70055617736151,-3.245527,-0.5366451,-1.5909985,142.69005,119.60467,27.245955,STN
3128288651000,3.839905,5.08680490208354,-9.18501944275268,-1.42016285407192,-3.0863967,-0.5739079,-1.6643023,142.6309,120.390594,27.706083,STN
3128293705000,3.844959,5.23281698330684,-9.92956752424483,-1.31588886477544,-2.9254336,-0.64568454,-1.7229455,142.66159,121.06465,28.120382,STN
3128298611000,3.849865,5.37287197376788,-10.6905337523847,-1.23652432143283,-2.83808,-0.7031059,-1.8362609,142.67822,121.75534,28.561909,STN
3128303684000,3.854938,5.8290292140085,-11.6598265712438,-0.890057218218444,-2.6358836,-0.8539896,-1.967597,142.64847,122.38487,28.987337,STN
3128308698000,3.859952,6.32598254379967,-12.6448588863426,-0.508468087200148,-2.4092526,-1.1227703,-2.1450534,142.55312,123.03194,29.435041,STN
3128313675000,3.864929,6.95022188726939,-14.0202006977882,-0.192494692516563,-2.1142046,-1.3955216,-2.3988678,142.34546,123.62988,29.857014,STN
3128318699000,3.869953,7.63188845907655,-15.5649841710325,0.101749788331465,-1.8075503,-1.5082263,-2.6728408,142.09181,124.23676,30.314224,STN
3128323800000,3.875054,7.83559495419474,-16.6207082170134,0.208813487047563,-1.5793921,-1.3833044,-2.8518243,141.82124,124.781944,30.767748,STN
3128328811000,3.880065,7.88715094507276,-17.5018494261158,0.255682697798613,-1.4138476,-1.0549643,-2.9071076,141.57553,125.32378,31.258482,STN
3128333754000,3.885008,7.40948299177665,-18.0310752497462,0.394506112121827,-1.2592987,-0.7452556,-2.8506026,141.35237,125.75894,31.70219,STN
3128338760000,3.890014,6.72808095943147,-18.4399160320812,0.569723755801015,-1.0754282,-0.64812803,-2.6621506,141.18097,126.14978,32.1276,STN
3128343757000,3.895011,6.22587214691663,-16.5565886966946,0.506243148179576,-0.90010995,-0.77763146,-2.4599543,140.99869,126.420166,32.44826,STN
3128348754000,3.900008,5.7820244072521,-13.9218320685742,0.364589562841638,-0.7516697,-1.0586295,-2.3188446,140.81499,126.65,32.731815,STN
3128353743000,3.904997,5.36990623183852,-12.5542551416738,0.177322747199848,-0.6020077,-1.2809844,-2.205529,140.5615,126.70366,32.841446,STN
3128358810000,3.910064,4.9633309816243,-11.6533219900029,-0.0305850575645054,-0.49632803,-1.3799446,-2.0815234,140.27876,126.72323,32.908237,STN
3128363754000,3.915008,4.59639827665592,-11.0091409825309,-0.294990950171571,-0.4092797,-1.4446963,-1.9776763,139.94135,126.93245,33.11758,STN
3128368752000,3.920006,4.24302315004679,-10.4964985599459,-0.598594748607674,-0.321926,-1.4559973,-1.865277,139.61142,127.08931,33.281227,STN
3128373751000,3.925005,3.90035598066268,-10.3095533315227,-0.920282098442875,-0.20738874,-1.393689,-1.7394388,139.24774,127.248955,33.426384,STN
3128378741000,3.929995,3.56290499451385,-10.261963566902,-1.24908063420243,-0.08857546,-1.2272283,-1.6035212,138.93698,127.35857,33.540085,STN
3128383746000,3.935,3.26317524327851,-10.2301346758621,-1.5941914297931,0.021685716,-1.0085385,-1.4474452,138.61191,127.43901,33.612267,STN
3128388747000,3.940001,3.00401620698143,-10.2148902482759,-1.95498150441379,0.1469131,-0.8881981,-1.2858714,138.33257,127.46085,33.647205,STN
3128393765000,3.945019,2.9369879541109,-10.1208372881151,-2.30861380045285,0.24923302,-0.6432411,-1.2040154,138.09962,127.434975,33.644558,STN
3128398758000,3.950012,2.99473204684512,-9.97647693066318,-2.65507880907719,0.3118467,-0.4269948,-1.0479393,137.92769,127.33544,33.584274,STN
3128403771000,3.955025,3.20694249900874,-9.73132337874178,-2.96539157979193,0.43982297,-0.2874121,-0.8753699,137.75075,127.18815,33.481926,STN
3128408787000,3.960041,3.51339287506134,-9.42487280577093,-3.25298344011189,0.58368176,-0.23304509,-0.7128797,137.6353,126.99512,33.352196,STN
3128413767000,3.965021,3.84146818222356,-9.12489226288039,-3.4103684956513,0.745561,-0.22510384,-0.5381723,137.50024,126.79846,33.214207,STN
3128418762000,3.970016,4.18737592039771,-8.82702757547454,-3.47762827510294,0.91324353,-0.20616703,-0.37873647,137.40407,126.54924,33.04377,STN
3128423769000,3.975023,4.41316267923893,-8.56457417198494,-3.44318414155188,1.0656544,-0.226631,-0.21930063,137.286,126.331375,32.893105,STN
3128428762000,3.980016,4.55531988592805,-8.32764516430482,-3.33893538806858,1.2104294,-0.29016098,-0.06505715,137.17642,126.059006,32.70105,STN
3128435207000,3.986461,4.49799557611587,-7.97007741562715,-3.34732931819884,1.3356569,-0.47800204,0.12003502,137.0394,125.805016,32.519985,STN
3128438739000,3.989993,4.40134249530003,-7.76010678451079,-3.39065664652675,1.5598444,-0.5525276,0.18234327,136.92126,125.52071,32.337658,STN
3128443757000,3.995011,4.10611309794837,-7.4164722686954,-3.40361143616374,1.645671,-0.67164636,0.2910773,136.73605,125.22831,32.12247,STN
3128449271000,4.000525,3.63439486349269,-6.99659126353195,-3.37250921766958,1.8072448,-0.7324274,0.39461896,136.55057,124.8932,31.893948,STN
3128453743000,4.004997,3.23605851182169,-6.66662663328062,-3.31864053220322,1.9889772,-0.80970186,0.4981606,136.29532,124.558876,31.657091,STN
3128458771000,4.010025,2.77438389401008,-6.30490201574577,-3.23296891880004,2.1468859,-0.8906415,0.6096435,136.03004,124.186035,31.38895,STN
3128463754000,4.015008,2.31986839080231,-5.97960975818236,-3.14089045761497,2.2724187,-0.958753,0.7199047,135.71823,123.77629,31.088537,STN
3128468754000,4.020008,1.86705304140952,-5.68885458199283,-3.04079439948238,2.375655,-1.02717,0.8268061,135.38983,123.330574,30.757635,STN
3128473787000,4.025041,1.43771736234829,-5.42436251357976,-2.90865548189365,2.4721715,-1.0705414,0.9306532,135.03476,122.833336,30.381231,STN
3128478757000,4.030011,1.04256761459182,-5.19385855054359,-2.74400976594189,2.5244007,-1.0977248,1.0421361,134.67188,122.30772,29.975628,STN
3128483717000,4.034971,0.683654898609831,-4.96471722617127,-2.55541865858295,2.552195,-1.1175779,1.1395692,134.2955,121.7325,29.5272,STN
3128488744000,4.039998,0.364737868052995,-4.73361793775922,-2.3335633359159,2.5390613,-1.1175779,1.2455542,133.92464,121.13303,29.051434,STN
3128493674000,4.044928,0.0653055839137102,-4.47952701312749,-2.09558864248032,2.5231788,-1.0870347,1.2999213,133.55392,120.49071,28.539413,STN
3128498760000,4.050014,-0.21854426848175,-4.16579829129946,-1.81173872768633,2.482251,-0.9941832,1.4071281,133.21217,119.818474,27.99292,STN
3128503669000,4.054923,-0.449264177313491,-3.86076111538085,-1.5810188095653,2.445599,-0.8481864,1.5158621,132.90204,119.102554,27.411718,STN
3128508806000,4.06006,-0.622659322259644,-3.53805355827296,-1.40762373503035,2.3988678,-0.6597345,1.6096299,132.6375,118.37552,26.817158,STN
3128513646000,4.0649,-0.801926715755884,-3.23528760917431,-1.22012420859992,2.3625214,-0.35155296,1.6920967,132.46516,117.60277,26.19268,STN
3128519473000,4.070727,-1.05234378397487,-2.87357391123853,-0.941882959708815,2.324953,0.05131268,1.8038851,132.38297,116.81026,25.549961,STN
3128523682000,4.074936,-1.24603423925197,-2.71335076916334,-0.705668952204149,2.293188,0.45998153,1.9407189,132.40065,115.99461,24.892977,STN
3128528759000,4.080013,-1.50176214080062,-2.69440807519236,-0.359962749906497,2.271808,0.7812967,2.0830505,132.51344,115.159874,24.216597,STN
3128533676000,4.08493,-1.71017213858996,-2.74870005238182,-0.0687147403320933,2.2525656,1.0241156,2.2088888,132.73317,114.27923,23.500477,STN
3128538743000,4.089997,-1.82905367788767,-2.98206006843299,0.125018131201343,2.243097,1.1963795,2.3231206,133.02364,113.3758,22.75378,STN
3128543730000,4.094984,-1.91806896265271,-3.22836444554974,0.318352230098895,2.232407,1.289842,2.420248,133.3563,112.397964,21.93238,STN
3128548753000,4.100007,-1.75016561794648,-3.62946677460733,0.537559320193911,2.196977,1.2507466,2.4941628,133.68909,111.413,21.083029,STN
3128553944000,4.105198,-1.56423727185689,-4.05245168107136,0.749242015042974,2.1627684,1.0995574,2.5555549,133.99414,110.378876,20.169207,STN
3128558802000,4.110056,-1.24806291594044,-4.54531165720568,0.77713976218269,2.115121,0.8231409,2.5964828,134.23451,109.35432,19.236996,STN
3128563929000,4.115183,-0.914432820905315,-5.06878359571925,0.794512890769687,2.0619757,0.49877146,2.6218336,134.38316,108.35656,18.30794,STN
3128568751000,4.120005,-0.601272786688141,-5.6011557352293,0.665334380180554,2.0054705,0.12095132,2.6169467,134.41664,107.38884,17.37862,STN
3128573709000,4.124963,-0.279280366603374,-6.14854293300839,0.532512510520471,1.9343048,-0.25259277,2.5867088,134.30629,73.48346,16.516308,STN
3128578764000,4.130018,0.112937573016656,-6.78006813309685,0.236664108812462,1.8802432,-0.6133087,2.5305092,134.07394,74.30861,15.674686,STN
3128583687000,4.134941,0.524973600567551,-7.42963095367057,-0.126897117871684,1.8167132,-0.7687739,2.4587326,133.78125,75.082436,14.858991,STN
3128589105000,4.140359,0.988414846593494,-8.11275620828636,-0.546127030380698,1.7266107,-1.2519683,2.3582454,133.23828,75.71468,14.171724,STN
3128593730000,4.144984,1.38697496475823,-8.68650746656778,-0.909648893082171,1.6114625,-1.4025466,2.298686,132.74373,76.30433,13.507436,STN
3128598753000,4.150007,1.85822899135948,-9.24337027396048,-1.28605130040303,1.5329664,-1.6896533,2.1410828,132.0569,76.74101,13.004275,STN
3128603754000,4.155008,2.34314415022117,-9.77065648274845,-1.65326859037649,1.3631458,-1.9737056,1.9602666,131.33275,77.14215,12.539196,STN
3128608755000,4.160009,2.90763369452277,-10.2698276704534,-2.04486426870879,1.2098186,-2.2036965,1.7376062,130.55096,77.417175,12.2256975,STN
3128613724000,4.164978,3.50615354977178,-10.7525051112689,-2.44548632786287,1.1108584,-2.2721133,1.45783,129.74901,77.62497,11.987006,STN
3128618753000,4.170007,4.27776710763285,-11.048528069372,-2.72649637390338,1.0748174,-2.1459696,1.1557571,128.96234,77.69997,11.9125595,STN
3128623819000,4.175073,5.12621295613527,-11.2641556291787,-2.95618621971981,1.0873401,-1.7947221,0.84879726,128.24246,77.70271,11.9113245,STN
3128628751000,4.180005,6.16952708569453,-10.5583461198029,-2.6048127572651,1.106277,-1.2473868,0.548557,127.64484,77.54485,12.093953,STN
3128635986000,4.18724,7.87642762238742,-8.77957549831446,-1.62259612397787,1.1059716,-0.25259277,0.15332718,127.30231,77.288925,12.362167,STN
3128638738000,4.189992,7.95314138378319,-8.28123604952464,-1.33188147447274,1.0445796,0.061086524,0.05009095,126.91611,76.86449,12.816556,STN
