timestamp,rel_time,acc_x,acc_y,acc_z,gyro_x,gyro_y,gyro_z,azimuth,pitch,roll,label
3678699306000,0,3.34855473674103,9.3758975753921,0.44698540184171,-0.038179077,0.042760566,0.017715093,138.8103,-53.044483,-21.32734,STD
3678704273000,0.004967,3.35347921167245,9.36851096583674,0.444523156662871,-0.029932396,0.032375857,0.02107485,139.31374,-52.30588,-21.810328,STD
3678709355000,0.010049,3.35851770202909,9.36095333552461,0.442003903592836,-0.03359759,0.02443461,0.02443461,139.82182,-51.586346,-22.272163,STD
3678714269000,0.014963,3.35962007829947,9.36205858828171,0.444211549162557,-0.026267206,0.014049901,0.021685716,140.33556,-50.89009,-22.711683,STD
3678719370000,0.020064,3.35480144969422,9.37651427283488,0.453848821467745,-0.017715093,-0.004581489,0.016493361,140.855,-50.21226,-23.12806,STD
3678724270000,0.024964,3.34593423787931,9.3810222603559,0.460536477041522,-0.009162978,-0.025961773,0.0125227375,141.38666,-49.547626,-23.528025,STD
3678729348000,0.030042,3.32924624061474,9.36910231565273,0.462920463492818,-0.00061086525,-0.032375857,0.017104227,141.91985,-48.9036,-23.906775,STD
3678734289000,0.034983,3.31300847092505,9.35750396063533,0.465240132074121,-0.0027488936,-0.03176499,0.01985312,142.45554,-48.27996,-24.261583,STD
3678739469000,0.040163,3.29598526772881,9.3453445841953,0.467672004822785,-0.0012217305,-0.040927973,0.018936822,142.9962,-47.676018,-24.594917,STD
3678744273000,0.044967,3.28420339562479,9.33995180411004,0.46926352,0.011301007,-0.05100725,0.0143553335,143.53793,-47.0902,-24.910347,STD
3678749359000,0.050053,3.28189705513519,9.34917711790331,0.46926352,0.007941248,-0.046731193,0.018020526,144.07764,-46.518303,-25.20738,STD
3678754291000,0.054985,3.27966054878545,9.35812309659548,0.46926352,0.004886922,-0.04062254,0.019242255,144.62068,-45.96007,-25.491669,STD
3678759362000,0.060056,3.27736101032246,9.36732120242436,0.46926352,0.0015271631,-0.040317107,0.023823744,145.16315,-45.41724,-25.757385,STD
3678764380000,0.065074,3.27469612149681,9.37588456348067,0.470597438099292,0.01038471,-0.03359759,0.018020526,145.70714,-44.890514,-26.011332,STD
3678769365000,0.070059,3.26760702364005,9.3782476454487,0.487138686171361,0.008246681,-0.023823744,0.021380283,146.24779,-44.376965,-26.247135,STD
3678774293000,0.074987,3.26059898467554,9.3805837072217,0.503490796602485,0.0009162979,-0.01282817,0.013133603,146.78917,-43.87587,-26.47287,STD
3678779329000,0.080023,3.25343736044152,9.38297096515369,0.520201273090135,-0.0027488936,-0.015882496,0.0125227375,147.3293,-43.390324,-26.680447,STD
3678784478000,0.085172,3.24705332773445,9.38449711917286,0.535269343184292,-0.0033597588,-0.014966198,0.0125227375,147.86551,-42.91841,-26.876024,STD
3678789332000,0.090026,3.25548535878832,9.37184924868493,0.518405259064938,-0.004581489,-0.0030543262,0.011911872,148.39975,-42.457874,-27.05922,STD
3678794268000,0.094962,3.26405983453655,9.35898771413024,0.501256285185017,0.009162978,0.013133603,0.014660766,148.93343,-42.01141,-27.228655,STD
3678799307000,0.100001,3.27345622891328,9.36042349283101,0.505759174859092,0.00061086525,0.019242255,0.0143553335,149.46698,-41.571083,-27.385683,STD
3678804297000,0.104991,3.28290708068822,9.36514877069119,0.515210021699792,0.00061086525,0.02321288,0.016493361,149.9955,-41.148384,-27.531052,STD
3678809328000,0.110022,3.28103327893953,9.3737401023235,0.513336218939529,-0.004276057,0.037873644,0.016187929,150.51935,-40.73396,-27.667715,STD
3678814342000,0.115036,3.27626532390031,9.38327596261543,0.508568263900308,-0.0030543262,0.05375614,0.010995574,151.04184,-40.331623,-27.793434,STD
3678819346000,0.12004,3.26813311782435,9.38170367753709,0.511138092262774,-0.00061086525,0.06352998,0.005497787,151.558,-39.941875,-27.904669,STD
3678824395000,0.125089,3.25902489777255,9.37714959128797,0.515692216554745,-0.008552114,0.07391469,0.014966198,152.06723,-39.56242,-28.005219,STD
3678829361000,0.130055,3.25006640682835,9.37267036920179,0.520171476058394,-0.01282817,0.0852157,0.02076942,152.56958,-39.191658,-28.09833,STD
3678834414000,0.135108,3.24095097091594,9.36811267504121,0.524729208291971,-0.015271631,0.090713486,0.0143553335,153.07065,-38.82924,-28.181683,STD
3678839340000,0.140034,3.2342151511989,9.36337210853491,0.243940011405936,-0.018020526,0.094989546,0.0125227375,153.57193,-38.4771,-28.255796,STD
3678844348000,0.145042,3.22914912039717,9.35830618353227,-0.277866995992395,-0.020158553,0.10048734,0.0061086523,154.07306,-38.132523,-28.322609,STD
3678849307000,0.150001,3.24134677920523,9.37329625675921,-0.255828119154418,-0.020463986,0.10293079,0.014660766,154.57108,-37.794853,-28.379852,STD
3678855129000,0.155823,3.26663983543821,9.40364756505172,0.113451542433315,-0.020158553,0.109650314,0.014966198,155.06903,-37.463932,-28.43149,STD
3678859320000,0.160014,3.26294863277773,9.41224126335528,0.471724973407784,-0.026572637,0.099265605,0.011911872,155.52733,-37.171673,-28.496326,STD
3678864322000,0.165016,3.23500283937828,9.40824933469456,0.99870391972331,-0.018325957,0.087659165,0.018936822,155.97957,-36.89259,-28.55112,STD
3678869522000,0.170216,3.20941022680054,9.403441725955,1.47976335250491,-0.02076942,0.07788532,0.0027488936,156.4677,-36.599884,-28.575527,STD
3678874320000,0.175014,3.22328593461674,9.3918786159847,1.19993590769742,-0.015882496,0.07391469,0.0021380284,156.9503,-36.322803,-28.584986,STD
3678879425000,0.180119,3.2380494795108,9.37957564049524,0.902203705583572,0.0030543262,0.0693332,0.007330383,157.48781,-36.02545,-28.550737,STD
3678884326000,0.18502,3.25222306100458,9.36776430202828,0.616369127217273,-0.0106901415,0.07086037,0.008857546,158.02551,-35.72974,-28.507902,STD
3678889351000,0.190045,3.26428186237505,9.35583641463415,0.38245959782487,0.0009162979,0.05681047,0.002443461,158.56781,-35.45235,-28.451597,STD
3678894350000,0.195044,3.24513979991004,9.34626515853659,0.894511485233906,0.0106901415,0.06078109,0.010079277,159.10153,-35.182426,-28.38709,STD
3678899409000,0.200103,3.22857734291761,9.33698917600158,1.30702629089477,0.013744468,0.044898596,0.0033597588,159.60236,-34.94348,-28.343048,STD
3678904363000,0.205057,3.24258757091249,9.33231898621912,0.573821270735309,0.02443461,0.053450707,0.00030543262,160.093,-34.717697,-28.294544,STD
3678909532000,0.210226,3.25367762043315,9.32850618116761,-0.150087143370998,0.012217305,0.043676864,0.0030543262,160.63016,-34.47014,-28.200764,STD
3678914345000,0.215039,3.22329612443503,9.33718680282486,-0.34973740799435,0.013744468,0.044593163,-0.0033597588,161.16559,-34.234043,-28.104609,STD
3678919338000,0.220032,3.19177839962335,9.34619206854991,-0.556854335329567,0.025350908,0.041233405,-0.0009162979,161.64131,-34.04007,-28.040554,STD
3678925113000,0.225807,3.21540693583916,9.32589932743727,-0.421892614226656,0.02107485,0.043982297,0.0033597588,162.11502,-33.84841,-27.971071,STD
3678929709000,0.230403,3.23811870005522,9.3088490307841,-0.291283532247929,0.019242255,0.043676864,0.0030543262,162.58897,-33.665962,-27.892883,STD
3678934387000,0.235081,3.26285656333517,9.31297230935947,-0.171717104374931,0.018325957,0.053450707,-0.004581489,163.03459,-33.499508,-27.826893,STD
3678939316000,0.24001,3.28892174676974,9.31731682413031,-0.0457352909961347,0.018020526,0.05497787,-0.014966198,163.49641,-33.328197,-27.742226,STD
3678944350000,0.245044,3.30984480272177,9.32208919969758,-0.034576906403629,0.0143553335,0.056505036,0.0012217305,163.94998,-33.16474,-27.649199,STD
3678949320000,0.250014,3.32903716915323,9.32688710342742,-0.053769135558871,0.0076358155,0.05955936,-0.0012217305,164.40886,-33.00167,-27.554852,STD
3678954366000,0.25506,3.35647011254672,9.31989608344277,-0.0178920558773613,0.008857546,0.062002823,-0.0012217305,164.87405,-32.843754,-27.437567,STD
3678959253000,0.259947,3.38483766895646,9.31044001737549,0.0293873201635519,0.0106901415,0.0580322,-0.00030543262,165.33917,-32.68994,-27.312866,STD
3678964343000,0.265037,3.41523331397329,9.30507825185982,-0.0225132649293717,0.02107485,0.059864793,-0.004886922,165.80576,-32.546,-27.183496,STD
3678969348000,0.270042,3.44530619987452,9.30078203558304,-0.0955474688896657,0.015577064,0.06352998,-0.0009162979,166.26924,-32.405716,-27.04529,STD
3678974355000,0.275049,3.46312106530945,9.29318501160423,-0.0773475336756922,0.013133603,0.06658431,0.0012217305,166.73909,-32.271267,-26.89511,STD
3678979380000,0.280074,3.47291817850163,9.28338769381108,0.00102942812703584,0.018325957,0.059864793,-0.004276057,167.21013,-32.142227,-26.737614,STD
3678984342000,0.285036,3.48242331605109,9.27690399435588,0.0408154615664917,0.01160644,0.06047566,0.0067195175,167.6704,-32.021957,-26.573704,STD
3678989325000,0.290019,3.49187399322705,9.27217905050005,0.0597168307208635,0.009162978,0.058643065,-0.00580322,168.139,-31.90474,-26.406317,STD
3678994598000,0.295292,3.48910886213748,9.26392332794782,0.118441986447566,0.0009162979,0.055283304,-0.0012217305,168.6061,-31.79014,-26.22191,STD
3678999301000,0.299995,3.48006928553939,9.25488356256899,0.190758646427496,0.0027488936,0.049480084,-0.003970624,169.07837,-31.679642,-26.03371,STD
3679004307000,0.305001,3.47933774954991,9.24232427485497,0.261663877662533,-0.008246681,0.04062254,-0.0027488936,169.54411,-31.578335,-25.831156,STD
3679009382000,0.310076,3.48419894778956,9.22774088317663,0.329720708853771,-0.01160644,0.025045475,-0.003970624,170.01303,-31.483488,-25.620699,STD
3679014302000,0.314996,3.50058605527489,9.23416770312036,0.38067309171471,-0.009773844,0.021380283,0.0036651916,170.48288,-31.38934,-25.40038,STD
3679019442000,0.320136,3.52496681406637,9.25367220832095,0.424558477905894,0.005192355,0.03176499,0.008246681,170.9538,-31.302052,-25.174723,STD
3679024384000,0.325078,3.52958005351623,9.2664540323126,0.473204986041345,-0.0015271631,0.04153884,0.018936822,171.4284,-31.210594,-24.936552,STD
3679029388000,0.330082,3.52263613342349,9.27571254409776,0.526441755090804,0.0021380284,0.03756821,0.014966198,171.90602,-31.128994,-24.693764,STD
3679034361000,0.335055,3.51573523122102,9.28491369899536,0.579348720015456,0.0015271631,0.05375614,0.021685716,172.3767,-31.053219,-24.442587,STD
3679039354000,0.340048,3.50880657554096,9.29415185833655,0.632468461794822,0.004276057,0.069027774,0.035124753,172.8475,-30.984417,-24.184633,STD
3679044348000,0.345042,3.4971515094132,9.29566775152812,0.66421099596577,0.0143553335,0.09193522,0.028405234,173.31755,-30.92024,-23.929434,STD
3679049360000,0.350054,3.48003697950285,9.2883330551141,0.671545794498777,0.008246681,0.09437868,0.029626964,173.78305,-30.860191,-23.664667,STD
3679054352000,0.355046,3.46299074380603,9.28102762724124,0.67885132408313,0.009162978,0.095294975,0.033292156,174.24574,-30.806913,-23.394066,STD
3679059356000,0.36005,3.44590353158109,9.27370463824368,0.686174415036675,0.0106901415,0.10873401,0.03756821,174.70566,-30.756966,-23.122072,STD
3679064718000,0.365412,3.42646340873,9.29066695595497,0.701140291269998,-0.002443461,0.13041973,0.042455133,175.1639,-30.705038,-22.847204,STD
3679069417000,0.370111,3.40868684021331,9.32177613648035,0.718916859786688,0.0018325958,0.1337795,0.046731193,175.62234,-30.662878,-22.566132,STD
3679074350000,0.375044,3.38995627742417,9.35945978219791,0.747457611735455,0.0027488936,0.12980886,0.045814894,176.07707,-30.617992,-22.288803,STD
3679079394000,0.380088,3.37073986644455,9.40269671944306,0.785890564121333,0.0018325958,0.13988814,0.04642576,176.5277,-30.578901,-22.010418,STD
3679084335000,0.385029,3.35909296699546,9.43540966502269,0.832847778292563,0.002443461,0.13072516,0.048563786,176.97667,-30.553885,-21.721636,STD
3679089331000,0.390025,3.35437352600118,9.45900686999408,0.889481114575853,0.015271631,0.12461651,0.05222898,177.42345,-30.536121,-21.431547,STD
3679094345000,0.395039,3.33644169687016,9.4670504999031,0.950254952611434,0.017104227,0.11301007,0.057421334,177.87509,-30.51956,-21.133951,STD
3679099303000,0.399997,3.30423492281977,9.45784889389535,1.01466828452035,0.022296581,0.092240654,0.05955936,178.3298,-30.511244,-20.828606,STD
3679104307000,0.405001,3.26520663634979,9.45034516057282,1.0573763968312,0.025961773,0.083383106,0.062308256,178.7847,-30.512833,-20.515688,STD
3679109316000,0.41001,3.21648620052813,9.44547301015641,1.06712049417022,0.048563786,0.077579886,0.053145275,179.24596,-30.523348,-20.196304,STD
3679114315000,0.415009,3.18095893832103,9.43258479790128,1.07463184041974,0.053450707,0.07391469,0.062308256,179.7043,-30.531548,-19.870543,STD
3679119377000,0.420071,3.16211798938982,9.40903361173727,1.07934207765255,0.045814894,0.06078109,0.0580322,180.17197,-30.543495,-19.540955,STD
3679124249000,0.424943,3.15417387895968,9.40080560985716,1.08132810526008,0.054061573,0.04917465,0.050701816,180.636,-30.562897,-19.21354,STD
3679129365000,0.430059,3.16372780257885,9.41752482654902,1.07893962435529,0.065973446,0.03604105,0.046731193,181.10376,-30.584934,-18.879196,STD
3679134332000,0.435026,3.17300347470872,9.43375710749281,1.07662070632282,0.0693332,0.022296581,0.03390302,181.57806,-30.607557,-18.544744,STD
3679139333000,0.440027,3.18234264046702,9.45010050129186,1.07428591488324,0.0693332,0.0061086523,0.026572637,182.05556,-30.636456,-18.202808,STD
3679144294000,0.444988,3.1963826255419,9.45701439992493,1.06286113627663,0.06078109,-0.005192355,0.023823744,182.53764,-30.666952,-17.856514,STD
3679149307000,0.450001,3.22341185413343,9.43899497691658,1.0268220550624,0.058643065,-0.024740042,0.020158553,183.0268,-30.70223,-17.502148,STD
3679154306000,0.455,3.25062611196633,9.41880787873321,0.985084660974143,0.051618114,-0.036957346,0.009162978,183.52856,-30.743784,-17.144325,STD
3679159328000,0.460022,3.27954655069152,9.38506766887152,0.907963440709561,0.03756821,-0.055283304,0.011301007,184.0329,-30.78778,-16.775482,STD
3679164327000,0.465021,3.30751320077013,9.35021397952817,0.824481098763892,0.0067195175,-0.06658431,-0.0067195175,184.54459,-30.831491,-16.40364,STD
3679169328000,0.470022,3.33085784731917,9.30819348898421,0.703089619239618,-0.0106901415,-0.05497787,-0.0061086523,185.05121,-30.881044,-16.026613,STD
3679174277000,0.474971,3.35274824987303,9.26818461401727,0.588134631020823,-0.04062254,-0.047647487,-0.0125227375,185.5675,-30.92223,-15.64569,STD
3679180250000,0.480944,3.36436875322499,9.2391332039614,0.512600892071102,-0.06352998,-0.036651913,-0.008552114,186.0793,-30.965935,-15.26373,STD
3679184340000,0.485034,3.37368760621781,9.22334885643358,0.461308696116654,-0.095294975,-0.03604105,-0.018325957,186.59816,-31.006727,-14.884128,STD
3679189328000,0.490022,3.39363664364531,9.22999844299568,0.401461544487495,-0.10934488,-0.043676864,-0.013439035,187.11237,-31.052267,-14.499288,STD
3679194362000,0.495056,3.41376965375157,9.23670935293026,0.34106247445919,-0.124005646,-0.03940081,-0.006414085,187.62604,-31.094086,-14.1167755,STD
3679199347000,0.500041,3.43370669296088,9.24335494014199,0.281251317508236,-0.122478485,-0.040317107,-0.0067195175,188.14273,-31.141106,-13.72863,STD
3679204337000,0.505031,3.4536637292005,9.25000719293768,0.221380169426941,-0.12186762,-0.05131268,-0.005192355,188.65965,-31.187752,-13.335061,STD
3679209355000,0.510049,3.46516045042152,9.26309491705138,0.161106899659273,-0.12003502,-0.057421334,-0.005192355,189.17686,-31.239851,-12.940115,STD
3679214364000,0.515058,3.47478915198715,9.27753801967081,0.100927472143717,-0.112704635,-0.05467244,0.0033597588,189.69249,-31.299181,-12.54064,STD
3679219314000,0.520008,3.48430443902047,9.29181099989964,0.0414568859584504,-0.087964594,-0.04550946,0.003970624,190.21193,-31.377026,-12.135965,STD
3679224254000,0.524948,3.49380050325171,9.30605514582497,-0.0178935576284625,-0.08093964,-0.034208454,0.0076358155,190.72852,-31.457209,-11.728531,STD
3679229349000,0.530043,3.51191438058332,9.3209412419947,-0.0901553899469713,-0.06963864,-0.03145956,0.012217305,191.24553,-31.54967,-11.318941,STD
3679234297000,0.534991,3.53124377336325,9.33543858933306,-0.162640663330614,-0.056505036,-0.02107485,0.02076942,191.75868,-31.64906,-10.910828,STD
3679239358000,0.540052,3.53590997048246,9.3415238273558,-0.155835544045593,-0.04734206,-0.010995574,0.01863139,192.27432,-31.763233,-10.500922,STD
3679244252000,0.544946,3.53821265591039,9.34612929438931,-0.137414047157316,-0.029321533,-0.0027488936,0.020463986,192.78677,-31.887733,-10.089477,STD
3679249927000,0.550621,3.54088281116243,9.35146971641938,-0.116052789527366,-0.027488936,-0.008246681,0.03268129,193.30002,-32.019615,-9.671977,STD
3679254264000,0.554958,3.5429234214405,9.35555102220694,-0.0997278953703449,-0.033292156,-0.02107485,0.02687807,193.81848,-32.156406,-9.255717,STD
3679259352000,0.560046,3.54532921494958,9.34889768034408,-0.0690166365491398,-0.013744468,-0.019547688,0.030543262,194.3477,-32.299496,-8.84228,STD
3679264267000,0.564961,3.5476561860787,9.33958972293356,-0.0364390186301661,-0.0143553335,-0.03023783,0.035124753,194.88307,-32.438354,-8.422238,STD
3679269375000,0.570069,3.55007453165909,9.32991626485565,-0.0025821575253609,-0.013133603,-0.04642576,0.040011674,195.42004,-32.58556,-7.997956,STD
3679274258000,0.574952,3.55238635262013,9.32066890859205,0.0297833578964801,-0.014049901,-0.06536258,0.038179077,195.96088,-32.735043,-7.5698476,STD
3679279399000,0.580093,3.5277258201232,9.2965737676738,0.0888460218093283,-0.0070249503,-0.07941248,0.037873644,196.50328,-32.890568,-7.1372867,STD
3679284292000,0.584986,3.49565238932238,9.26908192065122,0.152992927905837,0.0027488936,-0.09682214,0.04428773,197.04944,-33.04998,-6.6980157,STD
3679289317000,0.590011,3.47082555615364,9.24563995615364,0.202646632973888,0.0027488936,-0.10903945,0.040011674,197.328082144576,-33.125183704632,-6.4714817574995,STN
3679294266000,0.59496,3.44970641204884,9.22452081204884,0.244884956467338,0.005192355,-0.1301143,0.05009095,197.60251,-33.19925,-6.248374,STN
3679299342000,0.600036,3.41390277355816,9.22255629019439,0.34791447112018,0.01282817,-0.14263703,0.051618114,198.15613,-33.356243,-5.7991323,STN
3679304370000,0.605064,3.36218749043067,9.24324231704436,0.518575213244549,0.023823744,-0.15393804,0.050396383,198.71217,-33.510803,-5.3479204,STN
3679309348000,0.610042,3.32505547329193,9.27132042960663,0.589935285548654,0.034208454,-0.15607607,0.057421334,199.26408,-33.66137,-4.897107,STN
3679314334000,0.615028,3.29680928926353,9.30427458133688,0.599350631067731,0.046731193,-0.15118915,0.053450707,199.82147,-33.818974,-4.447607,STN
3679319330000,0.620024,3.26435335063805,9.31959954144821,0.607437091298843,0.049480084,-0.13897185,0.05955936,200.37111,-33.97147,-4.0047584,STN
3679324351000,0.625045,3.22867839812543,9.32197779876842,0.614572084284796,0.06169739,-0.11911872,0.062308256,200.92241,-34.133488,-3.5666935,STN
3679329360000,0.630054,3.19308870739935,9.32435037214363,0.621690024907508,0.05100725,-0.09132435,0.058337633,201.47621,-34.290802,-3.13906,STN
3679334332000,0.635026,3.15776190718172,9.32670542002176,0.628755387410229,0.05497787,-0.06414085,0.073303826,202.02359,-34.459415,-2.7132022,STN
3679339313000,0.640007,3.13646803743365,9.32072289514852,0.641518523065462,0.05681047,-0.04795292,0.07391469,202.57347,-34.62854,-2.2951622,STN
3679344323000,0.645017,3.12753237889934,9.3073191974113,0.659389779485986,0.047036625,-0.005192355,0.074830994,203.11272,-34.798637,-1.8882009,STN
3679349290000,0.649984,3.11239988030723,9.29136774450608,0.687726915446981,0.050396383,0.032986723,0.08002335,203.63782,-34.974792,-1.4931161,STN
3679354331000,0.655025,3.08664958758268,9.27076761787924,0.734077442351184,0.025350908,0.07086037,0.0870483,204.15714,-35.14256,-1.1082088,STN
3679359313000,0.660007,3.05255393894654,9.25837183476628,0.761367955282142,0.025961773,0.095294975,0.08552113,204.6733,-35.318016,-0.7324479,STN
3679364291000,0.664985,3.0101524870837,9.25366046941397,0.770790538403004,0.028710667,0.10903945,0.086132,205.18445,-35.489372,-0.36220258,STN
3679369408000,0.670102,2.98555511754105,9.24396935322387,0.770904209931918,0.018020526,0.13500121,0.09162979,205.68663,-35.653862,-0.0055256225,STN
3679374408000,0.675102,2.98076096455747,9.22958709451342,0.761315853904686,0.014660766,0.14385876,0.0983493,206.19046,-35.823494,0.35159135,STN
3679379312000,0.680006,2.96940477719942,9.22471034311927,0.7610587848479,0.016187929,0.16035213,0.08246681,206.68947,-35.987892,0.6920404,STN
3679384329000,0.685023,2.95084492955094,9.22934991743119,0.770338757122163,0.014966198,0.16829337,0.089186326,207.1831,-36.152767,1.0366803,STN
3679389342000,0.690036,2.93269022636214,9.24127784204733,0.768331907072097,0.007941248,0.16707164,0.08124508,207.68326,-36.317997,1.3729814,STN
3679394319000,0.695013,2.91520215679692,9.26313792900385,0.750843791854706,0.014660766,0.17592919,0.09896017,208.1742,-36.488712,1.7099335,STN
3679399280000,0.699974,2.89578108222564,9.30029599560585,0.736215816445128,0.015882496,0.1872302,0.09987647,208.66548,-36.661747,2.0388098,STN
3679404328000,0.705022,2.86922737114138,9.39057938965176,0.730905074228276,0.023518313,0.19150625,0.108123146,209.15213,-36.840046,2.3707168,STN
3679409272000,0.709966,2.83510533659574,9.47278503791103,0.705297539218569,0.040011674,0.19822577,0.112399206,209.63863,-37.026154,2.6960912,STN
3679414302000,0.714996,2.78851790468085,9.54732487059961,0.649392708483559,0.060170226,0.20097467,0.1133155,210.12541,-37.216923,3.0213082,STN
3679419307000,0.720001,2.74555304572544,9.60381554417365,0.61134473116527,0.061086524,0.21013765,0.124311075,210.6017,-37.423733,3.342889,STN
3679424323000,0.725017,2.70896723757616,9.62668170411272,0.606771499177456,0.08246681,0.23457226,0.1282817,211.07787,-37.642754,3.6582625,STN
3679429245000,0.729939,2.67333118772133,9.64734843697302,0.595164035037943,0.096516706,0.24801129,0.13194689,211.5554,-37.87064,3.9705987,STN
3679434331000,0.735025,2.63739592821459,9.66274902508432,0.559228807693929,0.11056661,0.27000242,0.14019357,212.02692,-38.104206,4.276067,STN
3679439267000,0.739961,2.60166639401186,9.66777436462451,0.521899081663044,0.12644911,0.27672195,0.14110987,212.49228,-38.346935,4.576812,STN
3679444286000,0.74498,2.56366948913043,9.65352576086956,0.479152640543478,0.14355333,0.32162055,0.15454891,212.94409,-38.592613,4.866887,STN
3679449259000,0.749953,2.54082099872138,9.63939395896521,0.42933882190901,0.14172074,0.36102137,0.15363261,213.39772,-38.84296,5.1492195,STN
3679454280000,0.754974,2.55035318482506,9.62509538120726,0.362613464439489,0.14721853,0.39920044,0.16035213,213.84074,-39.098125,5.424829,STN
3679459303000,0.759997,2.55412228662433,9.61944161043858,0.298724527695971,0.15515977,0.4392121,0.16737708,214.27841,-39.357765,5.6827507,STN
3679464286000,0.76498,2.54465191663028,9.63364746209565,0.241902268176225,0.16065755,0.4783075,0.15118915,214.7146,-39.617207,5.9289985,STN
3679469275000,0.769969,2.54320597080942,9.65990164476549,0.181042015282011,0.15118915,0.5012149,0.15332718,215.14668,-39.875397,6.1778884,STN
3679474284000,0.774978,2.56219288616663,9.71686179606175,0.109841404862458,0.14080444,0.5216789,0.15790866,215.5763,-40.133617,6.4158945,STN
3679479287000,0.779981,2.57429140510048,9.76188213647361,0.0169510372093023,0.122783914,0.50610185,0.15882497,216.00246,-40.39707,6.658529,STN
3679484300000,0.784994,2.56718003899175,9.77373433081519,-0.137127598139535,0.13072516,0.462425,0.15882497,216.4307,-40.66257,6.903137,STN
3679489305000,0.789999,2.56008002156224,9.78556761082309,-0.290960346976744,0.1591304,0.39370266,0.1563815,216.87698,-40.938744,7.1620116,STN
3679494351000,0.795045,2.55292184215178,9.79749782679109,-0.446053264186046,0.19394971,0.2959642,0.1563815,217.3381,-41.216618,7.43609,STN
3679499312000,0.800006,2.5442218795082,9.81306726331967,-0.589631042756148,0.25320363,0.172264,0.14202617,217.8182,-41.51314,7.7250423,STN
3679504245000,0.804939,2.52970066401639,9.84210979538934,-0.700960447449795,0.29993483,0.05131268,0.13439035,218.31732,-41.8132,8.033752,STN
3679509236000,0.80993,2.50915280221604,9.86649787429196,-0.813940079551824,0.3359759,-0.06383542,0.11636983,218.87,-42.151623,8.371829,STN
3679514224000,0.814918,2.47117678838319,9.87599207602107,-0.927868185488423,0.3640757,-0.15974127,0.105068825,219.44563,-42.498333,8.728225,STN
3679519234000,0.819928,2.42355636360678,9.88980467071887,-1.06200983820235,0.3753767,-0.23976462,0.084910266,220.05513,-42.868305,9.096557,STN
3679524234000,0.824928,2.34563653016177,9.91730538862831,-1.25910125200536,0.3717115,-0.3100141,0.061086524,220.6882,-43.24,9.475949,STN
3679529233000,0.829927,2.2653493190149,9.94515751164451,-1.46936953529044,0.3567453,-0.3744604,0.03573562,221.3499,-43.621353,9.861705,STN
3679534216000,0.83491,2.17166971935398,9.97496480654948,-1.75466636046221,0.36102137,-0.39278635,0.024740042,222.02179,-44.005123,10.2461,STN
3679539235000,0.839929,2.07731332547515,10.0049874461497,-2.04202433066833,0.3735441,-0.4654793,-0.009773844,222.73566,-44.415215,10.637294,STN
3679544248000,0.844942,1.94131017907516,10.0253187669756,-2.59526632564981,0.3912592,-0.5552765,-0.036957346,223.46127,-44.82545,11.030028,STN
3679549238000,0.849932,1.80169107500504,10.0445764669555,-3.17300074354221,0.43249258,-0.6554584,-0.08368854,224.23845,-45.279724,11.423408,STN
3679554319000,0.855013,1.65967927790748,10.0537868376963,-3.57663270096987,0.48838675,-0.75808376,-0.1301143,225.04448,-45.742153,11.823834,STN
3679559315000,0.860009,1.52005563581667,10.0620001570681,-3.95854433327611,0.5412266,-0.8588765,-0.19120082,225.88777,-46.217243,12.224497,STN
3679564304000,0.864998,1.33517132711738,10.0497382847378,-4.09606139545018,0.59864795,-0.96974856,-0.2565634,226.79549,-46.77589,12.638026,STN
3679569384000,0.870078,1.11693923654812,10.0237582868739,-4.07527734290292,0.64721173,-1.0998629,-0.33108896,227.748,-47.3482,13.051627,STN
3679574956000,0.87565,0.879857474639165,9.96849503849562,-4.15155081333071,0.7305948,-1.2547172,-0.40225476,228.77681,-47.9912,13.467982,STN
3679579327000,0.880021,0.694398156605297,9.91903909067638,-4.23397723523678,0.8197812,-1.4144585,-0.48533243,229.85747,-48.651802,13.880507,STN
3679584366000,0.88506,0.524333699689808,9.89905119645495,-4.41318217134417,0.9492846,-1.5586227,-0.57818395,230.97209,-49.346397,14.263507,STN
3679589311000,0.890005,0.37510339229936,9.89438765484983,-4.62303740448055,1.0720685,-1.6588045,-0.6627888,232.13293,-50.065483,14.639477,STN
3679594314000,0.895008,0.297675702974171,9.93008875308404,-4.73919502929838,1.1603385,-1.777007,-0.77304995,233.35187,-50.823868,14.983192,STN
3679599311000,0.900005,0.25616666999229,9.9854342845027,-4.80837670277564,1.2614367,-1.9034561,-0.8732319,234.61597,-51.620384,15.315334,STN
3679604353000,0.905047,0.344481516511581,10.1274164642497,-4.79834868217523,1.3548992,-2.0405953,-0.98440933,235.94507,-52.477524,15.614253,STN
3679609351000,0.910045,0.518009791423968,10.3250463434038,-4.73568569093656,1.4532484,-2.1930063,-1.0729848,237.3273,-53.363808,15.9024315,STN
3679614331000,0.915025,1.21844019143692,10.9029791665145,-4.57472547452985,1.5210545,-2.3768766,-1.1548407,238.78198,-54.28367,16.172596,STN
3679619360000,0.920054,2.25606808693993,11.7251669516158,-4.35049240049297,1.6007724,-2.557082,-1.2198979,240.2901,-55.23164,16.428902,STN
3679624357000,0.925051,3.22583498900032,12.5092110932466,-4.23433530566521,1.6701056,-2.7488935,-1.2712106,241.87392,-56.19642,16.689987,STN
3679629357000,0.930051,4.11475225134962,13.2499755229916,-4.25987888829617,1.7195857,-2.9003882,-1.3322971,243.50763,-57.175278,16.928112,STN
3679634341000,0.935035,4.8301235610439,13.7567963894611,-4.21845466708329,1.7327193,-2.9452868,-1.3497068,245.2183,-58.15021,17.24475,STN
3679639363000,0.940057,5.4120117190281,14.0789992925707,-4.12227465478452,1.7146988,-2.9538388,-1.3426818,246.95752,-59.112965,17.533115,STN
3679645148000,0.945842,6.0234616845065,13.9999002583867,-4.38408637410316,1.6389514,-2.9535334,-1.3429873,248.75754,-60.061493,17.848196,STN
3679649340000,0.950034,6.43994586678301,13.7391106303083,-4.74218514936009,1.4947872,-2.993545,-1.3539828,250.55287,-60.96062,18.127111,STN
3679654354000,0.955048,7.09352647588717,13.2899162108988,-5.19611056981094,1.4776831,-3.0656273,-1.3747523,252.33066,-61.85005,18.391178,STN
3679659354000,0.960048,7.90684312738853,12.6992934225053,-5.67538667940552,1.4789047,-2.9321532,-1.4086553,254.03844,-62.683002,18.592434,STN
3679664335000,0.965029,8.60633929762022,12.084226401106,-5.56713397007998,1.5769486,-2.5390613,-1.3671165,255.65195,-63.542255,18.77221,STN
3679669422000,0.970116,9.21247842924855,11.4299810370297,-4.8840247660709,1.6975945,-2.053729,-1.221425,257.16074,-64.348976,18.917238,STN
3679674413000,0.975107,9.38880364655686,10.8031247390355,-3.93466860936694,1.7907515,-1.4071281,-1.0491611,258.4638,-65.11869,19.063766,STN
3679679343000,0.980037,9.14987768803334,10.1987824647748,-2.72129924004763,1.9000963,-0.5296202,-0.8680395,259.50668,-65.82765,19.171703,STN
3679684335000,0.985029,8.62910139225251,9.70435570731707,-1.39126127546628,2.0131063,0.35216382,-0.66156703,260.2138,-66.348885,19.329165,STN
3679689327000,0.990021,7.79230009572453,9.34311348292683,0.0537070968723099,2.05434,1.0250319,-0.45875978,260.6834,-66.78807,19.481064,STN
3679694303000,0.994997,6.85973074076968,9.07898671517875,1.2558133052354,2.0173824,1.3826935,-0.26267207,260.82156,-67.05214,19.637522,STN
3679699351000,1.000045,5.74534140035163,8.97510283942176,2.06799538361008,1.9462167,1.5164729,-0.07574729,260.8026,-67.23946,19.820751,STN
3679704280000,1.004974,4.57790370636751,8.88742571704581,2.64448399593851,1.8664987,1.4892895,0.08368854,260.5926,-67.28418,19.98159,STN
3679709354000,1.010048,3.20497143633531,8.82685553381116,2.77067264191337,1.7925841,1.2990049,0.17562376,260.38403,-67.27792,20.17641,STN
3679714925000,1.015619,1.89113828629471,8.83524121423017,2.60864293221229,1.7672331,0.97524637,0.1872302,260.27664,-67.17691,20.353643,STN
3679719482000,1.020176,0.996080083400078,8.91159665493779,2.19717068132776,1.7583756,0.6221663,0.124311075,260.23114,-67.06991,20.536705,STN
3679724321000,1.025015,0.251738467686944,8.9986113402147,1.68892382188274,1.736079,0.24831672,0.024129177,260.1878,-67.14083,20.551996,STN
3679729336000,1.03003,-0.131636950502798,9.09996320644096,1.02793170648225,1.6581937,0.05467244,-0.07971791,260.20123,-67.218285,20.556053,STN
3679734331000,1.035025,-0.43342940256709,9.18491522108681,0.331748432031325,1.5012014,-0.26542094,-0.12736541,260.32635,-67.47399,20.435617,STN
3679739362000,1.040056,-0.332199325950721,9.18951668102378,-0.56091675409703,1.4031575,-0.46700647,-0.18906279,260.4823,-67.75182,20.286146,STN
3679744342000,1.045036,-0.208666809907041,9.18709408000395,-1.41505552817445,1.2281445,-0.49266282,-0.19700404,260.74634,-68.094826,20.09244,STN
3679749353000,1.050047,0.208962289106013,9.09692432634494,-1.90387149181171,1.0369438,-0.43249258,-0.14202617,261.04617,-68.41767,19.905064,STN
3679754314000,1.055008,0.618944098933654,8.9944113928643,-2.36503181547404,0.8713993,-0.32467487,-0.03390302,261.4728,-68.73172,19.75198,STN
3679759364000,1.060058,0.963077538300261,8.61150215253558,-2.35533792090599,0.73273283,-0.25961772,0.03756821,261.89392,-69.015564,19.604418,STN
3679764443000,1.065137,1.30048331817735,8.22368960328708,-2.33091724257455,0.6160576,-0.23518312,0.082161374,262.38553,-69.21491,19.5395,STN
3679769409000,1.070103,1.52514670256864,7.81180699255979,-2.12965627369353,0.48533243,-0.22510384,0.0729984,262.86044,-69.38872,19.478092,STN
3679774595000,1.075289,1.7500511149763,7.38348559399052,-1.92037037004739,0.34788775,-0.21899518,0.05009095,263.36115,-69.46887,19.485262,STN
3679779343000,1.080037,1.8405614963981,7.01282413055924,-1.73934960720379,0.21105394,-0.1994475,-0.0015271631,263.85242,-69.54686,19.47971,STN
3679784359000,1.085053,1.93618071990521,6.62124074796208,-1.54811116018957,0.08032878,-0.19120082,-0.06658431,264.33582,-69.55816,19.51244,STN
3679789324000,1.090018,1.87901364606358,6.34247559547685,-1.36959368796672,-0.019547688,-0.18417588,-0.13561209,264.80875,-69.5787,19.526747,STN
3679794540000,1.095234,1.7930111848646,6.07720552208764,-1.19673121948794,-0.121256754,-0.17989981,-0.22266038,265.27573,-69.61356,19.516111,STN
3679799352000,1.100046,1.58426226539636,6.02728743097981,-1.19219320258986,-0.22021692,-0.14935656,-0.30390546,265.67706,-69.646805,19.492098,STN
3679804755000,1.105449,1.35486641119151,5.98288788747387,-1.19692073592217,-0.3222314,-0.11759156,-0.35705075,266.04675,-69.67629,19.455046,STN
3679809278000,1.109972,1.20859950769416,6.05253896013829,-1.29094946219649,-0.39920044,-0.070249505,-0.39920044,266.39746,-69.71941,19.398146,STN
3679814280000,1.114974,1.04684247667631,6.12956630160798,-1.39493612786622,-0.44226643,0.006414085,-0.4147775,266.69446,-69.80485,19.297676,STN
3679819827000,1.120521,0.904389315437601,6.21835714787277,-1.57782164679903,-0.47067168,0.08979719,-0.42119157,266.97107,-69.89188,19.18995,STN
3679824293000,1.124987,0.813407684764992,6.29200873517018,-1.76844972625608,-0.48808134,0.13561209,-0.4129449,267.23132,-69.974,19.084658,STN
3679829279000,1.129973,0.796187768503628,6.32275851555207,-1.9926576072171,-0.49205196,0.24678956,-0.40103304,267.432,-70.10891,18.934853,STN
3679834338000,1.135032,0.853197856785644,6.30850605549127,-2.23019968306531,-0.4841107,0.38056904,-0.37293324,267.6092,-70.23329,18.794315,STN
3679839345000,1.140039,0.974455801971091,6.27648322470434,-2.46248536005256,-0.47494772,0.50762904,-0.32528573,267.7831,-70.37136,18.64987,STN
3679844377000,1.145071,1.15990823966585,6.22672763619298,-2.69317011229585,-0.43066,0.65301496,-0.27397305,267.90918,-70.50107,18.514307,STN
3679849233000,1.149927,1.42180681152575,6.11885731584062,-2.95649906717201,-0.38148534,0.80878556,-0.20891592,268.01968,-70.62366,18.39932,STN
3679854274000,1.154968,1.84405189614189,5.89835153255588,-3.30367817498542,-0.3213151,0.9575313,-0.1432479,268.0869,-70.73348,18.299257,STN
3679859229000,1.159923,2.16682092539172,5.70071245600643,-3.53916482330253,-0.25870144,1.110553,-0.0852157,268.14178,-70.82651,18.230621,STN
3679864378000,1.165072,2.27578454333065,5.54221986440337,-3.52430616223383,-0.19822577,1.2327261,-0.03390302,268.161,-70.90577,18.178074,STN
3679869241000,1.169935,2.35765434535783,5.40419929390716,-3.47217588462282,-0.11484267,1.312444,0.021380283,268.14383,-70.98237,18.16141,STN
3679874277000,1.174971,2.39496862145068,5.28759217502901,-3.33224711793037,-0.056505036,1.350623,0.069027774,268.10278,-71.04622,18.156591,STN
3679879247000,1.179941,2.4206718547114,5.17082289883572,-3.17652806828811,-0.016798794,1.3255776,0.08307768,268.0425,-71.09886,18.166342,STN
3679884305000,1.184999,2.41111305816478,5.04655764541687,-2.96145382347311,-0.003970624,1.2363913,0.10934488,267.9903,-71.13348,18.194986,STN
3679889271000,1.189965,2.39648971373885,4.92101220723519,-2.75685924942379,-0.02565634,1.0974194,0.10903945,267.93677,-71.153824,18.230165,STN
3679894259000,1.194953,2.36298099054013,4.7821904539533,-2.57495470207436,-0.08032878,0.9434814,0.11178834,267.91592,-71.161415,18.276752,STN
3679899631000,1.200325,2.31450988014158,4.64601999387109,-2.40766245748882,-0.1554652,0.7800749,0.11453723,267.90936,-71.14827,18.33158,STN
3679904272000,1.204966,2.2441315532228,4.55908195127608,-2.32900433757452,-0.24740042,0.6068946,0.12003502,267.954,-71.127335,18.39153,STN
3679909262000,1.209956,2.16616159137746,4.46763694605533,-2.24818372126308,-0.3567453,0.42180246,0.1133155,268.02448,-71.094406,18.451637,STN
3679914249000,1.214943,2.05877381796852,4.40227058339036,-2.21550051555382,-0.46609017,0.22907446,0.11881329,268.1506,-71.05092,18.519934,STN
3679919509000,1.220203,1.94453336836807,4.33610115387093,-2.18570445376019,-0.5983425,0.030543262,0.12736541,268.32043,-71.00909,18.57821,STN
3679924266000,1.22496,1.82987295445485,4.30858277330112,-2.21322293011175,-0.71837753,-0.06383542,0.12461651,268.51776,-70.964134,18.635813,STN
3679929418000,1.230112,1.70565383269231,4.28543722115385,-2.24496313974359,-0.77457714,-0.26297748,0.14844026,268.80475,-70.915276,18.69757,STN
3679934334000,1.235028,1.58663723301733,4.34919595690683,-2.30022091489707,-0.8915578,-0.46517387,0.1554652,269.1213,-70.86319,18.75471,STN
3679939373000,1.240067,1.46464279734561,4.41454995801733,-2.35686125846876,-1.0005972,-0.66156703,0.17470746,269.50537,-70.820694,18.804394,STN
3679944267000,1.244961,1.32576681218611,4.56200602014349,-2.57175320071747,-1.0958922,-0.8374963,0.1908954,269.94257,-70.7734,18.857485,STN
3679949564000,1.250258,1.17308024372311,4.74067681476339,-2.83743144616738,-1.1817188,-0.98563105,0.21471913,270.42783,-70.715485,18.92005,STN
3679954268000,1.254962,1.07177655909269,4.94328423001564,-3.09289290975753,-1.2718215,-1.1007792,0.24129178,270.97214,-70.67417,18.966017,STN
3679959228000,1.259922,0.964959748768088,5.15691789915917,-3.36225703803285,-1.3423764,-1.1676689,0.267559,271.58582,-70.66752,18.986187,STN
3679964239000,1.264933,0.840407161974731,5.40602298858212,-3.64028995743566,-1.3997977,-1.1945469,0.28955013,272.2163,-70.652916,19.012756,STN
3679969767000,1.270461,0.701676556752457,5.68348409555452,-3.94747908080487,-1.4446963,-1.1432343,0.31429017,272.83716,-70.62978,19.045889,STN
3679974260000,1.274954,0.584608808076923,5.90207570076923,-4.14924356576923,-1.4862351,-1.0387764,0.34513888,273.49503,-70.63722,19.057772,STN
3679979221000,1.279915,0.454772307894737,6.14251367894737,-4.36563766578947,-1.486846,-0.88056225,0.36713,274.11475,-70.64191,19.070993,STN
3679984301000,1.284995,0.335248108533917,6.3489050489528,-4.40116982056893,-1.4581354,-0.68661255,0.3894266,274.74036,-70.68311,19.056793,STN
3679989205000,1.289899,0.22269343924143,6.5397584375534,-4.39627619372721,-1.4013249,-0.48349985,0.39278635,275.30927,-70.72463,19.040295,STN
3679994269000,1.294963,0.137105519340301,6.65966774423211,-4.23992875732059,-1.323745,-0.28893927,0.40042216,275.85693,-70.798546,18.997456,STN
3679999232000,1.299926,0.0566830272099134,6.76847476407883,-4.06962217984473,-1.2425,-0.09162979,0.40683624,276.33722,-70.871414,18.953293,STN
3680004231000,1.304925,0.0310897586233766,6.8391592184573,-3.79487641046832,-1.1560625,0.08368854,0.4175264,276.76398,-70.96463,18.887363,STN
3680009204000,1.309898,0.0123469575681818,6.90475897933884,-3.50904878305785,-1.0512991,0.25778514,0.4083634,277.12857,-71.05958,18.818401,STN
3680014291000,1.314985,0.0378031846842105,6.95074548947368,-3.17647557894737,-0.9095783,0.43157628,0.40439278,277.40936,-71.15771,18.741642,STN
3680019335000,1.320029,0.0705177639671053,6.9928070131192,-2.83998280417957,-0.7672467,0.59437186,0.40378192,277.64044,-71.25399,18.665892,STN
3680024327000,1.325021,0.143888449691617,7.05209058702835,-2.4171602891291,-0.6056729,0.6762278,0.40653083,277.80347,-71.340256,18.594654,STN
3680029224000,1.329918,0.225191696705894,7.11426385985111,-1.98194882759535,-0.5225952,0.8072584,0.39522982,277.90387,-71.42725,18.520884,STN
3680034270000,1.334964,0.30124710558669,7.11952372767776,-1.63880467871804,-0.37201694,0.8906415,0.37110063,277.93625,-71.50176,18.456852,STN
3680039359000,1.340053,0.37635744798599,7.11269534134501,-1.31446454517688,-0.23945917,0.9324858,0.3277292,277.94385,-71.582825,18.385595,STN
3680044606000,1.3453,0.470732578904976,7.11037820811876,-0.988309255264364,-0.16340645,0.9129381,0.27855456,277.88055,-71.64095,18.33157,STN
3680049264000,1.349958,0.854973773302483,7.19213184898745,-0.845240746549986,-0.122783914,0.8854492,0.22357668,277.8097,-71.712975,18.264511,STN
3680054829000,1.355523,1.31403393792724,7.28980445771099,-0.67431411473472,-0.10995574,0.8762862,0.15790866,277.66006,-71.77966,18.19778,STN
3680059606000,1.3603,1.63731515598827,7.41492993507119,-0.756461470194724,-0.11301007,0.84849185,0.09712757,277.52716,-71.85974,18.118193,STN
3680064247000,1.364941,1.94441661716918,7.54056217432998,-0.858828607726131,-0.14477506,0.82863873,0.030543262,277.39752,-71.95829,18.019875,STN
3680069365000,1.370059,2.29377578715916,7.73703552032489,-1.17865839570683,-0.20769419,0.79320854,-0.028099801,277.26147,-72.00872,17.966782,STN
3680074311000,1.375005,2.63269955240766,7.93397766493908,-1.51300211330497,-0.2773328,0.7635816,-0.07452556,277.1325,-72.07204,17.900112,STN
3680079281000,1.379975,2.96467411050782,8.19771985339007,-1.97915949334012,-0.36132678,0.7620544,-0.116675265,277.0358,-72.11515,17.853067,STN
3680084321000,1.385015,3.29952129578207,8.47899157293497,-2.47919798154657,-0.43127087,0.7620544,-0.13836098,276.94916,-72.16264,17.800596,STN
3680089278000,1.389972,3.65575814377536,8.87665778764945,-3.11520490739278,-0.47250426,0.7504479,-0.15393804,276.92865,-72.18834,17.774061,STN
3680094241000,1.394935,4.02590262499726,9.33542853647033,-3.82421423163321,-0.52870387,0.65118235,-0.18784106,276.93472,-72.22327,17.737192,STN
3680099248000,1.399942,4.35404605697321,10.0645288479004,-4.92521814931598,-0.569021,0.48288897,-0.23273966,277.04874,-72.252495,17.714186,STN
3680104266000,1.40496,4.67363092117614,10.8497943616758,-6.10768172258218,-0.6169739,0.23365596,-0.2932153,277.21356,-72.293594,17.678446,STN
3680109251000,1.409945,4.73171674272517,11.8824288591224,-7.24375943995381,-0.6389651,-0.076358154,-0.37415496,277.547,-72.34745,17.636843,STN
3680114239000,1.414933,4.69334420247013,13.0096247020785,-8.36615845869063,-0.6542367,-0.45753807,-0.4886922,277.96603,-72.42368,17.569557,STN
3680119305000,1.419999,3.97949755295515,14.1178521146421,-8.90388733234333,-0.65057147,-0.6936375,-0.6453791,278.61087,-107.457634,17.457602,STN
3680124261000,1.424955,3.04443478954559,15.1891802476982,-9.21870740718741,-0.63194007,-1.3206906,-0.74067414,279.45718,-107.33851,17.328379,STN
3680129256000,1.42995,2.2253622673075,16.1575678277545,-8.37207864228555,-0.45753807,-2.1704042,-0.96883225,280.5703,-107.11746,17.059237,STN
3680134337000,1.435031,1.441829572753,17.0978067042061,-7.0424475848541,-0.19608775,-3.0030136,-1.185384,281.81262,-106.90825,16.75667,STN
3680139289000,1.439983,1.46034234559298,17.4109804216418,-5.09970000136144,-0.10751228,-3.309057,-1.2110404,283.16852,-106.606636,16.30986,STN
3680144263000,1.444957,1.84945466368495,17.4398036380597,-2.84188758524607,-0.38087448,-2.9034426,-1.0464121,284.5025,-106.334015,15.8581,STN
3680149250000,1.449944,2.65240441053548,16.9030014453635,-1.06260453234654,-0.89888823,-2.1050417,-0.8210029,285.62946,-105.951256,15.341529,STN
3680154266000,1.45496,3.65204792022638,16.0999405004789,0.501691211040488,-1.282817,-1.210735,-0.655153,286.57886,-105.61162,14.881708,STN
3680159271000,1.459965,4.58219297383259,15.3931381557636,1.91413127208011,-1.258077,-0.5177083,-0.63713247,287.06534,-105.24061,14.520179,STN
3680164239000,1.464933,5.40044241987591,14.8390074249483,3.08453864458474,-0.83077675,-0.16462818,-0.6963864,287.3877,-104.909256,14.208937,STN
3680169316000,1.47001,5.87312006013654,14.2294513971505,3.2400951892154,-0.22052236,-0.06872234,-0.711658,287.41653,-104.70555,14.103286,STN
3680174264000,1.474958,6.04659203472841,13.6012007969724,2.56964858159691,0.38056904,-0.071776666,-0.6377433,287.3734,-104.55692,14.015639,STN
3680179260000,1.479954,6.13403549397125,12.7117779480081,-0.150113056708788,0.8875872,-0.22082779,-0.4465425,287.2401,-104.54006,14.060166,STN
3680184366000,1.48506,6.14346930548857,11.5703094105334,-4.79145479285232,1.6062702,-0.33414328,-0.17287487,287.10336,-104.62804,14.14849,STN
3680189308000,1.490002,5.88885319573136,10.9782688782015,-6.67309949914627,2.5949554,0.24495697,-0.003970624,286.86505,-104.82874,14.278689,STN
3680195069000,1.495763,5.2451276791975,10.9625684864352,-5.43275024250617,2.5250115,0.5177083,0.13194689,286.7547,-105.06758,14.466152,STN
3680199240000,1.499934,4.79293143465602,11.0572562776776,-4.35413303023276,2.1407773,0.71868294,0.2950479,286.91473,-105.5568,14.654064,STN
3680204263000,1.504957,4.27234893125483,11.3547319446019,-2.74280635725329,1.8084666,0.8979719,0.5448918,286.99622,-106.14251,14.910571,STN
3680209626000,1.51032,3.70723263963016,11.6232020586867,-1.08152070357657,1.6569719,1.0369438,0.8011498,286.9552,-106.676285,15.177859,STN
3680214240000,1.514934,3.13476848414351,11.3981307197431,-0.200806504240948,1.6001616,1.128879,0.97494096,286.88254,-107.23117,15.493348,STN
3680219299000,1.519993,2.60627715418215,11.1584483096696,0.670438982578572,1.5861117,1.3942999,1.010982,286.63248,-107.63817,15.812553,STN
3680224263000,1.524957,2.43920463509388,10.948414137564,1.19075027001707,1.5146403,1.7311921,1.0005972,286.3421,-108.04765,16.1628,STN
3680229276000,1.52997,2.3345166597959,10.881655767491,1.63368681349637,1.4001031,2.0815234,0.8854492,285.89398,-108.32688,16.446869,STN
3680234288000,1.534982,2.45366453001747,11.3229444658454,1.78813783488094,1.2837334,2.3576343,0.6759224,285.3677,-108.55766,16.702833,STN
3680239398000,1.540092,2.55716514621067,11.8541912673277,1.91777036294647,1.094976,2.53112,0.47616947,284.70407,-108.70737,16.935238,STN
3680244257000,1.544951,2.43003678353739,13.3797319143985,1.69176427560457,0.76083267,2.4541512,0.32986724,284.03192,-108.778885,17.117142,STN
3680249272000,1.549966,2.25267764527778,14.9287781861111,1.48243644277778,0.30909783,1.9413297,0.2171626,283.41498,-108.74476,17.224794,STN
3680254270000,1.554964,1.46477847632716,16.1352496225309,1.59077261771605,-0.12003502,0.9804387,0.14905111,282.95764,-108.652695,17.280165,STN
3680259249000,1.559943,0.696521263694007,17.1647629226836,1.6914728992432,-0.3182608,-0.19150625,0.1282817,282.70868,-108.48559,17.230824,STN
3680264237000,1.564931,0.0467675138678666,16.9546920120679,1.74032657921865,-0.30909783,-1.1346822,0.1001819,282.67953,-108.28588,17.137676,STN
3680269287000,1.569981,-0.510443029412939,16.5876800087859,1.6991221438099,-0.23243423,-1.5427402,0.07360926,282.81097,-107.99212,16.927486,STN
3680274265000,1.574959,-0.581838786691294,15.4929444508786,1.22790996188099,-0.20555615,-1.5234979,0.029626964,283.0943,-107.6937,16.695375,STN
3680279261000,1.579955,-0.625142473001423,14.4086142031294,0.723658767207207,-0.30879238,-1.2644911,-0.061391957,283.4247,-107.33723,16.394497,STN
3680284292000,1.584986,-0.524622806742532,13.3897100335704,0.0565735488288289,-0.4972443,-0.906524,-0.19242255,283.7161,-106.96209,16.080378,STN
3680289340000,1.590034,-0.413607012608696,12.3951638478261,-0.584809788405797,-0.6966918,-0.5983425,-0.30268374,283.9855,-106.60014,15.767602,STN
3680294896000,1.59559,-0.145849677202899,11.6989946992754,-0.890053162801932,-0.84757555,-0.40683624,-0.37293324,284.17892,-106.2098,15.442234,STN
3680299278000,1.599972,0.0776154234075397,11.1711302749687,-1.10781257907808,-0.9089675,-0.34788775,-0.3924809,284.38937,-105.85769,15.13537,STN
3680304320000,1.605014,0.491719499310345,10.834671137931,-1.06467672413793,-0.9016371,-0.40042216,-0.35796702,284.57315,-105.50295,14.832964,STN
3680309297000,1.609991,0.900485065706271,10.5025495343934,-1.0220969641147,-0.79717916,-0.45998153,-0.28221974,284.7665,-105.210144,14.579463,STN
3680314295000,1.614989,1.34323249466772,10.3176945846746,-0.928073606063,-0.69974613,-0.48991394,-0.17470746,284.96466,-104.943726,14.35093,STN
3680319333000,1.620027,1.79583990760344,10.160472370001,-0.823259257280537,-0.659429,-0.505491,-0.11881329,285.17322,-104.694855,14.134085,STN
3680324316000,1.62501,2.07250219790428,9.98475314688945,-0.889268829447748,-0.600786,-0.44501534,-0.027183503,285.33548,-104.5577,14.024083,STN
3680329265000,1.629959,2.30963694576607,9.8057837021618,-0.992176325573492,-0.5644395,-0.2932153,0.0421497,285.4724,-104.436066,13.928652,STN
3680334313000,1.635007,2.43839030367505,9.66316458897485,-1.11074286073501,-0.54275376,-0.106901415,0.098043874,285.54544,-104.39953,13.921626,STN
3680339257000,1.639951,2.51470832301741,9.54105586428111,-1.23285179793682,-0.5522222,0.09773844,0.13225232,285.5664,-104.37871,13.931693,STN
3680344319000,1.645013,2.51284859292317,9.52320317225111,-1.40884544856538,-0.5510005,0.3155119,0.15454891,285.53342,-104.40514,13.98631,STN
3680349313000,1.650007,2.49442892642981,9.52780817302138,-1.59304172882727,-0.54428095,0.5122105,0.16768251,285.44623,-104.43813,14.049387,STN
3680354325000,1.655019,2.6236915190617,9.68493171779704,-1.9125064009383,-0.5039638,0.65087694,0.17654006,285.30444,-104.496506,14.130865,STN
3680359282000,1.659976,2.79799050856706,9.88828044620092,-2.27078749143294,-0.4474588,0.7012733,0.17104226,285.13312,-104.554474,14.211135,STN
3680364416000,1.66511,2.85780617068932,9.92730371789081,-2.44244792547133,-0.37934732,0.66981375,0.17104226,284.97006,-104.61944,14.288872,STN
3680369369000,1.670063,2.88575224758445,9.92264593303221,-2.5588902124509,-0.3222314,0.59681535,0.16126843,284.8079,-104.680786,14.360033,STN
3680374314000,1.675008,2.85187025018454,9.85436297545673,-2.6227029284093,-0.25411993,0.5021312,0.16249016,284.6931,-104.77696,14.448679,STN
3680379296000,1.67999,2.79904316867503,9.7663179162207,-2.67112766502122,-0.2180789,0.41172317,0.13713925,284.60175,-104.86117,14.522881,STN
3680384310000,1.685004,2.71175009599832,9.58707483972272,-2.64640733352589,-0.21624629,0.30726522,0.12889257,284.55536,-104.962555,14.606223,STN
3680389346000,1.69004,2.60030856254595,9.34392982008192,-2.57042450827644,-0.23915374,0.16493362,0.110872045,284.54922,-105.05165,14.674404,STN
3680394311000,1.695005,2.4754975369694,9.03937977265548,-2.45959708975321,-0.2593123,0.004886922,0.08552113,284.5835,-105.13358,14.729948,STN
3680399304000,1.699998,2.34332819378085,8.70423610740375,-2.3321480292004,-0.27275133,-0.18142697,0.06719518,284.669,-105.20908,14.776736,STN
3680404326000,1.70502,2.26573387590294,8.35852553187121,-2.34533798459169,-0.27672195,-0.36835176,0.044593163,284.794,-105.271225,14.808659,STN
3680409313000,1.710007,2.21670410279048,8.01085925870275,-2.4300259479888,-0.2761111,-0.4538729,0.036957346,284.94397,-105.33039,14.835899,STN
3680415250000,1.715944,2.16089902344775,7.58266740657982,-2.61245125127888,-0.26145032,-0.60048056,0.04428773,285.1548,-105.38052,14.851622,STN
3680419427000,1.720121,2.12286318280879,7.27457662080441,-2.77980910895693,-0.2443461,-0.6267477,0.04917465,285.3539,-105.42732,14.863362,STN
3680424329000,1.725023,2.05687466243375,6.93144350624338,-2.82620466152215,-0.23609942,-0.66675943,0.058337633,285.61215,-105.48447,14.875468,STN
3680429335000,1.730029,1.96032084047064,6.60620988404706,-2.66866954534662,-0.21013765,-0.6945538,0.06780604,285.87305,-105.54512,14.88635,STN
3680434421000,1.735115,1.81585962296402,6.32299504751809,-2.45278516391805,-0.21013765,-0.6927212,0.07788532,286.17923,-105.61998,14.90166,STN
3680439291000,1.739985,1.63997081927428,6.09006117543573,-2.20083640140658,-0.18936823,-0.7067711,0.086437434,286.4965,-105.70071,14.915284,STN
3680444284000,1.744978,1.5248845925817,5.92452647048643,-2.16227219643787,-0.17440203,-0.72295904,0.081855945,286.80423,-105.77551,14.928465,STN
3680449301000,1.749995,1.46030004305637,5.81554026971352,-2.29547774026716,-0.16890424,-0.72204274,0.073303826,287.10922,-105.85202,14.940072,STN
3680454256000,1.75495,1.40685680196995,5.70638920434057,-2.38790571398998,-0.17806722,-0.7302894,0.086132,287.3989,-105.92061,14.953798,STN
3680459326000,1.76002,1.40145286474124,5.58750235959933,-2.29603866824708,-0.18967366,-0.7696902,0.105068825,287.69556,-105.98788,14.963208,STN
3680464253000,1.764947,1.41064540391906,5.47894558096454,-2.21966133935763,-0.17928895,-0.7852673,0.121256754,288.0174,-106.05821,14.963514,STN
3680469342000,1.770036,1.44415437703565,5.37841891154111,-2.1622174711325,-0.1518,-0.782213,0.14966199,288.34418,-106.136894,14.968979,STN
3680474252000,1.774946,1.45920252151055,5.32646964716772,-2.12151452534247,-0.13255776,-0.7867944,0.16371189,288.6726,-106.21704,14.978982,STN
3680479328000,1.780022,1.4412048033321,5.36021536875231,-2.10801618972603,-0.1160644,-0.79351395,0.16401732,288.99896,-106.30249,14.989574,STN
3680489325000,1.790019,1.40575894268789,5.4266763574602,-2.08143170171233,-0.103847094,-0.84635377,0.1600467,289.64697,-106.4846,15.0190735,STN
3680494504000,1.795198,1.38621970621112,5.46784485170828,-2.07523776422969,-0.093462385,-0.8897252,0.1600467,289.97736,-106.57798,15.034768,STN
3680499304000,1.799998,1.35306824853511,5.59216281799333,-2.16640435937979,-0.09285152,-0.9282097,0.1591304,290.31427,-106.669075,15.045683,STN
3680504378000,1.805072,1.31802439515009,5.72357726818714,-2.2627750476697,-0.09285152,-0.9810496,0.15393804,290.67798,-106.76047,15.049861,STN
3680509318000,1.810012,1.23815989453742,5.86098145137354,-2.44341928358068,-0.093462385,-0.9984592,0.1518,291.03955,-106.85094,15.050666,STN
3680514357000,1.815051,1.14673415815177,6.00319915156299,-2.64658751005157,-0.082161374,-1.0418307,0.15241088,291.4209,-106.941,15.043981,STN
3680519331000,1.820025,1.05224352693648,6.18028785129431,-2.89395290912983,-0.06872234,-1.0665708,0.16462818,291.81793,-107.03379,15.028613,STN
3680524256000,1.82495,0.958325213639984,6.35873270294703,-3.14283639155715,-0.0290161,-1.0644327,0.17104226,292.21597,-107.12945,15.007304,STN
3680529320000,1.830014,0.972515815547007,6.53683115040345,-3.19433498678927,0.013133603,-1.0048733,0.1853976,292.63367,-107.230606,14.969106,STN
3680534347000,1.835041,0.99961805733252,6.71299580455057,-3.221437252158,0.061086524,-0.93951076,0.19456059,293.04535,-107.338425,14.927789,STN
3680539325000,1.840019,1.1110578011792,6.86886346620341,-3.13751939431459,0.07788532,-0.89980453,0.19639318,293.48157,-107.45392,14.862041,STN
3680544286000,1.84498,1.24611619471468,7.01892823183828,-3.02246963619709,0.07147124,-0.9117164,0.18417588,293.91,-107.572464,14.791547,STN
3680549334000,1.850028,1.35068492655024,7.15846952044741,-2.9700259497449,0.06658431,-0.990518,0.17959438,294.3572,-107.699776,14.7254925,STN
3680554293000,1.854987,1.44853803399725,7.29360003228022,-2.92808887589286,0.08582657,-1.0928379,0.1731803,294.80994,-107.82671,14.649771,STN
3680559298000,1.859992,1.5297347397409,7.41530183863593,-2.93609858081539,0.121256754,-1.1914927,0.16218472,295.26593,-107.95436,14.587574,STN
3680564309000,1.865003,1.60744662416651,7.53415514046485,-2.95438376659364,0.15393804,-1.2654073,0.14905111,295.73874,-108.08222,14.514961,STN
3680569484000,1.870178,1.61386213986897,7.66149312910685,-2.9166484196069,0.2003638,-1.3347405,0.14202617,296.22864,-108.2194,14.448938,STN
3680574361000,1.875055,1.59586192651508,7.78299475720204,-2.86264777954524,0.2565634,-1.4288138,0.11575896,296.73898,-108.35573,14.364165,STN
3680579299000,1.879993,1.51579443817647,7.89512498558824,-2.97065225782353,0.3145956,-1.5628988,0.07849618,297.27008,-108.49859,14.269731,STN
3680584376000,1.88507,1.40139106228431,8.00476155622549,-3.16609132304902,0.34880406,-1.6377298,0.046120327,297.80273,-108.641975,14.163101,STN
3680589296000,1.88999,1.18746805632913,8.16250208228173,-3.4850300734585,0.41874814,-1.6267341,0.03481932,298.34705,-108.78687,14.049255,STN
3680594295000,1.894989,0.907500443529291,8.35405938232276,-3.88779048197394,0.51343226,-1.5610662,0.029321533,298.88745,-108.937614,13.923455,STN
3680599294000,1.899988,0.566459795035751,8.6134625505618,-4.0776361897855,0.6453791,-1.4905112,0.0027488936,299.45142,-109.11113,13.765036,STN
3680604282000,1.904976,0.195627062410623,8.9062245235955,-4.16058586553626,0.81245077,-1.4764613,-0.05467244,300.00192,-109.304276,13.593644,STN
3680609237000,1.909931,-0.143710343626596,9.371282691567,-4.30001565001014,1.0173961,-1.4605788,-0.07513642,300.5879,-109.55438,13.371963,STN
3680614215000,1.914909,-0.472292078583012,9.91247646148389,-4.46430630052706,1.1267409,-1.4330899,-0.1695151,301.14792,-109.79802,13.113088,STN
3680619492000,1.920186,-0.664623522681786,10.7476130627673,-5.05289873979907,1.3710871,-1.3093897,-0.28130344,301.6984,-110.099434,12.806502,STN
3680624237000,1.924931,-0.786669925864916,11.5838568909778,-5.71737366240923,1.6102408,-1.1007792,-0.3924809,302.2008,-110.4161,12.482625,STN
3680629233000,1.929927,-0.830317335430653,12.5886733090855,-6.68698660236244,1.7977765,-0.8026769,-0.5149594,302.65753,-110.752464,12.094827,STN
3680634268000,1.934962,-0.839810255737769,13.651879055222,-7.77392430233291,1.9468275,-0.43463063,-0.6392705,303.01886,-111.127884,11.703655,STN
3680639235000,1.939929,-0.552127862603106,14.8866860883768,-8.0527757447996,2.0778582,-0.20280726,-0.6835582,303.39218,-111.58728,11.262226,STN
3680644237000,1.944931,-0.124935106429359,16.2162627965932,-7.96637732149299,2.1768184,-0.14874569,-0.68294734,303.69656,-112.072815,10.826232,STN
3680649241000,1.949935,0.961015846762922,17.3556040306093,-7.42710252786601,2.244319,-0.05222898,-0.6954701,304.0065,-112.66899,10.368011,STN
3680654331000,1.955025,2.37332984862739,18.4253976835114,-6.66698669929733,2.3655756,0.025350908,-0.66767573,304.29507,-113.31046,9.940495,STN
3680659309000,1.960003,3.46866076440876,18.9285045541606,-5.79967773687591,2.4630086,0.122478485,-0.605062,304.46588,-113.88783,9.60029,STN
3680664317000,1.965011,4.39753368672506,19.1058769477372,-4.85213406450608,2.5497515,0.20677789,-0.50579643,304.6177,-114.49313,9.298397,STN
3680669366000,1.97006,5.10842333486257,19.0453017536378,-4.11921144409863,2.6181684,0.19333886,-0.4092797,304.58057,-114.98562,9.229761,STN
3680674324000,1.975018,5.64101038221504,18.8101960590137,-3.56263415982215,2.6358836,0.02107485,-0.34269542,304.57544,-115.48306,9.169999,STN
3680679312000,1.980006,5.96461021070979,18.4159004364288,-3.41452168144669,2.5677722,-0.12889257,-0.3231477,304.445,-115.87491,9.274822,STN
3680684333000,1.985027,6.14154787804784,17.9083685963978,-3.55420928540719,2.4953845,-0.19547687,-0.3323107,304.3528,-116.26645,9.368859,STN
3680690141000,1.990835,6.32480400259445,17.2915390454502,-3.51078970175173,2.4501805,-0.08827003,-0.32498032,304.19724,-116.61919,9.553878,STN
3680694309000,1.995003,6.44575035646246,16.8342094781744,-3.37850438301297,2.4755313,0.0852157,-0.28496864,304.05573,-116.96889,9.733048,STN
3680699299000,1.999993,6.58746458546963,16.3276266835443,-3.06882297165195,2.488665,0.19425514,-0.25717425,303.91653,-117.3435,9.929361,STN
3680704330000,2.005024,6.72584197021594,15.8766198227848,-2.5358142358898,2.4507914,0.20463985,-0.26236662,303.76822,-117.70303,10.1249,STN
3680709311000,2.010005,6.7622226943175,15.4155345366581,-2.2207839496523,2.3420575,0.13530666,-0.25778514,303.60876,-118.066925,10.35622,STN
3680714309000,2.015003,6.70991663326048,14.9400239427777,-2.09239617371349,2.264172,-0.09162979,-0.2452624,303.49686,-118.41886,10.558606,STN
3680719395000,2.020089,6.60385772528395,14.3541549731358,-2.0201888163358,2.068695,-0.3481932,-0.25778514,303.38785,-118.68025,10.766178,STN
3680724897000,2.025591,6.43732617802469,13.6203761920988,-1.99937240009877,1.883603,-0.53969944,-0.29352075,303.32608,-118.91487,10.940654,STN
3680729312000,2.030006,6.23541244626527,12.9671084368077,-1.9585208945754,1.6316211,-0.70280045,-0.31795537,303.30597,-119.10727,11.092761,STN
3680734341000,2.035035,5.94360604243113,12.1646403858752,-1.89012873222569,1.5519031,-0.8344419,-0.37201694,303.32254,-119.283554,11.200587,STN
3680739315000,2.040009,5.67131093520826,11.3518610455678,-1.79812132370951,1.3759739,-0.95630956,-0.44043383,303.39587,-119.387535,11.263796,STN
3680744311000,2.045005,5.42433219010324,10.5044685695977,-1.66611549636881,1.2098186,-0.9999864,-0.47403142,303.48157,-119.46747,11.311889,STN
3680749274000,2.049968,5.1354181108874,9.64122356331096,-1.56034106070097,1.0693196,-1.026559,-0.42394048,303.59827,-119.56458,11.34721,STN
3680754326000,2.05502,4.53238212405454,8.61039307510387,-1.63249919595185,0.9279043,-1.0668762,-0.37384954,303.72467,-119.61164,11.36607,STN
3680759266000,2.05996,3.95826535817393,7.65237667268783,-1.74697500477223,0.76174897,-1.0531317,-0.37323865,303.85138,-119.65605,11.381661,STN
3680764310000,2.065004,3.42005683165056,6.82839356734372,-1.99940915140998,0.6010914,-1.0531317,-0.43799037,303.9875,-119.661156,11.38673,STN
3680769449000,2.070143,2.908180324392,6.07220970534831,-2.13172281603463,0.43493605,-0.9630291,-0.47983465,304.13156,-119.67517,11.359207,STN
3680774364000,2.075058,2.52498470964551,5.59200260667766,-1.89404447782358,0.33261612,-0.7837401,-0.43004912,304.25308,-119.66638,11.352932,STN
3680779288000,2.079982,2.16202929692444,5.15824874421735,-1.71986160742852,0.24251351,-0.68661255,-0.3555236,304.4115,-119.680595,11.28735,STN
3680784342000,2.085036,1.84338142531198,4.83484473928466,-1.70559380339982,0.12492194,-0.6059783,-0.2773328,304.53284,-119.66702,11.25956,STN
3680789305000,2.089999,1.5473995334608,4.57294881655832,-1.68826101801147,0.005497787,-0.5326745,-0.22388211,304.62943,-119.64943,11.2330475,STN
3680794488000,2.095182,1.29114948637667,4.47329612782983,-1.6597887575239,-0.089491755,-0.45937067,-0.19333886,304.71054,-119.61419,11.232913,STN
3680799289000,2.099983,1.05748090924932,4.41438205402695,-1.64359478906899,-0.19456059,-0.43768495,-0.18142697,304.7941,-119.567566,11.207282,STN
3680804325000,2.105019,0.832729142295613,4.53652967027657,-1.682682077287,-0.32559118,-0.3839288,-0.18203785,304.85104,-119.492485,11.201495,STN
3680809310000,2.110004,0.61622485348328,4.66317275183121,-1.70112413369825,-0.3830125,-0.2996294,-0.18295415,304.89658,-119.417854,11.177247,STN
3680814324000,2.115018,0.425069945820064,4.81609675780255,-1.6294410495621,-0.49663344,-0.20799962,-0.19242255,304.92316,-119.29559,11.160393,STN
3680819362000,2.120056,0.250611237542565,4.96585334988649,-1.55305694190314,-0.6243043,-0.105374254,-0.20463985,304.91992,-119.15634,11.123098,STN
3680824329000,2.125023,0.156123153674801,5.0963370318672,-1.45856888152667,-0.7330383,-0.022602014,-0.21074851,304.89636,-118.99504,11.096282,STN
3680829371000,2.130065,0.0677436923031112,5.22606739100524,-1.36418808180511,-0.84849185,0.051923547,-0.19792034,304.8536,-118.769325,11.048782,STN
3680834341000,2.135035,0.0775181498141493,5.31892458681589,-1.29087963771434,-0.9440922,0.129198,-0.16157386,304.78964,-118.52622,11.018789,STN
3680839272000,2.139966,0.0988414234890297,5.40083244544125,-1.22193893973671,-1.0231993,0.20463985,-0.110872045,304.69287,-118.245445,10.990732,STN
3680844315000,2.145009,0.221288207510483,5.39612285880058,-1.18426298425158,-1.103528,0.2660318,-0.06352998,304.5822,-117.94747,10.980502,STN
3680849427000,2.150121,0.351447165242427,5.38758275452499,-1.15261983266435,-1.1630874,0.34330627,-0.01160644,304.44214,-117.63199,10.998033,STN
3680854334000,2.155028,0.540954400787771,5.33910432805027,-1.19228415875457,-1.2134838,0.42760566,0.04153884,304.288,-117.30878,11.037013,STN
3680859291000,2.159985,0.732392625079246,5.29013192942887,-1.23235264549376,-1.2651019,0.49266282,0.09315695,304.1091,-116.98657,11.118791,STN
3680864304000,2.164998,0.947284664400922,5.24804340898618,-1.24819279700461,-1.3112222,0.56779927,0.1459968,303.90924,-116.66558,11.225465,STN
3680869374000,2.170068,1.16637622546083,5.20608974308756,-1.26217735230415,-1.3649784,0.6407976,0.1994475,303.6961,-116.34239,11.352036,STN
3680874344000,2.175038,1.27795227013404,5.13860505507835,-1.33343971460261,-1.3961325,0.729984,0.2574797,303.44476,-116.06224,11.542963,STN
3680879249000,2.179943,1.37106707889371,5.06766020738154,-1.41325245412498,-1.426065,0.840856,0.3210097,303.17172,-115.784,11.757062,STN
3680884348000,2.185042,1.41352076640166,4.90156028874973,-1.4250406902091,-1.4731015,0.9425651,0.39370266,302.8506,-115.543236,12.032554,STN
3680889257000,2.189951,1.43400111226312,4.70699756443041,-1.40968041744718,-1.5140295,1.0137309,0.4633413,302.51172,-115.3121,12.326544,STN
3680894318000,2.195012,1.42000565504933,4.46835973299478,-1.27153921672471,-1.5549575,1.0668762,0.535118,302.16852,-115.097084,12.649283,STN
3680899275000,2.199969,1.40163756778874,4.22957517399884,-1.12000284445734,-1.609019,1.0955868,0.59712076,301.81613,-114.885956,12.9848175,STN
3680904331000,2.205025,1.46091419078199,3.93426295984714,-0.899966360451114,-1.647809,1.1175779,0.625526,301.45496,-114.69206,13.332528,STN
3680909250000,2.209944,1.53555690960015,3.63569199287911,-0.671647571259204,-1.717753,1.1071932,0.6939429,301.1022,-114.50314,13.697917,STN
3680914309000,2.215003,1.67157966647287,3.34857868158915,-0.477225656492248,-1.7693712,1.1194105,0.7452556,300.73135,-114.30395,14.063318,STN
3680920733000,2.221427,1.88164725281469,2.99657365707826,-0.255803081025286,-1.8219056,1.1032226,0.81031275,300.37473,-114.11367,14.437698,STN
3680924320000,2.225014,2.02989200917057,2.74850118338579,-0.161960051693577,-1.8267925,1.105666,0.82894415,299.97928,-113.92824,14.833685,STN
3680929394000,2.230088,2.2572505032752,2.36819234406635,-0.046213896604849,-1.8142698,1.0888673,0.84482664,299.59335,-113.759346,15.232925,STN
3680935223000,2.235917,2.49212965115696,2.04991450554781,0.103993920392529,-1.7965547,1.0580186,0.8503244,299.2279,-113.56604,15.647233,STN
3680939311000,2.240005,2.61218814430815,2.02808570242543,0.238604967193384,-1.7635679,1.028697,0.84849185,298.86084,-113.39853,16.054684,STN
3680944643000,2.245337,2.76900593666667,2.01770548033333,0.360439080733333,-1.709201,0.9954049,0.8332202,298.52432,-113.25117,16.497654,STN
3680949312000,2.250006,2.90901981434343,2.2254680100202,-0.177033552258586,-1.6517797,1.001819,0.81581056,298.18024,-113.1324,16.935812,STN
3680954538000,2.255232,3.07120374156933,2.48335605810967,-0.795192599438252,-1.5711454,1.0925325,0.788627,297.78955,-113.035355,17.39486,STN
3680959317000,2.260011,3.28749275905484,3.03428075477485,-1.56648714920196,-1.4526376,1.2959507,0.7473936,297.3575,-112.971886,17.849049,STN
3680964304000,2.264998,3.51319548560856,3.60918376006242,-2.37135132992421,-1.3231341,1.6615535,0.7113526,296.92496,-113.0008,18.301674,STN
3680969333000,2.270027,3.77421155072677,4.54681760702852,-2.91172799665133,-1.1829406,2.1615467,0.65484756,296.38693,-113.05399,18.754831,STN
3680974289000,2.274983,4.04056112467341,5.56855276772769,-3.37019889390984,-1.07665,2.7162123,0.6087272,295.72144,-113.13175,19.222103,STN
3680979821000,2.280515,4.2762063868616,6.81900772530214,-3.8384475545809,-1.0512991,3.211013,0.5729916,295.0445,-113.29666,19.673641,STN
3680984408000,2.285102,4.44318735917154,7.90652444413255,-4.20666182636452,-1.0638218,3.6795468,0.56230146,294.21094,-113.47377,20.144001,STN
3680989320000,2.290014,4.26186086841395,8.93911245723479,-5.04064007253477,-1.0748174,4.102571,0.57787853,293.2815,-113.6679,20.598387,STN
3680994317000,2.295011,3.79989879956404,9.88787283641271,-6.22783318328835,-1.0100657,4.273308,0.55955255,292.28848,-113.85903,21.03933,STN
3680999318000,2.300012,3.03204714578253,10.4876066431523,-7.26606923650106,-0.8081747,4.44771,0.5045747,291.1937,-114.03817,21.43325,STN
3681004241000,2.304935,2.10080278151769,10.8772087850448,-8.20206499281467,-0.63438356,4.2730026,0.3032946,290.15024,-114.170845,21.754911,STN
3681009268000,2.309962,1.52149844198884,11.2418005490235,-8.38183609326425,-0.22388211,3.7238345,0.047647487,289.34586,-114.29753,21.880674,STN
3681014331000,2.315025,1.15431627280789,11.5896578081905,-8.11128039119171,0.090713486,2.855795,-0.15943582,288.68958,-114.38383,21.93701,STN
3681019308000,2.320002,0.862032804707113,11.7153401569038,-7.71656190585774,0.13255776,1.8194622,-0.30726522,288.4322,-114.37576,21.74659,STN
3681024266000,2.32496,0.609181806066946,11.7198554446558,-7.25149669684291,-0.07941248,0.8555168,-0.3979787,288.40146,-114.34466,21.487732,STN
3681029260000,2.329954,0.357754615780359,11.5759771330481,-6.82185324674002,-0.47586402,0.014966198,-0.48624873,288.59113,-114.203896,21.112564,STN
3681034341000,2.335035,0.104938036812347,11.2934169049511,-6.42032121729829,-0.93034774,-0.68936145,-0.54702985,289.01324,-114.025604,20.689417,STN
3681039332000,2.340026,-0.173405380376963,11.1078217811518,-6.442824486911,-1.3585643,-1.2134838,-0.54153204,289.54898,-113.74574,20.222189,STN
3681044272000,2.344966,-0.470637364784388,10.9907303789624,-6.76707752831985,-1.713477,-1.4278975,-0.46822822,290.189,-113.4302,19.75215,STN
3681049566000,2.35026,-0.618869789766681,10.8321002309966,-7.2731712125739,-1.9507982,-1.4446963,-0.45204028,290.87848,-113.03604,19.26314,STN
3681054266000,2.35496,-0.595109786282728,10.6610285671453,-7.86717167182221,-2.0134118,-1.3854424,-0.47067168,291.59796,-112.64242,18.793705,STN
3681059258000,2.359952,-0.340560612307692,10.3976455459662,-8.30091714446529,-1.8368717,-1.310306,-0.47891834,292.3706,-112.286995,18.31454,STN
3681064240000,2.364934,0.0881705410526316,10.0725635275995,-8.58359706418485,-1.3866642,-1.505172,-0.52748215,293.18555,-111.97093,17.82168,STN
3681069266000,2.36996,0.677301936038186,9.81567859427208,-8.60125213842482,-0.8509353,-1.8759671,-0.66248333,294.10266,-111.75085,17.302975,STN
3681074264000,2.374958,1.39603670178998,9.62052548150358,-8.39181923866348,-0.24190263,-2.31915,-0.81245077,295.07187,-111.62486,16.758055,STN
3681079239000,2.379933,2.25892251356252,9.68110977134492,-7.92493646838874,0.408058,-2.4373524,-0.9437868,296.06317,-111.66043,16.226957,STN
3681084323000,2.385017,3.27518203845863,9.97541085370231,-7.21217565792406,0.915687,-2.085494,-1.0021244,297.0131,-111.791214,15.679734,STN
3681089300000,2.389994,4.31835900584473,10.3993247846864,-6.288772109682,1.0534371,-1.2657127,-0.9960158,297.79678,-112.00081,15.218669,STN
3681094260000,2.394954,5.42381748585894,11.0069053993605,-5.06095362824658,0.9401216,-0.7458665,-0.9801333,298.53647,-112.268456,14.749695,STN
3681099261000,2.399955,6.42359863025751,11.5658030450644,-3.73865379570816,0.80909103,0.39370266,-0.9053023,298.73215,-112.54207,14.54252,STN
3681104243000,2.404937,6.82338977378909,11.8437060916616,-1.98347350827713,0.46670106,1.4660766,-0.818254,298.79175,-112.75086,14.388347,STN
3681109263000,2.409957,7.12041356397971,12.1935472889891,-0.266866645170988,0.22418754,2.1649065,-0.75136423,298.43112,-112.84919,14.479757,STN
3681114240000,2.414934,7.003985710823,12.8115107613679,1.23326138008268,0.19181168,2.4926357,-0.66431594,297.8874,-112.932655,14.659204,STN
3681119270000,2.419964,6.89025056433552,13.4423768011832,2.71209798191422,0.34483343,2.5848763,-0.57635134,297.05118,-112.84997,14.968336,STN
3681124260000,2.424954,6.82462120504965,14.1441059623917,3.7318770177266,0.60231316,2.5072963,-0.4382958,296.1927,-112.81239,15.315775,STN
3681129260000,2.429954,6.50985499387323,14.6058057212658,4.37911706406656,0.8518516,2.3139575,-0.23273966,295.20874,-112.65937,15.696874,STN
3681134252000,2.434946,5.07521848441858,13.9804517306915,3.33992540924305,1.0668762,2.0069978,-0.02321288,294.3023,-112.59248,16.085196,STN
3681139241000,2.439935,3.64795824560024,13.4161571191412,2.33776320937405,1.2061534,1.6982054,0.14508049,293.36774,-112.49717,16.481607,STN
3681144261000,2.444955,2.27173999542385,13.4064652453382,1.66419154079226,1.4059063,1.2076806,0.20708331,292.59344,-112.488785,16.852116,STN
3681149241000,2.449935,0.963990258805678,13.359944802839,0.83170563318649,1.7201965,0.28924468,0.23090707,292.20313,-112.56601,17.033163,STN
3681154266000,2.45496,0.0924445679099363,13.0254593549682,-1.28827029192364,1.7705929,-0.5525276,0.33108896,291.94748,-112.6594,17.217272,STN
3681159272000,2.459966,-0.689900291766869,12.6649635400974,-3.25095608599821,1.42973,-0.9104946,0.47769663,291.88992,-112.71218,17.215733,STN
3681164248000,2.464942,-0.448385461358442,11.9830399006261,-3.43090838141707,0.8304713,-0.7651087,0.5491679,291.93378,-112.72925,17.196548,STN
3681169292000,2.469986,-0.18409663583691,11.4277206695279,-3.59890649012876,0.24831672,-0.5109888,0.39614612,292.29462,-112.77413,16.99213,STN
3681174261000,2.474955,0.338369362640982,12.710136794191,-3.57040826585488,-0.10445796,-0.48808134,0.09010262,292.67053,-112.73342,16.75858,STN
3681179355000,2.480049,0.851866303941816,14.0224349186495,-3.60080530013469,-0.2489276,-0.6728681,-0.22510384,293.04602,-112.64131,16.520874,STN
3681184295000,2.484989,1.0897515448505,15.2670847076412,-4.3314529461794,-0.18753563,-1.0128145,-0.48624873,293.43564,-112.47374,16.207518,STN
3681189205000,2.489899,1.32619213854718,16.5041758946754,-5.0576634607704,-0.028099801,-1.2406673,-0.6704246,293.78583,-112.22691,15.852646,STN
3681194258000,2.494952,1.95107956174549,17.3783683063462,-4.35348348172555,0.08368854,-1.8203784,-0.7290677,294.31866,-111.968155,15.417922,STN
3681199504000,2.500198,2.66012647961327,18.0694208449156,-3.3229094415587,0.24404067,-2.46759,-0.6169739,294.9292,-111.76239,14.968208,STN
3681204263000,2.504957,3.00011251325088,17.1836676183746,-2.70556633745583,0.21655174,-2.7763824,-0.49235737,295.65274,-111.57184,14.481795,STN
3681209533000,2.510227,3.38083186400567,16.1835709037317,-2.01644570036467,0.042455133,-2.4107797,-0.28252518,296.24768,-111.3728,14.140863,STN
3681214242000,2.514936,3.81114037298063,14.8798643455834,-1.28364312308739,-0.06505715,-1.6917913,-0.1853976,296.8209,-111.19756,13.818007,STN
3681219262000,2.519956,4.26986806783184,13.4900561226264,-0.50244351851488,0.032986723,-1.0586295,-0.093767814,297.27628,-111.083626,13.6584635,STN
3681224262000,2.524956,4.35267342415773,12.1019492905819,-0.0668323246248086,0.20311269,-0.56199604,0.0021380284,297.56827,-110.98986,13.577356,STN
3681229226000,2.52992,4.37997385627871,10.7232738338438,0.315374656294028,0.43463063,-0.17806722,0.11911872,297.7179,-110.95766,13.570383,STN
3681234300000,2.534994,4.24185120588357,9.54013060941371,0.355417359223782,0.62888575,0.12705997,0.22418754,297.679,-110.979004,13.706911,STN
3681239214000,2.539908,4.06211998203964,8.45688577126342,0.297126160264244,0.7874053,0.47891834,0.3036,297.524,-111.05887,13.898544,STN
3681244284000,2.544978,4.11814626924191,8.05858473655239,0.244148918634476,0.86437434,0.8542951,0.3359759,297.2598,-111.18967,14.164393,STN
3681249227000,2.549921,4.21871996986963,7.80715096233704,0.19386213037663,0.8542951,1.25319,0.3659083,296.89487,-111.34462,14.4747505,STN
3681254263000,2.554957,4.37278351728063,8.06178870405629,0.637862528532699,0.71837753,1.616044,0.42638394,296.45694,-111.52791,14.821229,STN
3681259201000,2.559895,4.53916054664735,8.46305127897351,1.22018275469785,0.44959682,1.8558086,0.47433686,295.94385,-111.67821,15.187011,STN
3681264238000,2.564932,4.35088308085316,8.80153915661104,1.87460866861854,0.07941248,1.933083,0.49021935,295.37238,-111.800476,15.579985,STN
3681269300000,2.569994,4.08759894867187,9.1270536983312,2.5447865277871,-0.34483343,1.8420641,0.4578435,294.7821,-111.85684,15.9697075,STN
3681274259000,2.574953,3.69000453352601,9.35222185549133,2.86479379306358,-0.7635816,1.6145169,0.38698313,294.13495,-111.79856,16.363956,STN
3681279215000,2.579909,3.26220365260116,9.55682254913295,3.11124430635838,-1.1172725,1.3274102,0.27580565,293.5244,-111.66794,16.715284,STN
3681284293000,2.584987,2.9419951,9.9732866,3.01669408,-1.3765849,1.0592403,0.17104226,292.90753,-111.40674,17.005817,STN
3681289233000,2.589927,2.66527500559261,10.4393417626475,2.8225045302822,-1.5613716,0.9462303,0.1554652,292.32202,-111.11987,17.270842,STN
3681294251000,2.594945,2.4374887657383,10.8634805542852,2.2751489900127,-1.6258179,0.7684685,0.17623462,291.80292,-110.78023,17.44952,STN
3681299273000,2.599967,2.22129046336363,11.2770773194567,1.65005388236099,-1.7024814,0.677755,0.27550024,291.28864,-110.46179,17.637774,STN
3681304556000,2.60525,1.46964071316763,11.5133860750733,0.93431872384561,-1.7864754,0.6114761,0.4071417,290.842,-110.15752,17.78151,STN
3681309270000,2.609964,0.675941403837527,11.6775996963726,0.282025677851874,-1.9459113,0.410196,0.5161811,290.45972,-109.89084,17.93122,STN
3681314240000,2.614934,-0.295667027089863,11.3277856298354,-0.207057353481452,-2.1578815,-0.09101892,0.54153204,290.26385,-109.6493,18.024054,STN
3681319290000,2.619984,-1.31741783913112,10.8384961287443,-0.653173912695894,-2.2956316,-0.9428705,0.43860126,290.2282,-109.425385,18.08836,STN
3681324258000,2.624952,-1.7953481564557,10.3252279122363,-1.12930351434599,-2.2739458,-1.892766,0.25228736,290.48654,-109.15181,18.014002,STN
3681329262000,2.629956,-2.13235481772152,9.7994977721519,-1.61908649493671,-2.0790799,-2.6771169,0.10354166,290.94318,-108.88374,17.902338,STN
3681334292000,2.634986,-2.07196900215099,9.36377846910586,-2.09180425227752,-1.8063285,-3.1483996,0.008246681,291.6703,-108.53495,17.638762,STN
3681339283000,2.639977,-1.79981762387178,8.98075079439055,-2.55042968409954,-1.563815,-3.325245,-0.026267206,292.5327,-108.18376,17.34055,STN
3681344258000,2.644952,-1.39294983328649,8.6648030455312,-2.86460107113547,-1.402852,-3.2711835,-0.013744468,293.53455,-107.838646,16.994993,STN
3681349251000,2.649945,-0.940493706483043,8.36913829848229,-3.13338683485104,-1.348485,-3.0356948,0.012217305,294.52417,-107.50112,16.644945,STN
3681354259000,2.654953,-0.489157831523709,7.9657716176607,-3.19961410743941,-1.3799446,-2.720183,0.049785517,295.50284,-107.23441,16.339436,STN
3681359255000,2.659949,-0.0404466137197049,7.49689380632244,-3.13911375827186,-1.4700472,-2.3958135,0.0729984,296.39914,-106.97242,16.044136,STN
3681364238000,2.664932,0.280859213508583,7.04906800934772,-2.96429082219716,-1.5674802,-2.115121,0.064446285,297.20187,-106.79416,15.823421,STN
3681369291000,2.669985,0.556162087586072,6.60288741545856,-2.74120055003433,-1.6688838,-1.8976529,0.028405234,297.9185,-106.608574,15.609151,STN
3681374214000,2.674908,0.841843731559161,6.2609690956668,-2.77679455789474,-1.7525724,-1.7672331,-0.009162978,298.54434,-106.491066,15.474904,STN
3681379289000,2.679983,1.14476665572814,5.95323797551444,-2.93546843947368,-1.8274034,-1.6939293,-0.023518313,299.11557,-106.36339,15.341525,STN
3681384317000,2.685011,1.40024704794507,5.76587631021537,-3.29848802897649,-1.8228219,-1.6933185,-0.02076942,299.6236,-106.268814,15.254043,STN
3681389303000,2.689997,1.63140174178028,5.63850524086149,-3.76079746590595,-1.713477,-1.7556267,-0.016187929,300.12238,-106.1762,15.162949,STN
3681394256000,2.69495,1.79134615080685,5.61954278538875,-4.06289452725672,-1.6358972,-1.8823812,-0.014660766,300.69226,-106.13522,15.120827,STN
3681399284000,2.699978,1.91378692498778,5.66192629294866,-4.27952053504156,-1.4398094,-2.0299053,-0.01985312,301.2797,-106.11502,15.071678,STN
3681404277000,2.704971,2.02481438062352,5.79378865301894,-4.313850898382,-1.2226468,-2.1878138,-0.03390302,302.00348,-106.10718,15.009925,STN
3681409347000,2.710041,2.13020085319653,5.99019047908445,-4.22283549486977,-1.0409144,-2.3139575,-0.04428773,302.75375,-106.114975,14.939754,STN
3681414438000,2.715132,2.1602895162983,6.22179803444904,-4.20553347805692,-0.90316427,-2.322204,-0.018325957,303.54828,-106.15605,14.871873,STN
3681419487000,2.720181,2.1372238795357,6.47552040011131,-4.24013185291779,-0.7816021,-2.212554,0.019547688,304.3365,-106.21627,14.797943,STN
3681424386000,2.72508,2.09800668679604,6.72257470042013,-4.27843787795339,-0.65057147,-2.053729,0.053450707,305.12598,-106.2999,14.742564,STN
3681429340000,2.730034,1.8417348346604,6.98359222389717,-4.37809900787236,-0.47250426,-1.8802432,0.089186326,305.87103,-106.414246,14.695819,STN
3681434462000,2.735156,1.56393415521739,7.24048247826087,-4.51525614782609,-0.2947425,-1.7400496,0.09468412,306.57617,-106.53308,14.632964,STN
3681439309000,2.740003,1.17047620897587,7.35157636594535,-4.99203472492022,-0.11453723,-1.6502525,0.08674286,307.23666,-106.681335,14.573166,STN
3681444482000,2.745176,0.749172231105169,7.44206647217271,-5.43401952184591,0.027488936,-1.602605,0.07849618,307.85873,-106.837715,14.472272,STN
3681449284000,2.749978,0.343852701729055,7.23712959033472,-5.15621621321054,0.13347405,-1.5519031,0.057726767,308.44443,-107.0111,14.36058,STN
3681454562000,2.755256,-0.068186306239883,7.00870018576304,-4.82903132203803,0.226631,-1.4813483,0.033292156,309.07416,-107.199135,14.171903,STN
3681459321000,2.760015,-0.0815191234242808,6.7687094541687,-4.30016274710873,0.29565877,-1.351234,0.0009162979,309.66125,-107.40143,13.972408,STN
3681464682000,2.765376,-0.0960130067455357,6.50512517480469,-3.70972552145647,0.35827246,-1.1924089,-0.040011674,310.16827,-107.58508,13.723964,STN
3681469314000,2.770008,-0.10013873328125,6.38547934824219,-3.28477609667969,0.38881573,-1.0366384,-0.06261369,310.63492,-107.78109,13.47296,STN
3681474310000,2.775004,-0.104588674941964,6.25643130214844,-2.82643254612165,0.4352415,-0.9095783,-0.07269296,310.99945,-107.95246,13.241538,STN
3681479353000,2.780047,-0.0307641220756246,6.26975770453747,-2.65226652024983,0.5015204,-0.81336707,-0.061086524,311.32858,-108.139725,13.014777,STN
3681484263000,2.784957,0.0565490685320729,6.31103296807563,-2.53955312717083,0.5928447,-0.782213,-0.055283304,311.6398,-108.34383,12.785321,STN
3681494261000,2.794955,0.234340775191087,6.39507982853477,-2.31004019356516,0.7834347,-0.6188065,-0.007941248,312.33148,-108.655525,12.458792,STN
3681499317000,2.800011,0.324250243971641,6.43758242170155,-2.19397524134369,0.8881981,-0.505491,0.017715093,312.61853,-108.79622,12.328979,STN
3681504292000,2.804986,0.412719311848076,6.47940409911546,-2.07976971576975,1.0054842,-0.35521814,0.043066,312.87094,-108.969635,12.213035,STN
3681509340000,2.810034,0.371278392900019,6.87178157130568,-2.05606493194418,1.1026118,-0.21135938,0.043676864,313.1081,-109.15548,12.106951,STN
3681514265000,2.814959,0.317178863746894,7.29105291282738,-2.04254005907092,1.1304061,-0.08124508,0.046731193,313.3073,-109.35388,12.01566,STN
3681519372000,2.820066,0.106375211037241,7.79977151006897,-1.99620544325517,1.1227703,0.008552114,0.056505036,313.48508,-109.565384,11.964681,STN
3681524261000,2.824955,-0.130420691944828,8.30350125195402,-1.94454091889655,1.0998629,0.0067195175,0.052534413,313.64966,-109.77247,11.910868,STN
3681529320000,2.830014,-0.402586257265715,8.85926744793078,-1.96651986096112,1.0809261,-0.10873401,0.057726767,313.8286,-109.94799,11.844579,STN
3681534385000,2.835079,-0.69080389687272,9.43570277994371,-2.03225366644428,1.0864239,-0.2947425,0.040317107,314.02466,-110.11538,11.763114,STN
3681539356000,2.84005,-1.03505898963145,9.99871945092906,-2.22871295138076,1.0858129,-0.47494772,0.014966198,314.24326,-110.237946,11.623901,STN
3681544322000,2.845016,-1.4012310092393,10.56018307838,-2.47282766510625,1.0961977,-0.5839872,-0.012217305,314.49155,-110.36021,11.469422,STN
3681549345000,2.850039,-1.71879940756014,11.1565050856652,-2.69308552120766,1.1304061,-0.6392705,-0.058948494,314.7795,-110.46067,11.240296,STN
3681554350000,2.855044,-2.01999170790378,11.7588893915071,-2.90486129749632,1.2076806,-0.68019843,-0.14905111,315.0863,-110.56483,10.984808,STN
3681559350000,2.860044,-2.23757045240958,12.5551897275057,-3.32388246216616,1.3460416,-0.659429,-0.27122417,315.4285,-110.67447,10.638846,STN
3681564368000,2.865062,-2.42701130188233,13.4218817053316,-3.81642875981078,1.4859297,-0.48441613,-0.40500367,315.72794,-110.7952,10.278857,STN
3681570246000,2.87094,-2.50607684547912,14.4237783860018,-4.64868677116251,1.6618589,-0.19303341,-0.50732356,316.01126,-110.944405,9.847559,STN
3681574323000,2.875017,-2.52953406725743,15.1157682042655,-5.28203335127666,1.8371773,0.19822577,-0.58032197,316.20758,-111.12582,9.421433,STN
3681579319000,2.880013,-2.53466565752063,15.8043411310953,-6.01675645592648,2.0454822,0.40133846,-0.62796944,316.43066,-111.37607,8.944822,STN
3681584368000,2.885062,-2.53013145287885,16.4346030096587,-6.74223724746812,2.208278,0.7779369,-0.6740898,316.49115,-111.66246,8.51583,STN
3681589329000,2.890023,-2.2557158541478,16.8446885839676,-7.21264396922632,2.2742512,1.1713341,-0.7171558,316.57367,-112.017876,8.080928,STN
3681595151000,2.895845,-1.7077700699104,17.1508935859909,-7.56182519258117,2.3893993,1.5314392,-0.79045963,316.5537,-112.42747,7.6787014,STN
3681599318000,2.900012,-1.15805051431868,17.3761955632783,-7.46474945994678,2.5103507,1.9248364,-0.8503244,316.46234,-112.91735,7.3117476,STN
3681604348000,2.905042,-0.368440500760404,17.6530714983502,-7.06994435840341,2.6719246,2.3463335,-0.8536842,316.26385,-113.445404,7.0038486,STN
3681609349000,2.910043,0.415975997387767,17.8551267076429,-6.26220732438486,2.8689287,2.636189,-0.8176431,315.97452,-114.026146,6.7975254,STN
3681614335000,2.915029,1.19766154500693,18.013381756754,-5.21196724086572,2.987131,2.6746736,-0.782213,315.64407,-114.616325,6.625822,STN
3681619380000,2.920074,2.03722340856803,18.0134034422848,-4.05398661892106,3.005457,2.499355,-0.72173727,315.20773,-115.18935,6.611988,STN
3681624358000,2.925052,2.89292304720349,17.9235787792543,-2.85789816257437,2.9562824,2.1218405,-0.65209866,314.83093,-115.76086,6.5965257,STN
3681629344000,2.930038,3.64528383737024,17.5645928892734,-2.10454475432526,2.8344147,1.6242907,-0.56779927,314.4185,-116.21263,6.714638,STN
3681634405000,2.935099,4.34407591551326,17.0335113768743,-1.61539020233564,2.6978865,1.1606439,-0.50976706,314.1137,-116.63579,6.7979326,STN
3681639351000,2.940045,4.958731253149,16.4721407217614,-1.32409816497696,2.5668557,0.85062987,-0.4560109,313.73825,-116.94513,7.0092077,STN
3681644355000,2.945049,5.52310097480799,15.8685102259089,-1.18668648018433,2.4565945,0.6966918,-0.3921755,313.4624,-117.22041,7.1907825,STN
3681649342000,2.950036,6.01414835481444,15.3472365185557,-1.12444391414243,2.3353379,0.59589905,-0.33200526,313.21518,-117.434425,7.4616227,STN
3681654442000,2.955136,6.46484425551655,14.872046448345,-1.11464618495486,2.2088888,0.52320606,-0.2837469,313.0146,-117.61621,7.71772,STN
3681659292000,2.959986,6.88079188437654,14.5372530192213,-1.09171352035485,2.0888536,0.45173484,-0.24678956,312.79675,-117.80107,8.049936,STN
3681664391000,2.965085,7.30918614108428,14.2677011317891,-1.05801960981764,1.9779817,0.35308012,-0.24587326,312.61203,-117.95061,8.359152,STN
3681669322000,2.970016,7.65779940888132,14.0259590597434,-1.10279584352446,1.8726074,0.17837265,-0.23579398,312.43042,-118.10974,8.716134,STN
3681674290000,2.974984,7.95825907888933,13.7970376435445,-1.20771830038091,1.743104,-0.047647487,-0.2666427,312.28772,-118.2249,9.029804,STN
3681679272000,2.979966,8.12871553057325,13.5262332501715,-1.38166060387065,1.591304,-0.1704314,-0.29657507,312.1193,-118.33554,9.388458,STN
3681684316000,2.98501,8.19498469490446,13.2185551813817,-1.61360230832925,1.4972308,-0.41996986,-0.35613444,312.03943,-118.418915,9.672417,STN
3681689259000,2.989953,8.09967504740474,12.8821383257326,-1.78722617629763,1.3393221,-0.6957755,-0.42455134,311.93463,-118.49668,9.959595,STN
3681694286000,2.99498,7.84930842694269,12.5065888977898,-1.91240948652865,1.1603385,-0.9285152,-0.4804455,311.88434,-118.53747,10.196134,STN
3681699737000,3.000431,7.39725106397892,11.890428602406,-1.91233633551402,0.9963212,-1.0711522,-0.5119051,311.85535,-118.59487,10.39901,STN
3681704289000,3.004983,6.89881543661762,11.2359602540266,-1.82131760654206,0.8585711,-1.1468995,-0.5360342,311.86975,-118.60617,10.559873,STN
3681709283000,3.009977,6.31341243696858,10.401621132795,-1.72722396594027,0.73975784,-1.1551461,-0.54733527,311.929,-118.60016,10.669336,STN
3681714263000,3.014957,5.69167922809612,9.45510234302948,-1.63906779179881,0.62888575,-1.1154399,-0.52839845,312.00027,-118.56115,10.772482,STN
3681719287000,3.019981,5.08409183793556,8.45800445334815,-1.60923238958691,0.5216789,-1.0601566,-0.47036624,312.07672,-118.53292,10.828835,STN
3681724289000,3.024983,4.50350589376831,7.41294954166246,-1.65277636318554,0.43585235,-0.9602802,-0.40744713,312.1352,-118.484055,10.901126,STN
3681729257000,3.029951,3.99556031164545,6.48263439228208,-1.71705580382958,0.3631594,-0.8765916,-0.3475823,312.2153,-118.451096,10.927325,STN
3681734329000,3.035023,3.55787487838394,5.65959563686582,-1.80744733856024,0.29901853,-0.7672467,-0.28985557,312.26938,-118.404526,10.98612,STN
3681739223000,3.039917,3.11737914467726,5.00008622443893,-1.89517776275074,0.22815818,-0.59559363,-0.20189096,312.3187,-118.401505,11.028128,STN
3681744285000,3.044979,2.63597103113208,4.50904995566038,-1.98664528773585,0.19181168,-0.39706242,-0.122783914,312.3374,-118.395645,11.101441,STN
3681749222000,3.049916,2.18275502213331,4.18613763786474,-2.03427465734361,0.16523905,-0.24953845,-0.04428773,312.35852,-118.431915,11.165635,STN
3681754291000,3.054985,1.74217042363619,4.09138814907778,-2.02006226370645,0.14446963,-0.13133603,0.03848451,312.34558,-118.469124,11.273425,STN
3681759201000,3.059895,1.28835984518555,4.12028138412389,-1.98379161614883,0.10476339,-0.026267206,0.07788532,312.32782,-118.52504,11.345858,STN
3681764263000,3.064957,0.768971764866076,4.37997544400506,-1.90352255474822,0.055283304,0.07574729,0.07941248,312.28574,-118.5771,11.443922,STN
3681769448000,3.070142,0.259391535015725,4.72807852549319,-1.82344024954732,-0.01740966,0.19792034,0.069027774,312.21753,-118.620155,11.50245,STN
3681774286000,3.07498,-0.173334474041742,5.20937584141809,-1.75279111029258,-0.098043874,0.25809056,0.043066,312.13818,-118.644485,11.561095,STN
3681779253000,3.079947,-0.562235474614761,5.68923686050284,-1.65465163454988,-0.18570304,0.32834008,0.02107485,312.0401,-118.61958,11.564985,STN
3681784320000,3.085014,-0.739336473702352,6.1221504709043,-1.45295328874696,-0.24831672,0.30451632,-0.03604105,311.94376,-118.57286,11.549088,STN
3681789262000,3.089956,-0.830773752785036,6.50681466003563,-1.29364241178741,-0.40011674,0.26939157,-0.0852157,311.8509,-118.42517,11.466259,STN
3681794284000,3.094978,-0.654654906692399,6.77337281739905,-1.255562639519,-0.5412266,0.25625798,-0.09743301,311.7555,-118.26256,11.378586,STN
3681799260000,3.099954,-0.454922557018973,6.98550649140757,-1.22081315954107,-0.6747007,0.2770274,-0.07880162,311.6458,-118.01399,11.263226,STN
3681804293000,3.104987,-0.158071050532234,7.00465808880501,-1.1968735378067,-0.77640975,0.30390546,-0.061086524,311.53516,-117.737564,11.144655,STN
3681809276000,3.10997,0.158956705680677,6.99235162250221,-1.1788937619746,-0.8677341,0.33444872,-0.038179077,311.39795,-117.42273,11.059942,STN
3681814250000,3.114944,0.566895311118614,6.85637228418151,-1.18358270805197,-0.9401216,0.35155296,-0.018020526,311.25754,-117.091705,10.981955,STN
3681819321000,3.120015,1.04945404261565,6.6611729117794,-1.22754785082426,-1.0012082,0.38789943,0.0036651916,311.08026,-116.75701,10.963184,STN
3681824277000,3.124971,1.82714166985513,6.21068315759816,-1.45042168125687,-1.0454959,0.45845437,0.019547688,310.88928,-116.41469,10.95511,STN
3681829273000,3.129967,2.51449371495246,5.78843162986129,-1.63554610246009,-1.0870347,0.5323691,0.027488936,310.65094,-116.10086,11.023588,STN
3681834314000,3.135008,2.72085830567914,5.52310576519236,-1.62291154375818,-1.1160508,0.61117065,0.05131268,310.39426,-115.78919,11.109089,STN
3681839268000,3.139962,2.92366135714909,5.2623590217744,-1.61049503834075,-1.1563679,0.6939429,0.08246681,310.05554,-115.592285,11.333165,STN
3681844282000,3.144976,3.06378329993197,4.93410899282232,-1.63743522481007,-1.2153164,0.7855727,0.109650314,309.69604,-115.389595,11.567461,STN
3681849253000,3.149947,3.18393387346444,4.60955573634955,-1.6693203857392,-1.2751812,0.8900307,0.14446963,309.31564,-115.18592,11.817359,STN
3681854290000,3.154984,3.22599399463282,4.36654122578958,-1.69736049905057,-1.3390167,1.0125091,0.1685988,308.9385,-114.956856,12.105733,STN
3681859421000,3.160115,3.27032070725982,4.12934542709607,-1.73272847632669,-1.4049901,1.1273518,0.19639318,308.5545,-114.720955,12.41301,STN
3681864265000,3.164959,3.32980691937266,4.02867666225094,-1.84712494987177,-1.4440855,1.2370021,0.23793201,308.14236,-114.49185,12.737524,STN
3681869552000,3.170246,3.39472082250639,3.92858213346449,-1.97683908207751,-1.4651603,1.3469579,0.27488935,307.71844,-114.27651,13.084349,STN
3681874285000,3.174979,3.45268373094629,3.95533424505213,-2.15072799362581,-1.4575244,1.4022411,0.32650748,307.28525,-114.07966,13.4461565,STN
3681879590000,3.180284,3.51491403975422,3.98101308319516,-2.33877535542768,-1.4480561,1.5546521,0.3827071,306.8172,-113.91576,13.840305,STN
3681884350000,3.185044,3.51936011095289,3.92321415761241,-2.37878994979031,-1.3854424,1.5995506,0.41691554,306.367,-113.783806,14.231118,STN
3681889262000,3.189956,3.52394815753438,3.86356955205306,-2.42008232111577,-1.366811,1.6814066,0.46273044,305.88965,-113.69036,14.652566,STN
3681894283000,3.194977,3.58241548288109,3.8818188113328,-2.35136205031923,-1.3286319,1.7424932,0.4978552,305.40894,-113.632164,15.075889,STN
3681899270000,3.199964,3.6443542815842,3.90564138794892,-2.27512970564645,-1.3148874,1.7809776,0.51923543,304.91577,-113.59085,15.506218,STN
3681904289000,3.204983,3.70669042889066,4.04992690263368,-2.20286426703911,-1.3264939,1.8267925,0.5216789,304.41904,-113.57026,15.939986,STN
3681909204000,3.209898,3.76773488579409,4.20019027922985,-2.13242840425978,-1.3548992,1.8808541,0.52015173,303.91196,-113.56423,16.375298,STN
3681914260000,3.214954,3.79460074328791,4.45705811568571,-2.07483786088721,-1.4175128,1.949271,0.5027421,303.37558,-113.553474,16.816282,STN
3681919265000,3.219959,3.81776305323282,4.72110753967334,-2.01924845245965,-1.5140295,2.0384574,0.48533243,302.81876,-113.54278,17.254858,STN
3681924286000,3.22498,3.87989205331427,5.35972223603309,-1.96497178668165,-1.6099354,2.1233675,0.47158796,302.22906,-113.51506,17.689833,STN
3681929200000,3.229894,3.94718298711061,6.04705136094372,-1.91210033869881,-1.7272215,2.1991148,0.44868052,301.61505,-113.47427,18.113922,STN
3681934313000,3.235007,3.97265317136537,6.91795343237482,-2.00601852636236,-1.7953329,2.2360723,0.441961,300.96722,-113.42083,18.522545,STN
3681939248000,3.239942,3.99166041367384,7.77803194071989,-2.11531026887191,-1.8316795,2.2403483,0.4541783,300.30762,-113.36777,18.92163,STN
3681944285000,3.244979,3.77604123814641,8.42718834024753,-2.44809945704692,-1.8286251,2.1887302,0.46883908,299.60675,-113.28312,19.27459,STN
3681949259000,3.249953,3.53839160214909,9.0441631475391,-2.80000368168474,-1.7968601,2.0048597,0.5002986,298.94803,-113.21988,19.614414,STN
3681954697000,3.255391,2.92049006512567,9.12030999444837,-3.2629235528818,-1.6743816,1.720502,0.4886922,298.30988,-113.11681,19.857727,STN
3681959229000,3.259923,2.34658543494499,9.08526258877561,-3.66159010255375,-1.5100589,1.3585643,0.47067168,297.756,-113.04269,20.082859,STN
3681964257000,3.264951,1.77058109052259,8.88512230823738,-4.17372340088574,-1.3158038,0.9816604,0.42241332,297.31314,-112.93595,20.170536,STN
3681969315000,3.270009,1.20328465119575,8.65152967139061,-4.70288234100974,-1.1246029,0.8145888,0.3631594,296.92072,-112.850624,20.241482,STN
3681974286000,3.27498,0.843762032006421,8.53149801514848,-5.266290716874,-0.9596693,0.54641896,0.34116822,296.74905,-112.740036,20.172464,STN
3681979235000,3.279929,0.529946736388443,8.43640279148274,-5.83686389587681,-0.89919364,0.41691554,0.3042109,296.58896,-112.6288,20.089994,STN
3681984314000,3.285008,0.383055147010125,8.46895511137582,-6.15096226384753,-0.7974846,0.35338554,0.31429017,296.61218,-112.5429,19.934092,STN
3681989261000,3.289955,0.279592550896367,8.53009186003574,-6.39551024061942,-0.7501425,0.30848694,0.35277468,296.6723,-112.46316,19.779963,STN
3681994282000,3.294976,0.200972878863008,8.48829936111356,-6.28932968973659,-0.7287622,0.2510656,0.36071593,296.86127,-112.407,19.572289,STN
3681999260000,3.299954,0.129574164699674,8.42110052735442,-6.09613307557044,-0.77213365,0.16523905,0.312763,297.07202,-112.3511,19.36411,STN
3682004350000,3.305044,0.0331113642881393,8.37789094004353,-6.00750572985854,-0.86315256,0.03848451,0.24984388,297.35577,-112.29578,19.130865,STN
3682009351000,3.310045,-0.0815414550528835,8.35704509597388,-6.01271721808487,-0.9773844,-0.039095376,0.19272798,297.64484,-112.22724,18.891382,STN
3682014351000,3.315045,-0.158187289335164,8.49741325985487,-6.06415649058639,-1.0784826,-0.039095376,0.14844026,297.762205629066,-112.162294549094,18.7647830609549,STN
3682019342000,3.320036,-0.219118061398313,8.70364022484801,-6.13446141581683,-1.1368202,0.09773844,0.108123146,297.87936,-112.097466,18.638412,STN
3682024950000,3.325644,-0.243156008789677,8.96661845594779,-6.05328345060813,-1.106277,0.22327125,0.058643065,298.136,-111.98236,18.382952,STN
3682029351000,3.330045,-0.247323659614358,9.18333669919905,-5.93658884455651,-1.0323622,0.3115413,-0.013133603,298.35858,-111.82634,18.101652,STN
3682034454000,3.335148,-0.198129059718778,9.57237700835904,-6.1313585726739,-0.91446525,0.3005457,-0.11362094,298.5925,-111.652275,17.792074,STN
3682039365000,3.340059,-0.123245274529605,10.0169991753408,-6.487056550612,-0.7199047,0.25289822,-0.20280726,298.805,-111.49935,17.479612,STN
3682044355000,3.345049,-0.10780467629726,10.5472617699586,-6.76201260609107,-0.44684792,0.20341812,-0.31215215,298.98825,-111.34143,17.14109,STN
3682049343000,3.350037,-0.126637368310664,11.1216590248374,-6.98800484535778,-0.13622294,0.0983493,-0.44898596,299.19238,-111.20922,16.77496,STN
3682054357000,3.355051,-0.435969065171928,11.4393772270259,-6.8926065712045,0.20922135,-0.101098195,-0.6224717,299.47412,-111.11828,16.35194,STN
3682059359000,3.360053,-0.932050738427509,11.5886833563242,-6.58917803939272,0.53878313,-0.46609017,-0.89644474,299.8119,-111.04632,15.856797,STN
3682064373000,3.365067,-1.19423795829459,12.0230048478583,-6.31756803461272,0.81122905,-0.752586,-1.181108,300.18564,-110.99814,15.287653,STN
3682069352000,3.370046,-1.312159926422,12.6267651158374,-6.0675735232565,0.9294315,-0.7153232,-1.2696834,300.55487,-110.996284,14.710471,STN
3682074351000,3.375045,-0.826871057680728,13.2291600360555,-5.69082016112313,0.89980453,-0.079107046,-1.2055426,300.79718,-110.96136,14.091481,STN
3682079350000,3.380044,0.0664057361691004,13.8289931732468,-5.22907806794664,0.6973027,1.2779301,-0.9388999,300.8278,-110.968124,13.584714,STN
3682084432000,3.385126,1.00957635112631,14.1016009651635,-4.06464528642872,0.4428773,2.6893342,-0.72204274,300.6164,-110.92908,13.14092,STN
3682089323000,3.390017,1.9706055177399,13.8513331258816,-1.88731356897841,0.2846632,3.7287214,-0.62796944,300.14224,-110.90703,12.833207,STN
3682094807000,3.395501,2.69824182807946,13.6578887612298,0.363604094440008,0.28313604,4.3133197,-0.6273586,299.31982,-110.835526,12.756117,STN
3682099352000,3.400046,3.0588633513875,13.5579577400679,2.09719444336195,0.47952923,4.491081,-0.6795876,298.3381,-110.77991,12.746105,STN
3682104356000,3.40505,3.55288488173673,13.8475517607561,3.68644911602836,0.7910705,4.295604,-0.72784597,297.05463,-110.59121,12.915558,STN
3682109353000,3.410047,4.14182971757409,14.5307273137738,4.95856984926652,1.1340714,3.8362339,-0.7247916,295.8145,-110.45353,13.069232,STN
3682114343000,3.415037,5.03846985157559,14.8538141216594,5.40692659513363,1.421178,3.1074715,-0.65301496,294.51193,-110.22494,13.289384,STN
3682119354000,3.420048,6.2874954313223,14.772460326785,4.9283730969286,1.5787812,1.2064588,-0.5299256,293.6968,-110.05951,13.39427,STN
3682124407000,3.425101,6.49194197977618,14.5899703844924,3.731310931255,1.8170186,-0.99112886,-0.5348125,293.05325,-109.85959,13.496299,STN
3682129351000,3.430045,5.53628229152678,14.3013796986411,1.77741254036771,1.842675,-2.0076087,-0.57604593,292.64038,-109.67888,13.564595,STN
3682134391000,3.435085,4.69947950520761,13.9844450771279,0.609032575076437,1.5060883,-2.0173824,-0.3894266,292.6032,-109.63624,13.720887,STN
3682139349000,3.440043,4.0297982544531,13.6472634239077,0.379561366698885,1.0916162,-1.6358972,-0.14294247,292.75284,-109.59669,13.832719,STN
3682144302000,3.444996,3.40991421309434,13.1337380411321,0.385757384430189,0.77763146,-1.2263119,0.026572637,293.13168,-109.623055,13.806875,STN
3682149349000,3.450043,2.84449589868868,12.3722471572642,0.709504950860377,0.6188065,-0.84849185,0.094989546,293.41522,-109.62926,13.843525,STN
3682154284000,3.454978,2.40525752667223,11.5580217454868,0.907767950728373,0.49754974,-0.48655418,0.042760566,293.6284,-109.58577,13.845937,STN
3682159355000,3.460049,2.2177518644892,10.5596803282897,0.836819840024001,0.37415496,-0.18600847,-0.13072516,293.74316,-109.50162,13.854085,STN
3682164610000,3.465304,2.30089774380142,10.0886853590127,0.752437434191286,0.2501493,0.08735373,-0.39003745,293.71698,-109.33897,13.799645,STN
3682169367000,3.470061,2.70978506505236,10.3399809109948,0.662993323494764,0.15149458,0.20922135,-0.5170974,293.64532,-109.15135,13.745,STN
3682174327000,3.475021,3.40811106018774,11.2677563191607,0.322306367045831,0.11575896,0.4251622,-0.70066243,293.47278,-108.91451,13.627405,STN
3682179339000,3.480033,4.90559375413216,14.1434533579974,-0.742275661785386,0.036651913,0.6227771,-0.7449502,293.27277,-108.65674,13.523167,STN
3682184314000,3.485008,6.17241670458265,16.8061843338789,-1.72576878003273,-0.10140363,0.691194,-0.65087694,293.03983,-108.38646,13.441283,STN
3682189329000,3.490023,4.91059877095357,17.2736770266173,-1.87056754159704,-0.38026363,0.21838433,-0.44898596,292.91214,-108.096725,13.361484,STN
3682194261000,3.494955,3.66966436444138,17.7334325521578,-2.01296983312947,-0.6630942,-0.8689558,-0.22937989,292.92447,-107.89629,13.346801,STN
3682199353000,3.500047,3.10396712248956,16.8084652118712,-1.73225085125273,-0.7031059,-1.9254472,-0.118507855,293.07794,-107.71884,13.330544,STN
3682204263000,3.504957,2.78606048796978,15.4713874657984,-1.32551749362696,-0.48899764,-2.5146267,-0.06383542,293.42212,-107.58146,13.322361,STN
3682209334000,3.510028,2.84201355389457,13.8894892179386,-1.14557749150275,-0.23976462,-2.666427,-0.0015271631,294.0067,-107.3796,13.145311,STN
3682214280000,3.514974,3.02835074754131,12.2776735265539,-1.05240891900079,-0.06658431,-2.5399778,0.038789943,294.6701,-107.22097,12.966429,STN
3682219361000,3.520055,3.0562013321027,10.8694688780973,-0.983422445483133,0.08093964,-2.2681427,0.03145956,295.30035,-107.10324,12.792473,STN
3682224276000,3.52497,3.01872882235048,9.60477564792517,-0.927213881387203,0.22235495,-1.9847012,0.013133603,295.88113,-107.02835,12.637626,STN
3682229349000,3.530043,2.9090227774758,8.68760774311243,-0.957261765826508,0.31612277,-1.724778,0.020463986,296.36392,-107.02178,12.542962,STN
3682234457000,3.535151,2.76787719408042,7.93179603827252,-1.0255580364073,0.39278635,-1.4810427,0.06658431,296.7622,-107.045,12.469918,STN
3682239362000,3.540056,2.6209715494007,7.4027659149721,-1.05065927745402,0.43860126,-1.2229522,0.13347405,297.0868,-107.11199,12.438277,STN
3682244354000,3.545048,2.46289789385204,7.01252134411035,-1.04571947733003,0.47250426,-0.9502009,0.20891592,297.33588,-107.20201,12.436197,STN
3682249337000,3.550031,2.31994679110404,6.85539293326154,-0.940479420132971,0.48838675,-0.6908886,0.26847526,297.5354,-107.32838,12.462439,STN
3682254368000,3.555062,2.18459447064332,6.83734596976309,-0.773544866438805,0.47800204,-0.44806966,0.29168814,297.66177,-107.46182,12.513069,STN
3682259355000,3.560049,2.1088243856833,7.08071390558568,-0.477879549468547,0.4092797,-0.2507602,0.27855456,297.73312,-107.58696,12.567689,STN
3682264345000,3.565039,2.09327506941432,7.59384161306941,-0.0476814854555315,0.27366763,-0.16523905,0.25167647,297.76724,-107.69538,12.630715,STN
3682269372000,3.570066,2.12154914008289,8.32339614387211,0.44339651187685,0.18112154,-0.053450707,0.2415972,297.71765,-107.77,12.688111,STN
3682274424000,3.575118,2.17406561231498,9.17320894671403,0.968561593132031,-0.029932396,0.0009162979,0.23365596,297.65887,-107.78661,12.738918,STN
3682279334000,3.580028,2.24142054592771,9.88190775373494,1.33790526303614,-0.28099802,-0.011301007,0.23243423,297.5238,-107.71208,12.767742,STN
3682284367000,3.585061,2.32039901256867,10.5369637399518,1.63059000331566,-0.55741453,-0.056199603,0.22174409,297.38202,-107.58903,12.793663,STN
3682289316000,3.59001,2.39031806169994,11.0432049638815,1.65356604241614,-0.82863873,-0.083383106,0.22052236,297.17807,-107.36304,12.829683,STN
3682294347000,3.595041,2.45477077320436,11.439837552377,1.45029200259313,-1.0965031,-0.0580322,0.21838433,296.96927,-107.09302,12.864072,STN
3682299341000,3.600035,2.47756331100365,11.5635572638903,1.21668167154841,-1.3130548,0.02565634,0.24556783,296.71783,-106.76889,12.917615,STN
3682304369000,3.605063,2.47281124812,11.5065334024474,0.960072756834106,-1.5036448,0.13530666,0.2742785,296.44873,-106.42256,12.973865,STN
3682309344000,3.610038,2.42503995517377,11.2644820640094,0.642304188486157,-1.6939293,0.24984388,0.29840767,296.16605,-106.076004,13.033901,STN
3682314393000,3.615087,2.34434031996858,10.8799719149813,0.272035471121147,-1.894904,0.38728857,0.32467487,295.84415,-105.73253,13.1078415,STN
3682319350000,3.620044,2.24326435254221,10.4550800513108,-0.0289430542401344,-2.0949624,0.50518554,0.3371976,295.53503,-105.40163,13.177542,STN
3682324331000,3.625025,2.12310803201791,9.98780518751749,-0.278156243677582,-2.264783,0.59864795,0.33628133,295.1913,-105.08511,13.25352,STN
3682329346000,3.63004,1.87312538610759,9.54678502626582,-0.512178326018987,-2.3988678,0.61117065,0.31764993,294.8822,-104.79931,13.314418,STN
3682334365000,3.635059,1.42187297278481,9.15130529746835,-0.720058666962025,-2.522568,0.3567453,0.29626966,294.6214,-104.53237,13.367846,STN
3682339354000,3.640048,0.842076483452619,8.80658597830868,-0.959420078268692,-2.588847,-0.5919284,0.20799962,294.58478,-104.28409,13.369242,STN
3682344351000,3.645045,0.129317540307877,8.51000224010396,-1.23208626838065,-2.4278839,-2.1465805,0.059864793,294.79572,-104.05854,13.3314705,STN
3682350053000,3.650747,-0.370141945311796,8.31876171424376,-1.8530657042976,-1.920255,-3.4715471,-0.04550946,295.28354,-103.84912,13.240442,STN
3682354361000,3.655055,-0.559968046292707,8.26221747459618,-2.50735985219775,-1.3148874,-4.1560216,-0.062308256,296.02603,-103.660355,13.119153,STN
3682359351000,3.660045,-0.610472359577958,8.21996303090309,-3.27484451250125,-0.8894198,-4.247346,-0.021685716,297.054,-103.44345,12.911488,STN
3682364357000,3.665051,-0.457044222060206,8.20557885388539,-4.05636902665267,-0.74006325,-4.004222,0.0061086523,298.16965,-103.24389,12.686674,STN
3682369310000,3.670004,-0.158512755572685,8.17666927937543,-4.51356058093685,-0.7663304,-3.3878586,0.07238753,299.27505,-103.08135,12.441901,STN
3682374357000,3.675051,0.328697711084099,8.12890358157921,-4.58520912763119,-0.9275989,-2.694832,0.12797627,300.27206,-102.925934,12.202703,STN
3682379295000,3.679989,0.731268533567353,8.03995164848661,-4.45114794362247,-1.1374311,-2.098933,0.14935656,301.16632,-102.813354,11.973091,STN
3682384492000,3.685186,1.04892291362924,7.88593781723238,-4.01798294386423,-1.271516,-1.7033978,0.13805555,301.90604,-102.702644,11.756958,STN
3682389259000,3.689953,1.29166556701571,7.76573761884817,-3.76203036963351,-1.3426818,-1.5354098,0.124005646,302.59058,-102.630226,11.6159725,STN
3682394349000,3.695043,1.45853649190495,7.67739413979058,-3.75712240426903,-1.3045027,-1.53205,0.11636983,303.19907,-102.55537,11.4774685,STN
3682399291000,3.699985,1.56611864057858,7.59084380750586,-3.88328651673182,-1.169807,-1.609019,0.11911872,303.74036,-102.49441,11.388909,STN
3682404363000,3.705057,1.58036029311962,7.50064657560594,-4.24407529562158,-0.95447695,-1.6807957,0.112399206,304.27185,-102.44407,11.294403,STN
3682409249000,3.709943,1.59265744589486,7.4368176507974,-4.5313738257531,-0.7058548,-1.6801848,0.11942416,304.81516,-102.43463,11.226889,STN
3682414390000,3.715084,1.60235115111242,7.42227699175034,-4.69616696628273,-0.49266282,-1.6264287,0.13927728,305.35706,-102.44936,11.157948,STN
3682419950000,3.720644,1.59225916726869,7.4179965430953,-4.71323918532926,-0.36193767,-1.5561792,0.1563815,305.95007,-102.50938,11.088082,STN
3682424465000,3.725159,1.55621640358433,7.43001086735204,-4.5089970111142,-0.27152961,-1.4926492,0.16890424,306.5224,-102.59816,11.01952,STN
3682429342000,3.730036,1.50912576775723,7.44056142200095,-4.27344014376482,-0.2134974,-1.426065,0.18661933,307.09967,-102.71983,10.956843,STN
3682434436000,3.73513,1.40734740622096,7.4359350362257,-3.93109445602655,-0.18661933,-1.3759739,0.18051068,307.6553,-102.85076,10.887746,STN
3682439593000,3.740287,1.29699099208092,7.42521357247128,-3.57588350983023,-0.16126843,-1.319469,0.16554448,308.1623,-102.97035,10.818073,STN
3682444367000,3.745061,1.11108193455322,7.34620229521195,-3.14829277700518,-0.14660765,-1.3118331,0.12889257,308.66132,-103.08802,10.736235,STN
3682449429000,3.750123,0.916451706345962,7.26034149292124,-2.7018196778664,-0.12186762,-1.3622295,0.106901415,309.10553,-103.17312,10.638159,STN
3682454341000,3.755035,0.756989767570289,7.15247005507478,-2.35006533417747,-0.074830994,-1.4419475,0.0729984,309.54874,-103.254974,10.521984,STN
3682459465000,3.760159,0.585134450264907,7.03626951355293,-2.00332752045838,-0.024129177,-1.5015068,0.044593163,309.9655,-103.269394,10.377422,STN
3682464343000,3.765037,0.358021884720706,6.88331631230281,-1.90599358592122,0.014966198,-1.5210545,0.032375857,310.3884,-103.28826,10.224249,STN
3682469519000,3.770213,0.133643556193386,6.73530163097863,-1.80138162634723,0.027488936,-1.5442673,0.0033597588,310.78748,-103.24233,10.031824,STN
3682474338000,3.775032,0.127958929406294,6.77225165553058,-1.68768912325245,0.029321533,-1.5754215,-0.019547688,311.19095,-103.20471,9.836699,STN
3682479660000,3.780354,0.12168094979208,6.8130584682854,-1.56212956702285,0.005192355,-1.5870279,-0.049785517,311.59885,-103.1255,9.603085,STN
3682484333000,3.785027,0.11616854867648,6.84888902747429,-1.45188157636879,-0.007330383,-1.5824465,-0.06841691,312.00787,-103.0535,9.367276,STN
3682489502000,3.790196,0.110071052128965,6.88852270186919,-1.32993168043666,-0.035430185,-1.577254,-0.09987647,312.4471260661,-102.968638762962,9.1153146563859,STN
3682499280000,3.799974,0.0985366506506128,6.96349621091027,-1.09924371711215,0.0018325958,-1.5824465,-0.10567969,313.27805,-102.80811,8.638689,STN
3682504242000,3.804936,0.0846746652447398,7.122932803433,-1.14925925110742,0.055588737,-1.629483,-0.099571034,313.7039,-102.70661,8.422196,STN
3682509269000,3.809963,0.0633490378861573,7.39483449324474,-1.35185263975637,0.12064589,-1.6893479,-0.10842858,314.13196,-102.61938,8.204347,STN
3682514245000,3.814939,0.0297610555429262,7.67073251269649,-1.6120764471584,0.19058995,-1.7272215,-0.10842858,314.58615,-102.53626,7.990398,STN
3682519276000,3.81997,-0.00907885961970979,7.95232200332527,-1.8985208730653,0.25809056,-1.7040086,-0.106901415,315.03455,-102.47109,7.775196,STN
3682524256000,3.82495,-0.0609360829404432,8.22034914542936,-2.00067715844875,0.31245756,-1.6169603,-0.10720685,315.49847,-102.41927,7.5459304,STN
3682529259000,3.829953,-0.117817087595964,8.48579422912545,-2.03859779984171,0.3549127,-1.4758505,-0.10567969,315.93466,-102.387,7.3220806,STN
3682534270000,3.834964,-0.233350778915951,8.76706305200639,-2.00151053779197,0.37201694,-1.3240504,-0.12034045,316.37305,-102.37048,7.076274,STN
3682539258000,3.839952,-0.371632289341186,9.05316204541825,-1.93475398981833,0.3747658,-1.2012665,-0.14172074,316.774,-102.366264,6.8356304,STN
3682544252000,3.844946,-0.557973581385249,9.32057583788843,-1.93124952991389,0.3998113,-1.128879,-0.14263703,317.15717,-102.36715,6.5931997,STN
3682549254000,3.849948,-0.764220929404717,9.58062740209659,-1.9536677036316,0.44409904,-1.0729848,-0.1554652,317.5046,-102.37518,6.348993,STN
3682554353000,3.855047,-1.02823867307106,9.85898067713734,-2.04687135901189,0.5036584,-1.0409144,-0.16035213,317.85056,-102.37682,6.0984855,STN
3682559357000,3.860051,-1.32540882055505,10.1415355023889,-2.18814897511436,0.60139686,-0.9602802,-0.15882497,318.1634,-102.405426,5.854457,STN
3682564352000,3.865046,-1.64224364227898,10.4470278577603,-2.40848975084479,0.6462954,-0.8720101,-0.16065755,318.47583,-102.43973,5.583741,STN
3682569415000,3.870109,-1.97565392968566,10.7709121454813,-2.67998089109037,0.7516697,-0.7855727,-0.16523905,318.7633,-102.521194,5.3198915,STN
3682574430000,3.875124,-2.26469777350297,11.1281852471781,-2.95572462161852,0.8374963,-0.7021896,-0.19608775,319.07504,-102.615654,5.0195937,STN
3682579356000,3.88005,-2.52191936671131,11.5027360650469,-3.23099693726803,0.9138544,-0.6065892,-0.24556783,319.35486,-102.73998,4.7216196,STN
3682584356000,3.88505,-2.69907288757396,11.9881220769231,-3.39052960473373,0.9636399,-0.47036624,-0.3136793,319.64856,-102.89829,4.364988,STN
3682589320000,3.890014,-2.79122213854315,12.5749669469496,-3.42932922538258,1.0225884,-0.3222314,-0.40653083,319.9047,-103.08216,3.999386,STN
3682594346000,3.89504,-2.78659300739864,13.1586630266351,-3.54393433228766,1.0858129,-0.17867808,-0.51251596,320.16315,-103.29643,3.573768,STN
3682599350000,3.900044,-2.69677103462563,13.7306863246523,-3.72357817910624,1.180497,-0.06261369,-0.6044512,320.38046,-103.54208,3.142843,STN
3682604344000,3.905038,-2.51453934189405,14.2170097792272,-4.06863998614818,1.3277156,0.05681047,-0.66798115,320.5475,-103.82048,2.6988337,STN
3682609350000,3.910044,-2.24241578409679,14.6228083426608,-4.57469439254133,1.4969252,0.24495697,-0.7076874,320.65735,-104.13862,2.2602606,STN
3682614343000,3.915037,-1.89259208355627,14.9428855346475,-5.19512347783365,1.6713274,0.505491,-0.73853606,320.73074,-104.49211,1.8468648,STN
3682619445000,3.920139,-1.45523738559791,15.1836765361561,-5.94698027483657,1.8408424,0.8604037,-0.7666359,320.72327,-104.89506,1.4566399,STN
3682624409000,3.925103,-0.986513299036776,15.4521179050591,-6.27042246179497,2.017077,1.2837334,-0.7846564,320.62897,-105.386986,1.121797,STN
3682629349000,3.930043,-0.481687107363758,15.7496044132527,-6.22985619464558,2.1981986,1.5699236,-0.7901542,320.47528,-105.920845,0.8131938,STN
3682634307000,3.935001,0.0945440717078675,16.0714434360447,-6.17991086306288,2.2883012,1.78617,-0.79320854,320.1877,-106.565605,0.5800961,STN
3682639340000,3.940034,0.781774501730434,16.4323628138783,-6.11563724864089,2.408947,2.0570886,-0.7855727,319.8077,-107.25261,0.3909237,STN
3682644310000,3.945004,1.41925195555857,16.7475418951504,-5.74027875004967,2.5906794,2.3054054,-0.73456544,319.33514,-107.93353,0.32157552,STN
3682649305000,3.949999,2.01110171510882,17.0153867596857,-4.99290653262892,2.770274,2.3527474,-0.6872234,318.85034,-108.6278,0.2701418,STN
3682654294000,3.954988,2.59469250205479,17.237983874061,-4.17646316995139,2.86282,2.291661,-0.66339964,318.2807,-109.29354,0.34264868,STN
3682659316000,3.96001,3.15788744383562,17.3176812165267,-3.1297706288555,2.8490756,2.0350976,-0.6579019,317.7639,-109.959236,0.413896,STN
3682664299000,3.964993,3.59946866788675,17.2342328064032,-2.31882964947963,2.7461448,1.6939293,-0.6597345,317.25836,-110.47032,0.5886856,STN
3682669395000,3.970089,3.89216851611395,16.9286197804727,-1.79799597638031,2.588236,1.3225232,-0.67347896,316.84256,-110.946335,0.72916794,STN
3682675082000,3.975776,4.22040811122047,16.5106605192913,-1.26230601520079,2.4361305,0.8219192,-0.6957755,316.5409,-111.24887,0.901441,STN
3682679312000,3.980006,4.46761434891732,16.0521330990157,-0.951304895112205,2.2079725,0.64965516,-0.6872234,316.26312,-111.47879,1.0642403,STN
3682684305000,3.984999,4.74258806387394,15.4828849285165,-0.611531728332052,2.1230621,0.35735616,-0.6563747,316.13327,-111.65101,1.2081211,STN
3682689324000,3.990018,4.90620333051499,14.722864377402,-0.453194215472713,1.9730947,0.10567969,-0.6032294,316.0478,-111.73984,1.3371583,STN
3682694280000,3.994974,5.03066720893653,13.9857353156247,-0.358565598119723,1.8240436,-0.1518,-0.5681047,315.9942,-111.81315,1.4832779,STN
3682699351000,4.000045,5.07213159393796,13.2624128018215,-0.404637112421971,1.6835446,-0.3680463,-0.5421429,316.00446,-111.8472,1.6111842,STN
3682704318000,4.005012,5.1154143634499,12.5641362364886,-0.465479354045739,1.5485435,-0.55833083,-0.52626044,316.04572,-111.87709,1.7442404,STN
3682709369000,4.010063,5.16998287898677,11.8944324810789,-0.589498575684545,1.462106,-0.7263188,-0.52320606,316.14087,-111.88095,1.8549268,STN
3682714335000,4.015029,5.19887073146356,11.2980671884258,-0.750276532628876,1.3848315,-0.8038987,-0.54825157,316.22284,-111.91489,1.9587982,STN
3682719449000,4.020143,5.15534082405688,10.8676063644085,-1.03080150272566,1.3213016,-0.8179486,-0.5693264,316.33374,-111.92642,2.0506928,STN
3682724367000,4.025061,5.09226147521636,10.5044081675846,-1.29583013284815,1.2819008,-0.8240572,-0.6093381,316.4253,-111.98722,2.133407,STN
3682729352000,4.030046,4.96079710228167,10.2978209036192,-1.54936871344414,1.2137892,-0.79320854,-0.65087694,316.50934,-112.01794,2.2114384,STN
3682734315000,4.035009,4.81686046413,10.1368539163694,-1.76266002560444,1.1282681,-0.7461719,-0.6936375,316.56873,-112.0955,2.2701292,STN
3682739328000,4.040022,4.61706270967103,10.160639339675,-1.81498800654974,1.0403035,-0.7281514,-0.7031059,316.62823,-112.14904,2.3269236,STN
3682744326000,4.04502,4.39688458442592,10.1680742038651,-1.84663441520462,0.92149025,-0.72021013,-0.7147123,316.67038,-112.214806,2.3544085,STN
3682749305000,4.049999,4.08068487851459,10.1003171644562,-1.78339446458886,0.7883216,-0.7620544,-0.7840455,316.71527,-112.24613,2.3614178,STN
3682754367000,4.055061,3.75640642012621,10.026467019444,-1.73719320368412,0.6429357,-0.8399397,-0.82863873,316.77402,-112.248665,2.3400054,STN
3682759314000,4.060008,3.40490106035306,9.89313764898516,-1.91496609138666,0.5708536,-0.84849185,-0.84207773,316.82236,-112.23138,2.3129103,STN
3682766204000,4.066898,2.90443091841548,9.65891493649834,-2.17364562769882,0.45081854,-0.75319684,-0.8426886,316.87048,-112.15711,2.232484,STN
3682769320000,4.070014,2.61266505461143,9.26187290363875,-2.35712724076202,0.301462,-0.70707655,-0.820392,316.93478,-112.054794,2.1513915,STN
3682774371000,4.075065,2.13971596023586,8.61827235550852,-2.65454881572422,0.2593123,-0.57604593,-0.7510588,316.97113,-111.98986,2.0394795,STN
3682779535000,4.080229,1.91496164106564,8.14286375403161,-2.63875175592585,0.19547687,-0.43218717,-0.6630942,316.99545,-111.87946,1.948892,STN
3682784380000,4.085074,1.78335815068882,7.75275320773906,-2.52594870107374,0.16829337,-0.37293324,-0.6068946,317.01086,-111.770454,1.8766687,STN
3682789330000,4.090024,1.6366936756801,7.46335913961955,-2.44348435534874,0.1282817,-0.36071593,-0.55863625,317.025,-111.72126,1.7664417,STN
3682794291000,4.094985,1.48606710163633,7.20583635923502,-2.37060062903457,0.0693332,-0.31520647,-0.4801401,317.0235,-111.66183,1.6922684,STN
3682799302000,4.099996,1.30791535731982,7.00251179992492,-2.43157608714339,0.02107485,-0.22449298,-0.39920044,317.00476,-111.6131,1.622872,STN
3682804339000,4.105033,1.12231353552928,6.8123830121997,-2.52664033919857,-0.02687807,-0.11881329,-0.31703907,316.978,-111.55014,1.5837109,STN
3682809356000,4.11005,0.953948991832898,6.64598096131593,-2.53314681532115,-0.09040806,0.019547688,-0.25350907,316.93265,-111.47465,1.553978,STN
3682814331000,4.115025,0.794718908020888,6.49172670883551,-2.49831526858486,-0.15424347,0.1441642,-0.19272798,316.87076,-111.387886,1.556812,STN
3682819407000,4.120101,0.677725649866372,6.38278154878813,-2.43855103078979,-0.21105394,0.2556471,-0.14263703,316.76685,-111.32959,1.5530695,STN
3682824368000,4.125062,0.577021373163764,6.29083425317482,-2.37287440412865,-0.25778514,0.3885103,-0.07849618,316.6326,-111.25782,1.5855504,STN
3682829348000,4.130042,0.527337248254301,6.17895540211918,-2.23277452354175,-0.29077184,0.52534413,-0.015271631,316.46967,-111.185524,1.616459,STN
3682834405000,4.135099,0.512094913359211,6.05193594466009,-2.03970513919429,-0.3136793,0.6404922,0.0580322,316.28632,-111.10467,1.6793433,STN
3682839348000,4.140042,0.538098673175551,5.9701386122659,-1.92473515770735,-0.34025195,0.7147123,0.11209377,316.08423,-111.012886,1.7463944,STN
3682844351000,4.145045,0.582471494116073,5.90604456045483,-1.84091987502573,-0.37598756,0.79473567,0.1740966,315.86038,-110.91401,1.8475634,STN
3682849329000,4.150023,0.652512889352294,5.83444117551378,-1.8403288862472,-0.40408736,0.84696466,0.23976462,315.60403,-110.80848,1.9648037,STN
3682854359000,4.155053,0.732274501293465,5.75937154874842,-1.86848003302815,-0.41508293,0.9398162,0.27458394,315.32132,-110.69831,2.1021068,STN
3682859352000,4.160046,0.836931710493648,5.67221611104646,-1.90919971091068,-0.45540005,1.0482447,0.344528,315.02826,-110.567024,2.2805367,STN
3682864337000,4.165031,0.952682820667249,5.57961510687615,-1.9555001646494,-0.5009095,1.135904,0.3894266,314.71915,-110.43182,2.4671645,STN
