timestamp,rel_time,acc_x,acc_y,acc_z,gyro_x,gyro_y,gyro_z,azimuth,pitch,roll,label
14473331553000,0,0.0412834751675514,9.87219984584858,-0.395625326147503,-0.038789943,-0.007330383,0.02076942,126.24765,-92.06907,0.7809453,STD
14473336543000,0.00499,0.0462093386355718,9.86973686435087,-0.400551186272226,-0.03390302,-0.005192355,0.0290161,126.20445,-91.90404,0.6205621,STD
14473341564000,0.010011,0.0511658036602072,9.86725858176571,-0.405507647932794,-0.035430185,-0.0067195175,0.022907447,126.14377,-91.67351,0.39518255,STD
14473346561000,0.015008,0.0560985771571406,9.86479214518373,-0.41044041808174,-0.03756821,-0.020158553,0.013439035,126.086334,-91.46582,0.17361514,STD
14473351536000,0.019983,0.0472848932118227,9.86071894926108,-0.418586646886699,-0.04428773,-0.01985312,0.017715093,125.98836,-91.20159,-0.15597779,STD
14473356633000,0.02508,0.0328574103802956,9.85590969123153,-0.428204972122168,-0.04337143,-0.01863139,0.017104227,125.895035,-91.051544,-0.48538288,STD
14473361632000,0.030079,0.0220608415131281,9.85786885662307,-0.457634609768905,-0.040011674,-0.019547688,0.020158553,125.73657,-91.13727,-1.0188223,STD
14473366570000,0.035017,0.0127599721066968,9.86251938528862,-0.494838081567509,-0.04550946,-0.021685716,0.017715093,125.5819,-91.54754,-1.5452393,STD
14473371534000,0.039981,0.0158564914544362,9.86725090566793,-0.523269960152213,-0.038789943,-0.02443461,0.009773844,125.300674,-87.405754,-2.5060406,STD
14473376564000,0.045011,0.0255042656773483,9.87207489024634,-0.547389409561386,-0.03940081,-0.025961773,0.021991149,125.03411,-86.28469,-3.4390101,STD
14473381555000,0.050002,-0.00270772916964286,9.88626318482143,-0.281942905178571,-0.043676864,-0.022296581,0.0106901415,124.71572,-84.92625,-4.545464,STD
14473386533000,0.05498,-0.0500027145327381,9.90518106636905,0.129523463035714,-0.03145956,-0.022602014,-0.00061086525,124.41802,-83.59786,-5.618618,STD
14473391533000,0.05998,-0.0058393170794193,9.9003382442357,0.0620761403074296,-0.032986723,-0.023823744,0.007941248,124.14715,-82.41076,-6.5741673,STD
14473396555000,0.065002,0.0899941808710504,9.88208435354398,-0.275622838855679,-0.0290161,-0.020158553,0.0030543262,123.88904,-81.24928,-7.5127316,STD
14473401541000,0.069988,0.11600774522107,9.84787722670964,-0.583239970218552,-0.034513887,-0.02443461,0.009162978,123.72267,-80.43031,-8.144988,STD
14473406625000,0.075072,0.0816820918219358,9.79884061557055,-0.872556180753349,-0.02565634,-0.02321288,0.00030543262,123.56072,-79.62458,-8.77077,STD
14473411648000,0.080095,0.0506955228528151,9.78881468639761,-0.737237565116094,-0.025045475,-0.016493361,0.0015271631,123.3554,-78.68723,-9.520832,STD
14473416564000,0.085011,0.0225462947324365,9.8075807264574,-0.291541473213752,-0.0290161,-0.017715093,0.00580322,123.15954,-77.770485,-10.25593,STD
14473421537000,0.089984,0.0552218517134057,9.81876288696587,-0.235805582980346,-0.024129177,-0.014966198,0.004581489,122.92673,-76.71881,-11.126488,STD
14473426561000,0.095008,0.13990453437225,9.82346757533979,-0.513376616456439,-0.022907447,-0.014966198,0.0076358155,122.70251,-75.69459,-11.973906,STD
14473431554000,0.100001,0.177144424316192,9.8161742439368,-0.742706110506189,-0.023823744,-0.016798794,0.0061086523,122.54516,-74.90207,-12.6033125,STD
14473436535000,0.104982,0.16754352551273,9.79697255660662,-0.925123192784543,-0.024129177,-0.021991149,0.01038471,122.39254,-74.12718,-13.218627,STD
14473441522000,0.109969,0.14153129957115,9.79695224136248,-0.783486717710912,-0.027794369,-0.021380283,0.010995574,122.20521,-73.22095,-13.957837,STD
14473446558000,0.115005,0.0991675268231505,9.81578047208667,-0.322192339060121,-0.03604105,-0.02443461,0.0143553335,122.02484,-72.33634,-14.678962,STD
14473451533000,0.11998,0.0848534167267954,9.83816247871742,-0.185780719055691,-0.021380283,-0.013744468,0.015577064,121.82996,-71.37692,-15.481575,STD
14473456568000,0.125015,0.102936754708232,9.86528756169136,-0.425384966900244,-0.019547688,-0.014660766,0.015882496,121.643486,-70.4383,-16.26459,STD
14473461557000,0.130004,0.110135047347296,9.88060576148855,-0.580994151564864,-0.02107485,-0.015882496,0.01863139,121.51245,-69.737,-16.825024,STD
14473466698000,0.135145,0.0952391160715366,9.87233024987394,-0.571063530714358,-0.03481932,-0.023823744,0.014966198,121.38596,-69.045334,-17.37736,STD
14473471569000,0.140016,0.0811255036918008,9.86448935956567,-0.561654455794534,-0.022907447,-0.032070424,0.016493361,121.23485,-68.269104,-18.020168,STD
14473476579000,0.145026,0.0666091419544828,9.85642471977006,-0.551976881302989,-0.020158553,-0.022296581,0.0143553335,121.08274,-67.50403,-18.65326,STD
14473481557000,0.150004,0.0521854994937305,9.8484115906478,-0.542361119662487,-0.03023783,-0.021991149,0.017715093,120.93475,-66.71009,-19.309584,STD
14473486589000,0.155036,0.0376053932537735,9.84031153726426,-0.532641048835849,-0.025350908,-0.02107485,0.01740966,120.78542,-65.9347,-19.95528,STD
14473491495000,0.159942,0.0305186728167173,9.83359271114488,-0.47844157189463,-0.035430185,-0.02107485,0.013133603,120.63865,-65.16306,-20.596365,STD
14473496596000,0.165043,0.0354681452085106,9.82864313900709,-0.344805811631206,-0.028710667,-0.018020526,0.0143553335,120.490944,-64.41245,-21.224064,STD
14473501513000,0.16996,0.0420116171577056,9.82673011622711,-0.241293770268736,-0.03756821,-0.008857546,0.01160644,120.347275,-63.705822,-21.814924,STD
14473506629000,0.175076,0.051530281169168,9.82910983024916,-0.172283453390208,-0.034208454,-0.01282817,0.0067195175,120.2063,-63.015903,-22.395006,STD
14473511511000,0.179958,0.0606135723544611,9.83138069886833,-0.106429589629268,-0.03848451,-0.003970624,0.014660766,120.06928,-62.389446,-22.913052,STD
14473516594000,0.185041,0.0700708376340279,9.83374506289766,-0.0378644135750158,-0.034513887,0.0009162979,0.014966198,119.93489,-61.773262,-23.425838,STD
14473521552000,0.189999,0.0804645929255092,9.83794767655538,0.0249773598878453,-0.034513887,0.005192355,0.00580322,119.79714,-61.1667,-23.931835,STD
14473526595000,0.195042,0.0939387432387241,9.84693015391054,0.0788739512920115,-0.04153884,0.009162978,0.013439035,119.655136,-60.574837,-24.425865,STD
14473531562000,0.200009,0.107231589300969,9.85704959751623,0.128900811264465,-0.054367006,0.017104227,0.0106901415,119.524254,-60.00514,-24.893373,STD
14473536592000,0.205039,0.120827789564399,9.87517775726785,0.160625275390912,-0.050396383,0.024129177,0.02076942,119.38924,-59.451786,-25.349003,STD
14473541951000,0.210398,0.139478659496972,9.89599297659378,0.196489210753516,-0.056199603,0.032070424,0.021685716,119.260635,-58.903206,-25.79724,STD
14473546589000,0.215036,0.194196522699928,9.92791190113951,0.246647264322965,-0.053450707,0.038179077,0.021380283,119.12809,-58.368317,-26.2373,STD
14473552510000,0.220957,0.265828932813853,9.97069951515152,0.305297000779221,-0.053450707,0.04184427,0.027183503,118.99397,-57.85093,-26.660357,STD
14473556618000,0.225065,0.320018355415191,10.0055354683196,0.332391710059032,-0.07269296,0.025961773,0.027794369,118.86262,-57.338802,-27.07794,STD
14473561862000,0.230309,0.385729938405104,10.0500565055821,0.359046248819777,-0.076358154,0.0009162979,0.028099801,118.73168,-56.866123,-27.458334,STD
14473566589000,0.235036,0.412805037157097,10.0906690312002,0.309408559921252,-0.086437434,0.00061086525,0.031154128,118.59567,-56.39873,-27.833733,STD
14473571827000,0.240274,0.437948218193473,10.1318917429584,0.257096694792152,-0.09285152,-0.0027488936,0.03390302,118.46872,-55.93375,-28.201044,STD
14473576569000,0.245016,0.407072879335664,10.1274811210664,0.239453645332168,-0.093462385,0.0033597588,0.04062254,118.33621,-55.47839,-28.562483,STD
14473581935000,0.250382,0.373886159451493,10.1224891565977,0.218313053558462,-0.10048734,0.013133603,0.046731193,118.2005,-55.013893,-28.936573,STD
14473586577000,0.255024,0.382563799900449,10.1181504768202,0.174924869435877,-0.118202426,0.022907447,0.04520403,118.06047,-54.55654,-29.306293,STD
14473591564000,0.260011,0.391886374850673,10.1134893402303,0.128312014153816,-0.13347405,0.015271631,0.04642576,117.91664,-54.11332,-29.667633,STD
14473596595000,0.265042,0.401508218849425,10.1441147084542,-0.0128182592976488,-0.13927728,-0.006414085,0.040011674,117.77207,-53.675323,-30.026093,STD
14473601522000,0.269969,0.41094991841921,10.1771603611806,-0.159164706148074,-0.16218472,-0.029626964,0.03604105,117.62662,-53.241817,-30.377907,STD
14473606654000,0.275101,0.373190647622461,10.1694194416726,-0.29679908171374,-0.18448131,-0.044898596,0.04337143,117.47723,-52.7997,-30.740618,STD
14473611495000,0.279942,0.333309945949821,10.1583414754122,-0.425303578248029,-0.19425514,-0.045814894,0.03634648,117.32933,-52.36053,-31.10232,STD
14473616591000,0.285038,0.291328525639188,10.1466799765352,-0.560577057764397,-0.183565,-0.043676864,0.03634648,117.15798,-51.86526,-31.522442,STD
14473621958000,0.290405,0.247114576893668,10.1343983312306,-0.70304424076368,-0.18387043,-0.05100725,0.034513887,116.986496,-51.376244,-31.937082,STD
14473626601000,0.295048,0.235666965145816,10.0759628947591,-0.776629030399408,-0.172264,-0.059864793,0.032375857,116.81027,-50.901833,-32.345367,STD
14473631488000,0.299935,0.23072170739645,10.001784183432,-0.84091729852071,-0.15210545,-0.057421334,0.036651913,116.62745,-50.44077,-32.74662,STD
14473636589000,0.305036,0.245252895961228,9.93467576090469,-0.879302479886914,-0.14172074,-0.05100725,0.029932396,116.41328,-49.902687,-33.243885,STD
14473641528000,0.309975,0.263232508083246,9.87174727805759,-0.91076679171339,-0.12492194,-0.048258353,0.028099801,116.1916,-49.384705,-33.72969,STD
14473646594000,0.315041,0.331777126328862,9.7838379006458,-0.912303843755589,-0.10903945,-0.055588737,0.04153884,115.955605,-48.880524,-34.211067,STD
14473651517000,0.319964,0.416092978042722,9.69015367531048,-0.902935426113264,-0.09621128,-0.06811147,0.04062254,115.71555,-48.38749,-34.687923,STD
14473656702000,0.325149,0.518041281540355,9.63347124253923,-0.885456381066557,-0.079107046,-0.08307768,0.042760566,115.46971,-47.88125,-35.18117,STD
14473661587000,0.330034,0.618793667603323,9.59508960065634,-0.866265429871808,-0.06658431,-0.09285152,0.043676864,115.21915,-47.389084,-35.66525,STD
14473666746000,0.335193,0.680601374344814,9.59807043739331,-0.865808133366804,-0.06261369,-0.112704635,0.05497787,114.96609,-46.934772,-36.10994,STD
14473671579000,0.340026,0.727076645687318,9.6120128101215,-0.870455655648157,-0.04642576,-0.12736541,0.055588737,114.7091,-46.493095,-36.54937,STD
14473676574000,0.345021,0.748536277365198,9.63365096227533,-0.8863189930476,-0.058337633,-0.1328632,0.058948494,114.450615,-46.105774,-36.93342,STD
14473681598000,0.350045,0.762790823049575,9.65740853841596,-0.905325083729014,-0.03726278,-0.14782938,0.0693332,114.19231,-45.736435,-37.30722,STD
14473686599000,0.355046,0.737002030517928,9.7249258998008,-0.924367890937251,-0.038789943,-0.16676621,0.06169739,113.933105,-45.390827,-37.657173,STD
14473691533000,0.35998,0.699351089322709,9.80493434641434,-0.943193356620518,-0.043676864,-0.17012598,0.06811147,113.66339,-45.06171,-37.99653,STD
14473696589000,0.365036,0.639208470274846,9.87253104262099,-0.915754236252738,-0.03268129,-0.15363261,0.0571159,113.38604,-44.75304,-38.324528,STD
14473701605000,0.370052,0.572237577544314,9.93471805397331,-0.872701526633141,-0.036957346,-0.1563815,0.047647487,113.10821,-44.45067,-38.643856,STD
14473706672000,0.375119,0.494258095856354,9.93950273993686,-0.804315706846882,-0.038789943,-0.14874569,0.03848451,112.79973,-44.169655,-38.954216,STD
14473711641000,0.380088,0.414445386436464,9.92541835063141,-0.729197869031176,-0.0421497,-0.14202617,0.01863139,112.48868,-43.889545,-39.26575,STD
14473716599000,0.385046,0.369877403588341,9.89229421573437,-0.692418226554099,-0.03634648,-0.118507855,0.0009162979,112.16735,-43.56412,-39.623787,STD
14473721594000,0.390041,0.338290476713518,9.8516825710782,-0.669856149391567,-0.037873644,-0.090713486,0.0021380284,111.83452,-43.245953,-39.978138,STD
14473726590000,0.395037,0.357430327763696,9.82525675571825,-0.588484045030548,-0.036957346,-0.04153884,-0.009468411,111.49592,-42.86937,-40.390877,STD
14473731589000,0.400036,0.410610742317597,9.80833562660944,-0.467619464892704,-0.040927973,0.009162978,-0.012217305,111.13691,-42.505474,-40.79772,STD
14473736583000,0.40503,0.463737965818733,9.79143142201464,-0.346875773512749,-0.046731193,0.03634648,-0.014966198,110.767715,-42.165546,-41.18763,STD
14473741694000,0.410141,0.518109859954557,9.77413118379197,-0.223303285198182,-0.063224554,0.03940081,-0.018936822,110.380646,-41.83259,-41.575623,STD
14473746586000,0.415033,0.589078123766639,9.7668350573012,-0.136721960698204,-0.06627888,0.022907447,-0.020158553,109.98109,-41.51044,-41.958263,STD
14473751604000,0.420051,0.672307100341432,9.76445703829977,-0.0653828283423227,-0.06841691,0.0033597588,-0.019242255,109.57171,-41.19556,-42.335133,STD
14473756663000,0.42511,0.756216106417933,9.76205958948983,0.00653918652184672,-0.060170226,-0.015271631,-0.015577064,109.199295,-40.94932,-42.625698,STD
14473761699000,0.430146,0.839743632530061,9.75967304032856,0.0781342185155129,-0.05589417,-0.018936822,-0.015577064,108.8207,-40.70859,-42.912678,STD
14473766587000,0.435034,0.890527785322765,9.7669254723071,0.135262340215814,-0.055283304,-0.028710667,-0.013439035,108.43967,-40.513187,-43.15747,STD
14473771603000,0.44005,0.922638256331169,9.78068737987013,0.185721647694805,-0.055283304,-0.033292156,-0.025350908,108.0526,-40.320263,-43.40329,STD
14473776553000,0.445,0.967478564312636,9.84094583859418,0.266365713840573,-0.054061573,-0.034513887,-0.021380283,107.6859,-40.12677,-43.634068,STD
14473781591000,0.450038,1.02657813040139,9.95005250343918,0.380018674062942,-0.067500606,-0.03970624,-0.010079277,107.31572,-39.936203,-43.862118,STN
14473786569000,0.455016,1.06765299341976,10.0293711842364,0.466768555974898,-0.070249505,-0.027183503,-0.0027488936,106.941536,-39.76024,-44.077496,STN
14473791590000,0.460037,1.08007102781881,10.0616579699396,0.511473505745054,-0.07574729,-0.008246681,-0.004581489,106.559235,-39.588367,-44.290104,STN
14473796551000,0.464998,1.09234066905635,10.0935589346625,0.555644239823873,-0.090713486,0.003970624,0.003970624,106.17869,-39.45345,-44.459698,STN
14473801564000,0.470011,1.10473891770053,10.1257942775683,0.600277960835184,-0.11789699,0.013744468,0.009468411,105.78616,-39.31992,-44.630993,STN
14473806626000,0.475073,1.20917712295993,10.1993606233792,0.634476285678073,-0.14294247,0.040011674,0.025350908,105.37348,-39.188614,-44.805378,STN
14473811566000,0.480013,1.3982856400702,10.3100586208443,0.657538321926489,-0.17348573,0.046120327,0.04642576,104.95502,-39.061226,-44.973873,STN
14473816532000,0.484979,1.56001175672906,10.396772359803,0.666194787921182,-0.18784106,0.063224554,0.06872234,104.52473,-38.963806,-45.113434,STN
14473821546000,0.489993,1.68774466640394,10.4535426955665,0.656733098226601,-0.2180789,0.06383542,0.093767814,104.08631,-38.87151,-45.24448,STN
14473826521000,0.494968,1.81495239592445,10.5120357485089,0.655135489264414,-0.24312437,0.06261369,0.13103059,103.62368,-38.752457,-45.401314,STN
14473831527000,0.499974,1.94362242005964,10.5739877353877,0.664666594791253,-0.27122417,0.04734206,0.16982053,103.15273,-38.642483,-45.547676,STN
14473836507000,0.504954,2.07721989497567,10.6487777835369,0.666608921646311,-0.31215215,0.032070424,0.21533,102.657295,-38.510647,-45.714237,STN
14473841569000,0.510016,2.2216279333234,10.7450497755933,0.656981722440671,-0.34300083,0.01863139,0.27916542,102.147125,-38.398937,-45.861942,STN
14473846505000,0.514952,2.33046242850662,10.844087947448,0.661585395879017,-0.39522982,0.010995574,0.34238997,101.61672,-38.36413,-45.92655,STN
14473851589000,0.520036,2.39028770173913,10.9545342434783,0.689196993913044,-0.43982297,0.0015271631,0.41874814,101.06992,-38.351192,-45.9696,STN
14473856514000,0.524961,2.4314248991364,11.0628355751418,0.701095061874524,-0.5002986,-0.0125227375,0.4541783,100.50881,-38.39628,-45.950195,STN
14473861576000,0.530023,2.427320397587,11.1777606756414,0.672363808178816,-0.5320636,-0.03481932,0.52656585,99.92689,-38.471516,-45.90149,STN
14473866514000,0.534961,2.42331644091948,11.2898705425451,0.644336362357125,-0.60048056,-0.082161374,0.5907067,99.34522,-38.571033,-45.815704,STN
14473871590000,0.540037,2.36913741624501,11.2908514733688,0.661207717110519,-0.66645396,-0.056199603,0.67011917,98.72301,-38.69149,-45.716972,STN
14473876558000,0.545005,2.31340609467971,11.2699811439609,0.690405832400978,-0.73853606,-0.0125227375,0.7583892,98.09271,-38.82355,-45.599205,STN
14473881558000,0.550005,2.27594188930073,11.1669537600978,0.784066516997555,-0.7987063,0.03390302,0.8436049,97.41607,-38.98173,-45.464916,STN
14473886597000,0.555044,2.24062118436636,11.057426620608,0.877115253809712,-0.88239485,0.073303826,0.9416488,96.70261,-39.131687,-45.337753,STN
14473891535000,0.559982,2.23595377039084,10.8800650844848,0.951793926154757,-0.96486163,0.0983493,1.0366384,95.95564,-39.298023,-45.19691,STN
14473896733000,0.56518,2.23411082205259,10.6929565117331,1.03048731147865,-1.0867293,0.13103059,1.1377366,95.18212,-39.425503,-45.08402,STN
14473901613000,0.57006,2.26934574656489,10.5123771959288,1.10536171577608,-1.1881329,0.16829337,1.2385293,94.371765,-39.573822,-44.953438,STN
14473906551000,0.574998,2.30499944681934,10.3296516505513,1.18112602078032,-1.3008375,0.19547687,1.3405437,93.550446,-39.702194,-44.82726,STN
14473911572000,0.580019,2.32129237077016,10.114992018777,1.22294258555076,-1.4117095,0.2406809,1.4456125,92.68,-39.850254,-44.684322,STN
14473916551000,0.584998,2.33565627832112,9.89953565528667,1.26124593906015,-1.5155567,0.2932153,1.5549575,91.76743,-40.01783,-44.521633,STN
14473921557000,0.590004,2.37668342748474,9.75012342057852,1.29520491487339,-1.6120734,0.3313944,1.6707164,90.8419,-40.19345,-44.3358,STN
14473926522000,0.594969,2.41951585782204,9.60734848713843,1.32851911570413,-1.6887369,0.364992,1.7892243,89.86822,-40.392467,-44.130806,STN
14473931557000,0.600004,2.484276892662,9.57843355035013,1.64666388813492,-1.745242,0.33200526,1.887879,88.905075,-40.59615,-43.907646,STN
14473936502000,0.604949,2.54966814071407,9.55974994644442,1.98296193034816,-1.765706,0.22021692,1.9816469,87.92704,-40.82828,-43.653786,STN
14473941550000,0.609997,2.55303494379616,9.76024324935377,2.62053240156942,-1.8005253,0.09743301,2.074193,86.953926,-41.087032,-43.353756,STN
14473947018000,0.615465,2.54820056949778,10.006796439531,3.35052342542467,-1.8716911,-0.013744468,2.1728477,85.98939,-41.366512,-43.02135,STN
14473951609000,0.620056,2.33512443508567,10.3683204927104,4.00136051803767,-1.9336939,-0.039095376,2.2104158,85.084366,-41.63651,-42.66593,STN
14473956592000,0.625039,2.05073703684155,10.7999802252847,4.71740759582846,-2.0314324,-0.011301007,2.2198844,84.17755,-41.911034,-42.293266,STN
14473961569000,0.630016,1.54561986428304,11.3053689028422,5.3919371153459,-2.1190915,0.083383106,2.2030854,83.42503,-42.287186,-41.73146,STN
14473966516000,0.634963,1.00794167768677,11.8196696755156,6.05585283134314,-2.2974641,0.23609942,2.115121,82.64364,-42.615158,-41.208508,STN
14473971544000,0.639991,0.535311071832231,12.4401676799645,6.04831119099437,-2.48164,0.4202753,1.9837849,81.97111,-42.996204,-40.556526,STN
14473976548000,0.644995,0.0810260092403476,13.0790058328231,5.892150715197,-2.7101038,0.67347896,1.7916678,81.239044,-43.296593,-39.98438,STN
14473981553000,0.65,-0.299308977976654,13.3703435403338,5.075679221061,-2.9138272,0.9602802,1.5900823,80.56631,-43.56301,-39.39079,STN
14473986554000,0.655001,-0.660913816273197,13.5749359109875,4.0955396599245,-3.0647109,1.1276573,1.3784174,79.87283,-43.740013,-38.88011,STN
14473991623000,0.66007,-0.680212828019458,13.4313612710215,2.706023616713,-3.0680707,1.319469,1.2333369,79.02428,-43.92389,-38.428703,STN
14473996571000,0.665018,-0.609648905366822,13.2008521603296,1.24770210155366,-2.9743028,1.4953982,1.1227703,78.14853,-44.047863,-38.054424,STN
14474001582000,0.670029,-0.367922880768514,12.7510481298626,0.14506779211411,-2.8307495,1.6184875,1.0461067,77.045815,-44.188107,-37.811684,STN
14474006681000,0.675128,-0.0724253511505139,12.2304099130727,-0.86806655470656,-2.6731462,1.6811012,0.9737192,75.91764,-44.319363,-37.616043,STN
14474011581000,0.680028,0.481925592531192,11.6197963235568,-0.807385436409684,-2.5277603,1.5580118,0.89949906,74.4967,-44.4472,-37.633057,STN
14474016678000,0.685125,1.17276110468399,10.9380507428305,-0.307438675944879,-2.3780985,1.2525792,0.8384125,73.11336,-44.595432,-37.64154,STN
14474021547000,0.689994,1.80454025472216,10.2844597532396,0.411739580410718,-2.2101104,0.8857546,0.79381937,71.48616,-44.67827,-37.88565,STN
14474026555000,0.695002,2.43130476392488,9.61029308862289,1.34925277967626,-2.0494528,0.57848936,0.7556403,69.93484,-44.78555,-38.090427,STN
14474031552000,0.699999,2.59118176717557,9.12882098106474,1.93107991300684,-1.8915442,0.4098906,0.7318166,68.62117,-44.902893,-38.16908,STN
14474036539000,0.704986,2.57224258778626,8.72163171418658,2.37614743978388,-1.7424932,0.37843102,0.7119634,67.361206,-45.045925,-38.223278,STN
14474041541000,0.709988,2.38435788622291,8.47957317260062,2.6295227876161,-1.6459764,0.4343252,0.679893,66.2339,-45.106167,-38.29048,STN
14474046576000,0.715023,2.1231083182082,8.30696123326238,2.80213423982198,-1.5848899,0.50976706,0.6432411,65.10861,-45.190887,-38.350136,STN
14474051583000,0.72003,2.02431396215379,8.14117196234747,2.93509381648267,-1.5329664,0.5360342,0.5900958,64.18969,-45.280777,-38.313347,STN
14474056537000,0.724984,2.01512483428239,7.98036241650203,3.04536344689134,-1.4914275,0.5531385,0.56413406,63.244595,-45.385933,-38.280067,STN
14474061522000,0.729969,2.13679307783893,7.79001462331016,3.04094881373117,-1.4526376,0.52656585,0.54092115,62.45672,-45.501694,-38.171673,STN
14474066726000,0.735173,2.3677905273175,7.5686419105253,2.94469983876014,-1.3695599,0.49174652,0.5213735,61.663773,-45.630745,-38.06645,STN
14474071526000,0.739973,2.48542889966147,7.30429753328888,2.77999927968814,-1.2788464,0.42271876,0.50518554,60.936077,-45.75378,-37.940517,STN
14474076519000,0.744966,2.5148608112023,6.97073639844071,2.53473357213787,-1.1798862,0.37323865,0.49174652,60.210888,-45.891373,-37.81398,STN
14474081515000,0.749962,2.45643207959023,6.62367881678487,2.29720350267928,-1.0567969,0.35827246,0.47800204,59.41566,-46.017666,-37.741165,STN
14474086613000,0.75506,2.32177568096927,6.25818279875887,2.06155483020095,-0.9260717,0.36713,0.46792278,58.626522,-46.163986,-37.662125,STN
14474091518000,0.759965,2.18632690972125,5.91373024388051,1.93890868653212,-0.8014552,0.3998113,0.44776422,57.73787,-46.280533,-37.676716,STN
14474096530000,0.764977,2.04245952532721,5.56844856139475,1.91013517960835,-0.6908886,0.4260785,0.43218717,56.84753,-46.421307,-37.682335,STN
14474101610000,0.770057,1.87187586065248,5.11770791706856,1.89380421752246,-0.58123827,0.441961,0.41783184,55.896572,-46.532654,-37.762306,STN
14474106457000,0.774904,1.68751756870922,4.59974901768322,1.88941473765485,-0.4783075,0.44073927,0.3866777,54.947742,-46.659794,-37.837105,STN
14474111477000,0.779924,1.56386624613083,4.24722008902187,1.88086229100289,-0.36987892,0.42332962,0.35918877,54.06384,-46.777695,-37.906372,STN
14474116470000,0.784917,1.54659843576661,4.1855493266818,1.86606133276929,-0.26236662,0.3903429,0.3390302,53.189533,-46.910812,-37.96721,STN
14474121472000,0.789919,1.52929949976785,4.12376740134131,1.85123369546017,-0.14110987,0.35460728,0.30604348,52.45736,-47.00969,-38.025616,STN
14474126479000,0.794926,1.5119832717499,4.06192371877837,1.83639123644243,-0.044898596,0.312763,0.27977628,51.74023,-47.120647,-38.074814,STN
14474131470000,0.799917,1.52028855931823,3.95057586890018,1.83156009062317,0.0693332,0.25289822,0.24953845,51.034363,-47.240173,-38.12039,STN
14474136470000,0.804917,1.55302820573354,3.79155486870483,1.8362371759914,0.18295415,0.19394971,0.21746802,50.34689,-47.36841,-38.160404,STN
14474141467000,0.809914,1.58173345710122,3.71290649426073,1.83429203715951,0.29901853,0.1337795,0.17806722,49.68632,-47.487923,-38.210026,STN
14474146475000,0.814922,1.60583669079304,3.72736843447583,1.82465074368278,0.40011674,0.093462385,0.1337795,49.045227,-47.61257,-38.25714,STN
14474151590000,0.820037,1.64123128183901,3.72130402515039,1.82641858742481,0.49174652,0.03023783,0.08277224,48.43663,-47.719196,-38.31803,STN
14474156703000,0.82515,1.68798601260384,3.69325121598396,1.84044499200802,0.54061574,-0.03481932,0.055283304,47.84753,-47.82953,-38.372105,STN
14474161584000,0.830031,1.70276195749254,3.66983617166169,1.85598132833831,0.63041294,-0.07696902,0.009773844,47.250877,-47.932053,-38.445866,STN
14474166557000,0.835004,1.67432886710448,3.65088077806965,1.87493672193035,0.70188415,-0.11575896,-0.040927973,46.6825,-48.03126,-38.514088,STN
14474171508000,0.839955,1.63115049521372,3.62722263442328,1.94474164348403,0.786489,-0.14110987,-0.0870483,46.09978,-48.119717,-38.59839,STN
14474176561000,0.845008,1.56235373977822,3.59511752658516,2.10068088237134,0.8854492,-0.13041973,-0.14630222,45.52946,-48.201736,-38.69032,STN
14474181510000,0.849957,1.5067546931775,3.56066370106882,2.26711651864949,0.98715824,-0.10720685,-0.21013765,45.007202,-48.285397,-38.772446,STN
14474186531000,0.854978,1.48273855453002,3.51743455119369,2.47365546148237,1.0671816,-0.08552113,-0.28008172,44.491783,-48.359615,-38.86495,STN
14474191567000,0.860014,1.49291646578947,3.49386189665072,2.70045335598086,1.1362094,-0.040927973,-0.3494149,44.09948,-48.446995,-38.916935,STN
14474196555000,0.865002,1.59291164561404,3.52243191961722,2.97663044354067,1.1994339,-0.009773844,-0.41325033,43.71106,-48.52318,-38.98207,STN
14474202321000,0.870768,1.72226818937979,3.58915790584869,3.28453124846419,1.246776,-0.0070249503,-0.48288897,43.419075,-48.589054,-39.033436,STN
14474206595000,0.875042,1.83593745475048,3.68216011707481,3.49809165918539,1.2883148,-0.039095376,-0.54153204,43.133064,-48.644817,-39.09519,STN
14474211526000,0.879973,1.96707997874274,3.78945864387781,3.74448061221914,1.3255776,-0.064751714,-0.58093286,42.89848,-48.69865,-39.13904,STN
14474216556000,0.885003,2.26695280468067,4.07255176006124,4.05315093593613,1.3487904,-0.13469578,-0.6160576,42.69579,-48.739624,-39.189137,STN
14474221630000,0.890077,2.59201116459897,4.38323740189648,4.35549843875938,1.368949,-0.22021692,-0.6160576,42.507935,-48.781906,-39.234344,STN
14474226574000,0.895021,2.91938590881075,4.71528882631371,4.45371072528645,1.359786,-0.32711834,-0.6059783,42.37084,-48.833965,-39.24714,STN
14474231733000,0.90018,3.24781093195876,5.05811448446042,4.54536622840254,1.320996,-0.46975538,-0.5739079,42.24241,-48.937412,-39.190502,STN
14474236537000,0.904984,3.39140595876289,5.33225063472997,4.49750129519531,1.2626585,-0.6001751,-0.52442783,42.144306,-49.046734,-39.11816,STN
14474241514000,0.909961,3.54017208041237,5.61625888200132,4.44791266643337,1.1908818,-0.711658,-0.4700608,41.97552,-49.214592,-38.983402,STN
14474246560000,0.915007,3.5001472889243,5.83891902054781,4.35115450160359,1.1267409,-0.7449502,-0.42394048,41.819973,-49.390408,-38.83296,STN
14474251576000,0.920023,3.44273227442231,6.05422527497012,4.25067827618526,1.087951,-0.79045963,-0.41050145,41.70422,-49.56896,-38.668285,STN
14474256623000,0.92507,3.27758913611557,6.21880615553772,4.1801148070626,1.0668762,-0.82527894,-0.39370266,41.508507,-49.80708,-38.451847,STN
14474261552000,0.929999,3.1071089804073,6.37507973462079,4.11381679016854,1.0445796,-0.84604836,-0.38698313,41.320995,-50.042953,-38.232944,STN
14474266754000,0.935201,2.94513475750575,6.52320333400828,3.96874321824206,1.0305296,-0.9108001,-0.39522982,41.135094,-50.310417,-37.98295,STN
14474272359000,0.940806,2.77221888249425,6.68129786599172,3.80570834175794,1.0366384,-0.9593639,-0.4288274,40.949158,-50.571793,-37.73908,STN
14474276575000,0.945022,2.64106236722307,6.83855934992413,3.55049571843703,0.98624194,-0.9560041,-0.44318274,40.791058,-50.85097,-37.47247,STN
14474281490000,0.949937,2.48800577249079,7.02732901868632,3.23417881636679,0.97310835,-0.9016371,-0.47067168,40.63217,-51.118797,-37.22123,STN
14474286569000,0.955016,2.3204692449475,7.22811068810327,2.88125441418938,0.9297369,-0.7703011,-0.49357912,40.44159,-51.392925,-36.97069,STN
14474291518000,0.959965,2.15610728655236,7.42443204993739,2.53426787217994,0.87017757,-0.59803706,-0.5131268,40.21653,-51.656292,-36.734436,STN
14474296601000,0.965048,1.97836156751796,7.54016479373504,2.2153530735834,0.8191703,-0.3915646,-0.528093,39.875443,-51.920834,-36.524895,STN
14474301550000,0.969997,1.80341757729449,7.63472930225459,1.91274739676776,0.7715228,-0.1695151,-0.5320636,39.46833,-52.177727,-36.32819,STN
14474306615000,0.975062,1.62294850241741,7.61166316551168,1.74532478477035,0.7489208,0.049785517,-0.52564955,38.903408,-52.43011,-36.170383,STN
14474311499000,0.979946,1.44863294411765,7.56455057058824,1.61341024705882,0.74220127,0.24556783,-0.5131268,38.270588,-52.680847,-36.01819,STN
14474316588000,0.985035,1.29800915112908,7.46857111864708,1.69717238490287,0.75686204,0.38515055,-0.52687126,37.51692,-52.9079,-35.911873,STN
14474321549000,0.989996,1.15745924162311,7.36550139047431,1.82366726921408,0.7669413,0.50610185,-0.52106804,36.703545,-53.144325,-35.79599,STN
14474326597000,0.995044,1.05672234989136,7.21030930354568,2.12238685232593,0.7510588,0.5674938,-0.5305365,35.876656,-53.349716,-35.7097,STN
14474331566000,1.000013,0.967422990864198,7.0458103254321,2.45608442740741,0.7128797,0.58368176,-0.5537493,35.0287,-53.55411,-35.61783,STN
14474336583000,1.00503,0.918298840437185,6.91708184480411,2.85613212464226,0.66339964,0.5705481,-0.57848936,34.29448,-53.75596,-35.509724,STN
14474341803000,1.01025,0.878831019554919,6.79374503655383,3.29027818010461,0.5864306,0.537256,-0.61758476,33.565964,-53.945206,-35.403988,STN
14474346593000,1.01504,0.880612787894133,6.81641937278487,3.52248413806127,0.51343226,0.50854534,-0.65270954,32.97825,-54.115253,-35.29055,STN
14474351628000,1.020075,0.892641135117741,6.87656102098384,3.72215456883856,0.44868052,0.4578435,-0.67256266,32.41136,-54.27744,-35.17681,STN
14474356550000,1.024997,0.904399531351028,6.93535291620435,3.91734381616444,0.42332962,0.39950588,-0.7098254,31.975,-54.407978,-35.0737,STN
14474361566000,1.030013,0.916382488585113,6.99526761478747,4.11626077361804,0.4147775,0.3182608,-0.7415904,31.564102,-54.53462,-34.9691,STN
14474366559000,1.035006,0.954074082548208,7.19318935065598,4.24793050270318,0.41233405,0.21288654,-0.768163,31.184061,-54.653538,-34.86903,STN
14474371543000,1.03999,1.0003044895571,7.43694965059435,4.35720254137536,0.41722095,0.07696902,-0.7910705,30.842857,-54.766716,-34.770794,STN
14474376556000,1.045003,1.06025818863259,7.79313226745636,4.46229445220283,0.42302418,-0.06658431,-0.7840455,30.600906,-54.894077,-34.64203,STN
14474381595000,1.050042,1.13547259384871,8.27450441895262,4.56258018620116,0.42455134,-0.21471913,-0.7632761,30.406137,-55.02003,-34.510548,STN
14474386579000,1.055026,1.23677762125704,8.96126947811049,4.71694783239451,0.46883908,-0.3753767,-0.713796,30.245073,-55.193897,-34.328014,STN
14474391638000,1.060085,1.36126381781797,9.82788432730507,4.91804095760451,0.49510628,-0.50793445,-0.63071835,30.120667,-55.38181,-34.12716,STN
14474396598000,1.065045,1.49711500045104,10.9078824700812,5.01381494457252,0.4978552,-0.61453044,-0.535118,29.997124,-55.649864,-33.84316,STN
14474401578000,1.070025,1.64530251994588,12.1889883435903,5.0233753266513,0.4783075,-0.6753115,-0.45478916,29.897112,-55.9333,-33.541367,STN
14474406647000,1.075094,1.80764275771237,13.4128546418939,4.98631484774092,0.4202753,-0.6969972,-0.37782016,29.72886,-56.33967,-33.115414,STN
14474411681000,1.080128,1.97848112861502,14.5612681627129,4.91038677649375,0.4111123,-0.79534656,-0.30634892,29.600761,-56.758457,-32.67436,STN
14474416553000,1.085,2.20321322859542,15.5044925244962,5.06370924023113,0.4007276,-0.9877691,-0.21135938,29.360043,-57.349598,-32.065907,STN
14474421546000,1.089993,2.49132437072303,16.3074255148163,5.44155994026077,0.34238997,-1.2342533,-0.076358154,29.166513,-57.947662,-31.443094,STN
14474426552000,1.094999,2.71307223045934,16.6891351266717,4.87401887992358,0.32345316,-1.4987578,0.06352998,28.891205,-58.685238,-30.691402,STN
14474431554000,1.100001,2.86029522934629,16.601596179583,3.25854455750478,0.39675698,-1.8387043,0.19517145,28.72331,-59.425697,-29.928837,STN
14474436588000,1.105035,2.93595431258914,16.4833902767433,1.66809453961965,0.5027421,-2.233018,0.3005457,28.6235,-60.262543,-29.054346,STN
14474441574000,1.110021,2.10827579390848,15.9915136725436,0.532992525990491,0.5198463,-2.5836546,0.41233405,28.618572,-61.093864,-28.17506,STN
14474446668000,1.115115,1.24990710111732,15.4932405083799,-0.59830967877095,0.49754974,-2.7043004,0.5012149,28.17547,-61.917416,-27.406115,STN
14474451552000,1.119999,0.263582628601778,15.0700041898655,-1.3196514227634,0.5012149,-2.69697,0.52503866,27.830786,-62.711758,-26.65776,STN
14474456603000,1.12505,-0.756467516909277,14.6322960316311,-2.06565821000866,0.5348125,-2.3051,0.5305365,27.498732,-63.414253,-26.023722,STN
14474461594000,1.130041,-1.49593700638463,13.7869255573452,-2.51614286739763,0.6554584,-1.625207,0.45234573,27.102507,-64.06582,-25.447435,STN
14474466717000,1.135164,-1.99579223228217,12.5206254396468,-2.70180335004852,0.79626286,-0.83108217,0.25167647,26.575354,-64.65143,-24.944862,STN
14474471543000,1.13999,-1.98472720944027,11.4942278482665,-3.09326248120301,0.73792523,-0.029321533,-0.008552114,25.932686,-64.99282,-24.703283,STN
14474476559000,1.145006,-1.38275650467836,10.6314030387427,-3.76546305263158,0.44318274,0.68661255,-0.14844026,25.096077,-65.2809,-24.50659,STN
14474481495000,1.149942,-0.706917247965066,10.1695169787773,-4.12956330243668,0.15943582,1.1548407,-0.19333886,24.19444,-65.35526,-24.51245,STN
14474486536000,1.154983,0.0604500997030568,10.055677110393,-4.22653845028821,0.053145275,1.3347405,-0.19058995,23.179241,-65.38752,-24.541637,STN
14474491524000,1.159971,0.832313653963725,10.2343355832484,-3.88097425112085,0.11911872,1.2748758,-0.15485434,22.238096,-65.5254,-24.444832,STN
14474496554000,1.165001,1.65202160220094,11.3730913984104,-2.07958014098227,0.25686884,0.999681,-0.116980694,21.321617,-65.65151,-24.341745,STN
14474501540000,1.169987,2.37179345533852,12.6697049040394,-0.409032989226247,0.37965274,0.7012733,-0.09101892,20.448423,-114.076904,-24.076864,STN
14474506567000,1.175014,2.85111957369619,14.4226692827612,0.969600439162716,0.49754974,0.5381723,-0.07238753,19.63383,-113.81091,-23.801516,STN
14474511545000,1.179992,3.36007928532101,16.0222904264041,2.32358669029438,0.52534413,0.48349985,-0.079107046,18.757486,-113.47226,-23.445396,STN
14474516554000,1.185001,4.04447315243645,16.9476680736461,3.62971864370542,0.3717115,0.3295618,-0.12980886,17.976107,-113.14835,-23.098888,STN
14474521559000,1.190006,4.65824213903178,17.6749332682641,4.70471865861125,0.022907447,0.018020526,-0.06627888,17.08295,-112.73198,-22.666164,STN
14474527369000,1.195816,4.99562687868949,17.4627071792665,4.7210437074132,-0.37965274,-0.19272798,0.07391469,16.224222,-112.30814,-22.229595,STN
14474531548000,1.199995,5.07927605063846,17.1400527272727,4.56511262003049,-0.7272351,-0.18234327,0.1554652,15.549019,-111.703,-21.634478,STN
14474536530000,1.204977,4.16086979710311,15.6669659090909,3.30571405538403,-0.9691377,0.016187929,0.23457226,14.885967,-111.07451,-21.020966,STN
14474541635000,1.210082,3.20834111805495,14.1271098462214,1.96116487016589,-1.1523973,0.31612277,0.23793201,14.131086,-110.45037,-20.412472,STN
14474546556000,1.215003,2.0749324070043,12.0712553010621,-0.351154330290529,-1.2070698,0.45998153,0.21197024,13.368693,-109.83131,-19.807486,STN
14474551546000,1.219993,0.925631559992978,9.98657450847012,-2.69589580768893,-1.16492,0.6105598,0.13591751,12.476061,-109.433655,-19.413942,STN
14474556567000,1.225014,0.709500110620201,9.29646967552668,-2.85028694132703,-0.95203346,0.5357288,0.029932396,11.617128,-109.05649,-19.039564,STN
14474561499000,1.229946,0.79784659255759,9.06862856034653,-2.29695917074227,-0.6133087,0.3213151,-0.07391469,10.764556,-108.704094,-18.68786,STN
14474566547000,1.234994,0.836193120458766,9.05569605752776,-1.59435445471509,-0.29016098,0.11881329,-0.13164146,10.231682,-108.52473,-18.50022,STN
14474571527000,1.239974,0.853557953446204,9.12949670198434,-0.847666849308211,-0.05009095,-0.074830994,-0.16646078,9.765873,-108.375694,-18.337929,STN
14474576563000,1.24501,0.690766003209958,9.31406729511955,-0.411125132967573,0.12492194,-0.27947086,-0.1908954,9.349213,-108.26485,-18.210342,STN
14474581553000,1.25,0.367273003974233,9.59581950824326,-0.265031509864614,0.25259277,-0.45265114,-0.23335053,8.984963,-108.17667,-18.099016,STN
14474586583000,1.25503,0.146396664200609,9.88946246599274,-0.213685257566003,0.36651915,-0.5684101,-0.29901853,8.547015,-108.16363,-18.058044,STN
14474591586000,1.260033,-0.0275921792168024,10.185713326136,-0.204280457209736,0.4822781,-0.6059783,-0.37293324,8.143912,-108.170105,-18.029953,STN
14474597366000,1.265813,0.0739738941587808,10.50815863333,-0.208925872856858,0.5934556,-0.58032197,-0.44135013,7.7175617,-108.25401,-18.070833,STN
14474601616000,1.270063,0.240201465630043,10.7392555055284,-0.217034533331009,0.6826419,-0.5537493,-0.50976706,7.3108287,-108.3623,-18.128895,STN
14474606694000,1.275141,0.671202799555731,11.0681324047784,-0.329050156160529,0.76144356,-0.54244834,-0.5687156,6.963698,-108.482056,-18.194298,STN
14474611672000,1.280119,1.2077573232639,11.4164223595617,-0.489075212740646,0.8750645,-0.4978552,-0.61300325,6.604581,-108.623215,-18.270193,STN
14474616587000,1.285034,1.82387853297788,11.6085157160348,-0.462531032306477,0.977079,-0.4550946,-0.6123924,6.1986027,-108.74674,-18.31611,STN
14474621590000,1.290037,2.50037191270735,11.7173225684242,-0.330070778376777,1.0598512,-0.45570546,-0.5879578,5.8010798,-108.88161,-18.363047,STN
14474626597000,1.295044,3.11047144967242,11.6278180083383,-0.130824088058368,1.1151345,-0.51159966,-0.5497787,5.433658,-108.89923,-18.28201,STN
14474631591000,1.300038,3.67542709378598,11.4094318854477,0.111299720468533,1.1563679,-0.600786,-0.48838675,5.0842996,-108.91357,-18.187462,STN
14474636575000,1.305022,4.11139385792283,11.1698164730073,0.306571784093971,1.1643091,-0.70341134,-0.42302418,4.780723,-108.79436,-17.958242,STN
14474641626000,1.310073,4.46268567086359,10.9116378496806,0.4716365946627,1.1701124,-0.75655663,-0.34330627,4.495893,-108.666756,-17.711687,STN
14474646597000,1.315044,4.6571948804028,10.6325941857456,0.577318178545862,1.1386528,-0.829555,-0.29871312,4.2711577,-108.44253,-17.376623,STN
14474651596000,1.320043,4.50981958206198,10.2953799974956,0.554837209188146,1.1227703,-0.84788096,-0.20891592,4.0530863,-108.19738,-17.011154,STN
14474656619000,1.325066,4.36173674078055,9.95654685735156,0.532248309591464,1.0732902,-0.8060367,-0.13836098,3.860506,-107.88609,-16.587292,STN
14474661579000,1.330026,4.21551119971825,9.62196346592925,0.509942726872065,1.0027353,-0.745561,-0.09590584,3.6721754,-107.56547,-16.151623,STN
14474666763000,1.33521,3.96588993238378,9.29258836508214,0.472617585911395,0.94714653,-0.66920286,-0.06261369,3.4709387,-107.23651,-15.702603,STN
14474671601000,1.340048,3.63795055821391,9.00513490020972,0.424033949401433,0.8775079,-0.57757306,-0.05467244,3.2500126,-106.90455,-15.252229,STN
14474676564000,1.345011,3.29454198706932,8.71730852655047,0.386503917900284,0.80756384,-0.48380527,-0.06627888,3.0291831,-106.640175,-14.868744,STN
14474681594000,1.350041,2.91377944856101,8.45858516518038,0.406030206631536,0.72356987,-0.37782016,-0.0842994,2.7787848,-106.37161,-14.48394,STN
14474686585000,1.355032,2.55900331962571,8.20752664226925,0.441813960945522,0.64812803,-0.27305678,-0.10598512,2.493482,-106.19337,-14.188384,STN
14474691677000,1.360124,2.28665261560847,7.97340091269841,0.542153666957672,0.56779927,-0.1994475,-0.13561209,2.1862504,-106.01265,-13.898246,STN
14474696579000,1.365026,2.04171382131066,7.75590566333167,0.657273635127564,0.48624873,-0.118507855,-0.16279559,1.8245137,-105.91321,-13.698504,STN
14474701596000,1.370043,1.87827286145073,7.57323616628314,0.86878552133967,0.4382958,-0.06505715,-0.2049453,1.4496949,-105.81728,-13.508528,STN
14474706632000,1.375079,1.72952403481504,7.38838810898966,1.07919076190334,0.37965274,-0.05131268,-0.23762658,1.0179145,-105.788666,-13.402582,STN
14474711623000,1.38007,1.65347337452267,7.1982615823389,1.27882376378282,0.3210097,-0.073303826,-0.2666427,0.58455026,-105.75749,-13.303255,STN
14474716563000,1.38501,1.58328192599743,7.03176637055737,1.46693913288783,0.27488935,-0.11362094,-0.29718593,0.11681263,-105.768974,-13.268965,STN
14474721596000,1.390043,1.540335602574,6.98404828878329,1.60532161985942,0.25228736,-0.14569137,-0.32375857,359.65973,-105.773926,-13.236537,STN
14474726566000,1.395013,1.51798180695103,6.94263025013165,1.73214628004213,0.21197024,-0.14996742,-0.33475417,359.28693,-105.742424,-13.197932,STN
14474731592000,1.400039,1.62781671321748,6.93840574583114,1.79551256533263,0.15577064,-0.1554652,-0.32711834,358.92645,-105.702126,-13.158782,STN
14474736879000,1.405326,1.74335534223275,6.9339618631736,1.86216945954889,0.10140363,-0.16249016,-0.28771752,358.60788,-105.63035,-13.107024,STN
14474741608000,1.410055,1.86953259847328,6.90211426499455,1.6155269031843,0.04520403,-0.17165314,-0.2443461,358.2932,-105.543434,-13.048757,STN
14474746846000,1.415293,2.01339874285438,6.86378317034349,1.30992282091921,0.02107485,-0.24587326,-0.19394971,358.0024,-105.43895,-12.977044,STN
14474751612000,1.420059,2.16355490467344,6.82845228432511,1.04052493608128,0.00580322,-0.2751948,-0.160963,357.68234,-105.3024,-12.877691,STN
14474757009000,1.425456,2.33276080035563,6.78957001620073,0.758763477417762,0.00580322,-0.36896262,-0.058643065,357.3048,-105.19011,-12.761909,STN
14474761680000,1.430127,2.46091106732194,6.78073212244394,1.0283208750568,0.032986723,-0.49021935,-0.022296581,356.94708,-105.08281,-12.653299,STN
14474766532000,1.434979,2.59402712283908,6.77155176266917,1.30832354971846,0.029321533,-0.60994893,0.044593163,356.6898,-104.88968,-12.445817,STN
14474771608000,1.440055,2.56891358910295,6.82476924894642,1.97428094051776,-0.01863139,-0.7104363,0.105068825,356.46338,-104.68604,-12.233566,STN
14474776506000,1.444953,2.53125978406582,6.88124983363436,2.64734226937588,-0.13622294,-0.7315111,0.13530666,356.2496,-104.46193,-12.012639,STN
14474781591000,1.450038,2.32477744246656,6.99189786495869,2.98821332302321,-0.28985557,-0.6096435,0.16890424,356.0014,-104.17698,-11.754734,STN
14474786519000,1.454966,2.11126970997246,7.10329339540716,3.28990913734264,-0.4550946,-0.41233405,0.17715092,355.7359,-103.87107,-11.493663,STN
14474791659000,1.460106,1.81413485471131,7.10232842294507,3.37169550898156,-0.6404922,-0.24220806,0.15332718,355.45825,-103.48904,-11.227839,STN
14474796490000,1.464937,1.52659824803528,7.08841523011227,3.42271001668003,-0.82772243,-0.112399206,0.09865474,355.1312,-103.08892,-10.961875,STN
14474801622000,1.470069,1.26202365351189,6.9668587239683,3.12855090112052,-1.0051788,-0.067500606,0.029626964,354.86716,-102.63806,-10.707288,STN
14474806644000,1.475091,1.00790196684887,6.83541655506969,2.79994525012298,-1.1154399,-0.0693332,-0.061086524,354.57214,-102.196365,-10.471487,STN
14474811602000,1.480049,0.763874344470925,6.54483092405466,2.24085711827137,-1.1737776,-0.07941248,-0.1591304,354.32526,-101.789505,-10.293594,STN
14474816531000,1.484978,0.52387903207817,6.19483746647601,1.59586966727042,-1.1792754,-0.0842994,-0.23182335,354.07153,-101.406006,-10.133983,STN
14474821596000,1.490043,0.426998397688428,5.82551045110675,1.03787466657327,-1.1450669,-0.09040806,-0.30176744,353.8482,-101.13018,-10.055335,STN
14474826573000,1.49502,0.364675355018212,5.46047569341552,0.512580527475483,-1.0769554,-0.110872045,-0.35979962,353.6264,-100.88868,-9.993218,STN
14474831596000,1.500043,0.454635704653037,5.34062671244348,0.205810977215451,-1.0005972,-0.13255776,-0.41172317,353.3947,-100.786766,-10.016668,STN
14474836593000,1.50504,0.614561050202477,5.33592302956556,0.00355247103007665,-0.91599244,-0.12858713,-0.45081854,353.1596,-100.71281,-10.05028,STN
14474841671000,1.510118,0.857544812204498,5.57361127318855,0.0833106691447242,-0.820392,-0.12308934,-0.4792238,352.85822,-100.76285,-10.150358,STN
14474846592000,1.515039,1.13380613924659,5.92686331456852,0.305225509729963,-0.7861836,-0.08032878,-0.48655418,352.54727,-100.81855,-10.250113,STN
14474852511000,1.520958,1.49137002727273,6.33201036363636,0.604209450909091,-0.7156286,-0.024740042,-0.47739118,352.1195,-100.91996,-10.351206,STN
14474856666000,1.525113,1.75250022892299,6.60850131398379,0.826938149722061,-0.64721173,-0.025350908,-0.4541783,351.70554,-101.01421,-10.442835,STN
14474861640000,1.530087,2.0894430998487,6.97160239676215,1.04338801697599,-0.5852089,-0.105068825,-0.44593164,351.27875,-101.02482,-10.459462,STN
14474866722000,1.535169,2.45762948889449,7.37415272234214,1.21520836603793,-0.5448918,-0.21991149,-0.4202753,350.87164,-101.02152,-10.458577,STN
14474871590000,1.540037,2.76721019742781,7.7599288847344,1.41662186923229,-0.5128214,-0.35155296,-0.3817908,350.48013,-100.91575,-10.36694,STN
14474876568000,1.545015,3.04440811846851,8.15458395941658,1.65623360903715,-0.48563787,-0.49021935,-0.32436943,350.1303,-100.797066,-10.260891,STN
14474881588000,1.550035,3.24715136021032,8.53709969924887,1.75341025048573,-0.4636467,-0.6020077,-0.25595254,349.81775,-100.55598,-10.045086,STN
14474886578000,1.555025,3.3668014652679,8.90083546690035,1.69597817407111,-0.44959682,-0.66706485,-0.18051068,349.53476,-100.30029,-9.813176,STN
14474891646000,1.560093,3.43293808550186,9.1550085144052,1.51313993424721,-0.45631635,-0.659429,-0.1151481,349.23303,-99.95163,-9.498957,STN
14474896591000,1.565038,3.44174055315985,9.28704598884758,1.20945457026022,-0.4654793,-0.5186246,-0.041233405,348.91364,-99.58628,-9.164163,STN
14474901579000,1.570026,3.45644913445332,9.34929770476453,0.979168481327458,-0.46792278,-0.36468655,0.0061086523,348.59705,-99.17556,-8.786579,STN
14474906705000,1.575152,3.48348889033324,9.2681781547783,0.898049166629946,-0.46517387,-0.23915374,0.03634648,348.2502,-98.75691,-8.398429,STN
14474911600000,1.580047,3.51837909301876,9.1878317940437,0.844238772384452,-0.46089783,-0.1957823,0.053145275,347.9176,-98.33483,-7.998371,STN
14474916593000,1.58504,3.60160345211758,9.09073672452137,0.913592372780893,-0.48441613,-0.21533,0.055588737,347.57,-97.91472,-7.6010985,STN
14474922433000,1.59088,3.68356001793484,8.99491851314106,1.00837865859829,-0.48716503,-0.22724187,0.055588737,347.23196,-97.49165,-7.2013965,STN
14474926598000,1.595045,3.70319156237819,8.97136057781278,1.11046277169997,-0.50335294,-0.21746802,0.063224554,346.89624,-97.07124,-6.806678,STN
14474931686000,1.600133,3.71709906126073,8.95229584906777,1.22475146549275,-0.5494733,-0.18203785,0.07941248,346.56085,-96.63304,-6.400253,STN
14474936591000,1.605038,3.6105184483575,9.04960859100325,1.21084965904114,-0.64721173,-0.15851954,0.11148291,346.22876,-96.19206,-5.994757,STN
14474941826000,1.610273,3.4900920568981,9.1703935250523,1.20076410852675,-0.7076874,-0.025350908,0.1591304,345.84656,-95.74333,-5.583971,STN
14474946593000,1.61504,3.30364347573463,9.47507837902181,1.2462394081283,-0.890947,0.032070424,0.17928895,345.48163,-95.29035,-5.179923,STN
14474951856000,1.620303,3.10887881170174,9.82756685894412,1.32935538425254,-0.93767816,0.16249016,0.24190263,345.06204,-94.851036,-4.7778893,STN
14474956670000,1.625117,3.0628763779209,10.3419569948295,1.79774326103048,-1.0198395,0.25228736,0.3042109,344.63998,-94.4115,-4.3776364,STN
14474961606000,1.630053,3.01570811594702,10.8693831914913,2.27800137481858,-1.1136073,0.29871312,0.37690386,344.17435,-94.01231,-4.004503,STN
14474966591000,1.635038,3.11632321478122,11.5387754089505,2.73209128294628,-1.2293663,0.33017266,0.46181414,343.6911,-86.382515,-3.6168213,STN
14474971522000,1.639969,3.24811331898734,12.2306738860759,3.17452952151899,-1.3860532,0.3539964,0.5751296,343.2002,-86.76491,-3.207515,STN
14474976575000,1.645022,3.45290306482244,12.861731707763,3.9133195084809,-1.5812247,0.3118467,0.7141015,342.63223,-87.07872,-2.7926435,STN
14474981547000,1.649994,3.67168001223318,13.4633679799943,4.71094372056093,-1.7950275,0.14966199,0.8762862,342.09637,-87.3009,-2.3451626,STN
14474986578000,1.655025,3.77780578590701,14.0587424851598,5.20231015495019,-2.0390682,-0.02107485,1.0479393,341.59543,-87.3328,-1.8191534,STN
14474991597000,1.660044,3.83766387164799,14.647346283105,5.56644657409714,-2.254398,-0.0720821,1.2431108,341.10428,-87.11159,-1.2532346,STN
14474996602000,1.665049,3.52534175727012,15.1334807342374,5.35394135096506,-2.4550674,0.0036651916,1.4086553,340.63403,-86.50502,-0.59875286,STN
14475001593000,1.67004,3.1184710208057,15.5923928840938,4.99438117444323,-2.6251934,0.18417588,1.541213,340.13992,-85.68682,0.07924729,STN
14475006668000,1.675115,2.9159478774316,15.9905805220524,4.60767483777626,-2.8112018,0.41783184,1.643533,339.60733,-84.671616,0.78448796,STN
14475011681000,1.680128,2.77572239261026,16.3645148879369,4.21971749390517,-2.9975157,0.6215554,1.7256943,339.0228,-83.57363,1.4923525,STN
14475016601000,1.685048,3.02275570622717,16.8787543279766,4.10541386552228,-3.1523702,0.6936375,1.8277088,338.44797,-82.49183,2.1371992,STN
14475021587000,1.690034,3.41514949021183,17.4542658363769,4.08797415595325,-3.2983668,0.58001655,1.9376645,337.85953,-81.367424,2.785644,STN
14475026596000,1.695043,3.79310898322458,17.9803063137234,4.19719311560724,-3.3970215,0.30573806,2.0650299,337.30707,-80.29103,3.4194295,STN
14475031592000,1.700039,4.15565296125026,18.4586630609345,4.41874773379289,-3.3631186,0.0021380284,2.2339342,336.78326,-79.21526,4.0830116,STN
14475036589000,1.705036,4.12499466071614,18.7831553508044,4.18899551437468,-3.2217033,-0.1142318,2.399784,336.23203,-78.156456,4.8042507,STN
14475041640000,1.710087,3.85890840010379,19.0191180450441,3.68694624498184,-3.1126637,-0.22052236,2.4712553,335.75455,-77.108154,5.5373874,STN
14475046581000,1.715028,3.23073276902638,19.1645205760279,2.91336819647013,-2.8145616,-0.12217305,2.5961773,335.21326,-76.10578,6.3343863,STN
14475051660000,1.720107,2.42886101737781,19.2777263242824,1.99829099208689,-2.4630086,0.0693332,2.6575692,334.67004,-75.158424,7.1079936,STN
14475056626000,1.725073,1.45003834641439,18.9080920348098,1.38305308741566,-2.1169536,0.29443705,2.6096163,334.12408,-74.364845,7.816152,STN
14475061938000,1.730385,0.291030246399922,18.236563195463,0.885624723437958,-1.8075503,0.5702427,2.4016168,333.51736,-73.66955,8.459638,STN
14475066519000,1.734966,-0.239742452497348,17.5983473341047,1.39372043566676,-1.57084,0.75686204,2.1529946,332.97507,-73.19418,8.961533,STN
14475071598000,1.740045,-0.5258360658841,16.8526276034134,2.56154517532543,-1.4382823,0.7706065,1.9339994,332.4228,-72.793076,9.396033,STN
14475076524000,1.744971,-0.194262881712963,16.2331524050926,3.78549902800926,-1.4080443,0.634689,1.7687603,331.9411,-72.53758,9.668526,STN
14475081568000,1.750015,0.735860324389731,15.6994760822811,5.12731612527357,-1.4385877,0.36163223,1.6502525,331.51584,-72.323235,9.899764,STN
14475086576000,1.755023,1.86253934905494,15.2470065170894,5.56568171738321,-1.4147639,0.12767084,1.597718,331.1795,-71.97833,10.121465,STN
14475091567000,1.760014,3.11237030913721,14.8444389383998,5.44397512416022,-1.3041973,0.021380283,1.6392568,330.88577,-71.65632,10.342906,STN
14475096580000,1.765027,4.08519222741071,14.2488776473214,4.86257215392857,-1.1612549,0.074830994,1.6722436,330.5477,-71.15619,10.660051,STN
14475101587000,1.770034,4.84632045410714,13.5115348065476,3.93970436595238,-1.0091494,0.24190263,1.6542231,330.20602,-70.69477,10.966354,STN
14475106585000,1.775032,5.03615676717828,11.8410486942149,3.00167870543093,-0.86315256,0.4578435,1.5769486,329.739093495214,-70.2200682690176,11.3650629664484,STN
14475111512000,1.779959,4.7808269170307,9.46880338498623,2.06392241732586,-0.7623598,0.65393126,1.4682146,329.2788,-69.75211,11.758108,STN
14475116496000,1.784943,4.36371560283921,7.72982640964921,1.65444285691801,-0.6914995,0.782213,1.3197744,328.8039,-69.34587,12.181194,STN
14475121481000,1.789928,3.79403302326921,6.62483913560333,1.76248612952371,-0.63041294,0.8188649,1.1597277,328.31265,-68.983986,12.55564,STN
14475126496000,1.794943,3.23070155942145,5.76940391776559,1.93132908639401,-0.5729916,0.81489426,1.0064005,327.89066,-68.63007,12.927416,STN
14475131501000,1.799948,2.67607796371072,5.11437413088279,2.14648482519701,-0.52534413,0.81336707,0.86284715,327.47214,-68.31522,13.252353,STN
14475136483000,1.80493,2.25826591343697,4.77918981310031,2.31753412322012,-0.48533243,0.7791586,0.79351395,327.04306,-68.01041,13.526919,STN
14475141502000,1.809949,1.94414017656204,4.69351907626498,2.45555900872364,-0.3894266,0.72509706,0.6792821,326.6382,-67.763145,13.751254,STN
14475146493000,1.81494,1.65184873961749,4.67195752868852,2.53129251905738,-0.28955013,0.6768387,0.5867361,326.17944,-67.54582,13.9135,STN
14475151490000,1.819937,1.3763351852459,4.70464574941452,2.55464106007026,-0.16126843,0.61941737,0.5149594,325.75217,-67.37227,14.05705,STN
14475156518000,1.824965,1.05861265077203,4.73808985709961,2.48057546376022,-0.015882496,0.5497787,0.4474588,325.38837,-67.22709,14.155919,STN
14475161499000,1.829946,0.70237554211323,4.77178788793016,2.30727104668483,0.11209377,0.46853364,0.39828414,325.05225,-67.1156,14.2473345,STN
14475166495000,1.834942,0.327613699802761,4.73322818717949,2.0970751408284,0.25167647,0.39522982,0.34972036,324.781,-67.05861,14.298531,STN
14475171510000,1.839957,-0.0655123480276134,4.62428952820513,1.85077929171598,0.3921755,0.3378085,0.31887165,324.53317,-67.035,14.34745,STN
14475176443000,1.84489,-0.442864638100719,4.40852146182254,1.62460486871942,0.51251596,0.2910773,0.30024028,324.3506,-67.08713,14.350492,STN
14475181565000,1.850012,-0.823991257841727,4.0603318323741,1.40816256172662,0.6423248,0.2669481,0.2593123,324.18494,-67.18083,14.342054,STN
14475186534000,1.854981,-1.09558162498262,3.68134224728428,1.23158239501539,0.7461719,0.2602286,0.20922135,324.0705,-67.35252,14.282145,STN
14475191664000,1.860111,-1.22729482069308,3.22766340546123,1.09986925024327,0.8381071,0.2648101,0.12980886,323.96884,-67.5617,14.203454,STN
14475196488000,1.864935,-1.24152410994181,2.86309300958674,1.0121756106618,0.9263771,0.26053402,0.050396383,323.9024,-67.839455,14.072268,STN
14475201610000,1.870057,-1.0770323353092,2.57765156261959,0.978309688263142,1.0051788,0.28802297,-0.029321533,323.83633,-68.148994,13.914952,STN
14475206518000,1.874965,-0.888857501007806,2.32087737316471,0.95260511017686,1.0555751,0.30848694,-0.10903945,323.78766,-68.48298,13.734076,STN
14475211558000,1.880005,-0.640869208546586,2.08719606262227,0.938298078460627,1.1166617,0.31123585,-0.17470746,323.74567,-68.84764,13.533118,STN
14475216493000,1.88494,-0.391720588020059,1.82937045773235,0.942468831765212,1.1603385,0.33444872,-0.24037547,323.68896,-69.20133,13.340796,STN
14475221533000,1.88998,-0.124312792417805,1.50663690533957,0.983963138766835,1.2226468,0.33964106,-0.31398472,323.64584,-69.58445,13.12877,STN
14475226512000,1.894959,0.113612728413557,1.17322844936568,1.05319687542365,1.2858714,0.33841935,-0.3933972,323.5878,-69.948135,12.943286,STN
14475231553000,1.9,0.270079424150755,0.788767404694879,1.21413407971108,1.3610078,0.32925636,-0.47983465,323.53928,-70.3405,12.73581,STN
14475236563000,1.90501,0.417936700126948,0.415179153814195,1.3742193102135,1.398576,0.27366763,-0.5299256,323.4812,-70.6837,12.579175,STN
14475241584000,1.910031,0.48730362593191,0.128462568681477,1.53607543179458,1.4795157,0.19181168,-0.6560693,323.447,-71.07952,12.380976,STN
14475246812000,1.915259,0.55297707366985,-0.153504212957513,1.69647131335022,1.5567901,0.08277224,-0.81245077,323.40707,-71.425186,12.215975,STN
14475251578000,1.920025,0.512947095061391,-0.157951988874488,1.71871016971351,1.6050484,-0.04520403,-0.9477574,323.40503,-71.79714,12.03037,STN
14475256987000,1.925434,0.464567046385989,-0.158780170912765,1.73928871256315,1.6300939,-0.16218472,-1.0833695,323.42645,-72.14916,11.839651,STN
14475261584000,1.930031,0.360770463676322,-0.0698116653646009,1.65773423204783,1.63437,-0.27275133,-1.2180653,323.49414,-72.527176,11.621654,STN
14475266730000,1.935177,0.244577900129673,0.0297819673416975,1.56644004959582,1.6111571,-0.35521814,-1.3417655,323.6014,-72.92372,11.370171,STN
14475271530000,1.939977,0.085793083400756,0.294864688640311,1.43665793579528,1.5903877,-0.40042216,-1.4395039,323.7384,-73.33778,11.094671,STN
14475276558000,1.945005,-0.115886304070896,0.693304462651956,1.2694116781183,1.568702,-0.3839288,-1.5189165,323.8894,-73.76249,10.7926855,STN
14475282239000,1.950686,-0.335890474500458,1.19068996455851,1.06232334390467,1.5748106,-0.34605515,-1.5735888,324.04297,-74.2619,10.436977,STN
14475286540000,1.954987,-0.499492064934311,1.58501172439149,0.898721740329973,1.5894713,-0.26939157,-1.6108516,324.18555,-74.76633,10.06161,STN
14475291560000,1.960007,-0.665989969964029,2.09948807482014,0.782703015017985,1.6526959,-0.2098322,-1.6392568,324.34555,-75.3736,9.609039,STN
14475296556000,1.965003,-0.81897389970024,2.6397126235012,0.70621105014988,1.7385225,-0.1600467,-1.6542231,324.48727,-75.989876,9.146055,STN
14475301562000,1.970009,-0.850587375060161,3.20736641506395,0.748631390853624,1.8383989,-0.100792766,-1.6508633,324.64804,-76.70262,8.615615,STN
14475306641000,1.975088,-0.818329281875888,3.79722862719091,0.854622282207484,1.9782871,-0.064751714,-1.6148223,324.79977,-77.43473,8.08934,STN
14475311651000,1.980098,-0.640720688761924,4.51720643768592,1.10835256520053,2.1426098,-0.07452556,-1.5961909,324.97855,-78.25421,7.504903,STN
14475316665000,1.985112,-0.350119771527336,5.34468050230793,1.47776048869628,2.3145685,-0.09682214,-1.5586227,325.14822,-79.08857,6.9365234,STN
14475321586000,1.990033,0.0876244589608114,6.29005212706316,1.85512235567543,2.4361305,-0.06872234,-1.4862351,325.3058,-79.937164,6.3794694,STN
14475326583000,1.99503,0.630381702696173,7.3358525780544,2.24784914153066,2.4397957,0.02076942,-1.4071281,325.45016,-80.77909,5.8368826,STN
14475331587000,2.000034,1.32051011602298,8.61186623204596,2.73798345268646,2.2870796,0.086437434,-1.3628404,325.5484,-81.528244,5.3617816,STN
14475336585000,2.005032,2.20152135920843,10.1854641184169,3.35418208154059,2.1587977,0.23793201,-1.2498302,325.591,-82.24349,4.928766,STN
14475341615000,2.010062,3.09335339120654,11.6397985506865,3.87732535302366,1.8671097,0.40286562,-1.1050552,325.5448,-82.7313,4.6471467,STN
14475346591000,2.015038,3.97970551117928,12.9762879942546,4.31818107256792,1.5903877,0.47158796,-0.95356065,325.4806,-83.15956,4.404915,STN
14475352210000,2.020657,4.88198460110839,14.0047382432565,4.43089687983325,1.3567317,0.41141775,-0.73761976,325.3112,-83.29821,4.402792,STN
14475356637000,2.025084,5.53072004704267,14.5120824306032,4.27703038301128,1.1325442,0.23457226,-0.66645396,325.15967,-83.37704,4.4013424,STN
14475361592000,2.030039,5.929452704531,14.5560477954094,3.93238436635533,1.103528,-0.021685716,-0.53023106,324.9604,-83.22399,4.655477,STN
14475366594000,2.035041,5.95325196605723,13.9943849251789,3.38500085423291,1.1224649,-0.33200526,-0.4034765,324.8327,-83.03915,4.911446,STN
14475371558000,2.040005,5.6757472430391,13.2064931987559,2.81194467218602,1.1826351,-0.5876524,-0.2874121,324.70117,-82.782906,5.3094316,STN
14475376565000,2.045012,5.01765090278436,12.1222913204976,2.19645885112559,1.2565498,-0.7861836,-0.21044308,324.6493,-82.531204,5.70566,STN
14475381579000,2.050026,3.94077573529881,10.7596376625498,1.8507884859761,1.3426818,-0.9056077,-0.1685988,324.64563,-82.332664,6.104647,STN
14475386567000,2.055014,2.2945494801992,9.02301155836653,1.87933574398406,1.4272866,-0.947452,-0.1432479,324.68164,-82.13324,6.498247,STN
14475391579000,2.060026,1.0174989367067,7.85929780808933,2.21011784415881,1.4633276,-0.8970556,-0.12614368,324.77682,-82.06911,6.774791,STN
14475396578000,2.065025,0.280968793294293,7.52667129459057,2.97040699660546,1.4727961,-0.77457714,-0.14202617,324.86487,-82.00199,7.03548,STN
14475401527000,2.069974,-0.38922581746779,7.24000176891408,3.67108980982273,1.4175128,-0.5925393,-0.20219639,325.0056,-82.16945,7.0134926,STN
14475406788000,2.075235,-1.00419542654267,7.00572775201007,4.32998595059576,1.2947289,-0.38240165,-0.28893927,325.10245,-82.33031,6.9741983,STN
14475411534000,2.079981,-1.44663108088235,6.89333598838742,4.81268365402637,1.135904,-0.24098633,-0.4092797,325.19028,-82.549576,6.8128495,STN
14475416591000,2.085038,-1.68730709705882,6.97683572606491,5.09756544083164,0.9654725,-0.17501289,-0.5684101,325.24057,-82.78246,6.6145773,STN
14475421750000,2.090197,-1.78485180526615,7.38508367776829,5.26424516789069,0.7892379,-0.20311269,-0.70921457,325.29388,-83.06742,6.3029003,STN
14475426562000,2.095009,-1.65367163538286,8.25087292684315,5.23363643723313,0.63407815,-0.24373524,-0.8142834,325.33447,-83.358894,5.958137,STN
14475431546000,2.099993,-1.43323080535731,9.2540766515341,4.99609225139944,0.4560109,-0.35796702,-0.84574294,325.41,-83.64959,5.5616393,STN
14475436532000,2.104979,-0.955593441752429,10.5813573326921,4.13267079878811,0.36835176,-0.39461896,-0.8924741,325.47845,-83.93994,5.135087,STN
14475441636000,2.110083,-0.463700276127267,11.8938815832405,3.34457529085014,0.23151793,-0.24465153,-0.87598073,325.5183,-84.1631,4.730737,STN
14475446553000,2.115,0.0229847226669369,12.9579086250887,3.00103288600669,0.1853976,0.03940081,-0.8029824,325.53085,-84.35302,4.334918,STN
14475451572000,2.120019,0.544755576893168,13.9972292166266,2.6554811948528,0.25259277,0.21899518,-0.70921457,325.52325,-84.56623,4.009401,STN
14475456574000,2.125021,1.16560782701352,14.8442490592483,2.33175112508795,0.3390302,0.13622294,-0.6243043,325.50797,-84.7435,3.7118378,STN
14475461805000,2.130252,1.82730648351007,15.6857024225875,1.87093529862142,0.38515055,-0.17806722,-0.5103779,325.47162,-84.88685,3.5316167,STN
14475466503000,2.13495,2.54774847016967,15.991054985684,0.215350134676564,0.39461896,-0.5476407,-0.37048978,325.47333,-85.01165,3.3923252,STN
14475471535000,2.139982,3.24722952291508,16.2313337943641,-1.47034078095963,0.4034765,-0.7593055,-0.18509217,325.4597,-85.09011,3.4110162,STN
14475476564000,2.145011,3.51774964986672,15.9562287265804,-2.63495300060929,0.42852196,-0.8029824,-0.009162978,325.50247,-85.14473,3.466812,STN
14475481678000,2.150125,3.77104527839041,15.6469891930239,-3.72830502855845,0.44135013,-0.73761976,0.16035213,325.5938,-85.23643,3.6430607,STN
14475486529000,2.154976,3.74150586540104,14.9886817462076,-3.63968670146244,0.46822822,-0.6435465,0.30787608,325.69034,-85.27427,3.850766,STN
14475491558000,2.160005,3.71088254898719,14.306218717958,-3.5478166608593,0.5421429,-0.593761,0.44043383,325.82626,-85.30399,4.111082,STN
14475496557000,2.165004,3.43633822205046,13.431923270424,-2.15394047814278,0.72051555,-0.5564982,0.5363397,325.94186,-85.264595,4.38963,STN
14475501923000,2.17037,3.08699485311027,12.4723244099906,-0.442685860155514,0.94134337,-0.5665775,0.5723807,326.06042,-85.156425,4.676334,STN
14475506578000,2.175025,2.6710265539114,11.9008931065033,0.46067960730443,1.0574077,-0.5177083,0.5580254,326.14713,-84.9707,4.97269,STN
14475511537000,2.179984,2.22789297803016,11.2921438403393,1.42304037059849,0.87781334,-0.26328292,0.54153204,326.1018,-84.721634,5.2589445,STN
14475516587000,2.185034,1.58688385400666,11.4000667689372,0.865610053297514,0.44440445,0.37782016,0.5021312,325.93362,-84.471115,5.524737,STN
14475521555000,2.190002,0.925696127688393,11.6235669662361,0.0693910785987473,-0.02107485,1.2864822,0.47983465,325.6178,-84.216606,5.7830677,STN
14475526597000,2.195044,1.07220048606014,13.2366183670115,0.753406632732476,-0.2764165,1.6621643,0.4728097,325.2201,-84.01744,5.981907,STN
14475531491000,2.199938,1.38940268052596,15.099048213091,1.73673347816185,-0.30543262,2.1474967,0.4783075,324.53564,-83.82071,6.1754794,STN
14475536563000,2.20501,2.40071936243635,16.3258406584411,3.7934864527027,-0.2678644,2.165212,0.4089743,323.94394,-83.771614,6.2226067,STN
14475541565000,2.210012,3.63441877493145,17.2921602475519,6.18114045675676,-0.22785273,1.5992452,0.27672195,323.39322,-83.73544,6.256043,STN
14475546594000,2.215041,5.1181571310992,17.9233995799821,6.70966146514745,-0.2932153,0.5522222,0.18845193,322.96213,-83.65094,6.3265567,STN
14475551547000,2.219994,6.67715128310992,18.4085240691093,6.47887379651474,-0.63255095,-0.3463606,0.20189096,322.6576,-83.56018,6.3909497,STN
14475556605000,2.225052,6.60991119731035,17.7676577706404,5.2169376006798,-1.0308352,-0.70738196,0.33475417,322.35364,-83.18774,6.6729403,STN
14475561553000,2.23,5.8302589322069,16.6518686585222,3.54091901273892,-1.3747523,-0.61361414,0.5152648,322.17703,-82.757034,6.962914,STN
14475566591000,2.235038,4.51378980729045,14.9643277918129,1.95286111375244,-1.5549575,-0.29779682,0.6114761,321.9405,-82.1131,7.439375,STN
14475571624000,2.240071,2.93530816748538,13.0006219017544,0.42605587502924,-1.5980235,0.15088372,0.57635134,321.63742,-81.443726,7.901266,STN
14475576573000,2.24502,1.63562133293155,11.5373731032059,-1.09785407909887,-1.5858061,0.58551437,0.4636467,321.3319,-80.92233,8.251249,STN
14475581574000,2.250021,0.478280716907673,10.3477557144508,-2.65173362891114,-1.5485435,0.8054258,0.3203988,320.9616,-80.421974,8.564759,STN
14475586581000,2.255028,-0.00565391071813855,9.65528560200952,-3.67642419583289,-1.385137,0.75869465,0.1301143,320.66537,-80.214806,8.651492,STN
14475591620000,2.260067,0.0913205011136965,9.38988192501322,-4.24806279865679,-1.0433578,0.5656612,-0.016493361,320.3548,-80.0615,8.707303,STN
14475596592000,2.265039,0.573874912924995,9.2744557789432,-3.95424887288739,-0.59559363,0.24098633,-0.06780604,320.26892,-80.173645,8.594595,STN
14475601569000,2.270016,1.26246680236394,9.2367249380566,-3.20434395332476,-0.17531833,-0.18142697,-0.058643065,320.27032,-80.3513,8.465699,STN
14475607438000,2.275885,1.67023127041696,9.17329177904328,-2.38002282079826,0.1908954,-0.58276546,-0.03268129,320.40182,-80.60434,8.342243,STN
14475611594000,2.280041,1.82396478512429,9.12204706833713,-1.81633334919283,0.47403142,-0.9034697,-0.030848695,320.63092,-80.89862,8.220801,STN
14475616586000,2.285033,1.64462181619843,9.00933914744597,-1.51999448318271,0.72265357,-1.103528,-0.076052725,320.87195,-81.09281,8.1985445,STN
14475621595000,2.290042,1.22994801166994,8.86326086365422,-1.46816028836935,0.94897914,-1.146594,-0.1518,321.15952,-81.30636,8.16707,STN
14475626575000,2.295022,0.901530559649891,8.80922364014323,-1.4108311675552,1.1704178,-1.1304061,-0.19272798,321.42944,-81.464294,8.165849,STN
14475631594000,2.300041,0.633806666280088,8.82356627879451,-1.34868098141038,1.2651019,-1.0180069,-0.26053402,321.68396,-81.63453,8.129791,STN
14475636571000,2.305018,0.52511473842958,8.98650413040453,-1.07992803320743,1.3866642,-0.8491027,-0.31429017,321.91272,-81.854866,8.025613,STN
14475641714000,2.310161,0.539801226430772,9.27533820017891,-0.634438485030315,1.4575244,-0.6954701,-0.36163223,322.11404,-82.05949,7.899075,STN
14475646591000,2.315038,0.707732021737934,9.64608409946779,-0.319660425740503,1.4831808,-0.63591075,-0.43310347,322.2869,-82.289604,7.707321,STN
14475651602000,2.320049,1.00276676270875,10.1040484844926,-0.0818712420939622,1.4825699,-0.63713247,-0.50732356,322.43582,-97.50761,7.498426,STN
14475656678000,2.325125,1.4332466367868,10.5273484186193,0.0163330007155616,1.498147,-0.6899723,-0.57696223,322.5567,-97.330154,7.2737403,STN
14475661650000,2.330097,2.06365553921404,10.8775753254177,-0.113751372990438,1.5418239,-0.79259765,-0.59895337,322.6956,-97.18723,7.041268,STN
14475666709000,2.335156,2.87430650896268,11.282655444647,0.190214850296379,1.5946637,-0.93767816,-0.58184916,322.84692,-97.113594,6.8464055,STN
14475671591000,2.340038,3.83020829899358,11.7235554841113,0.931223964573263,1.6123788,-1.1215485,-0.5235115,323.04028,-97.08106,6.6560464,STN
14475677260000,2.345707,4.86263112222531,12.2032379240612,1.73442494609179,1.5851953,-1.2901474,-0.42485678,323.25073,-97.17491,6.562176,STN
14475681592000,2.350039,4.83570415732962,12.2301654111266,1.74596505668985,1.4837917,-1.3875804,-0.33108896,323.49277,-97.29914,6.4793587,STN
14475686507000,2.354954,4.80515336497914,12.2607167959203,1.75905823388039,1.3139712,-1.3435981,-0.23609942,323.64496,-97.54483,6.6154194,STN
14475691599000,2.360046,4.36753020770925,11.8940780704846,1.59221795110132,1.0943651,-1.1603385,-0.1853976,323.78326,-97.77623,6.759601,STN
14475696494000,2.364941,3.83247352874449,11.4294235770925,1.38101144339207,0.88789266,-0.915687,-0.16615535,323.8898,-97.99424,6.9171214,STN
14475701583000,2.37003,3.35210107998872,10.8169310194567,1.17182078675063,0.71593404,-0.6835582,-0.1957823,323.94498,-98.17368,7.0662723,STN
14475706545000,2.374992,2.90544146598364,10.1826741782122,0.97082394878842,0.54305923,-0.4813618,-0.24831672,323.9372,-98.31689,7.2130923,STN
14475711596000,2.380043,2.59673717730858,9.59933903314366,0.89705723102925,0.39522982,-0.30573806,-0.28252518,323.89505,-98.3905,7.2810926,STN
14475716598000,2.385045,2.36719206663672,9.05416947020066,0.892275045384846,0.28405234,-0.21135938,-0.312763,323.81738,-98.431114,7.33642,STN
14475721574000,2.390021,2.13445458776879,8.52535026054449,0.986372406987572,0.18753563,-0.18387043,-0.3304781,323.73474,-98.41214,7.3229747,STN
14475726599000,2.395046,1.89711270524758,7.99845120402446,1.13352443164727,0.121256754,-0.17745635,-0.3408628,323.63208,-98.37738,7.306198,STN
14475731590000,2.400037,1.55062524805589,7.47551814681045,1.33400382156744,0.09162979,-0.19608775,-0.38973203,323.5473,-98.30649,7.2539597,STN
14475736581000,2.405028,1.13924242681247,6.95282000544755,1.56631405046578,0.049785517,-0.21044308,-0.43096542,323.46063,-98.22666,7.2036886,STN
14475741625000,2.410072,0.773001844587695,6.50445800396166,1.74321861515211,-0.004276057,-0.23243423,-0.49663344,323.39758,-98.11022,7.121498,STN
14475746906000,2.415353,0.416804216447227,6.07899966047149,1.89658153103786,-0.06414085,-0.2302962,-0.5705481,323.3312,-97.97808,7.0282507,STN
14475751594000,2.420041,0.243276096210526,5.84006273578947,1.94683882947368,-0.13469578,-0.19242255,-0.6462954,323.28644,-97.78406,6.8831234,STN
14475756692000,2.425139,0.137738603458647,5.66110779511278,1.95142741278195,-0.19822577,-0.14477506,-0.698219,323.2376,-97.57393,6.726909,STN
14475761590000,2.430037,0.0668062013865714,5.56158574674792,1.88339776053378,-0.26389378,-0.12675454,-0.7296785,323.20282,-97.30399,6.5186405,STN
14475766578000,2.435025,0.0266514371158979,5.53648903644006,1.73783673592519,-0.3210097,-0.1414153,-0.7632761,323.16364,-97.01715,6.298238,STN
14475771579000,2.440026,0.0015961345,5.49655495555556,1.59347422777778,-0.37751472,-0.18112154,-0.77091193,323.13412,-96.715935,6.0669374,STN
14475776572000,2.445019,-0.0122398022335069,5.4458232246142,1.45050284156057,-0.44135013,-0.21410827,-0.7461719,323.10782,-96.41165,5.8384395,STN
14475781582000,2.450029,0.0823411259528444,5.44222150849804,1.33314584415571,-0.4981606,-0.25167647,-0.70463306,323.1035,-96.10998,5.605952,STN
14475786633000,2.45508,0.286178076848199,5.48590092671817,1.24093395299488,-0.5479461,-0.26328292,-0.6389651,323.10242,-95.821106,5.3908362,STN
14475791668000,2.460115,0.487568153786247,5.52988529356531,1.12743696111019,-0.5849035,-0.23793201,-0.5662721,323.10394,-95.55384,5.188392,STN
14475796605000,2.465052,0.683428528737918,5.57340979103378,0.996863359629937,-0.59742624,-0.17501289,-0.49235737,323.09875,-95.3092,5.0085487,STN
14475801554000,2.470001,0.932676506274549,5.67045679737813,0.912960601643904,-0.6270532,-0.08368854,-0.42394048,323.0654,-95.12316,4.8849387,STN
14475806602000,2.475049,1.29413385859436,5.87769226941481,0.92259945343535,-0.65240407,0.0036651916,-0.35155296,323.0155,-94.967354,4.786959,STN
14475811508000,2.479955,1.63760818345431,6.07592145793974,0.999664534876206,-0.6795876,0.032986723,-0.27916542,322.93973,-94.881294,4.7480025,STN
14475816539000,2.484986,1.97296312773193,6.27234366388585,1.22483134956747,-0.70157874,0.017104227,-0.19028452,322.85236,-94.82876,4.7371845,STN
14475821553000,2.49,2.29451381385742,6.43850356066379,1.42874849963903,-0.7324274,-0.0125227375,-0.11636983,322.7216,-94.86889,4.811757,STN
14475826541000,2.494988,2.58669422885792,6.53909020925499,1.5868133831846,-0.75655663,-0.0729984,-0.07238753,322.6041,-94.93438,4.903529,STN
14475831515000,2.499962,2.77692605008082,6.59807185008082,1.72912220076067,-0.7987063,-0.13133603,0.008857546,322.44193,-95.09964,5.089615,STN
14475836532000,2.504979,2.74494662256347,6.56609242256347,1.83876604765618,-0.85918194,-0.22052236,0.077579886,322.30444,-95.28341,5.2827854,STN
14475841596000,2.510043,2.71266760702672,6.53381340702672,1.94943705436912,-0.9297369,-0.32253686,0.12858713,322.1579,-84.45774,5.538292,STN
14475846558000,2.515005,2.68103876123419,6.50218456123419,2.05787890573357,-0.9972375,-0.38820487,0.15363261,322.02325,-84.175316,5.802205,STN
14475851562000,2.520009,2.62624741463415,6.47342077038327,2.14376993797909,-1.0748174,-0.4392121,0.14996742,321.91238,-83.87589,6.0673037,STN
14475856576000,2.525023,2.39289334441592,6.46901786600037,2.04690594960572,-1.1129965,-0.44898596,0.12797627,321.80444,-83.56546,6.3300214,STN
14475862098000,2.530545,2.12928566513034,6.47447485700793,1.91243442939176,-1.1447614,-0.42180246,0.094989546,321.68207,-83.24454,6.5807276,STN
14475866779000,2.535226,1.75669831350586,6.71157586277862,1.17149367030601,-1.1722504,-0.35185838,0.04886922,321.5458,-82.92205,6.817595,STN
14475871510000,2.539957,1.38013117816396,6.95120945780129,0.42263856856819,-1.180497,-0.24648413,0.009773844,321.43375,-82.64634,6.9925895,STN
14475876562000,2.545009,1.4492649002411,7.08346678310348,0.0648625784627254,-1.1569787,-0.10598512,-0.035430185,321.28894,-82.37653,7.149825,STN
14475881517000,2.549964,1.62774592126531,7.18414856972707,-0.182265033587617,-1.1273518,0.022296581,-0.06963864,321.11536,-82.10651,7.296451,STN
14475886545000,2.554992,2.01407486520211,7.4011045602812,-0.0385260243936731,-1.0519099,0.13439035,-0.0852157,320.99142,-82.004234,7.332015,STN
14475891533000,2.55998,2.47115094163249,7.65762680285101,0.245980500453037,-0.98563105,0.20311269,-0.06994407,320.84445,-81.90339,7.3658915,STN
14475896640000,2.565087,2.95316491809742,7.88031244025754,0.579049789468956,-0.91996306,0.21013765,-0.022296581,320.70786,-81.799904,7.4203362,STN
14475901570000,2.570017,3.42445318431823,8.07825331817728,0.918377319494909,-0.88514376,0.19272798,0.02687807,320.5601,-81.696396,7.4788322,STN
14475906606000,2.575053,3.78703297771186,8.26260426470879,1.1503427617522,-0.8848383,0.14569137,0.079107046,320.3822,-81.48173,7.6256156,STN
14475911535000,2.579982,4.09043118055968,8.43530812928903,1.32771399405715,-0.9288206,0.083383106,0.14446963,320.214,-81.25214,7.788538,STN
14475916555000,2.585002,4.23824979145567,8.58184425281064,1.42601544981914,-1.0005972,0.052534413,0.2180789,319.99927,-80.897095,8.04899,STN
14475921551000,2.589998,4.30373416912699,8.71281281278717,1.48214491639456,-1.0848967,0.014049901,0.26389378,319.80515,-80.530495,8.316248,STN
14475926593000,2.59504,4.20078123744796,8.85291439422984,1.55880351029141,-1.1236867,-0.02107485,0.3643811,319.5968,-80.067406,8.661471,STN
14475932149000,2.600596,3.97411989001839,9.01260757227224,1.65668001589699,-1.2156218,-0.045814894,0.45112398,319.397,-79.58547,9.008913,STN
14475936580000,2.605027,3.76976598379434,9.25225882910026,1.72403793708997,-1.2962561,-0.050396383,0.54000485,319.19223,-79.071754,9.386334,STN
14475941636000,2.610083,3.52081821388175,9.60078593573265,1.79374330642674,-1.385137,-0.03756821,0.6258314,318.98798,-78.5332,9.778623,STN
14475946593000,2.61504,3.41329665788444,10.1495609889793,1.95639495996498,-1.4850134,-0.021380283,0.7113526,318.78296,-78.00011,10.146529,STN
14475951580000,2.620027,3.38870123000309,10.8283965243588,2.17775442727366,-1.5769486,0.0033597588,0.81336707,318.56787,-77.440216,10.5337105,STN
14475956625000,2.625072,3.53290779244506,11.6667869148352,2.54618089848901,-1.6951511,0.025045475,0.9239337,318.34946,-76.895226,10.89116,STN
14475961593000,2.63004,3.75511073684066,12.564312528022,2.97751607936813,-1.8435913,0.08002335,1.078788,318.1072,-76.30655,11.278779,STN
14475966642000,2.635089,3.93215876383181,13.6001920116978,3.48399580256086,-2.0091357,0.16432275,1.2855659,317.82336,-75.68543,11.678849,STN
14475971583000,2.64003,4.05682671830541,14.7371651103383,4.04749552956054,-2.2094996,0.27091873,1.5106697,317.50766,-75.006424,12.113558,STN
14475976561000,2.645008,4.1140658062,15.8369438128,4.64305450832,-2.4156666,0.3924809,1.7269161,317.15604,-74.21319,12.599142,STN
14475981580000,2.650027,4.12367894785,16.9136217004,5.26310558276,-2.6273315,0.46822822,1.9410243,316.7734,-73.35257,13.128524,STN
14475986580000,2.655027,4.01754833087303,17.6449483122623,5.58022625480891,-2.8044822,0.4596761,2.1203132,316.3685,-72.41416,13.673705,STN
14475991655000,2.660102,3.82828029179496,18.1467289407716,5.6902659695345,-2.9798007,0.45570546,2.2650883,315.92773,-71.42203,14.245458,STN
14475996579000,2.665026,3.51767196370788,18.5303975284363,5.49925867836717,-3.148094,0.45204028,2.3408356,315.48468,-70.38479,14.800403,STN
14476002248000,2.670695,2.92899612160094,18.7843364271287,4.73744276571702,-3.278819,0.4615087,2.372906,315.02945,-69.32614,15.36205,STN
14476006574000,2.675021,2.48090330268917,18.4979830529002,3.84870982380018,-3.381139,0.48197266,2.3371704,314.60144,-68.29972,15.862888,STN
14476011590000,2.680037,1.96229512924723,17.75778755344,2.5569039822063,-3.4046574,0.5543602,2.2779164,314.15103,-67.28414,16.344152,STN
14476016549000,2.684996,1.51561495147351,16.9478715588501,1.50791504684325,-3.3420436,0.6273586,2.155438,313.7907,-66.42059,16.717701,STN
14476021563000,2.69001,1.14230474756825,16.0363003415296,0.717886502878322,-3.289204,0.78984874,2.0980167,313.37778,-65.563515,17.069132,STN
14476026570000,2.695017,0.741360982406395,15.0227256671444,0.225394952018743,-3.1215215,0.95905846,2.0054705,313.03802,-64.91565,17.328856,STN
14476031576000,2.700023,0.255074602330981,13.6960092753032,0.632395507108048,-2.8667905,1.1178834,1.9459113,312.6526,-64.309906,17.56289,STN
14476036500000,2.704947,-0.15120836580832,12.6973273926262,1.44450706404787,-2.5766296,1.1414018,1.8967366,312.2972,-63.832287,17.761486,STN
14476041678000,2.710125,-0.476662675595792,12.0799214835441,2.88033482932149,-2.3151793,0.9095783,1.8472565,311.97638,-63.41917,17.950968,STN
14476046486000,2.714933,-0.653625816923389,11.6956843344143,3.999615343636,-2.0900755,0.5363397,1.7550159,311.67487,-62.98647,18.124985,STN
14476051593000,2.72004,-0.604062816649777,11.6461213858938,4.78271060305026,-1.949271,0.22907446,1.5916094,311.43442,-62.622658,18.27932,STN
14476056565000,2.725012,-0.420799218600016,11.7571657499402,5.28654255288209,-1.88849,0.030848695,1.400714,311.1792,-62.13699,18.41435,STN
14476061552000,2.729999,-0.0248021160487922,12.1188938170294,5.38554171918201,-1.8319849,-0.1133155,1.1936307,311.0138,-61.723255,18.521614,STN
14476066759000,2.735206,0.388664279175636,12.4965794086343,5.48890820382684,-1.7684549,-0.26725355,1.0345002,310.85825,-61.268456,18.61443,STN
14476071972000,2.740419,1.3951314591353,12.829183856359,5.44158811434215,-1.6502525,-0.45631635,0.9645562,310.76535,-60.86703,18.691422,STN
14476076655000,2.745102,2.32393918764841,13.0911454637334,5.36090188007582,-1.4944818,-0.6411031,0.945314,310.72598,-60.514606,18.753296,STN
14476081554000,2.750001,3.04011868465529,12.9600802287738,4.95366266846254,-1.2947289,-0.68294734,0.95417154,310.71292,-60.19648,18.844471,STN
14476086691000,2.755138,3.7672416316652,12.8031451732514,4.51479312519754,-1.1151345,-0.61666846,0.9462303,310.73453,-59.889076,19.022161,STN
14476091541000,2.759988,4.17503356806165,12.4270702781192,3.96200837834358,-0.958753,-0.47769663,0.93218035,310.74512,-59.62665,19.192503,STN
14476096832000,2.765279,4.58992916142773,12.0039992059342,3.38055371197611,-0.8341365,-0.32070425,0.9025534,310.75952,-59.397243,19.433632,STN
14476101590000,2.770037,4.46945384782609,11.4127778695652,3.21322686811594,-0.7244862,-0.172264,0.8713993,310.7359,-59.20543,19.649012,STN
14476106519000,2.774966,4.34464871526146,10.8003083514982,3.03988638610948,-0.6337727,-0.03634648,0.81183994,310.7344,-59.044506,19.89939,STN
14476111552000,2.779999,4.21721024250881,10.174915962691,2.86288848675088,-0.5571091,0.061391957,0.75655663,310.70132,-58.91054,20.122828,STN
14476116525000,2.784972,4.09129100448002,9.55697907623384,2.68800063586467,-0.47250426,0.09010262,0.72509706,310.65094,-58.805035,20.323334,STN
14476121596000,2.790043,3.59995302468081,8.79831194157032,2.71635184963306,-0.42852196,0.13133603,0.6563747,310.60858,-58.69933,20.513113,STN
14476126497000,2.794944,3.09034411797527,8.05277248180356,2.76353778286921,-0.30909783,0.13622294,0.57757306,310.5711,-58.63596,20.688482,STN
14476131592000,2.800039,2.63560924021117,7.43182315784488,2.80295004382277,-0.18020524,0.12950343,0.50488013,310.52023,-58.562138,20.845499,STN
14476136503000,2.80495,2.20399810128281,6.84705971681468,2.84007800826919,-0.03023783,0.09162979,0.4279111,310.48572,-58.534203,20.980614,STN
14476141730000,2.810177,1.9019418726578,6.57189742524811,2.89310528689956,0.1441642,0.058643065,0.34972036,310.42838,-58.529438,21.076517,STN
14476146489000,2.814936,1.64411794670504,6.35930577280667,2.94286073580786,0.29657507,0.003970624,0.2846632,310.39587,-58.56288,21.160275,STN
14476151573000,2.82002,1.38334457662798,5.87915145325595,3.25040177477867,0.45845437,-0.09285152,0.22418754,310.39,-58.62044,21.213676,STN
14476156521000,2.824968,1.13163831752902,5.37573893505804,3.58601016891599,0.6047566,-0.1994475,0.17470746,310.40945,-58.715515,21.25882,STN
14476161584000,2.830031,0.922003102662984,5.08176230145971,3.59472745659335,0.73761976,-0.3222314,0.12461651,310.47046,-58.84313,21.279503,STN
14476166517000,2.834964,0.726305266120919,4.83481025920702,3.54347320222902,0.86345804,-0.43676865,0.079107046,310.56482,-59.006065,21.29766,STN
14476171543000,2.83999,0.532900346810973,4.56129048299252,3.44769529871322,0.9944886,-0.5030475,0.016798794,310.6227,-59.152813,21.296055,STN
14476176534000,2.844981,0.342185758334165,4.28475448204489,3.3428023517207,1.110553,-0.5540548,-0.057726767,310.7152,-59.331192,21.288523,STN
14476181554000,2.850001,0.201758998571429,3.97300690873016,3.11736465873016,1.2125676,-0.58459806,-0.14080444,310.83438,-59.543755,21.256132,STN
14476186535000,2.854982,0.0740956376079734,3.65604936733112,2.86644011849391,1.2837334,-0.6087272,-0.24709499,310.97717,-59.7904,21.200624,STN
14476191576000,2.860023,0.0660998053681813,3.34637986581716,2.58023543034378,1.3536774,-0.6001751,-0.35155296,311.1317,-60.07639,21.111917,STN
14476196541000,2.864988,0.122822213913892,3.04729814089578,2.28115365157792,1.3955216,-0.54183745,-0.464563,311.29153,-60.391502,20.9879,STN
14476201564000,2.870011,0.224778928730717,2.72631856668471,2.10320672936401,1.428203,-0.4633413,-0.57879484,311.4687,-60.753216,20.830326,STN
14476206587000,2.875034,0.33760813306811,2.4008496452774,1.95566080563825,1.4413365,-0.35369098,-0.70157874,311.6333,-61.141586,20.629261,STN
14476211565000,2.880012,0.494797022269798,2.14327773309083,1.79624344354604,1.4569136,-0.3005457,-0.8246681,311.81772,-61.55873,20.416178,STN
14476216577000,2.885024,0.684358467258366,1.92877402999376,1.62663584254833,1.4724907,-0.1872302,-0.8848383,311.95975,-61.987644,20.16924,STN
14476221538000,2.889985,0.933621898251049,1.81994165345793,1.50100510886468,1.4840971,-0.049785517,-0.98440933,312.09955,-62.41754,19.91746,STN
14476226560000,2.895007,1.21721066473116,1.7622625831601,1.39526018847691,1.4969252,0.064446285,-1.0711522,312.218,-62.856773,19.644737,STN
14476231553000,2.9,1.42260633742894,1.79536060234733,1.31625511830185,1.5216653,0.1518,-1.1386528,312.32404,-63.28505,19.384659,STN
14476236580000,2.905027,1.59035058850174,1.87481845400697,1.25004027264808,1.559539,0.1704314,-1.1979067,312.42505,-63.73005,19.101068,STN
14476241564000,2.910011,1.62611373244798,1.99415829222689,1.16758580507903,1.6120734,0.1459968,-1.2565498,312.57922,-64.12933,18.872782,STN
14476246555000,2.915002,1.52330724606843,2.15673592310924,1.0671701554922,1.6594155,0.071776666,-1.3069462,312.74585,-64.539764,18.63541,STN
14476251574000,2.920021,1.41992400520708,2.32022563046218,0.966191164252701,1.72264,-0.032375857,-1.3826935,312.90353,-64.98448,18.395382,STN
14476257312000,2.925759,1.30173053318828,2.50713615861345,0.850746364146659,1.7971655,-0.11453723,-1.4538593,313.07837,-65.442955,18.14953,STN
14476261564000,2.930011,1.10527527208202,2.70100680198738,0.836025014794953,1.8597792,-0.17867808,-1.5219707,313.27927,-65.92088,17.89269,STN
14476266717000,2.935164,0.767977285488959,2.98641294069401,0.882727829610936,1.9110919,-0.26236662,-1.5625933,313.51038,-66.41253,17.633911,STN
14476271545000,2.939992,0.4381903239285,3.28561608612171,0.98383179889536,1.949271,-0.30665436,-1.597718,313.8129,-67.001205,17.302818,STN
14476276552000,2.944999,0.0866711486041374,3.6178738784997,1.12829176371561,1.9886718,-0.36071593,-1.6303993,314.14145,-67.60008,16.968727,STN
14476281556000,2.950003,-0.147778306939764,4.03053448005036,1.22584060303118,2.0189097,-0.36957347,-1.6297885,314.50146,-68.26239,16.566591,STN
14476286529000,2.954976,-0.299980530962619,4.49636568665505,1.29041124673639,2.048842,-0.3032946,-1.6102408,314.85272,-68.92726,16.159357,STN
14476291746000,2.960193,-0.300620012741842,5.06752430517474,1.39187213271867,2.0592268,-0.2012801,-1.6056592,315.17258,-69.68747,15.648802,STN
14476296559000,2.965006,-0.17601982529832,5.6593750770419,1.51202227928171,2.0576997,-0.06658431,-1.5986344,315.4595,-70.43828,15.139379,STN
14476301583000,2.97003,0.0585228109875684,6.34903518442566,1.62824096685231,2.0158553,0.12064589,-1.6013832,315.72058,-71.23885,14.561793,STN
14476306611000,2.975058,0.417688787572352,7.12483363224267,1.73359634371954,1.954158,0.36468655,-1.6108516,315.924,-72.02626,13.977114,STN
14476311553000,2.98,0.849625587959204,7.97385855441133,1.91864439596,1.8768835,0.49205196,-1.6032158,316.10684,-72.7948,13.396131,STN
14476316552000,2.984999,1.3853037363739,8.94092394015249,2.20781583023072,1.8252654,0.7302894,-1.6035212,316.18723,-73.54861,12.799417,STN
14476321528000,2.989975,1.98138331826574,9.82177706903663,2.49858362075027,1.6963727,0.9230174,-1.5836681,316.23798,-74.22051,12.261777,STN
14476327182000,2.995629,2.75772637930865,10.6938328610429,2.83358087203182,1.5855007,1.1096367,-1.4941764,316.21863,-74.85595,11.74465,STN
14476331504000,2.999951,3.31857119707753,11.2316898502982,3.0785035466998,1.4398094,1.1218541,-1.452943,316.16064,-75.368996,11.3144655,STN
14476336551000,3.004998,3.92394916446322,11.6641028633201,3.34756037092445,1.4123205,1.0577132,-1.3701707,316.06708,-75.84078,10.928461,STN
14476341588000,3.010035,4.40614098681571,11.9518436569218,3.57907688736028,1.3567317,0.9007208,-1.2611313,315.94443,-76.12429,10.704793,STN
14476346629000,3.015076,4.68748971033725,12.0025787429063,3.74973113614216,1.3228287,0.6603453,-1.1441506,315.86414,-76.38136,10.518085,STN
14476351555000,3.020002,4.84843712912524,11.9551153133474,3.88858273947976,1.317331,0.38148534,-1.0369438,315.78064,-76.48791,10.48919,STN
14476356581000,3.025028,4.72033374252285,11.6578188574872,3.95867693964045,1.3319917,0.10445796,-0.9068295,315.76312,-76.565346,10.50333,STN
14476361497000,3.029944,4.5950340512102,11.3670290888822,4.02723704469218,1.3518448,-0.18081611,-0.78038037,315.77637,-76.56106,10.611168,STN
14476366555000,3.035002,4.46611504415989,11.0678397785478,4.09777752706639,1.3729197,-0.4361578,-0.6597345,315.8567,-76.53979,10.750998,STN
14476371546000,3.039993,4.26783996492181,10.7181795391891,4.16399962768049,1.3732251,-0.65087694,-0.5500842,315.98636,-76.50651,10.917172,STN
14476376549000,3.044996,3.89993600441053,10.2381098553235,4.2223261092799,1.3539828,-0.7987063,-0.44257188,316.16385,-76.45341,11.109085,STN
14476381513000,3.04996,3.51396698903038,9.77498549884689,4.28966922972024,1.2846496,-0.8872818,-0.33628133,316.33182,-76.38965,11.295574,STN
14476386556000,3.055003,3.00548786762258,9.37788704732779,4.41073561496039,1.2284501,-0.90133166,-0.22602014,316.51392,-76.30255,11.505023,STN
14476391658000,3.060105,2.4993578993731,9.09554526582406,4.57250596936299,1.1533136,-0.8622363,-0.12339478,316.6737,-76.23243,11.678738,STN
14476397077000,3.065524,2.00085548691608,9.35791527381193,4.92932876380182,1.0830641,-0.7724391,-0.014966198,316.81592,-76.128075,11.876647,STN
14476401578000,3.070025,1.63560565366986,9.66734718186309,5.22056888209029,1.003957,-0.63285637,0.093767814,316.92072,-76.052216,12.0226145,STN
14476406561000,3.075008,1.42818354080806,10.3791817517534,5.5222737556258,0.872621,-0.52534413,0.1459968,317.00476,-75.94665,12.177068,STN
14476411539000,3.079986,1.28424097411674,11.0271236333845,5.69369122457757,0.66950834,-0.52564955,0.16432275,317.08212,-75.867935,12.26311,STN
14476416552000,3.084999,1.46860553563748,11.3507859805428,5.18976126052227,0.5494733,-0.6114761,0.19853121,317.1491,-75.76681,12.365346,STN
14476421540000,3.089987,1.65205066487455,11.6728342126643,4.68834441218638,0.34697145,-0.77213365,0.22174409,317.2423,-75.67263,12.410128,STN
14476426533000,3.09498,1.64274449944394,11.6389124605287,2.37620987299909,0.27763826,-0.92271197,0.26725355,317.35367,-75.56783,12.472509,STN
14476431567000,3.100014,1.5900083246217,11.5246512149499,-0.361675989680948,0.28191432,-1.1279627,0.3118467,317.52454,-75.44122,12.54794,STN
14476436538000,3.104985,1.39158354463353,11.5778727979114,-2.16637889746664,0.23060162,-1.3307699,0.3707952,317.76144,-75.32989,12.645981,STN
14476441592000,3.110039,1.10141982891124,11.7323144761168,-3.45807544788242,0.16920967,-1.3997977,0.4654793,318.01263,-75.20132,12.76671,STN
14476446558000,3.115005,0.624906562971558,12.0625716728617,-4.04567517322107,0.1881465,-1.2348641,0.5662721,318.4607,-75.36309,12.802158,STN
14476451586000,3.120033,-0.00795919589074851,12.5372207583941,-4.10500624437827,0.20463985,-0.83077675,0.6478226,318.85052,-75.48967,12.848175,STN
14476456563000,3.12501,-0.857502732318182,12.5093684802372,-3.63500364486166,0.20799962,-0.43951756,0.72784597,319.32294,-75.75324,12.822382,STN
14476461561000,3.130008,-1.85074629863636,12.1688278735178,-2.83094940711462,0.40133846,-0.17073683,0.8268061,319.70074,-75.99463,12.816764,STN
14476467363000,3.13581,-2.90958402521684,11.3183618958466,-1.71615413734292,0.89858276,0.32253686,0.8170323,319.9411,-76.38068,12.665388,STN
14476471540000,3.139987,-3.63453979767294,10.5257062640857,-0.841693982661307,1.2244794,0.895223,0.6423248,320.07016,-76.75431,12.493839,STN
14476476496000,3.144943,-4.49469799932304,9.58522234955222,0.195850792680347,1.0494665,1.5515977,0.37232238,320.00705,-77.236404,12.142364,STN
14476481554000,3.150001,-4.7537924145192,8.67084173578662,0.436837007664695,0.24465153,1.9798143,0.05589417,319.84903,-77.72801,11.734832,STN
14476486506000,3.154953,-4.79658975052642,7.7911156834453,0.394039542556904,-0.5366451,2.2791383,-0.226631,319.54465,-78.24808,11.268629,STN
14476491597000,3.160044,-3.50318559329086,9.12509332769261,1.86961847874179,-0.6188065,2.2962425,-0.40469822,319.16547,-78.84641,10.656364,STN
14476496494000,3.164941,-1.8319383984571,11.1231209982082,3.77428013054151,-0.29840767,1.8500054,-0.39675698,318.83963,-79.42486,10.032919,STN
14476501582000,3.170029,1.2029509565238,13.068263117106,6.82119042290916,0.06811147,0.72295904,-0.2919936,318.69885,-79.98878,9.42901,STN
14476506597000,3.175044,4.64586120604969,14.9400036827233,10.1957891538024,0.07238753,-0.36774087,-0.03176499,318.67776,-80.49035,8.889682,STN
14476511560000,3.180007,7.14297179199919,16.2369671914335,9.89789010268714,-0.54825157,-0.6062838,0.1572978,318.5272,-80.57135,8.6506195,STN
14476516585000,3.185032,9.16047198141226,17.238424969997,7.55467280422265,-0.8897252,-0.7797695,0.45814893,318.66617,-80.57118,8.540463,STN
14476521586000,3.190033,8.70944634527007,17.5955792778275,5.45194100392917,-1.3014483,-0.8136725,0.49327368,318.4245,-79.709915,9.027877,STN
14476526621000,3.195068,7.00189183124441,17.6291549597135,3.45180015070128,-1.4837917,-0.37293324,0.3915646,318.0995,-78.809875,9.521605,STN
14476531570000,3.200017,5.06857750889045,15.7806019824597,1.61017061764458,-1.677436,0.33933565,0.27855456,317.7555,-77.862465,10.183055,STN
14476536573000,3.20502,2.97956756274431,12.9184181264909,-0.18589773729979,-1.9019289,0.8912524,0.11789699,317.34918,-76.97043,10.7432165,STN
14476541619000,3.210066,1.91579581396665,10.6501485113659,-1.24671127478261,-2.01219,1.2275337,-0.021380283,317.00388,-76.4789,10.975667,STN
14476546582000,3.215029,1.40152777349613,8.73461796634902,-1.9072391026087,-1.9410243,1.2904528,-0.13561209,316.59134,-76.02423,11.145783,STN
14476551617000,3.220064,1.53121927939817,7.88856408042089,-2.07793075332874,-1.7403551,1.094976,-0.23060162,316.31992,-75.870224,11.072004,STN
14476556607000,3.225054,2.01525816119579,7.64889436569968,-1.97454378292851,-1.4453071,0.7519751,-0.27214047,316.07977,-75.75577,10.9885025,STN
14476561661000,3.230108,2.63397216791345,8.04902209079856,-1.88522281805255,-1.0852021,0.47708577,-0.25167647,315.92392,-75.737335,10.872082,STN
14476566590000,3.235037,3.31491709848532,8.82724470897475,-1.80740053591963,-0.7275405,0.18295415,-0.21777347,315.87518,-75.77967,10.766986,STN
14476571587000,3.240034,3.58789290508037,9.3361756894225,-1.75269535621155,-0.3726278,-0.09315695,-0.16340645,315.87268,-75.80725,10.753563,STN
14476576588000,3.245035,3.65442506179798,9.70685508930343,-1.70992469821393,0.013133603,-0.3475823,-0.13775012,315.94922,-75.907036,10.755121,STN
14476582260000,3.250707,3.27597032762224,9.87255907413249,-1.61702076667981,0.3848451,-0.52595496,-0.14813483,316.0643,-76.00916,10.837486,STN
14476586615000,3.255062,2.83192900659503,9.91367398343849,-1.53067937127366,0.6713409,-0.62858033,-0.19333886,316.2312,-76.16206,10.923296,STN
14476591631000,3.260078,2.22700069975304,9.81437385034081,-1.27540300745332,0.88056225,-0.7113526,-0.30207285,316.44553,-76.37635,10.992191,STN
14476596572000,3.265019,1.57725841879877,9.63207179205769,-0.934171470652968,1.0204504,-0.77732605,-0.4016439,316.68454,-76.62206,11.050262,STN
14476601608000,3.270055,1.30648064884033,9.56319506689668,-0.606448494580219,1.1111639,-0.73975784,-0.47861293,316.9309,-76.95601,11.011847,STN
14476606609000,3.275056,1.29730035809852,9.57237554935787,-0.294318384088557,1.1123856,-0.66950834,-0.4868596,317.18573,-77.28778,10.962345,STN
14476611576000,3.280023,1.47271781704958,9.70738199093108,-0.0377137391475212,1.0531317,-0.49602258,-0.47800204,317.39267,-77.67532,10.815439,STN
14476616583000,3.28503,1.82544129020556,9.963468547763,0.170054914510278,1.0079277,-0.4129449,-0.46181414,317.6061,-78.04918,10.666424,STN
14476621582000,3.290029,2.4404631267408,10.3120705873132,0.373947603144367,0.93615097,-0.42363504,-0.45234573,317.775,-78.371475,10.526634,STN
14476626583000,3.29503,3.29165292599344,10.744213141451,0.574741080459351,0.87109387,-0.46517387,-0.42760566,317.9306,-78.66752,10.3929,STN
14476631587000,3.300034,3.91876606196689,11.0571947713372,0.788591334139549,0.8530733,-0.51159966,-0.38789943,318.0591,-78.891,10.307178,STN
14476636578000,3.305025,4.09624237736063,11.1311434720231,1.02769145523697,0.8170323,-0.5662721,-0.32620203,318.20187,-79.08255,10.234494,STN
14476641642000,3.310089,4.27631451944717,11.2061737706152,1.27028873298437,0.77549344,-0.6386596,-0.2657264,318.30923,-79.12665,10.286073,STN
14476646591000,3.315038,4.4522973455108,11.2795001820948,1.50737679135166,0.6918049,-0.7324274,-0.23701571,318.437,-79.14997,10.34408,STN
14476652064000,3.320511,4.14964591400297,10.9752596461158,1.65068415347848,0.56291234,-0.7828238,-0.2883284,318.57025,-79.16912,10.39122,STN
14476656634000,3.325081,3.48698415546759,10.403551063236,1.67233980285997,0.41630468,-0.7507534,-0.3399465,318.7044,-79.17047,10.442757,STN
14476661553000,3.33,2.96215719538842,9.79831389242949,1.63688809508164,0.29871312,-0.6450737,-0.3652974,318.78662,-79.10076,10.537986,STN
14476666494000,3.334941,2.68119315909946,9.20360721118258,1.52450251968333,0.21563543,-0.52748215,-0.40042216,318.8552,-79.04244,10.611231,STN
14476671549000,3.339996,2.39425639740285,8.61154213983913,1.42177942649482,0.17501289,-0.4560109,-0.43463063,318.92032,-79.07465,10.587034,STN
14476676569000,3.345016,2.11006130078496,8.0478105883322,1.33791852408179,0.13897185,-0.4202753,-0.48380527,318.96124,-79.11463,10.547877,STN
14476681487000,3.349934,1.83429660079216,7.53369712203188,1.28016644618279,0.13408493,-0.40561453,-0.54244834,319.0044,-79.19404,10.469549,STN
14476686646000,3.355093,1.55054659453411,7.07382649798,1.27038202133875,0.14538592,-0.4034765,-0.6017023,319.04108,-79.28377,10.378825,STN
14476691553000,3.36,1.31221136552242,6.69214943525821,1.29974002096677,0.13836098,-0.39278635,-0.66339964,319.0887,-79.41458,10.246445,STN
14476696576000,3.365023,1.13408292640112,6.41773543488791,1.41046846667334,0.11881329,-0.37843102,-0.7079928,319.13516,-79.5539,10.105041,STN
14476701517000,3.369964,1.00041437835756,6.17706562482558,1.55067707430233,0.11148291,-0.36285394,-0.74036866,319.1919,-79.73115,9.925044,STN
14476706617000,3.375064,0.95308714434593,5.9924894097093,1.76364971383721,0.09773844,-0.34238997,-0.76052725,319.24356,-79.91183,9.739149,STN
14476711531000,3.379978,0.930018961285144,5.8407795168865,1.98988000678584,0.0888809,-0.3155119,-0.7623598,319.29376,-80.10286,9.5373535,STN
14476716599000,3.385046,0.9721356288832,5.76075780227352,2.2846967899167,0.08674286,-0.30268374,-0.7693848,319.3426,-80.29643,9.331858,STN
14476722161000,3.390608,1.01829961712744,5.68255561495929,2.5825798755444,0.07391469,-0.31429017,-0.72295904,319.38028,-80.45751,9.148179,STN
14476726587000,3.395034,1.05441803161333,5.72268714004923,2.54646137724863,0.014049901,-0.3210097,-0.69974613,319.41345,-80.61823,8.959169,STN
14476731526000,3.399973,1.09472278740769,5.76747015008521,2.50615652793032,-0.032070424,-0.3417791,-0.6420194,319.4312,-80.71794,8.815847,STN
14476736592000,3.405039,1.10920054651095,5.8259549523212,2.45234006201139,-0.12186762,-0.35033122,-0.5928447,319.44705,-80.798355,8.67987,STN
14476741606000,3.410053,1.11846955050671,5.8862034782936,2.39672608642988,-0.183565,-0.35277468,-0.54611355,319.466,-80.855896,8.562918,STN
14476746593000,3.41504,1.19254513372637,5.96757905415735,2.46047625488921,-0.24220806,-0.34605515,-0.50579643,319.48145,-80.885704,8.465821,STN
14476751490000,3.419937,1.28311793122586,6.05338471822525,2.55581598671478,-0.28588495,-0.33658674,-0.47311515,319.49542,-80.894165,8.382605,STN
14476756603000,3.42505,1.49353098151854,6.18634649670394,2.8092850350206,-0.32986724,-0.35827246,-0.42546764,319.5156,-80.881805,8.316485,STN
14476761495000,3.429942,1.72332171602904,6.32422104298607,3.08962974743967,-0.39706242,-0.41080686,-0.3933972,319.54068,-80.8515,8.258175,STN
14476766579000,3.435026,1.98058714864865,6.46770943513514,2.89581932702703,-0.473726,-0.42913285,-0.3481932,319.54834,-80.77243,8.235132,STN
14476771518000,3.439965,2.23626192248649,6.60716849535135,2.55646901027027,-0.54611355,-0.43860126,-0.3115413,319.56653,-80.673996,8.221633,STN
14476776575000,3.445022,2.43733914092265,6.76864195466296,2.1606372495526,-0.5842926,-0.45753807,-0.25900686,319.54843,-80.48981,8.270608,STN
14476781522000,3.449969,2.61162129184729,6.93350326267648,1.75554916903957,-0.59742624,-0.49357912,-0.22540927,319.53522,-80.29029,8.326512,STN
14476786584000,3.455031,2.70214357160288,7.06830959113568,1.36271195993534,-0.6010914,-0.49846604,-0.21655174,319.50888,-80.082726,8.426966,STN
14476791628000,3.460075,2.75755692719783,7.18921183566587,0.979855453671916,-0.5925393,-0.47128254,-0.21227567,319.47992,-79.86909,8.534992,STN
14476796593000,3.46504,2.76389454210216,7.30259568218075,0.780511654141454,-0.5311473,-0.4175264,-0.18753563,319.4522,-79.6855,8.662936,STN
14476801535000,3.469982,2.75924542113949,7.4141757989391,0.622439784039293,-0.4615087,-0.38423425,-0.16920967,319.42056,-79.50836,8.787583,STN
14476806592000,3.475039,2.72952049217828,7.43045398340907,0.480510719201392,-0.39553526,-0.33505958,-0.15943582,319.41306,-79.36792,8.904832,STN
14476811570000,3.480017,2.69264666588031,7.41662618424055,0.346842818518805,-0.35827246,-0.267559,-0.1432479,319.389,-79.230774,9.025023,STN
14476816594000,3.485041,2.59687202549247,7.31479392645809,0.172996564534569,-0.3182608,-0.19853121,-0.12767084,319.36868,-79.126724,9.129055,STN
14476821572000,3.490019,2.47718227404403,7.17669052609115,-0.015744949586713,-0.29657507,-0.1151481,-0.10781772,319.32397,-79.02263,9.234305,STN
14476826596000,3.495043,2.38448177358677,7.02008492263142,-0.185247354141174,-0.27305678,-0.028710667,-0.087659165,319.2751,-78.942566,9.326984,STN
14476831591000,3.500038,2.30870919116919,6.85433236768637,-0.34152821018513,-0.22937989,0.069027774,-0.05681047,319.19836,-78.862625,9.423824,STN
14476836562000,3.505009,2.31137052211055,6.74911365577889,-0.33221027958191,-0.17745635,0.1255328,-0.027183503,319.13403,-78.8184,9.499148,STN
14476841618000,3.510065,2.36490060452261,6.68098469095477,-0.215417512932663,-0.13164146,0.13500121,0.00580322,319.0549,-78.77146,9.581657,STN
14476846590000,3.515037,2.48779295287595,6.67946221559252,-0.0102613342342342,-0.096516706,0.102319926,0.050396383,318.99155,-78.74177,9.659045,STN
14476851612000,3.520059,2.65444121898822,6.7175531981289,0.251614701441441,-0.083383106,0.029321533,0.102319926,318.93686,-78.70484,9.747882,STN
14476856601000,3.525048,2.79028291183582,6.83397181645705,0.608033413101297,-0.09621128,-0.060170226,0.16462818,318.8835,-78.6299,9.867324,STN
14476861588000,3.530035,2.90669014943941,7.0015979799454,1.02709925454421,-0.14630222,-0.17867808,0.22174409,318.85898,-78.539795,10.0011215,STN
14476866502000,3.534949,3.01294959211106,7.22131746443274,1.38716999575874,-0.22021692,-0.27550024,0.27030787,318.81757,-78.37746,10.185595,STN
14476871574000,3.540021,3.1152586546673,7.49569202680709,1.71269887089517,-0.30451632,-0.3042109,0.33444872,318.78848,-78.190674,10.38872,STN
14476876557000,3.545004,3.22385574070898,7.78956979388222,1.92811761195921,-0.41691554,-0.23396139,0.40133846,318.70428,-77.924774,10.629888,STN
14476881578000,3.550025,3.34299181246427,8.11490274728416,2.01976071831523,-0.54336464,-0.11362094,0.4801401,318.61014,-77.631386,10.886795,STN
14476886560000,3.555007,3.44237450352046,8.44132174785918,2.14853056707897,-0.6765333,0.003970624,0.5684101,318.45624,-77.26875,11.175186,STN
14476891616000,3.560063,3.5089210634528,8.779173620573,2.34817040723121,-0.83291477,0.08735373,0.65270954,318.2733,-76.87366,11.47577,STN
14476896552000,3.564999,3.4540484065382,9.05676282164979,2.48871838703176,-1.0100657,0.14752395,0.7244862,318.04996,-76.43088,11.794847,STN
14476901604000,3.570051,3.25901721562285,9.28033580090453,2.56958505713303,-1.1914927,0.17531833,0.7761043,317.80862,-75.957634,12.1226225,STN
14476906528000,3.574975,3.04543961589663,9.55148920908379,2.75159583915427,-1.2647965,0.21380283,0.79045963,317.52783,-75.46065,12.453365,STN
14476911605000,3.580052,2.79319441703211,9.90368024187549,3.07999042230814,-1.425454,0.25167647,0.83658,317.2347,-74.91342,12.797611,STN
14476916486000,3.584933,2.57783585449021,10.2902756745442,3.40427341755571,-1.5790867,0.30085114,0.88056225,316.93216,-74.39725,13.09561,STN
14476921579000,3.590026,2.39905337748625,10.7748701785473,3.75713357341565,-1.7376062,0.3921755,0.929126,316.6032,-73.85124,13.39686,STN
14476926490000,3.594937,2.19496336757468,11.2565223625316,3.98480599603038,-1.9226984,0.54458636,0.9755518,316.2669,-73.27553,13.660334,STN
14476931592000,3.600039,1.90798307495696,11.7908993843038,3.95511840093165,-2.1242838,0.7101309,1.0366384,315.89636,-72.66242,13.92851,STN
14476936561000,3.605008,1.76899217475902,12.6016147979728,4.02317530575375,-2.3445008,0.88178396,1.094976,315.48315,-72.0144,14.156511,STN
14476941664000,3.610111,1.90497274832555,14.0099849879758,4.28542346059823,-2.5405886,0.9923506,1.1914927,315.03445,-71.31775,14.397877,STN
14476946519000,3.614966,2.13512149770858,15.1601017426557,4.50391247385429,-2.7015514,1.0115929,1.3271047,314.6131,-70.63645,14.594179,STN
14476951572000,3.620019,2.59003672445163,15.9514642845672,4.66502840805915,-2.812118,0.90010995,1.4929546,314.18967,-69.90607,14.819971,STN
14476956653000,3.6251,2.88027301694469,16.6333066637401,4.69266067998244,-2.8890872,0.6914995,1.6624697,313.80432,-69.172775,15.044742,STN
14476961593000,3.63004,2.7787407164862,17.0348210545313,4.41113942410496,-2.967278,0.48533243,1.8325957,313.4378,-68.39319,15.316793,STN
14476966558000,3.635005,2.66008177242192,17.2942458381457,3.97968917935573,-3.0546317,0.36896262,1.9617938,313.08923,-67.57192,15.651461,STN
14476971580000,3.640027,2.48531217731291,17.0816887756826,3.05388209833039,-3.1453452,0.32375857,2.05098,312.76633,-66.724815,16.021872,STN
14476977034000,3.645481,2.34106871975598,16.7696054368841,2.11681122970436,-3.200934,0.3830125,2.0809124,312.4966,-65.94148,16.3697,STN
14476981590000,3.650037,2.3246887131863,16.3232529837635,1.49028050020648,-3.1764994,0.4801401,2.07572,312.21906,-65.16011,16.723663,STN
14476986616000,3.655063,2.3083705470451,15.8201356112947,0.832161951180016,-3.097087,0.5540548,2.0347922,312.00836,-64.502846,17.051527,STN
14476991606000,3.660053,2.31301559292379,15.19305393264,0.572039197661353,-2.9831605,0.5534439,1.997224,311.78503,-63.86814,17.370607,STN
14476996911000,3.665358,2.29385352893371,14.5329535279553,0.402681005694888,-2.7672195,0.57604593,1.9737056,311.5825,-63.330505,17.685835,STN
14477001623000,3.67007,2.01001447597843,14.0193398825879,1.43891899908147,-2.4990497,0.59773165,1.9737056,311.37646,-62.838093,17.991188,STN
14477006835000,3.675282,1.68288159211433,13.4730043752281,2.58758982935333,-2.3588562,0.59559363,1.9734001,311.19965,-62.346466,18.313452,STN
14477011732000,3.680179,1.17426153179607,13.2923727775188,3.70465275863572,-2.0534234,0.5384777,1.9764545,311.02866,-61.95225,18.633596,STN
14477016785000,3.685232,0.669455210614818,13.1359981458495,4.80294714119473,-1.9776763,0.46731192,1.9526308,310.7527,-61.416428,18.935453,STN
14477021569000,3.690016,0.420651400203646,13.3314870830101,5.22058217610551,-1.817935,0.33475417,1.8887954,310.51352,-60.97873,19.233313,STN
14477026915000,3.695362,0.172909557212014,13.5521742207816,5.66801216397724,-1.6581937,0.11178834,1.7342464,310.25452,-60.47762,19.46496,STN
14477031580000,3.700027,0.622959651545565,13.7938674313031,5.63467488433915,-1.5039502,-0.03481932,1.5601498,310.0203,-60.034904,19.674633,STN
14477036564000,3.705011,1.1037848755881,14.0520880017722,5.59905794935174,-1.3695599,-0.10567969,1.41904,309.82257,-59.636433,19.828459,STN
14477041646000,3.710093,1.86686183409248,13.997156447272,5.38106133785523,-1.2449434,-0.17867808,1.3359623,309.68008,-59.29832,19.964521,STN
14477047092000,3.715539,2.74480993562729,13.8680465037132,5.10734793395386,-1.102001,-0.17379116,1.3051136,309.5464,-59.01613,20.07328,STN
14477051563000,3.72001,3.30022098995921,13.3770377574522,4.79450021688108,-0.93187493,-0.14172074,1.3026701,309.4511,-58.771137,20.216885,STN
14477056555000,3.725002,3.90025145371823,12.782007647631,4.43448219968623,-0.75747293,-0.065973446,1.2819008,309.34818,-58.571667,20.339045,STN
14477061555000,3.730002,4.24433545930113,11.9033470067271,3.97644800680183,-0.61850107,0.048258353,1.251052,309.2423,-58.371674,20.545584,STN
14477066787000,3.735234,4.57203879496403,10.9483258933944,3.48489288109876,-0.49021935,0.17073683,1.1835514,309.11917,-58.219944,20.722506,STN
14477071590000,3.740037,4.55046542914504,9.93264342186672,3.02825141581735,-0.39492437,0.26816985,1.0797043,308.98315,-58.057487,20.960163,STN
14477076502000,3.744949,4.44082380236254,8.85616137080199,2.55978228256171,-0.29749137,0.3640757,0.97035944,308.82138,-57.93705,21.158497,STN
14477081541000,3.749988,4.12430990004984,7.77465643942777,2.26381063708504,-0.23640485,0.4196644,0.8304713,308.6672,-57.80204,21.396328,STN
14477086502000,3.754949,3.77855480774599,6.71370902707606,2.00331026301465,-0.18784106,0.46181414,0.68844515,308.50275,-57.7058,21.589478,STN
14477091544000,3.759991,3.40506973467894,6.05182830503611,1.94297275371525,-0.13561209,0.47250426,0.5363397,308.36835,-57.60866,21.77237,STN
14477096503000,3.76495,3.03385970992382,5.47386850797467,1.91947846698328,-0.064751714,0.4636467,0.40653083,308.242,-57.548782,21.918505,STN
14477101589000,3.770036,2.72853897091651,5.27330304856426,2.12981820188317,-0.018936822,0.42821655,0.35063666,308.1185,-57.469772,22.059664,STN
14477106559000,3.775006,2.44536443580981,5.15628877523355,2.38256904498476,0.073303826,0.3576616,0.25320363,308.02902,-57.448345,22.160559,STN
14477111542000,3.779989,2.16144920272396,5.03896842835087,2.63598100699184,0.19058995,0.2657264,0.17012598,307.9522,-57.429253,22.25262,STN
14477116780000,3.785227,1.8630048938932,4.91564433102567,2.90236107060675,0.30573806,0.15027285,0.10629055,307.91144,-57.442886,22.334707,STN
14477121591000,3.790038,1.62867510365429,4.99367120092602,3.12359621143085,0.44012842,0.029626964,0.06872234,307.9005,-57.471634,22.403385,STN
14477126573000,3.79502,1.39588900816489,5.12194120670118,3.34688083970925,0.5891795,-0.06627888,0.05100725,307.91953,-57.53339,22.470123,STN
14477131585000,3.800032,1.1836727553255,5.25460698540713,3.4472557359347,0.7348709,-0.14294247,0.05131268,307.93213,-57.612667,22.501104,STN
14477136591000,3.805038,0.978468239448537,5.38822836723074,3.50929425777424,0.88178396,-0.20250183,0.05100725,307.96896,-57.7233,22.53586,STN
14477141624000,3.810071,0.753412179844738,5.46260163536515,3.46809265508913,1.0140363,-0.267559,0.05100725,308.01837,-57.864716,22.541342,STN
14477146583000,3.81503,0.525832234772858,5.5172206906268,3.3952671213341,1.1523973,-0.30024028,0.03756821,308.0771,-58.036324,22.54526,STN
14477151588000,3.820035,0.304091277980023,5.4988894272865,3.24326964608976,1.2904528,-0.30298916,0.0018325958,308.1536,-58.262,22.51084,STN
14477156622000,3.825069,0.084998015902954,5.44411624724484,3.05156299166825,1.398576,-0.2855795,-0.04153884,308.23618,-58.509655,22.470749,STN
14477161574000,3.830021,-0.0727080725514645,5.26127207056518,2.84254749927805,1.5079209,-0.23457226,-0.11148291,308.3461,-58.83004,22.37824,STN
14477166595000,3.835042,-0.186771435032178,4.97363412227723,2.61442082920792,1.5989398,-0.1518,-0.19792034,308.4492,-59.176155,22.262905,STN
14477171586000,3.840033,-0.244586804468762,4.66155851313172,2.40148342190609,1.6771306,-0.049480084,-0.29168814,308.57196,-59.59562,22.090069,STN
14477176563000,3.84501,-0.268295406446478,4.33437988109829,2.19758951619578,1.7400496,0.061086524,-0.4089743,308.68176,-60.048298,21.87723,STN
14477181589000,3.850036,-0.231552562261575,4.02529085140483,2.04144025213692,1.7696766,0.15271631,-0.50946164,308.79565,-60.530796,21.637074,STN
14477186588000,3.855035,-0.155771861718441,3.7316405508706,1.91829655378908,1.7935003,0.22999077,-0.6078109,308.89545,-61.04388,21.35607,STN
14477191609000,3.860056,-0.0410821322084806,3.44640400441696,1.79796366124853,1.8112154,0.29718593,-0.7012733,308.98788,-61.572956,21.05741,STN
14477196590000,3.865037,0.0993833438427562,3.17015519231449,1.68090908564978,1.8185458,0.32895094,-0.7855727,309.0788,-62.11876,20.731283,STN
14477201591000,3.870038,0.271224386481397,2.98278260000914,1.58950824427279,1.8124372,0.33841935,-0.8210029,309.15405,-62.64703,20.420237,STN
14477206588000,3.875035,0.468087786338788,2.86903929541092,1.51951237506171,1.7977765,0.33292156,-0.89766645,309.23822,-63.197033,20.07501,STN
14477211585000,3.880032,0.62832532850205,2.77459809282035,1.47118996230422,1.78617,0.301462,-0.96761054,309.32288,-63.71383,19.76622,STN
14477216593000,3.88504,0.724115560277515,2.71409910490907,1.46110678887838,1.779145,0.24740042,-1.0412198,309.42426,-64.24069,19.439754,STN
14477221540000,3.889987,0.714479215957447,2.68572957304638,1.43455662451221,1.784032,0.16126843,-1.1264355,309.55963,-64.73603,19.148914,STN
14477226536000,3.894983,0.578433884042553,2.69511195229925,1.38764448332189,1.7821994,0.06627888,-1.2006557,309.71906,-65.23636,18.848106,STN
14477231552000,3.899999,0.424694101013242,2.72443238653692,1.31434181978331,1.8057177,-0.025961773,-1.2858714,309.91333,-65.733055,18.553282,STN
14477236585000,3.905032,0.245781327031501,2.78245805964085,1.20312574857544,1.8322903,-0.090713486,-1.3594806,310.13144,-66.23751,18.248339,STN
14477241550000,3.909997,0.0922050202804938,2.89473039950617,1.11589519047901,1.8432859,-0.12492194,-1.4242324,310.36154,-66.79688,17.901455,STN
14477246599000,3.915046,-0.0319614737461728,3.08575588617284,1.05858756941235,1.8826867,-0.13958271,-1.4624114,310.60712,-67.37016,17.546501,STN
14477251486000,3.919933,-0.11074531354998,3.33726462527657,1.05712091633742,1.9165897,-0.14202617,-1.4899004,310.8845,-68.00341,17.13867,STN
14477256578000,3.925025,-0.125195659128803,3.70815682176017,1.14382303004741,1.9101756,-0.13805555,-1.4966198,311.16412,-68.634094,16.727785,STN
14477261499000,3.929946,-0.0466274630259677,4.34976311835375,1.2307346766977,1.9233092,-0.11026118,-1.4801265,311.46414,-69.31355,16.281118,STN
14477266537000,3.934984,0.199221980431161,5.5128200499755,1.32529213596276,1.9135354,-0.05681047,-1.4749341,311.7553,-69.98527,15.828963,STN
14477271505000,3.939952,0.428339927290582,6.49870933995875,1.41260771560444,1.894904,0.011301007,-1.466382,312.0376,-70.66962,15.358253,STN
14477276610000,3.945057,0.634787240233723,7.1612612360601,1.4894253572621,1.8600847,0.14844026,-1.4407257,312.28152,-71.3367,14.889417,STN
14477281611000,3.950058,0.820108741989202,7.72594656639563,1.58436451032329,1.8044959,0.30879238,-1.4065173,312.5499,-71.995964,14.425776,STN
14477286634000,3.955081,0.9671784113901,8.09831443328563,1.7251758674169,1.7464638,0.49541172,-1.3662001,312.7664,-72.63045,13.9685755,STN
14477291588000,3.960035,1.112227812587,8.46556715328823,1.8640529255578,1.6676621,0.65179324,-1.3231341,312.94653,-73.224304,13.540352,STN
14477296573000,3.96502,1.29199737522827,8.84667418037912,2.0379379988289,1.5903877,0.7141015,-1.2983941,313.0968,-73.79115,13.122204,STN
14477302180000,3.970627,1.62773781306074,9.32097401647479,2.36834911560143,1.5491543,0.8142834,-1.2681563,313.1874,-74.32775,12.717189,STN
14477306547000,3.974994,1.89683377814408,9.65966791236968,2.59996476697661,1.4611896,0.8695667,-1.2315043,313.22705,-74.79981,12.35314,STN
14477311562000,3.980009,2.23515216886447,9.93032247421809,2.76686860185968,1.3952162,0.8738427,-1.1749994,313.25052,-75.24555,12.0104475,STN
14477316577000,3.985024,2.56864461096197,10.1887744897384,2.93063415342866,1.3469579,0.82924956,-1.1078042,313.20663,-75.597496,11.738184,STN
14477321567000,3.990014,2.84288920604027,10.300331882988,3.05613592961774,1.321607,0.7318166,-1.0403035,313.17624,-75.92084,11.491236,STN
14477326870000,3.995317,3.12013530334172,10.4046178628083,3.19216036612984,1.3072516,0.59864795,-0.97005403,313.11725,-76.139656,11.347044,STN
14477331593000,4.00004,3.21118956159034,10.3408794684449,3.34240001821842,1.3066407,0.43860126,-0.90285885,313.0937,-76.33784,11.228081,STN
14477336836000,4.005283,3.30523247501502,10.2631589709093,3.51075698341678,1.3106114,0.2415972,-0.8527679,313.07,-76.45612,11.196991,STN
14477341617000,4.010064,3.31898788025235,10.1210214112758,3.68040540140196,1.3026701,0.022907447,-0.8002335,313.09763,-76.55609,11.189207,STN
14477346762000,4.015209,3.33527397352359,9.96789780541051,3.85337588066259,1.276403,-0.19211712,-0.75319684,313.12634,-76.613976,11.222219,STN
14477351557000,4.020004,3.36834613489377,9.82320712639539,3.89885016190133,1.2476922,-0.38240165,-0.6951646,313.20932,-76.656624,11.274768,STN
14477356582000,4.025029,3.40300465645481,9.6715761228394,3.94650569124955,1.1945469,-0.5308419,-0.6197228,313.289,-76.65951,11.355566,STN
14477361559000,4.030006,3.36430432783432,9.65755235392523,4.05313180855588,1.1334605,-0.6420194,-0.52381694,313.40967,-76.640465,11.457606,STN
14477366538000,4.034985,3.30904347408546,9.67437071646679,4.1732641200393,1.0845913,-0.7305948,-0.40042216,313.56192,-76.59347,11.58617,STN
14477372218000,4.040665,3.24600237159629,9.69355695853069,4.31031001865867,1.0451905,-0.83169305,-0.25473082,313.7137,-76.49582,11.763062,STN
14477376524000,4.044971,3.19821100058954,9.70810202161645,4.41420432137962,1.0030408,-0.9773844,-0.07147124,313.89667,-76.35543,11.981421,STN
14477381588000,4.050035,3.07218091760619,10.4041950062525,4.74040914167328,0.91232723,-1.1096367,0.1142318,314.07727,-76.17606,12.235835,STN
14477386517000,4.054964,2.93632161286225,11.2099813320762,5.09645430220325,0.7535023,-1.2021828,0.28496864,314.28036,-75.94604,12.530537,STN
14477391611000,4.060058,2.89934705597007,12.2302597702743,5.13789434483791,0.605062,-1.2452488,0.43493605,314.46542,-75.67935,12.844282,STN
14477396494000,4.064941,2.88535303553117,13.2471629076309,5.10990610912718,0.46028697,-1.3310753,0.49846604,314.68378,-75.380615,13.175075,STN
14477401590000,4.070037,2.49209546172142,14.1804850364558,2.27024274560873,0.40408736,-1.4104879,0.59437186,314.895,-75.08135,13.491302,STN
14477406552000,4.074999,2.02425919978555,15.060572809728,-1.1250437952627,0.37232238,-1.4840971,0.68844515,315.12473,-74.76266,13.816983,STN
14477411598000,4.080045,1.48134559941764,15.1181745061356,-3.19803286803245,0.38820487,-1.5109752,0.7806858,315.38953,-74.49883,14.10406,STN
14477416489000,4.084936,0.935786288019967,14.9330738583611,-4.81035518881032,0.410196,-1.3542882,0.89919364,315.61542,-74.212006,14.410742,STN
14477421597000,4.090044,0.125732557482185,14.257402618369,-5.23922202513856,0.5045747,-1.0299188,1.003957,316.16302,-74.368256,14.481558,STN
14477426494000,4.094941,-0.695811309857482,13.519405719715,-5.41559884055819,0.66828656,-0.6441574,0.98929626,316.6346,-74.51259,14.540717,STN
14477431596000,4.100043,-1.22573036835991,12.7735068231935,-4.45479426551487,0.8378017,-0.23579398,0.8527679,317.16656,-74.840355,14.455511,STN
14477436568000,4.105015,-1.67104526255168,12.05162802658,-3.26885033942705,0.9660834,0.14569137,0.6930266,317.57278,-75.14259,14.358146,STN
14477442090000,4.110537,-2.30066633099456,11.135257191363,2.08980096828065,1.0488557,0.46792278,0.59956425,317.91156,-75.538185,14.138453,STN
14477446528000,4.114975,-2.83119098931951,10.3779759743306,7.12978475328166,1.1029172,0.31245756,0.5561928,318.26385,-75.91979,13.898994,STN
14477451583000,4.12003,-2.61296401508554,10.1559130497667,7.28674331726283,0.7296785,-0.7128797,0.46211955,318.67993,-76.2785,13.61606,STN
14477456608000,4.125055,-2.196655024757,10.0904261341855,6.08927038277605,-0.062002823,-1.2177598,0.35185838,318.98853,-76.6207,13.316811,STN
14477461581000,4.130028,-1.21121379942014,11.2403435788403,4.28135293190234,-0.5861252,-0.6243043,0.32284227,318.87683,-76.74616,13.147502,STN
14477466913000,4.13536,0.0406999597456764,12.8870515005086,2.13076254846389,-0.87598073,0.58276546,0.36774087,318.73248,-76.845726,12.96548,STN
14477471620000,4.140067,1.43762335468626,14.3791085384996,2.54848079995051,-1.0732902,1.7391334,0.5213735,318.48993,-76.87484,12.831729,STN
14477476573000,4.14502,2.96335826405384,15.9564836444972,3.4310597621536,-1.3164146,2.3118196,0.7480045,318.06186,-76.82428,12.721773,STN
14477481571000,4.150018,4.41039239501059,16.8957110360858,3.69658752184479,-1.5060883,2.0344868,0.91690874,317.63873,-76.714645,12.711416,STN
