timestamp,rel_time,acc_x,acc_y,acc_z,gyro_x,gyro_y,gyro_z,azimuth,pitch,roll,label
42809702623000,0,0.0697500380106602,9.76883148361234,1.26044921645025,-0.026572637,-0.013744468,0.057421334,150.06181,-66.21156,-16.92232,STD
42809707574000,0.004951,0.0737540671441707,9.76788934011227,1.25832943538473,-0.035124753,-0.0067195175,0.0571159,150.21826,-66.31669,-16.726917,STD
42809712568000,0.009945,0.0777928717276389,9.76693901398838,1.25619124377875,-0.04184427,-0.0015271631,0.052839845,150.36919,-66.422966,-16.534185,STD
42809717589000,0.014966,0.0818535120587552,9.76598354993791,1.25404149206597,-0.03940081,-0.006414085,0.06414085,150.51917,-66.5295,-16.339987,STD
42809722626000,0.020003,0.0859270920921812,9.7650250411902,1.25188488991953,-0.032070424,0.004581489,0.062308256,150.66415,-66.6293,-16.155214,STD
42809727570000,0.024947,0.0899254601059312,9.76408422974517,1.24976810591873,-0.03970624,0.01160644,0.06169739,150.81007,-66.726204,-15.969174,STD
42809732555000,0.029932,0.0939569861068501,9.76313561626347,1.24763376768168,-0.045814894,0.017715093,0.065973446,150.95241,-66.82269,-15.785988,STD
42809737577000,0.034954,0.0980184351693607,9.76217996191943,1.2454835878168,-0.030543262,0.017715093,0.065973446,151.09444,-66.91836,-15.607001,STD
42809742563000,0.03994,0.102050769901674,9.76123115814416,1.24334882142765,-0.03604105,0.028405234,0.06261369,151.23122,-67.00599,-15.431932,STD
42809748141000,0.045518,0.106561873619453,9.76016970057126,1.2409605889931,-0.032070424,0.029932396,0.060170226,151.37007,-67.09632,-15.258548,STD
42809752584000,0.049961,0.110155067204625,9.75932422620834,1.23905830919626,-0.032986723,0.03176499,0.06414085,151.50511,-67.18253,-15.087891,STD
42809757572000,0.054949,0.114189019399727,9.75837504184591,1.23692268650291,-0.04153884,0.028710667,0.062308256,151.64143,-67.26388,-14.921778,STD
42809762559000,0.059936,0.118222162863435,9.75742604777706,1.23478749196165,-0.044898596,0.03023783,0.06841691,151.77444,-67.34597,-14.755498,STD
42809767582000,0.064959,0.122284420657339,9.75647020313944,1.23263688394466,-0.04428773,0.03634648,0.06841691,151.90732,-67.42323,-14.593999,STD
42809772579000,0.069956,0.126325651434991,9.75551930613482,1.23049740788237,-0.03604105,0.033292156,0.055283304,152.04251,-67.497856,-14.436224,STD
42809777564000,0.074941,0.13035717743591,9.75457069265312,1.22836306964532,-0.03176499,0.030543262,0.055588737,152.17429,-67.572044,-14.277741,STD
42809782547000,0.079924,0.13438708597404,9.75362245975858,1.22622958771248,-0.03756821,0.019547688,0.05589417,152.30992,-67.64124,-14.124171,STD
42809787582000,0.084959,0.138459048544677,9.75266433159803,1.22407384187025,-0.029321533,0.010995574,0.055588737,152.4452,-67.71235,-13.972908,STD
42809792564000,0.089941,0.142488148351413,9.75171628899707,1.22194078808951,-0.03176499,0.0125227375,0.052534413,152.5804,-67.77735,-13.824447,STD
42809797577000,0.094954,0.146542318831374,9.75076234729522,1.21979446159356,-0.026572637,0.018325957,0.04917465,152.7163,-67.84379,-13.677959,STD
42809802590000,0.099967,0.150596489311336,9.74980840559336,1.21764813509761,-0.03604105,0.017715093,0.043676864,152.85344,-67.90358,-13.534576,STD
42809807565000,0.104942,0.146938465791833,9.75134099429183,1.21319204645174,-0.042455133,0.013133603,0.049480084,152.98877,-67.96476,-13.39124,STD
42809812559000,0.109936,0.128674234178119,9.75758928469497,1.20430024818429,-0.03756821,0.013744468,0.04795292,153.12335,-68.02233,-13.25378,STD
42809818048000,0.115425,0.108599671237055,9.76445689903675,1.19452710427359,-0.04642576,0.019242255,0.050396383,153.2507,-68.08701,-13.100401,STD
42809822570000,0.119947,0.0920616545455824,9.77011464216911,1.18647570023566,-0.028405234,0.014966198,0.05222898,153.38048,-68.15679,-12.94896,STD
42809827560000,0.124937,0.0738120518718878,9.77635792793435,1.17759102395321,-0.029626964,0.01985312,0.04184427,153.50671,-68.21679,-12.803602,STD
42809832550000,0.129927,0.0555624491981931,9.78260121369961,1.16870634767076,-0.016798794,0.01863139,0.04550946,153.63412,-68.285126,-12.655129,STD
42809837574000,0.134951,0.0371885005343369,9.78888703888691,1.15976113451584,-0.015882496,0.022602014,0.04428773,153.75981,-68.34618,-12.513742,STD
42809842613000,0.13999,0.0187596933454096,9.79519163146629,1.15078921391718,-0.015577064,0.022907447,0.044593163,153.88612,-68.409256,-12.372541,STD
42809847588000,0.144965,0.000564949196786124,9.80141614983946,1.14193124507846,0.002443461,0.02076942,0.04734206,154.01164,-68.47522,-12.233136,STD
42809852637000,0.150014,-0.0179004303421887,9.80773325401356,1.13294151951732,0.004276057,0.01740966,0.042760566,154.1378,-68.5347,-12.097531,STD
42809857605000,0.154982,-0.0360695738457789,9.81394901427042,1.12409601415234,0.0018325958,0.005497787,0.04550946,154.2658,-68.597374,-11.960198,STD
42809862603000,0.15998,-0.0543484343995116,9.82020230931145,1.1151970938999,0.01160644,-0.0009162979,0.04428773,154.39372,-68.66032,-11.8272915,STD
42809867598000,0.164975,-0.07261632324823,9.82645185087406,1.1063035151362,0.0018325958,-0.0067195175,0.047036625,154.52391,-68.717545,-11.693449,STD
42809872610000,0.169987,-0.0909463850920292,9.8327226621477,1.09737966793627,-0.006414085,-0.01160644,0.04642576,154.65576,-68.775085,-11.562224,STD
42809877603000,0.17498,-0.109206959470738,9.83896970139137,1.08848965016506,-0.021991149,-0.013133603,0.058948494,154.78656,-68.8295,-11.428293,STD
42809882572000,0.179949,-0.127379760209333,9.84518671280771,1.07964236430384,-0.01160644,-0.008857546,0.073303826,154.91669,-68.88682,-11.295909,STD
42809887633000,0.18501,-0.145889026568365,9.85151883089547,1.07063127278771,-0.009468411,0.0036651916,0.07086037,155.04501,-68.93631,-11.167112,STD
42809892610000,0.189987,-0.164091085186998,9.85774585158758,1.06176974295649,-0.016493361,0.0106901415,0.0852157,155.1706,-68.989334,-11.031611,STD
42809897598000,0.194975,-0.182333373390683,9.86398663503389,1.05288862766653,0.0033597588,0.0106901415,0.092240654,155.29527,-69.04638,-10.901095,STD
42809902648000,0.200025,-0.200802410164663,9.87030499036746,1.04389712160914,0.01038471,0.014660766,0.100792766,155.41527,-69.0995,-10.769111,STD
42809907571000,0.204948,-0.218806978093039,9.87646444844809,1.03513173857537,0.027488936,0.014966198,0.10873401,155.53548,-69.15926,-10.636966,STD
42809912610000,0.209987,-0.237235785281967,9.88276904102747,1.02615981797672,0.046731193,0.02107485,0.108123146,155.6528,-69.21965,-10.507614,STD
42809917581000,0.214958,-0.255415900490571,9.88898855476275,1.01730897112299,0.05955936,0.023823744,0.12370021,155.76863,-69.284485,-10.373366,STD
42809922569000,0.219946,-0.273658188694256,9.89522933820906,1.00842785583304,0.06994407,0.02443461,0.1151481,155.88545,-69.34808,-10.248123,STD
42809927565000,0.224942,-0.291929734777979,9.90148013093115,0.999532496573088,0.07452556,0.019242255,0.121256754,156.00027,-69.41595,-10.116358,STD
42809932547000,0.229924,-0.310150079571636,9.90771340742062,0.990662064260626,0.098043874,0.029932396,0.12461651,156.11142,-69.48763,-9.991028,STD
42809937580000,0.234957,-0.328556943350535,9.91401049304317,0.981700826639466,0.09590584,0.025045475,0.11881329,156.22842,-69.5518,-9.8666,STD
42809942570000,0.239947,-0.34680654602423,9.92025377880842,0.972816150357012,0.10903945,0.018325957,0.11789699,156.34213,-69.62489,-9.742604,STD
42809947568000,0.244945,-0.365085406577962,9.92650707384945,0.963917230104566,0.121256754,0.016187929,0.12156218,156.4559,-69.695206,-9.620739,STD
42809952614000,0.249991,-0.383539814411923,9.93282042454513,0.954932846032169,0.12308934,-0.0015271631,0.12003502,156.57619,-69.763504,-9.500364,STD
42809957598000,0.254975,-0.401767473675589,9.93905620335355,0.946058852727209,0.10751228,-0.022907447,0.12644911,156.69687,-69.83016,-9.378107,STD
42809962590000,0.259967,-0.420024390819293,9.94530199143775,0.937170615452257,0.12217305,-0.036957346,0.12156218,156.82133,-69.901306,-9.260182,STD
42809967629000,0.265006,-0.438453198008221,9.95160658401712,0.928198694853603,0.115453534,-0.048258353,0.11178834,156.9505,-69.96157,-9.141951,STD
42809972609000,0.269986,-0.456666228331868,9.95783735818766,0.919331823533639,0.112399206,-0.06811147,0.10293079,157.08592,-70.02416,-9.024516,STD
42809977606000,0.274983,-0.474941431650596,9.96408940206921,0.910434683777442,0.12461651,-0.07513642,0.082161374,157.22244,-70.08444,-8.9147415,STD
42809982546000,0.279923,-0.493008172574053,9.97027012986086,0.901639032307437,0.12675454,-0.0870483,0.050701816,157.36705,-70.137314,-8.809651,STD
42809987582000,0.284959,-0.511426008057966,9.97657096896183,0.89267245319753,0.1255328,-0.1020145,0.035430185,157.51428,-70.19038,-8.706317,STD
42809992571000,0.289948,-0.529671953496656,9.98281300356761,0.883789557411325,0.12736541,-0.10598512,0.012217305,157.66463,-70.238396,-8.614828,STD
42809997567000,0.294944,-0.547943499580379,9.98906379628969,0.874894198151377,0.13316862,-0.1142318,-0.004886922,157.82037,-70.28475,-8.525221,STD
42810002621000,0.299998,-0.566427165294378,9.99538715626115,0.865895570108988,0.13897185,-0.13316862,-0.025961773,157.9818,-70.32705,-8.442664,STD
42810007602000,0.304979,-0.634244459998027,9.98522164913666,0.856726859654662,0.14019357,-0.15088372,-0.05009095,158.14609,-70.36612,-8.365794,STD
42810012563000,0.30994,-0.74206315301924,9.96178282091761,0.847351328367045,0.13775012,-0.18753563,-0.06994407,158.32137,-70.40271,-8.290868,STD
42810017572000,0.314949,-0.832331113395006,9.94780487301587,0.862735611722778,0.14905111,-0.20433442,-0.08246681,158.42859,-70.457375,-8.296132,STD
42810022567000,0.319944,-0.904876067353149,9.94296844444444,0.901426257537155,0.15118915,-0.23518312,-0.103847094,158.55234,-70.50443,-8.304188,STD
42810027535000,0.324912,-0.960011445409156,9.93857674105103,0.940857845409156,0.15302174,-0.2443461,-0.11453723,158.65952,-70.54737,-8.335874,STD
42810032554000,0.329931,-1.00068673041804,9.93450955445545,0.981533130418042,0.15241088,-0.28313604,-0.12736541,158.7859,-70.5863,-8.367634,STD
42810037499000,0.334876,-1.03849416723077,9.92946934153846,1.01430168830769,0.1600467,-0.29168814,-0.13713925,158.9056,-70.617424,-8.415888,STD
42810042565000,0.339942,-1.06515140356044,9.91880624659341,1.00897025217582,0.16218472,-0.312763,-0.1414153,159.04092,-70.645195,-8.460344,STD
42810047552000,0.344929,-1.08053679286974,9.90214052291871,1.00720710713026,0.17287487,-0.32467487,-0.15241088,159.17885,-70.660385,-8.518206,STD
42810052576000,0.349953,-1.07582436944172,9.87386588393732,1.01191953055828,0.17928895,-0.344528,-0.16584991,159.32646,-70.673454,-8.573878,STD
42810057521000,0.354898,-1.06976329761461,9.84743624403652,1.00520463423972,0.1863139,-0.35155296,-0.18020524,159.48102,-70.675995,-8.640483,STD
42810062553000,0.35993,-1.0603021299303,9.82378332482576,0.97209052264651,0.19486602,-0.3555236,-0.19058995,159.6424,-70.6787,-8.706461,STD
42810067544000,0.364921,-1.06491257027668,9.80410257529644,0.946830097747036,0.21624629,-0.33964106,-0.20861048,159.81464,-70.666565,-8.782806,STN
42810073195000,0.370572,-1.11304166822134,9.79340755523715,0.941482420197628,0.2284636,-0.3295618,-0.22388211,159.9918,-70.65281,-8.858438,STN
42810077543000,0.37492,-1.15103210744805,9.79205381442999,0.932831003413284,0.25350907,-0.31490102,-0.2434298,160.18137,-70.62298,-8.948655,STN
42810082555000,0.379932,-1.19764210134978,9.81069769518353,0.909526035664207,0.267559,-0.2947425,-0.26847526,160.37029,-70.59031,-9.043532,STN
42810087563000,0.38494,-1.24420769173193,9.83208941797768,0.888757430668792,0.28527406,-0.27305678,-0.2837469,160.57303,-70.528725,-9.160633,STN
42810092563000,0.38994,-1.29066804934507,9.86527536294961,0.878801626385751,0.31398472,-0.24709499,-0.31337386,160.77464,-70.46792,-9.287529,STN
42810097604000,0.394981,-1.33750938189064,9.89873343267032,0.868764184507589,0.33628133,-0.23518312,-0.33108896,161.00206,-70.36357,-9.439407,STN
42810102571000,0.399948,-1.39871180966316,9.92003363136842,0.863450936505263,0.36346483,-0.21655174,-0.36468655,161.22704,-70.261505,-9.602497,STN
42810107569000,0.404946,-1.49444155507368,9.91499512126316,0.868489341389474,0.37018433,-0.20616703,-0.40317106,161.45563,-70.15685,-9.768004,STN
42810112562000,0.409939,-1.5778880236945,9.87799397379229,0.863933598865637,0.39920044,-0.20219639,-0.43768495,161.73486,-69.98554,-9.977078,STN
42810117727000,0.415104,-1.64560745695287,9.79092639800509,0.84458520379425,0.40744713,-0.20861048,-0.47494772,162.02097,-69.8062,-10.191583,STN
42810122551000,0.419928,-1.71183735173212,9.69684404699411,0.818377557135965,0.4098906,-0.20952678,-0.5143485,162.38274,-69.50953,-10.46682,STN
42810127563000,0.42494,-1.78594554885651,9.57641820853035,0.776691675094085,0.4202753,-0.2302962,-0.55680364,162.75922,-69.21488,-10.742221,STN
42810132525000,0.429902,-1.8553881746929,9.45455976244014,0.713708356406413,0.43676865,-0.226631,-0.5919284,163.24522,-68.75767,-11.087917,STN
42810137576000,0.434953,-1.91581598092859,9.32363233187591,0.592852764967729,0.44440445,-0.21685717,-0.63804877,163.74449,-68.301254,-11.434259,STN
42810142955000,0.440332,-1.98660748150233,9.20867911849767,0.459504536064635,0.473726,-0.19120082,-0.6783658,164.43704,-67.57763,-11.884389,STN
42810147587000,0.444964,-2.05548915153339,9.13979744846661,0.338961694426436,0.48197266,-0.17867808,-0.6936375,165.13605,-66.86591,-12.31891,STN
42810152567000,0.449944,-2.12793635334167,9.06875285950572,0.206919434464756,0.4908302,-0.14508049,-0.7263188,166.20947,-65.64947,-12.930055,STN
42810157571000,0.454948,-2.19706171231849,9.00423595403404,0.0686686217146841,0.52381694,-0.11575896,-0.7703011,167.28088,-64.48087,-13.506645,STN
42810162510000,0.459887,-2.27269256401816,8.93533437003405,-0.0625590484199773,0.5296202,-0.09193522,-0.8197812,168.35953,-63.31954,-14.084977,STN
42810167560000,0.464937,-2.37749290918378,8.84550575585595,-0.177340396283975,0.5503896,-0.09101892,-0.86926126,169.43726,-62.20423,-14.634843,STN
42810172520000,0.469897,-2.48445514937286,8.75670690535918,-0.282537627029647,0.5739079,-0.096516706,-0.9230174,170.53275,-61.07284,-15.192075,STN
42810177562000,0.474939,-2.60374846693273,8.6649428886355,-0.369713505199544,0.59773165,-0.12705997,-0.990518,171.63701,-59.977394,-15.722003,STN
42810182544000,0.479921,-2.72328398384781,8.5703820859399,-0.457066375190237,0.6273586,-0.1881465,-1.0644327,172.7701,-58.879604,-16.254,STN
42810187585000,0.484962,-2.85200861486001,8.456510595221,-0.551134366424982,0.6640105,-0.2761111,-1.1429288,173.9217,-57.817516,-16.755651,STN
42810192563000,0.48994,-2.98435890268865,8.36036974860171,-0.64960369250417,0.70554936,-0.3817908,-1.2281445,175.07312,-56.800938,-17.251429,STN
42810197549000,0.494926,-3.13429493371602,8.31819937297616,-0.766741261694633,0.75533485,-0.5012149,-1.3286319,176.25914,-55.816208,-17.716545,STN
42810202592000,0.499969,-3.27820544124962,8.29450248700839,-0.899371657324841,0.81061816,-0.6252206,-1.4352279,177.48773,-54.83472,-18.178215,STN
42810207560000,0.504937,-3.38883980266909,8.34741512759074,-1.08696903312102,0.8881981,-0.7357872,-1.5366315,178.7527,-53.890926,-18.606098,STN
42810212588000,0.509965,-3.49509467552697,8.44542453973281,-1.30402560741217,0.9807441,-0.8552113,-1.6352862,180.0882,-52.933304,-19.029741,STN
42810217626000,0.515003,-3.58103861801089,8.70325596833251,-1.61915323033152,1.0690142,-0.94225967,-1.7400496,181.45384,-52.013783,-19.422247,STN
42810222588000,0.519965,-3.6383016680949,9.01770466292922,-1.94451360281309,1.1847731,-0.9950995,-1.8316795,182.97072,-51.036053,-19.80315,STN
42810227606000,0.524983,-3.5853813347282,9.58058395585144,-2.33419925555111,1.3063353,-1.0021244,-1.9242256,184.50288,-50.110325,-20.150028,STN
42810232535000,0.529912,-3.51176107784651,10.1649777338102,-2.69771965544172,1.4410311,-0.91813046,-1.9874501,186.18391,-49.103855,-20.467793,STN
42810237568000,0.534945,-3.34404391742703,10.896411617775,-2.98656593832399,1.5424347,-0.8524625,-2.0305161,187.85963,-48.167614,-20.737902,STN
42810242554000,0.539931,-3.16636867561117,11.6204122414726,-3.25944468143782,1.5855007,-0.66767573,-2.0390682,189.47203,-47.374935,-20.98128,STN
42810247549000,0.544926,-2.9075200434728,12.3414901325732,-3.43971432314233,1.6563611,-0.453262,-2.0418172,191.0439,-46.662094,-21.19852,STN
42810252645000,0.550022,-2.64764310718365,13.0685845894199,-3.6150090419998,1.7119498,-0.2434298,-2.0259347,192.53525,-46.102386,-21.35443,STN
42810257568000,0.554945,-2.44925035037571,13.6637630078148,-3.67641627806833,1.7916678,-0.092240654,-2.0097466,193.96733,-45.611977,-21.49746,STN
42810262628000,0.560005,-2.21498647271922,14.2277105876882,-3.69728611333038,1.9156734,-0.013439035,-1.9895881,195.38162,-45.269684,-21.567423,STN
42810267587000,0.564964,-1.60504396758193,14.1814390327724,-3.18829966811338,2.080607,0.005192355,-1.9672915,196.74962,-45.000206,-21.615818,STN
42810272548000,0.569925,-0.994855468290522,14.135148816209,-2.67910794503986,2.2531765,-0.052534413,-1.9156734,198.11086,-44.869022,-21.579035,STN
42810277563000,0.57494,-0.644747352276625,13.6723060007377,-2.1510197628308,2.403144,-0.17379116,-1.8310685,199.45381,-44.815655,-21.493893,STN
42810282664000,0.580041,-0.356459419715076,13.0957302579069,-1.61047989221761,2.4920247,-0.34605515,-1.7302758,200.79324,-44.83194,-21.348574,STN
42810287552000,0.584929,-0.167555325150156,12.4950838548287,-1.04717764193146,2.4911084,-0.5662721,-1.6331482,202.21387,-44.906036,-21.03332,STN
42810292559000,0.589936,-0.0231543893570094,11.8527486672897,-0.444677116915888,2.414445,-0.8005389,-1.5399913,203.6486,-45.02713,-20.644228,STN
42810297548000,0.594925,0.0733484530170717,11.3698662715405,0.0671799820245029,2.251344,-1.0650436,-1.4871514,205.15681,-45.098602,-20.14484,STN
42810302622000,0.599999,0.151424720243824,10.9453261488251,0.550276907973489,2.0360138,-1.3497068,-1.4440855,206.69704,-45.17935,-19.566378,STN
42810307570000,0.604947,0.194276604586521,10.6781096103825,0.917660421967213,1.7913623,-1.6377298,-1.4236214,208.3391,-45.1789,-18.923399,STN
42810312562000,0.609939,0.224754928695811,10.4647616234973,1.24856782655738,1.5042557,-1.928807,-1.400714,210.0209,-45.15145,-18.20429,STN
42810317554000,0.614931,0.22898081219697,10.3255670328283,1.40518066077441,1.2611313,-2.2180517,-1.3848315,211.77637,-45.05331,-17.417862,STN
42810322572000,0.619949,0.208755040909091,10.2547764848485,1.40012422323232,1.0231993,-2.482251,-1.3643675,213.56085,-44.92139,-16.564291,STN
42810327563000,0.62494,0.107610677292981,10.2426387180599,1.16738000209976,0.8026769,-2.687807,-1.3219124,215.37495,-44.73338,-15.649823,STN
42810332549000,0.629926,-0.0430201084444006,10.2661747614353,0.795510271007492,0.61758476,-2.7601945,-1.2800682,217.1828,-44.53215,-14.699059,STN
42810337573000,0.63495,-0.210402954822476,10.2934230321087,0.268106193306576,0.49174652,-2.8032606,-1.2428054,219.00682,-44.329018,-13.715901,STN
42810342561000,0.639938,-0.38738021831944,10.3229198372955,-0.36114627403108,0.4447099,-2.7250698,-1.171945,220.77219,-44.14408,-12.725042,STN
42810347552000,0.644929,-0.561976294784994,10.3152341413459,-0.968159000856108,0.38056904,-2.5378397,-1.0934488,222.50182,-43.99097,-11.774151,STN
42810352656000,0.650033,-0.739129855400137,10.2865059556274,-1.57622666309923,0.36957347,-2.259896,-0.9990701,224.14917,-43.885017,-10.842816,STN
42810357568000,0.654945,-0.935621796182823,10.2117856599699,-2.04529042365645,0.39858958,-1.8933768,-0.91446525,225.71498,-43.860264,-9.994435,STN
42810362561000,0.659938,-1.15177096801808,10.1061131158212,-2.44876886036163,0.47158796,-1.4801265,-0.82619524,227.17087,-43.88548,-9.19869,STN
42810367549000,0.664926,-1.3904113827289,9.9785271454219,-2.61540018969479,0.55741453,-1.033584,-0.7443393,228.5227,-44.003647,-8.51444,STN
42810372568000,0.669945,-1.64497992854578,9.83614117908438,-2.63265906193896,0.63255095,-0.61422503,-0.68752885,229.76573,-44.1696,-7.903504,STN
42810377566000,0.674943,-1.93654279643945,9.67336021783426,-2.54987085722088,0.6969972,-0.24770586,-0.6374379,230.83144,-44.450928,-7.4515214,STN
42810382546000,0.679923,-2.28718605576095,9.47800205167524,-2.30942975166474,0.75502944,0.06505715,-0.59956425,231.80539,-44.768887,-7.068849,STN
42810387568000,0.684945,-2.64367731649083,9.26439977281573,-2.01065075878316,0.75686204,0.28069258,-0.57848936,232.78444,-45.036747,-6.730935,STN
42810392563000,0.68994,-3.00135825119328,9.03411200778449,-1.65296977291816,0.754724,0.419359,-0.55955255,233.6968,-45.33603,-6.4372334,STN
42810398277000,0.695654,-3.34240820309708,8.75309899702204,-1.25442476366885,0.7086037,0.47952923,-0.5564982,234.56349,-45.589405,-6.2216754,STN
42810402611000,0.699988,-3.56489358113957,8.53061387710939,-0.957777637401231,0.65148777,0.49693888,-0.5699373,235.4001,-45.851536,-6.0266714,STN
42810407570000,0.704947,-3.72599284869497,8.27950696546834,-0.685406209683837,0.5699373,0.4569272,-0.57696223,236.15872,-46.073055,-5.9136133,STN
42810412568000,0.709945,-3.80142262728258,8.02964565775633,-0.47326008170393,0.47800204,0.39828414,-0.5656612,236.91022,-46.285324,-5.798316,STN
42810417569000,0.714946,-3.78973321391528,7.8158221172209,-0.350127830922407,0.37965274,0.33505958,-0.5366451,237.45781,-46.53141,-5.840489,STN
42810422594000,0.719971,-3.68495132110055,7.63959799311164,-0.321550958297704,0.2968805,0.28038713,-0.46944994,238.0063,-46.76125,-5.858694,STN
42810427566000,0.724943,-3.55473205309524,7.45843226426587,-0.36371724456746,0.22021692,0.2565634,-0.3753767,238.46358,-46.965626,-5.9195385,STN
42810432592000,0.729969,-3.39237849142857,7.26742835857143,-0.487869905428571,0.16187929,0.2602286,-0.258396,238.91022,-47.158253,-5.9527826,STN
42810437550000,0.734927,-3.21520391033479,7.07465736721009,-0.605014428155265,0.12522738,0.29657507,-0.19975294,239.3552,-47.323284,-5.973098,STN
42810442595000,0.739972,-3.01359851368268,6.87305187264435,-0.717538426374575,0.113926366,0.34972036,-0.08674286,239.76375,-47.48977,-5.958969,STN
42810447543000,0.74492,-2.78088343802873,6.68595648972466,-0.819969191578212,0.1001819,0.42302418,0.016493361,240.19678,-47.624786,-5.8957577,STN
42810452603000,0.74998,-2.48599336181165,6.51192292847167,-0.911820170209497,0.112399206,0.49296826,0.10140363,240.60143,-47.77232,-5.8210883,STN
42810457516000,0.754893,-2.20684521016848,6.37493686561659,-0.990330245638521,0.11636983,0.571159,0.17073683,241.06519,-47.87382,-5.6710434,STN
42810462593000,0.75997,-1.93055948608314,6.28768884078357,-1.05334279518493,0.1337795,0.63713247,0.23548855,241.4993,-47.99161,-5.5165486,STN
42810468234000,0.765611,-1.67124374157651,6.1968157621602,-1.11170718190745,0.14538592,0.6933321,0.2883284,242.03334,-48.045956,-5.24442,STN
42810472597000,0.769974,-1.51549071066461,6.13223507170652,-1.14589689387217,0.16523905,0.7648033,0.35185838,242.52805,-48.119034,-4.9784617,STN
42810477502000,0.774879,-1.35256658572608,6.06122300002064,-1.18439179747136,0.1740966,0.82741696,0.4111123,243.08371,-48.159622,-4.6294594,STN
42810482601000,0.779978,-1.24672752317061,5.99570366554856,-1.22471142030137,0.16829337,0.8686504,0.48349985,243.60268,-48.21413,-4.2850604,STN
42810487516000,0.784893,-1.17390903084416,5.93944305681818,-1.25013087532468,0.14966199,0.9095783,0.54519725,244.1037,-48.278667,-3.936477,STN
42810492611000,0.789988,-1.19866237702922,5.90478837215909,-1.23032819837662,0.13347405,0.95081174,0.6178902,244.57034,-48.35251,-3.5896246,STN
42810497568000,0.794945,-1.24743746385452,5.88255808856393,-1.23064664390701,0.10293079,0.9798279,0.68508536,244.97055,-48.45685,-3.2769113,STN
42810502647000,0.800024,-1.36598407569366,5.89167705504312,-1.28536049039183,0.06780604,1.0009027,0.7486154,245.34595,-48.561268,-2.9646068,STN
42810507522000,0.804899,-1.48439057308941,5.9000941859939,-1.34211286713223,0.03573562,1.0253373,0.8127562,245.71965,-48.641148,-2.6387503,STN
42810512595000,0.809972,-1.64048868415462,5.90646549877053,-1.43131176160454,-0.00061086525,1.0476339,0.8539896,246.07635,-48.71523,-2.3179293,STN
42810517581000,0.814958,-1.79390977261729,5.9127275459821,-1.51898092932363,-0.036957346,1.0735956,0.89644474,246.43591,-48.783607,-2.0086837,STN
42810522613000,0.81999,-1.94874629831809,5.91904736579129,-1.60745891808465,-0.07849618,1.10139,0.91751957,246.78069,-48.84587,-1.7100276,STN
42810527575000,0.824952,-2.10142889778696,5.92527927077801,-1.69470609221665,-0.113926366,1.1053606,0.93767816,247.10545,-48.90923,-1.4166485,STN
42810532600000,0.829977,-2.25605003086456,5.93159029910495,-1.78306099951477,-0.15302174,1.1206323,0.9447031,247.41559,-48.96484,-1.1384403,STN
42810537832000,0.835209,-2.41339517835292,5.9418011191248,-1.86496862852512,-0.17806722,1.1355985,0.95386606,247.71126,-49.026222,-0.87400436,STN
42810542605000,0.839982,-2.51989153213128,5.98810386061588,-1.83718698363047,-0.25167647,1.1328496,0.9569204,248.0034,-49.067398,-0.6173757,STN
42810547661000,0.845038,-2.62910272529578,6.03650038885981,-1.80534791874149,-0.27885997,1.0974194,0.9450085,248.30865,-49.15598,-0.42221367,STN
42810552620000,0.849997,-2.69374386921788,6.0762796062716,-1.74567911858444,-0.31948254,1.0549643,0.9392053,248.61075,-49.225163,-0.22906634,STN
42810557580000,0.854957,-2.74782538248363,6.11933806520532,-1.67498750204325,-0.37995818,0.9837985,0.91751957,248.92084,-49.292362,-0.052981783,STN
42810562607000,0.859984,-2.74305028095616,6.18141463436818,-1.54128460941282,-0.42943826,0.8912524,0.88606006,249.24438,-49.356842,0.12675986,STN
42810567581000,0.864958,-2.73587519354376,6.24872232324247,-1.4028305302726,-0.48441613,0.77549344,0.8491027,249.58739,-49.404686,0.30600587,STN
42810572601000,0.869978,-2.71288354552846,6.35448385609756,-1.22349553170732,-0.5458081,0.61666846,0.8155051,249.96127,-49.443275,0.49970126,STN
42810577735000,0.875112,-2.68762743934015,6.4651334928034,-1.04239195506463,-0.59620446,0.44684792,0.7611381,250.31665,-49.49908,0.6677651,STN
42810582586000,0.879963,-2.64281067607563,6.59958392298862,-0.89897817222651,-0.6569856,0.23884831,0.7153232,250.71732,-49.540684,0.86344534,STN
42810587939000,0.885316,-2.58943531518916,6.75193418851004,-0.745094326809902,-0.6979135,0.041233405,0.66767573,251.08618,-49.613297,1.0331854,STN
42810592595000,0.889972,-2.46031071292854,6.96853017767399,-0.70344128542737,-0.72204274,-0.16340645,0.6249151,251.50916,-49.67912,1.231086,STN
42810597581000,0.894958,-2.32203423808501,7.20047768668846,-0.658836031060252,-0.7309003,-0.35796702,0.5815437,251.95578,-49.75606,1.4396601,STN
42810602629000,0.900006,-2.25665595999244,7.27804561787773,-0.711990312399131,-0.7257079,-0.5296202,0.5510005,252.44733,-49.83666,1.6717552,STN
42810607547000,0.904924,-2.20770148256638,7.3225497305112,-0.783196920495134,-0.68936145,-0.6747007,0.52778757,252.9816,-49.931015,1.9228425,STN
42810612596000,0.909973,-2.17294714722005,7.34254788425998,-0.874947593803837,-0.6536258,-0.78893244,0.5006041,253.56143,-50.059658,2.2083523,STN
42810617570000,0.914947,-2.14497044212999,7.35187345262334,-0.972866129782694,-0.6062838,-0.86651236,0.47128254,254.16864,-50.21017,2.5021536,STN
42810622598000,0.919975,-2.14883643240143,7.33847705949821,-1.0749090390681,-0.5665775,-0.9239337,0.4569272,254.82175,-50.38146,2.827447,STN
42810627562000,0.924939,-2.16830974943164,7.31413541321045,-1.17714405514593,-0.5164866,-0.9425651,0.4364632,255.48792,-50.578735,3.144011,STN
42810632594000,0.929971,-2.2236715429465,7.31207723256351,-1.22491437004426,-0.46975538,-0.94806284,0.42852196,256.1823,-50.799564,3.4820678,STN
42810637609000,0.934986,-2.29299554513568,7.31900963036951,-1.25033318612875,-0.44501534,-0.93523467,0.41172317,256.87985,-51.03823,3.8040996,STN
42810642600000,0.939977,-2.36198778739415,7.325908852194,-1.27563035683218,-0.42210788,-0.90408057,0.39553526,257.59872,-51.29926,4.1239896,STN
42810647607000,0.944984,-2.43120120293976,7.33283019133949,-1.30100862445631,-0.3933972,-0.84574294,0.3848451,258.3077,-51.57846,4.4238625,STN
42810652677000,0.950054,-2.55432161949872,7.38237513116242,-1.36130144476021,-0.3894266,-0.77366084,0.37873647,258.98767,-51.87278,4.7033267,STN
42810657610000,0.954987,-2.71282182042629,7.46162518294849,-1.4452132642984,-0.40500367,-0.6844745,0.3622431,259.65277,-52.177593,4.9554477,STN
42810662592000,0.959969,-2.91397490971912,7.57840386513753,-1.51930184647682,-0.42760566,-0.59650993,0.35246924,260.27692,-52.51268,5.166487,STN
42810667654000,0.965031,-3.15426719859073,7.72917560155506,-1.58526444426086,-0.45631635,-0.49632803,0.34147367,260.88068,-52.847218,5.349084,STN
42810672595000,0.969972,-3.40903225621536,7.89805236769596,-1.6615569908947,-0.48166725,-0.41080686,0.32467487,261.47858,-53.21215,5.486711,STN
42810677609000,0.974986,-3.68942313558987,8.09289986152019,-1.75185236219319,-0.48655418,-0.35185838,0.301462,262.06174,-53.5788,5.6028743,STN
42810682585000,0.979962,-3.96740415114013,8.30293616825716,-1.85084322456052,-0.4810564,-0.31490102,0.27030787,262.63373,-53.983444,5.675119,STN
42810687609000,0.984986,-4.24772604092416,8.53492712757408,-1.96200534369663,-0.46273044,-0.30176744,0.21838433,263.20435,-54.393627,5.7279625,STN
42810692599000,0.989976,-4.47585094478841,8.76556392028272,-2.09479560270198,-0.41416663,-0.31306845,0.1695151,263.78815,-54.864315,5.7352996,STN
42810697599000,0.994976,-4.64721732217053,8.99690842238526,-2.25330951520086,-0.3539964,-0.31795537,0.115453534,264.37537,-55.34521,5.724021,STN
42810702629000,1.000006,-4.79222275813208,9.25008610579184,-2.42985026871126,-0.28802297,-0.31764993,0.07422013,264.98932,-55.894375,5.6725035,STN
42810707611000,1.004988,-4.84830608721949,9.56619235541782,-2.65928212276127,-0.22052236,-0.30695978,0.06414085,265.60315,-56.458454,5.613589,STN
42810712493000,1.00987,-4.86812976883951,9.85175990153086,-2.87498379424198,-0.16432275,-0.26939157,0.09743301,266.25024,-57.09301,5.535492,STN
42810717652000,1.015029,-4.81933301703704,10.1055027051852,-3.08480997985185,-0.13713925,-0.20769419,0.15088372,266.8838,-57.731407,5.454013,STN
42810722499000,1.019876,-4.76493851180812,10.3103328911439,-3.25740409483395,-0.109650314,-0.1554652,0.22815818,267.56387,-58.42727,5.417905,STN
42810727613000,1.02499,-4.68884469467858,10.4530089224121,-3.38581217535444,-0.10842858,-0.03940081,0.32253686,268.19897,-59.11083,5.378691,STN
42810732540000,1.029917,-4.6041021930292,10.5523981546554,-3.48508098995182,-0.11056661,0.09193522,0.37384954,268.8744,-59.833008,5.3739266,STN
42810737611000,1.034988,-4.48473351541638,10.5476235571232,-3.51850421968341,-0.13652839,0.27122417,0.4654793,269.4853,-60.530506,5.3756094,STN
42810742547000,1.039924,-4.36396299428544,10.5260494566383,-3.51480623260266,-0.17195857,0.4447099,0.5296202,270.0939,-61.235493,5.3965063,STN
42810747564000,1.044941,-4.22598982752943,10.4478647918063,-3.3906304161386,-0.19853121,0.61269784,0.56779927,270.64505,-61.91872,5.405807,STN
42810752567000,1.049944,-4.08856182165014,10.3621073285503,-3.25169762839207,-0.24404067,0.7452556,0.58001655,271.15488,-62.57391,5.4161015,STN
42810757569000,1.054946,-3.95209999983119,10.2306990149821,-3.02426120591897,-0.28924468,0.84879726,0.5717699,271.62262,-63.206966,5.4094005,STN
42810762548000,1.059925,-3.83231716690148,10.1182137064193,-2.78365160427622,-0.33964106,0.929126,0.5543602,272.04712,-63.772873,5.423208,STN
42810767579000,1.064956,-3.76061221420776,10.0608501236234,-2.49683194324834,-0.40500367,0.97035944,0.5131268,272.45596,-64.31227,5.4174385,STN
42810772589000,1.069966,-3.6914124134715,10.0300357507402,-2.22003280969652,-0.46822822,0.98715824,0.46486846,272.82993,-64.77405,5.4148364,STN
42810777565000,1.074942,-3.62968423108808,10.0829453451147,-1.97311989600296,-0.5458081,0.95905846,0.40378192,273.20898,-65.20871,5.3959303,STN
42810782571000,1.079948,-3.56780118233782,10.1431305630719,-1.72594986955896,-0.63071835,0.8943067,0.3408628,273.5651,-65.56155,5.3785048,STN
42810787571000,1.084948,-3.50872757279737,10.2908148439396,-1.49457853204482,-0.6985244,0.79626286,0.28344148,273.94193,-65.89614,5.3517537,STN
42810793347000,1.090724,-3.43262765360283,10.4675350396991,-1.24735984173389,-0.77366084,0.67347896,0.2302962,274.28284,-66.17973,5.2912173,STN
42810797572000,1.094949,-3.35928038223511,10.6105619929303,-1.11166739736246,-0.8393288,0.5140431,0.17592919,274.66418,-66.44736,5.230663,STN
42810802571000,1.099948,-3.27249623795885,10.7797908069428,-0.951116739513278,-0.895223,0.32375857,0.11575896,275.05255,-66.67677,5.1631665,STN
42810807569000,1.104946,-3.16064263907772,10.9697333589522,-0.90032763922927,-0.95569867,0.09682214,0.07696902,275.4942,-66.8867,5.1091056,STN
42810812586000,1.109963,-3.04234424602842,11.1568957996567,-0.872460146200057,-0.98837996,-0.13652839,0.05681047,275.98956,-67.090416,5.0656996,STN
42810817560000,1.114937,-2.87882168380852,11.279537839897,-1.00872896386002,-1.0216721,-0.35705075,0.048258353,276.5194,-67.262924,5.037671,STN
42810822889000,1.120266,-2.70341219154772,11.4077728175203,-1.1603508761265,-1.0216721,-0.55680364,0.048563786,277.12463,-67.43126,5.0542874,STN
42810827560000,1.124937,-2.5448280593059,11.4495054724321,-1.41909351088721,-1.0415252,-0.64996064,0.06169739,277.7539,-67.58588,5.0814447,STN
42810832527000,1.129904,-2.37619449372143,11.493882714339,-1.69423259606307,-1.0436633,-0.7678576,0.090713486,278.49048,-67.75968,5.1842365,STN
42810837576000,1.134953,-2.15751520347117,11.5499500324982,-2.07237896055941,-1.0543534,-0.8258898,0.13836098,279.22314,-67.925964,5.2915854,STN
42810842501000,1.139878,-1.93447543664353,11.6068964908945,-2.46151203581849,-1.0622946,-0.8063421,0.20616703,279.95163,-68.09175,5.408274,STN
42810847588000,1.144965,-1.7801368032,11.647619056,-2.80684712,-1.0732902,-0.73823065,0.27458394,280.71432,-68.29327,5.563438,STN
42810852558000,1.149935,-1.64414614853333,11.683883016,-3.13322465333333,-1.0790935,-0.6377433,0.33475417,281.4448,-68.490585,5.717968,STN
42810857565000,1.154942,-1.70228277860049,11.6578612318959,-3.19526722398517,-1.0885619,-0.51068336,0.3924809,282.16965,-68.73854,5.8829226,STN
42810862783000,1.16016,-1.8333000078926,11.6081649829129,-3.16364244548413,-1.0995574,-0.37201694,0.42332962,282.84778,-68.97874,6.034061,STN
42810867640000,1.165017,-1.89211341593004,11.5824536844365,-2.99451849727692,-1.103528,-0.22235495,0.44104472,283.50504,-69.2629,6.185025,STN
42810872569000,1.169946,-1.90200120261835,11.5725662591119,-2.71271784143276,-1.0937542,-0.07086037,0.42760566,284.11075,-69.54143,6.311549,STN
42810877562000,1.174939,-1.80054534256842,11.5462318053053,-2.40193011980632,-1.0687088,0.1001819,0.4034765,284.65594,-69.81328,6.403006,STN
42810882553000,1.17993,-1.63149187174737,11.5100061816421,-2.07589849813053,-1.028697,0.25442538,0.3726278,285.15506,-70.087845,6.4686584,STN
42810887547000,1.184924,-1.42968008297814,11.4443788650273,-1.72089984795628,-0.95172805,0.40622538,0.3436117,285.57385,-70.33216,6.507927,STN
42810892563000,1.18994,-1.12518161019126,11.2868792060109,-1.27465203838251,-0.89369583,0.52106804,0.32436943,285.95416,-70.5792,6.526111,STN
42810897583000,1.19496,-0.860013983086432,11.097622176286,-0.867686726557003,-0.8127562,0.6056729,0.32467487,286.25705,-70.77428,6.5430665,STN
42810902581000,1.199958,-0.650659178124941,10.8655114825521,-0.517244996805173,-0.7367035,0.66523224,0.33658674,286.53018,-70.98027,6.547004,STN
42810907533000,1.20491,-0.481201319790546,10.6235980475517,-0.176413295046703,-0.66248333,0.700357,0.3454443,286.7359,-71.11818,6.578163,STN
42810912567000,1.209944,-0.394779665275969,10.3506872346448,0.155627853608831,-0.5665775,0.7254025,0.34422258,286.92416,-71.27904,6.6023445,STN
42810917584000,1.214961,-0.327415592617027,10.0826468030317,0.471895810954333,-0.48288897,0.7425067,0.34666604,287.0619,-71.367226,6.6471376,STN
42810922559000,1.219936,-0.336500267991229,9.83281823024121,0.726266911154543,-0.41080686,0.7556403,0.3390302,287.19223,-71.47719,6.683742,STN
42810927543000,1.22492,-0.350550966315576,9.58595384018265,0.977263831933029,-0.3811799,0.8026769,0.32986724,287.26334,-71.52102,6.7317266,STN
42810932897000,1.230274,-0.41818819228412,9.35702755707763,1.20618978907154,-0.31703907,0.86162543,0.31581733,287.3273,-71.593544,6.7710347,STN
42810937561000,1.234938,-0.482385408815565,9.18833216778658,1.40470743114031,-0.2941316,0.95386606,0.29840767,287.34918,-71.60258,6.801591,STN
42810942568000,1.239945,-0.588184599314011,9.22199571868418,1.61149678221843,-0.29626966,1.0659598,0.25900686,287.35205,-71.6257,6.81338,STN
42810947567000,1.244944,-0.697528948697665,9.29483108720818,1.81571123200849,-0.3115413,1.2003502,0.22327125,287.2928,-71.6138,6.7985153,STN
42810952593000,1.24997,-0.832186281555084,9.62915269438549,2.0060888488906,-0.34513888,1.3613132,0.18325958,287.20068,-71.60121,6.7598195,STN
42810957650000,1.255027,-0.975941351456906,9.97870716174215,2.19373796222268,-0.398895,1.5415184,0.1600467,287.0317,-71.56473,6.678562,STN
42810962600000,1.259977,-1.21827439357939,10.4827599784276,2.32944443139761,-0.45356745,1.7779233,0.14446963,286.80972,-71.522064,6.5721107,STN
42810967603000,1.26498,-1.47506871314623,10.9927356725751,2.46759555219104,-0.5439755,2.0696115,0.129198,286.507,-71.460144,6.412647,STN
42810972603000,1.26998,-1.82871745760709,11.506705145741,2.61377034293452,-0.6261369,2.427273,0.10995574,286.12903,-71.38643,6.225615,STN
42810977602000,1.274979,-2.18980984742141,12.0180900088327,2.77508004995726,-0.72326446,2.8209758,0.08155051,285.6725,-71.307945,5.961714,STN
42810982586000,1.279963,-2.63860363957641,12.4986169086333,3.11507533270016,-0.8231409,3.2039883,0.047647487,285.13202,-71.205666,5.6667614,STN
42810987947000,1.285324,-3.12262255665025,13.0134903417111,3.4893042493214,-0.93859446,3.5188892,-0.0015271631,284.5093,-71.1036,5.2764096,STN
42810992600000,1.289977,-3.57060560344828,13.4166748733286,4.00000503026038,-1.0543534,3.7131443,-0.070554934,283.83148,-70.972,4.8568916,STN
42810997887000,1.295264,-4.07702843841932,13.8653971778266,4.58580816684962,-1.1343768,3.7116172,-0.15118915,283.10608,-70.81821,4.3487597,STN
42811002850000,1.300227,-4.48967026607125,14.0598609988025,5.26880135914579,-1.1600331,3.4394767,-0.24190263,282.42154,-70.643486,3.8372128,STN
42811007921000,1.305298,-4.91840017298521,14.2306795531423,5.95256053558226,-1.1136073,2.6648996,-0.35124752,281.84793,-70.428246,3.2881393,STN
42811012592000,1.309969,-5.46412955077634,13.7965765850277,6.28330575693161,-0.9101892,1.0925325,-0.51893,281.58932,-70.24776,2.8140492,STN
42811017581000,1.314958,-6.04701198832717,13.332920042976,6.63656799399261,-0.5183192,0.26908615,-0.6914995,281.29312,-70.055046,2.2699397,STN
42811022600000,1.319977,-5.97112507727597,12.7678850571924,6.21103135661127,-0.11789699,-1.1169671,-0.7476991,281.5832,-69.92102,1.9303784,STN
42811027516000,1.324893,-5.74554237159751,12.1919292235702,5.61587691167295,0.043982297,-2.1068742,-0.75594574,282.00256,-69.82993,1.6107571,STN
42811032600000,1.329977,-5.07117846727883,11.7248290293246,4.74668161796998,0.2864958,-2.7348437,-0.66339964,282.63907,-69.80362,1.3297523,STN
42811037510000,1.334887,-4.33761855278436,11.297692480154,3.85990982689573,0.42455134,-3.0586023,-0.4868596,283.44986,-69.79165,1.1425903,STN
42811042599000,1.339976,-3.64099466848369,11.0167093284274,3.07590203904788,0.4728097,-3.1270192,-0.27091873,284.36832,-69.87089,1.0468938,STN
42811047530000,1.344907,-2.98028967833197,10.7807437085037,2.34655252935405,0.46792278,-3.0448577,-0.0580322,285.31073,-69.97281,1.0126657,STN
42811052648000,1.350025,-2.34873375164858,10.5957395503965,1.71647869138147,0.40469822,-2.846632,0.1337795,286.2765,-70.16687,1.1094201,STN
42811057567000,1.354944,-1.77364275522746,10.4531955632826,1.18562543627922,0.3042109,-2.581822,0.30665436,287.1759,-70.34781,1.235583,STN
42811062592000,1.359969,-1.34007928040542,10.3657270117702,0.78760176227744,0.20555615,-2.2681427,0.4578435,288.06586,-70.603386,1.4801981,STN
42811067682000,1.365059,-0.966686703796357,10.30197672312,0.446084168330687,0.057726767,-1.9312505,0.5873469,288.85284,-70.81374,1.7252814,STN
42811072610000,1.369987,-0.644411843769507,10.2500393415226,0.171339416136651,-0.079107046,-1.5867225,0.6933321,289.61722,-71.05295,2.0634735,STN
42811077600000,1.374977,-0.347120865901518,10.2046900068536,-0.0654856050358499,-0.22327125,-1.2498302,0.7867944,290.2642,-71.24213,2.3834417,STN
42811082591000,1.379968,-0.103170135076223,10.151680275985,-0.222905813625025,-0.35521814,-0.9242391,0.86498517,290.81955,-71.43057,2.7249749,STN
42811087600000,1.384977,0.115264857786577,10.0946973227579,-0.341620482150069,-0.48075095,-0.61666846,0.9221011,291.26907,-71.57236,3.0402734,STN
42811092602000,1.389979,0.308572949921898,10.0347615854671,-0.410791505554128,-0.56413406,-0.33964106,0.9627236,291.62604,-71.70351,3.351413,STN
42811097666000,1.395043,0.49076614269303,9.97243233148789,-0.453942522918438,-0.61819565,-0.14019357,0.98715824,291.90814,-71.80043,3.639461,STN
42811102702000,1.400079,0.683775109234962,9.92213421053694,-0.47865281474566,-0.6435465,-0.009162978,1.0033462,292.1194,-71.88174,3.9213593,STN
42811107687000,1.405064,0.881328148622325,9.87876903744449,-0.493107921078926,-0.6243043,0.03176499,1.0256428,292.2929,-71.953545,4.1907334,STN
42811112584000,1.409961,1.08709455626726,9.76372894494185,-0.513437364793741,-0.5448918,0.0067195175,1.0433578,292.4325,-72.02503,4.46231,STN
42811118368000,1.415745,1.3373816811271,9.58296624056564,-0.541247050711238,-0.43310347,-0.040927973,1.0235047,292.56537,-72.107086,4.7190385,STN
42811122530000,1.419907,1.4206547485157,9.39646741292466,-0.528201285872897,-0.2855795,-0.15088372,1.0027353,292.7065,-72.20502,4.998225,STN
42811127555000,1.424932,1.23498931876541,9.00450664237488,-0.4147390584589,-0.21105394,-0.2932153,0.90133166,292.87585,-72.31609,5.2481565,STN
42811132529000,1.429906,1.04959123542185,8.64718805600378,-0.30315266016136,-0.060170226,-0.4007276,0.7281514,293.05692,-72.47089,5.4998813,STN
42811137570000,1.434947,0.858987222281349,8.3364206385718,-0.191276389885847,0.03970624,-0.45265114,0.5012149,293.27197,-72.640724,5.7089224,STN
42811142676000,1.440053,0.668627883261281,8.04133222903676,-0.0844216638008766,0.09132435,-0.453262,0.24953845,293.50305,-72.82441,5.8488617,STN
42811147593000,1.44497,0.518527953061062,7.99911665672876,-0.0609685519111465,0.10476339,-0.3885103,0.028710667,293.74274,-73.04084,5.927824,STN
42811152644000,1.450021,0.368335336671323,7.96491979531032,-0.0423206562456595,0.07971791,-0.26419923,-0.124311075,293.97284,-73.244415,5.9268866,STN
42811157603000,1.45498,0.283038498048294,8.07391027278986,-0.108662641676412,0.05589417,-0.089491755,-0.18051068,294.17706,-73.462875,5.8803005,STN
42811162755000,1.460132,0.190241525849283,8.18370892927646,-0.175579995162647,0.01985312,0.116980694,-0.18203785,294.3583,-73.678024,5.780486,STN
42811167637000,1.465014,0.0538038809037851,8.24791449927045,-0.215708719440391,-0.014660766,0.32986724,-0.13744467,294.48767,-73.88612,5.6650014,STN
42811172553000,1.46993,-0.0835839647643979,8.31256721989529,-0.256116914554974,-0.04734206,0.54733527,-0.07941248,294.5779,-74.101265,5.5294776,STN
42811177596000,1.474973,-0.322938574347175,8.33524280694749,-0.264729211043122,-0.06994407,0.7101309,-0.024129177,294.6209,-74.302536,5.3963995,STN
42811182523000,1.4799,-0.596119433687363,8.33995340846476,-0.260019184949092,-0.087659165,0.81214535,0.015882496,294.61847,-74.48871,5.2666626,STN
42811187774000,1.485151,-1.02708218746138,8.30706727655268,-0.16702329746884,-0.096516706,0.8042041,0.022296581,294.61395,-74.688965,5.1193314,STN
42811192509000,1.489886,-1.46667974887611,8.26359022105039,-0.0510854832310642,-0.10048734,0.6612616,-0.00030543262,294.6206,-74.88065,4.9810004,STN
42811197561000,1.494938,-1.92960924473901,8.16793792587836,0.0476301394587653,-0.0983493,0.37384954,-0.06383542,294.71606,-75.07874,4.832676,STN
42811202610000,1.499987,-2.39091943666636,8.06148188450601,0.140779321557655,-0.087659165,-0.035124753,-0.16340645,294.89014,-75.28029,4.689165,STN
42811207563000,1.50494,-2.79705933668544,7.99104000563154,0.184863958576026,-0.048258353,-0.5158757,-0.28008172,295.17252,-75.50306,4.4995084,STN
42811212551000,1.509928,-3.18136447168142,7.93819800442478,0.204079210309735,0.009162978,-0.75991637,-0.39553526,295.5065,-75.74029,4.296654,STN
42811217595000,1.514972,-3.44225844815787,7.95540692369032,0.133479826169173,0.060170226,-1.1908818,-0.48716503,296.0242,-76.00776,4.055248,STN
42811222537000,1.519914,-3.63334982982739,8.0079571396992,0.0188249452881801,0.102319926,-1.5146403,-0.5149594,296.57858,-76.28941,3.8095162,STN
42811227565000,1.524942,-3.72237577669014,8.10826648741197,-0.13064332572588,0.14721853,-1.706452,-0.5510005,297.21945,-76.61425,3.5102966,STN
42811232572000,1.529949,-3.76036515507042,8.23067661848592,-0.295264082615141,0.16737708,-1.7880026,-0.56016344,297.9134,-76.93913,3.2235944,STN
42811237571000,1.534948,-3.76371316705882,8.39021823856209,-0.488276306836601,0.15241088,-1.7434094,-0.5384777,298.6409,-77.29644,2.9115794,STN
42811242563000,1.53994,-3.71684318117647,8.60373771568628,-0.722626388509804,0.13194689,-1.6169603,-0.49388456,299.3595,-77.650536,2.6019392,STN
42811247552000,1.544929,-3.69395508118871,8.7307410320951,-0.9070673106211,0.10720685,-1.4257594,-0.43035457,300.06525,-78.03082,2.2871668,STN
42811252595000,1.549972,-3.68917095019316,8.79293453521545,-1.05537549137593,0.073303826,-1.2333369,-0.37323865,300.72437,-78.392944,1.9749542,STN
42811257895000,1.555272,-3.73578762693688,8.76292492107049,-1.17206913088335,0.049785517,-1.0601566,-0.32559118,301.36945,-78.77804,1.6748656,STN
42811262562000,1.559939,-3.80946305296228,8.67624805575487,-1.25007840017454,0.05467244,-0.93828905,-0.30634892,301.96436,-79.15149,1.3749774,STN
42811267567000,1.564944,-3.91831449307599,8.48710664795404,-1.30938854565612,0.09193522,-0.87781334,-0.3115413,302.54626,-79.54703,1.0842018,STN
42811272568000,1.569945,-4.05829768468051,8.19748564321709,-1.34317760407176,0.16523905,-0.90285885,-0.34208453,303.11005,-79.94364,0.78967,STN
42811277564000,1.574941,-4.11399819923894,7.89763308860284,-1.35310394961947,0.26083946,-0.9923506,-0.3857614,303.6791,-80.36166,0.4780112,STN
42811282552000,1.579929,-4.08706834201823,7.58793982429766,-1.33963902100911,0.34880406,-1.103528,-0.43279803,304.25525,-80.78412,0.15860233,STN
42811287600000,1.584977,-3.99102564231093,7.29295135959553,-1.35819177379398,0.43157628,-1.212873,-0.473726,304.85135,-81.217606,-0.19031674,STN
42811292566000,1.589943,-3.78564388147251,7.03246703223088,-1.42832211329261,0.51251596,-1.2754866,-0.50671273,305.4596,-81.65441,-0.54875785,STN
42811297584000,1.594961,-3.52206011324778,6.81758409865882,-1.52520439511772,0.5558874,-1.3081679,-0.5213735,306.09534,-82.0637,-0.9019518,STN
42811302582000,1.599959,-3.19877356876689,6.65594070585681,-1.64990063714782,0.58368176,-1.294118,-0.514654,306.7277,-82.46469,-1.2608163,STN
42811307523000,1.6049,-2.84845686898993,6.54122436519095,-1.73893572757005,0.58123827,-1.2370021,-0.4886922,307.34573,-82.84425,-1.594056,STN
42811312565000,1.609942,-2.44402517376608,6.49307776473228,-1.77745305821119,0.5525276,-1.1911873,-0.44898596,307.95386,-83.19411,-1.9256938,STN
42811317574000,1.614951,-2.06467386618637,6.49157968816949,-1.78591424735046,0.5354234,-1.0778717,-0.42577308,308.5173,-83.52295,-2.2244184,STN
42811322573000,1.61995,-1.7197635275192,6.55965404099915,-1.74960787845293,0.5195409,-0.9419542,-0.35705075,309.05026,-83.81873,-2.5053349,STN
42811327563000,1.62494,-1.3574830954495,6.69983186071032,-1.63071440310766,0.48349985,-0.81306165,-0.28160888,309.52658,-84.087105,-2.7285562,STN
42811332552000,1.629929,-0.950931201975583,7.01800312083796,-1.30812428804107,0.4605924,-0.68875057,-0.19242255,309.95636,-84.33455,-2.936005,STN
42811337545000,1.634922,-0.589190551172941,7.32089237083732,-1.00389263851839,0.44409904,-0.5516113,-0.11759156,310.3113,-84.548836,-3.0910022,STN
42811342562000,1.639939,-0.55159192913138,7.51306297000261,-0.83261010793931,0.4175264,-0.4334089,-0.03726278,310.62903,-84.746506,-3.2241373,STN
42811347585000,1.644962,-0.513948341625946,7.70546339248761,-0.661122734788279,0.37690386,-0.31398472,0.027488936,310.86188,-84.92282,-3.255578,STN
42811352590000,1.649967,-0.585966760163563,7.7968569660065,-0.514475220219726,0.34300083,-0.2125811,0.08735373,311.06097,-85.09683,-3.2703505,STN
42811357556000,1.654933,-0.679687182920485,7.86714722435708,-0.373894610549808,0.3323107,-0.11789699,0.11362094,311.2243,-85.26178,-3.2810807,STN
42811362566000,1.659943,-0.851333973896985,7.83984950798563,-0.261040159291276,0.31429017,-0.029932396,0.11728613,311.35004,-85.40459,-3.2640066,STN
42811367553000,1.66493,-1.04202887907766,7.78740835056898,-0.156157973887003,0.30298916,0.04428773,0.09407325,311.45032,-85.53776,-3.251617,STN
42811372570000,1.669947,-1.27702579658426,7.6789437627449,-0.0249611928915786,0.31795537,0.11148291,0.048563786,311.5225,-85.642075,-3.2550929,STN
42811377501000,1.674878,-1.51922104935891,7.55784621222689,0.110668164847677,0.34300083,0.16157386,-0.014049901,311.57788,-85.72997,-3.2727623,STN
42811382543000,1.67992,-1.81332572715843,7.48569725708673,0.232632405447402,0.3866777,0.20952678,-0.07238753,311.64114,-85.78916,-3.3179772,STN
42811387506000,1.684883,-2.11210783295354,7.42500709386111,0.349344148309596,0.42943826,0.25900686,-0.13775012,311.69016,-85.82888,-3.3841555,STN
42811392600000,1.689977,-2.44478437444662,7.43533696613124,0.4383466788619,0.46822822,0.31612277,-0.20647246,311.73093,-85.81892,-3.5000525,STN
42811397537000,1.694914,-2.77357276250735,7.46312178319295,0.517070668908913,0.49357912,0.3371976,-0.2883284,311.7696,-85.784996,-3.6371052,STN
42811402632000,1.700009,-3.14251605987319,7.57861312560386,0.641256667777778,0.5180137,0.35430184,-0.3747658,311.79807,-85.68935,-3.8370178,STN
42811407505000,1.704882,-3.50417255235507,7.71482171497585,0.772768108888889,0.53969944,0.35918877,-0.46792278,311.82675,-85.56175,-4.0591874,STN
42811412598000,1.709975,-3.81303844335109,7.86032219898305,0.90986714376368,0.5448918,0.33322698,-0.5635232,311.8621,-85.35226,-4.357767,STN
42811417548000,1.714925,-4.09310795715254,8.00265231762712,1.04301492371525,0.5488624,0.27214047,-0.6151413,311.9085,-85.118774,-4.6655602,STN
42811422523000,1.7199,-4.2976413406464,8.14631180290979,1.18058060159082,0.53878313,0.18570304,-0.7089091,311.97485,-84.78313,-5.062446,STN
42811427538000,1.724915,-4.47172460388643,8.29138097855417,1.32081448308498,0.52534413,0.12614368,-0.7812967,312.05264,-84.43055,-5.4620347,STN
42811432532000,1.729909,-4.60879163906853,8.44079228092554,1.41098665458321,0.48502702,0.071776666,-0.8313876,312.15793,-84.01211,-5.914041,STN
42811437536000,1.734913,-4.73199765995254,8.59243084870958,1.48206690851379,0.42241332,0.05955936,-0.8686504,312.26956,-83.57394,-6.3760724,STN
42811442562000,1.739939,-4.8490364089921,8.69811971996047,1.57337183804348,0.35705075,0.04153884,-0.88331115,312.39743,-83.10578,-6.85922,STN
42811447533000,1.74491,-4.96193656245059,8.78279471225297,1.67215965652174,0.29626966,0.021991149,-0.890947,312.53043,-82.63186,-7.34312,STN
42811452453000,1.74983,-5.07983824866199,8.80445103406734,1.74193859543794,0.24404067,-0.0027488936,-0.8888089,312.6725,-82.14612,-7.834954,STN
42811457475000,1.754852,-5.2033165186926,8.79495302221783,1.79892850137257,0.21197024,-0.062002823,-0.88789266,312.8312,-81.66452,-8.3205805,STN
42811462472000,1.759849,-5.33853956882691,8.81646040114848,1.77904702887613,0.22113322,-0.14202617,-0.88514376,312.9986,-81.179695,-8.807993,STN
42811467467000,1.764844,-5.48079211850902,8.85570229306809,1.7152785703548,0.25045475,-0.23335053,-0.88331115,313.1873,-80.7031,-9.286436,STN
42811472499000,1.769876,-5.63293146448635,8.99795814751522,1.6042101628462,0.3023783,-0.2968805,-0.8848383,313.3944,-80.21505,-9.776209,STN
42811477650000,1.775027,-5.79281107798075,9.19175149577686,1.46855476847378,0.3894266,-0.32803464,-0.87781334,313.61893,-79.73902,-10.254259,STN
42811482465000,1.779842,-5.95199948603885,9.49298207552896,1.3114238301769,0.47952923,-0.33536503,-0.8732319,313.8617,-79.245926,-10.749965,STN
42811487489000,1.784866,-6.12306006404787,9.86848076716961,1.13201893361082,0.5891795,-0.30604348,-0.8866709,314.10248,-78.758224,-11.240096,STN
42811492457000,1.789834,-6.26396712431476,10.3046354618806,0.937057234416409,0.70188415,-0.22571471,-0.91629785,314.34506,-78.25208,-11.747867,STN
42811497465000,1.794842,-6.35102573633146,10.8705171899619,0.706351628491559,0.838718,-0.13805555,-0.9502009,314.5758,-102.25231,-12.251209,STN
42811502478000,1.799855,-6.4209977475175,11.4668034366182,0.477333405559505,0.98532563,-0.037873644,-0.9807441,314.7918,-102.7787,-12.771001,STN
42811507499000,1.804876,-6.38474618159397,12.2488021504577,0.259823869419494,1.1392636,0.014049901,-1.0143417,314.99454,-103.3117,-13.289967,STN
42811512495000,1.809872,-6.2903401563321,13.0019303331996,0.0778810596650957,1.2211196,0.11636983,-1.0241156,315.15625,-103.837906,-13.790393,STN
42811517529000,1.814906,-6.04863935715432,13.698028097764,-0.0187992701012734,1.3704761,0.15882497,-1.0290025,315.3179,-104.37354,-14.286046,STN
42811522505000,1.819882,-5.7742225981645,14.3658518375831,-0.0736461088520687,1.50731,0.11789699,-1.0296134,315.468,-104.87019,-14.72703,STN
42811527513000,1.82489,-5.41257876476833,14.9892124392301,-0.0308198532632206,1.6374242,-0.01038471,-1.0247264,315.6296,-105.37053,-15.156445,STN
42811532508000,1.829885,-5.00919603859928,15.5782885013928,0.0119271829148428,1.7592919,-0.2284636,-1.0161743,315.8179,-105.79232,-15.49179,STN
42811537528000,1.834905,-4.49266560565062,16.0852525682451,0.0549713656844409,1.8536706,-0.5140431,-0.9969321,316.06247,-106.21782,-15.819188,STN
42811542511000,1.839888,-3.94815320804892,16.5226775644111,0.0722464167461038,1.9138408,-0.84299403,-0.9660834,316.32324,-106.54421,-16.040104,STN
42811547732000,1.845109,-3.28726684331229,16.7939383325113,0.0179945340124285,1.8979583,-1.1795808,-0.91599244,316.66867,-106.86738,-16.256378,STN
42811552528000,1.849905,-2.66296399523334,16.9411188750874,-0.0845901832121515,1.7806722,-1.473407,-0.8717047,317.05823,-107.06634,-16.355593,STN
42811557523000,1.8549,-1.9602644302788,16.783368818627,-0.352285239080044,1.559539,-1.6584991,-0.81031275,317.50928,-107.24808,-16.449966,STN
42811562511000,1.859888,-1.29260712916992,16.5595318208984,-0.630459720087891,1.3252722,-1.7330247,-0.73639804,317.955,-107.30673,-16.433187,STN
42811567555000,1.864932,-0.726528023349609,16.1208210544922,-0.946520552939453,1.1120802,-1.7259997,-0.64904433,318.42325,-107.34127,-16.410925,STN
42811572516000,1.869893,-0.209855683600767,15.6707285266929,-1.24265862398829,0.93309665,-1.6673567,-0.57787853,318.85437,-107.28307,-16.30368,STN
42811577519000,1.874896,0.143119573307095,15.1388478780906,-1.47958720310829,0.8081747,-1.5760323,-0.5375614,319.26593,-107.20991,-16.193594,STN
42811582478000,1.879855,0.383130055123732,14.572504096887,-1.65446456343127,0.7312057,-1.4407257,-0.5479461,319.59476,-107.09865,-16.037046,STN
42811587610000,1.884987,0.189734832360178,13.8290067187828,-1.59429711390346,0.6960809,-1.3035865,-0.6078109,319.8894,-106.99627,-15.8940935,STN
42811592508000,1.889885,0.00515770821834557,13.1194100395243,-1.53687307497377,0.6737844,-1.1731668,-0.7449502,320.1188,-106.92733,-15.782432,STN
42811597609000,1.894986,-0.42875247710251,13.028193015137,-1.39832568911669,0.6719518,-1.0528263,-0.9419542,320.30542,-106.89787,-15.709119,STN
42811602546000,1.899923,-0.868130456570895,12.9919558702817,-1.25790597237977,0.675617,-0.9630291,-1.1661417,320.45645,-106.91762,-15.686072,STN
42811607569000,1.904946,-1.55685060465826,12.9840888799837,-1.17563682473556,0.6621779,-0.91538155,-1.3613132,320.59634,-107.04174,-15.766763,STN
42811612795000,1.910172,-2.32040421917718,12.9815436500203,-1.10182664408055,0.66645396,-0.82619524,-1.5100589,320.69046,-107.21509,-15.893748,STN
42811617830000,1.915207,-3.05605145398444,12.9790914431957,-1.03071408005492,0.6386596,-0.73945236,-1.5656476,320.78232,-107.45541,-16.094513,STN
42811622504000,1.919881,-3.73895417006967,12.9768150549736,-0.964700152695281,0.63194007,-0.6575964,-1.6453656,320.82983,-107.74282,-16.339766,STN
42811627561000,1.924938,-4.32802023064945,12.7656890658323,-0.953376921937519,0.6053675,-0.56016344,-1.6957619,320.84726,-108.02697,-16.584557,STN
42811632529000,1.929906,-4.89068003772544,12.5359365691337,-0.948688068995762,0.57635134,-0.4859433,-1.72264,320.84708,-108.31934,-16.838217,STN
42811637576000,1.934953,-5.25193224310448,12.1950659450746,-1.04937218797015,0.55863625,-0.43768495,-1.7281377,320.89377,-108.78137,-17.271194,STN
42811642502000,1.939879,-5.5758225758806,11.8477050113433,-1.16202978346269,0.54092115,-0.41263947,-1.7015651,320.92743,-109.22817,-17.690315,STN
42811647571000,1.944948,-5.67762751420378,11.5824642879946,-1.37409419812655,0.52931476,-0.41386122,-1.6560557,320.98865,-109.74562,-18.184767,STN
42811652557000,1.949934,-5.7415255204741,11.3360013801376,-1.59773664817435,0.53786683,-0.4184427,-1.566564,321.04703,-110.23345,-18.647158,STN
42811657567000,1.954944,-5.62984633466065,11.1821514506681,-1.86904159301832,0.55955255,-0.40011674,-1.4413365,321.12247,-110.75688,-19.138535,STN
42811662495000,1.959872,-5.47115304804885,11.0568670475179,-2.14884262726307,0.57818395,-0.31887165,-1.2886202,321.18558,-111.23919,-19.58377,STN
42811667544000,1.964921,-5.20356755879157,10.9215923175397,-2.46090207181048,0.5717699,-0.18692477,-1.1429288,321.23212,-111.71453,-20.003687,STN
42811672575000,1.969952,-4.83705357748316,10.7802224203434,-2.79600089704412,0.5674938,0.011911872,-1.0186177,321.24066,-112.14841,-20.371449,STN
42811677560000,1.974937,-4.46957198647987,10.646356779661,-2.97507957362594,0.5546656,0.27122417,-0.9282097,321.18558,-112.53885,-20.662994,STN
42811682551000,1.979928,-4.09962676378956,10.5152372881356,-3.08278507979818,0.52870387,0.5323691,-0.86620694,321.07864,-112.89585,-20.912481,STN
42811687575000,1.984952,-3.81513361621292,10.3271394367127,-3.03161681425234,0.5158757,0.7883216,-0.82527894,320.87292,-113.215485,-21.092527,STN
42811692566000,1.989943,-3.5820681124746,10.1086402100772,-2.89080647757009,0.49235737,0.9954049,-0.79779,320.6146,-113.513725,-21.244364,STN
42811697556000,1.994933,-3.416479085946,9.85606367213925,-2.6353931360004,0.46639562,1.1429288,-0.8026769,320.29443,-113.77624,-21.349384,STN
42811702689000,2.000066,-3.28034843321135,9.57894106893482,-2.31451372576402,0.462425,1.2327261,-0.8219192,319.94202,-114.031166,-21.439516,STN
42811707602000,2.004979,-3.17831773748033,9.39184867673092,-1.95915212917978,0.45448375,1.25319,-0.82924956,319.5749,-114.25291,-21.501024,STN
42811712566000,2.009943,-3.08948552217742,9.2422359233871,-1.57577095604839,0.4437936,1.2611313,-0.85154617,319.1954,-114.47799,-21.564571,STN
42811717569000,2.014946,-2.96963214093135,9.11939439742181,-1.26798096027381,0.43860126,1.2333369,-0.86498517,318.83328,-114.6805,-21.62414,STN
42811722575000,2.019952,-2.83069910767463,9.01399726201659,-1.00927794380134,0.4364632,1.1844677,-0.8698721,318.4861,-114.88027,-21.685095,STN
42811727565000,2.024942,-2.67615666343504,8.90124139566929,-0.823124665418307,0.43035457,1.1191051,-0.8552113,318.1691,-115.04375,-21.735859,STN
42811732557000,2.029934,-2.51146571918307,8.78360511220472,-0.681961012252953,0.4092797,1.056186,-0.8237518,317.87677,-115.19657,-21.783161,STN
42811737542000,2.034919,-2.32190998092888,8.63256646386067,-0.593116138468312,0.3998113,0.99296147,-0.77121735,317.5941,-115.3172,-21.818316,STN
42811742577000,2.039954,-2.11195691169811,8.45527307924528,-0.541794268981132,0.37201694,0.9388999,-0.7067711,317.339,-115.41654,-21.842154,STN
42811747557000,2.044934,-1.90609395450005,8.24508758287636,-0.514646697924778,0.3313944,0.8784242,-0.6426302,317.10104,-115.47617,-21.840807,STN
42811752642000,2.050019,-1.69762196372439,7.99690620462746,-0.509683082798899,0.29932398,0.8194757,-0.5714644,316.89056,-115.5114,-21.821299,STN
42811757555000,2.054932,-1.51885213564759,7.76229627626884,-0.529475138973837,0.2556471,0.7629707,-0.49541172,316.7019,-115.49988,-21.765915,STN
42811762569000,2.059946,-1.35460421245262,7.52702217150781,-0.569427360310622,0.204029,0.711658,-0.42149702,316.53885,-115.46279,-21.694302,STN
42811767650000,2.065027,-1.19698724489372,7.28392226712803,-0.635983301734058,0.17287487,0.68019843,-0.35063666,316.35416,-115.40572,-21.602835,STN
42811772583000,2.06996,-1.05687141507662,7.04105480276817,-0.738734897261493,0.13164146,0.6536258,-0.28038713,316.1926,-115.31962,-21.494173,STN
42811777492000,2.074869,-0.929450707123985,6.81175420352285,-0.830752137802133,0.099571034,0.6398814,-0.22449298,316.01822,-115.220726,-21.368874,STN
42811782555000,2.079932,-0.820319696672864,6.59823705439867,-0.906669362894608,0.06811147,0.63529986,-0.16035213,315.85812,-115.09535,-21.223753,STN
42811787501000,2.084878,-0.720491638749502,6.41060233632019,-0.972402518637993,0.04184427,0.6301075,-0.10720685,315.6871,-114.96959,-21.073046,STN
42811792603000,2.08998,-0.63292737003186,6.26466212550777,-1.02104935716846,0.02565634,0.6209445,-0.046120327,315.52725,-114.82236,-20.904346,STN
42811797527000,2.094904,-0.563223294274029,6.1404242726653,-1.03352485569189,0.0076358155,0.625526,0.012217305,315.3606,-114.66886,-20.723787,STN
42811803217000,2.100594,-0.520771622202746,6.03960117401889,-0.959234394936216,-0.016493361,0.6160576,0.0711658,315.20834,-114.49677,-20.529419,STN
42811807519000,2.104896,-0.491966219604918,5.96621529596855,-0.884412596840355,-0.04795292,0.59315014,0.105374254,315.03033,-114.33073,-20.341442,STN
42811812596000,2.109973,-0.467464388367265,5.88780957109454,-0.742301907095344,-0.065973446,0.56138515,0.16890424,314.8673,-114.14178,-20.132063,STN
42811817598000,2.114975,-0.452449833339995,5.81121625894517,-0.612397178319576,-0.10323623,0.51251596,0.23976462,314.70532,-113.93632,-19.917912,STN
42811822604000,2.119981,-0.460780954335737,5.73623613083674,-0.50825805930663,-0.15027285,0.46273044,0.30604348,314.55963,-113.712906,-19.69189,STN
42811827894000,2.125271,-0.471810673928536,5.65752777635594,-0.401498122006103,-0.20738874,0.40408736,0.37415496,314.42554,-113.46008,-19.454866,STN
42811832595000,2.129972,-0.53385300873708,5.59991681080815,-0.383771747242839,-0.26206118,0.36987892,0.441961,314.3045,-113.18578,-19.204134,STN
42811838067000,2.135444,-0.605736382210438,5.53447186882501,-0.365762923698018,-0.30909783,0.34330627,0.5039638,314.19632,-112.89137,-18.952135,STN
42811842601000,2.139978,-0.658250664249698,5.51427407777468,-0.406158535325147,-0.36041048,0.31764993,0.56046885,314.1013,-112.57492,-18.688282,STN
42811847544000,2.144921,-0.715502119062238,5.49225429807424,-0.450198126915992,-0.3915646,0.3118467,0.6230826,314.00134,-112.26142,-18.43256,STN
42811852636000,2.150013,-0.731546260723216,5.50605480361608,-0.485649482172533,-0.42058071,0.301462,0.68508536,313.91223,-111.92949,-18.166508,STN
42811857555000,2.154932,-0.736076774206578,5.52870737103289,-0.517363109671091,-0.4560109,0.29443705,0.754724,313.82617,-111.57793,-17.884659,STN
42811862601000,2.159978,-0.69195070869516,5.50616761505802,-0.520229612374752,-0.48349985,0.2782491,0.8191703,313.7347,-111.231476,-17.598347,STN
42811867636000,2.165013,-0.628258951538824,5.46522302736107,-0.511130765492971,-0.5027421,0.25534168,0.8918633,313.65002,-110.86596,-17.295645,STN
42811873233000,2.17061,-0.550664318158579,5.4153409162695,-0.526383075964038,-0.54061574,0.204029,0.958753,313.56137,-110.49424,-16.99019,STN
42811877610000,2.174987,-0.487097628856153,5.37447674740035,-0.54908547312825,-0.56321776,0.14813483,1.028697,313.48315,-110.108345,-16.670351,STN
42811882594000,2.179971,-0.452534622304902,5.3328999617896,-0.565492148399219,-0.59223384,0.08399397,1.1093313,313.4142,-109.69714,-16.332624,STN
42811887610000,2.184987,-0.430193794073109,5.29268644111245,-0.578896658402009,-0.6236934,0.018020526,1.1850786,313.36237,-109.27192,-15.985669,STN
42811892598000,2.189975,-0.461565724683544,5.25209073544304,-0.652192684493671,-0.6646214,-0.04428773,1.2620476,313.3333,-108.81532,-15.605905,STN
42811897588000,2.194965,-0.528208882267754,5.21107959448616,-0.764973391713152,-0.7079928,-0.086132,1.3432927,313.31693,-108.340965,-15.212793,STN
42811902589000,2.199966,-0.65754352292451,5.20369580887656,-0.896071867913612,-0.73945236,-0.0870483,1.3863586,313.30426,-107.859955,-14.814643,STN
42811907615000,2.204992,-0.810134854685952,5.20846423509015,-1.034357786596,-0.75961095,-0.08582657,1.4706581,313.3033,-107.352325,-14.391377,STN
42811912595000,2.209972,-1.03108253236595,5.23379376798324,-1.17398113624583,-0.7870999,-0.045814894,1.5323554,313.29196,-106.8679,-13.983625,STN
42811917628000,2.215005,-1.28167648891131,5.26745566081322,-1.31610904140607,-0.8017606,0.01282817,1.5958854,313.27313,-106.37001,-13.55867,STN
42811922552000,2.219929,-1.53604264145733,5.30596373653302,-1.45281957428049,-0.8060367,0.09743301,1.6368134,313.23532,-105.917366,-13.164979,STN
42811927556000,2.224933,-1.85494029396107,5.38170182806521,-1.57639240109799,-0.7840455,0.18234327,1.668273,313.1783,-105.46214,-12.761904,STN
42811932550000,2.229927,-2.17320066098819,5.45728856449842,-1.69971827982033,-0.7440339,0.28038713,1.6691893,313.11514,-105.08715,-12.411546,STN
42811938445000,2.235822,-2.62718026497812,5.67622687690812,-1.78403012082645,-0.6722572,0.37415496,1.6545285,313.02716,-104.72511,-12.06175,STN
42811942995000,2.240372,-2.99577330970345,5.8753518647545,-1.83487054231405,-0.59864795,0.43982297,1.6313156,312.91748,-104.3794,-11.719581,STN
42811947582000,2.244959,-3.35266624525334,6.14773445779808,-1.87578510213788,-0.50885075,0.4868596,1.5900823,312.8065,-104.14492,-11.458927,STN
42811952752000,2.250129,-3.7490240664061,6.48347278733283,-1.91775242376154,-0.4266894,0.50426924,1.5378532,312.68536,-103.93519,-11.213164,STN
42811957688000,2.255065,-4.12660434841981,6.8314263931082,-1.99948304188245,-0.34880406,0.50762904,1.4749341,312.5841,-103.81338,-11.028775,STN
42811962550000,2.259927,-4.4979303239047,7.19358373852516,-2.10950554959141,-0.2947425,0.50732356,1.4040737,312.47943,-103.719124,-10.865817,STN
42811967576000,2.264953,-4.90367590653623,7.57024517094764,-2.27058145941633,-0.2556471,0.51893,1.3289373,312.3949,-103.70288,-10.769442,STN
42811972542000,2.269919,-5.32473088257733,7.94451623663788,-2.47331155667286,-0.23304509,0.5671884,1.2696834,312.30084,-103.706314,-10.689303,STN
42811977520000,2.274897,-5.65732399989172,8.27502465587164,-2.70757690185058,-0.23060162,0.6426302,1.221425,312.21335,-103.78828,-10.681166,STN
42811982558000,2.279935,-5.95177930500049,8.58847761974604,-2.95928885090068,-0.2574797,0.75716746,1.1881329,312.10242,-103.87533,-10.680201,STN
42811987585000,2.284962,-6.20172145657363,8.78403092117421,-3.09718076153994,-0.33017266,0.8848383,1.1759156,311.98914,-104.0294,-10.739066,STN
42811992614000,2.289991,-6.4288558785563,8.91845720442733,-3.1759825294129,-0.42913285,1.0173961,1.1661417,311.8444,-104.17246,-10.795915,STN
42811997555000,2.294932,-6.62602655108525,8.97057290814722,-3.14743458027682,-0.5357288,1.0711522,1.1737776,311.73898,-104.33986,-10.853142,STN
42812002490000,2.299867,-6.80442817234979,8.96561720981441,-3.04336698512111,-0.6075055,1.1487321,1.17897,311.59253,-104.48777,-10.900021,STN
42812007539000,2.304916,-6.93814793598616,8.88336638062284,-2.87589191245675,-0.768163,1.2040154,1.1844677,311.4546,-104.625755,-10.957307,STN
42812012748000,2.310125,-7.05011396122697,8.75740459613766,-2.67062072815861,-0.9407325,1.210124,1.1551461,311.3107,-104.7435,-11.014753,STN
42812017843000,2.31522,-7.1873739289301,8.62315991894989,-2.44196216422544,-1.0757337,1.174083,1.1163563,311.17044,-104.8392,-11.085361,STN
42812022456000,2.319833,-7.33004648838421,8.49429459375977,-2.21644773701427,-1.205848,1.0934488,1.0235047,311.03906,-104.91287,-11.17492,STN
42812027494000,2.324871,-7.48281719929964,8.40461338027636,-2.05408009438766,-1.3066407,0.9575313,0.9117164,310.94397,-104.95551,-11.266719,STN
42812032507000,2.329884,-7.63275865773235,8.35008905830021,-1.94957536534166,-1.3713925,0.78984874,0.7809912,310.8762,-105.00066,-11.39052,STN
42812037476000,2.334853,-7.77704179220126,8.36093773176101,-1.94457362732704,-1.4086553,0.60903263,0.6215554,310.84122,-105.05615,-11.574019,STN
42812042795000,2.340172,-7.92654828880503,8.44637012704403,-2.05136414930818,-1.3952162,0.44012842,0.46639562,310.84418,-105.1368,-11.794816,STN
42812047488000,2.344865,-7.9826852856806,8.61081224299594,-2.28554594292991,-1.3548992,0.30543262,0.31764993,310.8951,-105.253265,-12.063146,STN
42812052629000,2.350006,-7.99197385690029,8.8523165495708,-2.63851358909537,-1.2916746,0.21777347,0.19639318,310.9738,-105.406075,-12.365999,STN
42812057472000,2.354849,-7.92252660119109,9.15312126566546,-3.07383246680476,-1.2089024,0.18845193,0.10598512,311.07913,-105.6219,-12.710843,STN
42812062487000,2.359864,-7.75837196447437,9.55107229363024,-3.6458868422579,-1.0900891,0.21197024,0.06505715,311.18948,-105.86867,-13.067951,STN
42812067547000,2.364924,-7.18916655380203,10.0322385082993,-4.19390317319892,-0.9737192,0.28191432,0.032375857,311.3088,-106.17158,-13.42934,STN
42812072502000,2.369879,-6.28192073751629,10.5724618293213,-4.70525986217085,-0.8378017,0.3023783,-0.02107485,311.4309,-106.50257,-13.797905,STN
42812077481000,2.374858,-5.38976814486498,11.0888615206628,-5.06090352864157,-0.713796,0.25961772,-0.10751228,311.57828,-106.86227,-14.12294,STN
42812082501000,2.379878,-4.55867458880933,11.5167025231178,-4.86419511620295,-0.6215554,0.15821409,-0.20952678,311.73157,-107.24082,-14.457718,STN
42812087504000,2.384881,-3.73796445969609,11.9543073392372,-4.61404636357049,-0.5849035,0.044898596,-0.29138273,311.8822,-107.50499,-14.619303,STN
42812092597000,2.389974,-2.92317169212036,12.4304216034014,-4.21155821310255,-0.61269784,-0.019242255,-0.32467487,312.04172,-107.774506,-14.792958,STN
42812097485000,2.394862,-2.19076980647596,12.8323221922924,-3.75336442707588,-0.68233645,-0.16798794,-0.33261612,312.2209,-107.88089,-14.832343,STN
42812102528000,2.399905,-1.56236742691696,13.1057491642829,-3.09618033217124,-0.7272351,-0.3494149,-0.31520647,312.42352,-107.983894,-14.879164,STN
42812107492000,2.404869,-1.05286996954424,13.2874290694753,-2.48337277220222,-0.84299403,-0.5870415,-0.28130344,312.65128,-107.877686,-14.789522,STN
42812112589000,2.409966,-0.832267436782842,13.2313433290693,-1.94869204529299,-0.95722586,-0.8686504,-0.22510384,312.9403,-107.75919,-14.705622,STN
42812117607000,2.414984,-0.615084091796247,13.1761268791268,-1.42229850249713,-1.0754282,-1.1206323,-0.15027285,313.24997,-107.44912,-14.512896,STN
42812122568000,2.419945,-0.532614456424305,12.9098409474768,-0.985975172842431,-1.1609493,-1.2721269,-0.070249505,313.60522,-107.12528,-14.319948,STN
42812128146000,2.425523,-0.510608493882595,12.4972297960865,-0.54035481338826,-1.151481,-1.2541064,0.032986723,313.9772,-106.78899,-14.111291,STN
42812132545000,2.429922,-0.546752521500461,12.2942308786512,-0.357733051059752,-1.0867293,-1.0876455,0.16584991,314.3253,-106.33533,-13.824021,STN
42812137574000,2.434951,-0.601049897958389,12.0918498372451,-0.1899048321646,-0.9957104,-0.8258898,0.31337386,314.63104,-105.876755,-13.507862,STN
42812142599000,2.439976,-0.645874331610013,12.0805815921886,-0.098297756169475,-0.88422745,-0.5009095,0.4700608,314.86612,-105.386986,-13.149257,STN
42812147619000,2.444996,-0.688017131376254,12.1227242648291,-0.0280597550922373,-0.78038037,-0.1554652,0.60994893,315.01126,-104.89283,-12.752418,STN
42812152627000,2.450004,-0.611581027685786,12.382387551584,0.0499407841630063,-0.6914995,0.17654006,0.7244862,315.0708,-104.39223,-12.329585,STN
42812157603000,2.45498,-0.493455521682118,12.7178640887908,0.130266125531902,-0.59742624,0.49449542,0.8210029,315.02972,-103.89004,-11.870977,STN
42812162666000,2.460043,-0.373264718447276,13.0592060718854,0.211995868970552,-0.5152648,0.766025,0.9230174,314.91565,-103.37386,-11.376689,STN
42812167564000,2.464941,-0.256990858237073,13.3894239334688,0.291062091242427,-0.4089743,0.93737274,1.0277808,314.7375,-102.862686,-10.858829,STN
42812172568000,2.469945,0.0547309889536061,13.6010371776742,0.336156391057536,-0.25411993,0.9621128,1.1643091,314.54614,-102.34529,-10.308988,STN
42812177566000,2.474943,0.45231204180004,13.7561908531199,0.365247687483793,-0.032375857,0.904386,1.3081679,314.33127,-101.84177,-9.737374,STN
42812182551000,2.479928,0.529712064559293,13.4469835450103,0.440923666156738,0.2098322,0.86345804,1.3793337,314.10242,-101.29697,-9.112977,STN
42812187580000,2.484957,0.479930129657019,12.9491640542191,0.535961908522834,0.4156938,0.8848383,1.3387111,313.87128,-100.79686,-8.497164,STN
42812192563000,2.48994,0.320050707104516,12.2998944645161,0.677939055612903,0.5558874,0.9266826,1.2000448,313.64313,-100.29931,-7.8574724,STN
42812198158000,2.495535,0.0541339106102233,11.4489602163772,0.874717482486352,0.61758476,1.1160508,0.9947941,313.36203,-99.87383,-7.261569,STN
42812202629000,2.500006,-0.104113503259795,11.025335918808,1.07146364252076,0.61544675,1.1863003,0.88056225,313.10522,-99.50471,-6.7118526,STN
42812207610000,2.504987,-0.248594625964827,10.7037492242306,1.31381912498779,0.59528816,1.3029755,0.6579019,312.7726,-99.22633,-6.2565255,STN
42812212559000,2.509936,-0.392318971398355,10.848935301606,1.54260118554642,0.505491,1.3991868,0.44776422,312.45874,-98.98067,-5.8790584,STN
42812217577000,2.514954,-0.538201164735605,11.4136406390521,1.76377734853114,0.36896262,1.5271631,0.2764165,312.0996,-98.76157,-5.5563965,STN
42812222567000,2.519944,-0.781861258990654,12.1490476485981,1.92687142841121,0.17806722,1.6878207,0.14294247,311.71368,-98.533485,-5.301381,STN
42812227563000,2.52494,-1.13064320629533,13.0701895842991,2.02971745020561,-0.03176499,1.8719965,0.022907447,311.2841,-98.29926,-5.09015,STN
42812232537000,2.529914,-1.56771488407875,13.9718068414295,2.14061420231115,-0.2611449,2.025629,-0.0693332,310.80002,-98.015724,-4.911909,STN
42812237576000,2.534953,-2.1873278683822,14.854755453242,2.26970026991226,-0.50426924,2.0690005,-0.1695151,310.2979,-97.70691,-4.7710075,STN
42812242576000,2.539953,-2.80597768696257,15.311048126899,2.46364054155496,-0.7144069,1.9168952,-0.24923302,309.80246,-97.383766,-4.6884966,STN
42812247556000,2.544933,-3.42634480701023,15.306312899017,2.72883555495979,-0.8756753,1.5103643,-0.32834008,309.37317,-97.04807,-4.6428804,STN
42812252542000,2.549919,-3.90809329002364,15.0066693514894,2.90192365800473,-0.9456194,0.8906415,-0.41722095,309.05264,-96.76177,-4.6979246,STN
42812257569000,2.554946,-4.22676777375887,14.3511100468085,2.96565855475177,-0.9437868,0.18051068,-0.46211955,308.88025,-96.492256,-4.7743244,STN
42812262541000,2.559918,-4.32956563893619,13.7009905887008,2.90098869190624,-0.82650065,-0.45753807,-0.43982297,308.87106,-96.31912,-4.946262,STN
42812268023000,2.5654,-3.99299318867074,12.9805153203446,2.55915729967946,-0.6649268,-0.8738427,-0.32895094,309.0046,-96.18324,-5.1106405,STN
42812272532000,2.569909,-3.61927331532888,12.4677998009786,2.22744169379881,-0.4877759,-1.0262536,-0.13744467,309.24927,-96.13038,-5.3026485,STN
42812277565000,2.574942,-3.02510651886704,12.0414511362567,1.76480802121954,-0.3381139,-0.97035944,0.05681047,309.55328,-96.09776,-5.4604516,STN
42812282560000,2.579937,-2.45364137123016,11.6174364540675,1.34973586733135,-0.21838433,-0.7806858,0.21991149,309.86566,-96.057785,-5.544269,STN
42812287573000,2.58495,-1.9440271515873,11.1887886496032,1.08778458599206,-0.14019357,-0.50732356,0.35521814,310.13626,-95.99861,-5.5773635,STN
42812292495000,2.589872,-1.4704207327489,10.7771457711334,0.87237691507201,-0.13255776,-0.36041048,0.41263947,310.39523,-95.881165,-5.511622,STN
42812297556000,2.594933,-1.09610965867251,10.3927181372887,0.82685261794928,-0.13897185,-0.06352998,0.49205196,310.5301,-95.7328,-5.39854,STN
42812302549000,2.599926,-0.769719304131437,10.0261106702064,0.833504563862953,-0.19792034,0.22357668,0.5519168,310.6306,-95.51856,-5.205973,STN
42812307572000,2.604949,-0.548040496100982,9.68877385028051,0.968439508211781,-0.2846632,0.47769663,0.57848936,310.6518,-95.29341,-5.002271,STN
42812312495000,2.609872,-0.3534547150686,9.40658213632383,1.14794671947066,-0.4007276,0.66859204,0.5821546,310.60995,-95.00298,-4.733912,STN
42812317553000,2.61493,-0.212053076107814,9.24161318020823,1.45431692081347,-0.5479461,0.7968737,0.5757405,310.51065,-94.70276,-4.4650416,STN
42812322517000,2.619894,-0.0931619220084695,9.10604459205485,1.87490761464005,-0.6872234,0.84329945,0.5644395,310.36713,-94.362236,-4.1690745,STN
42812327567000,2.624944,-0.0395229177737447,9.0572818979633,2.70875029461585,-0.8402451,0.8038987,0.52687126,310.20926,-94.02585,-3.8875167,STN
42812332533000,2.62991,0.0199599331757755,9.08358005465288,3.34780836986706,-0.9651671,0.68111473,0.49388456,310.0245,-93.665924,-3.5921774,STN
42812337607000,2.634984,0.101306680913836,9.33719061634663,3.44829545477105,-1.0763446,0.49266282,0.46395215,309.86746,-93.33279,-3.311276,STN
42812342532000,2.639909,0.143439641547498,9.55236608776388,3.47432070778929,-1.1478158,0.25503623,0.42271876,309.69232,-86.96161,-3.0358908,STN
42812347550000,2.644927,0.0542027437746286,9.66038942513683,3.24418346746482,-1.1560625,-0.0021380284,0.3747658,309.5731,-87.15437,-2.7738256,STN
42812352563000,2.64994,-0.0648149307833046,9.76125054270084,2.9964169865971,-1.1108584,-0.24037547,0.32834008,309.49664,-87.23652,-2.507989,STN
42812357569000,2.654946,-0.322225462109006,9.829246131395,2.66615451712086,-1.0149527,-0.47708577,0.2883284,309.48807,-87.19507,-2.2553747,STN
42812362568000,2.659945,-0.595057628108874,9.884255253162,2.33049368210058,-0.8921687,-0.72356987,0.2489276,309.56177,-87.07008,-2.0338447,STN
42812367588000,2.664965,-0.930706165395123,9.88911931468178,1.9705227546494,-0.74464476,-1.1175779,0.20616703,309.73947,-86.898026,-1.8225148,STN
42812372588000,2.669965,-1.22030033957897,9.87486700542961,1.57350548119261,-0.6044512,-1.6166549,0.17928895,310.03387,-86.72719,-1.6643345,STN
42812377564000,2.674941,-1.36102041563155,9.79769824185559,1.05147920821109,-0.4642576,-2.0503693,0.1695151,310.4151,-86.57147,-1.5101553,STN
42812382542000,2.679919,-1.47818981259593,9.69952506178051,0.514094657987337,-0.38973203,-2.35794,0.20372356,310.9304,-86.45685,-1.4063661,STN
42812387580000,2.684957,-1.42727580586147,9.44958342478895,-0.138530172223714,-0.35063666,-2.4492643,0.26236662,311.4976,-86.3693,-1.29757,STN
42812392712000,2.690089,-1.37046516602029,9.19569813922037,-0.80504314688743,-0.37690386,-2.5127943,0.30024028,312.16714,-86.36308,-1.2153455,STN
42812397597000,2.694974,-1.25415975745823,8.96308741925219,-1.46100591155529,-0.4392121,-2.4217753,0.31703907,312.80573,-86.36207,-1.1291869,STN
42812402702000,2.700079,-1.13330624103235,8.72499977965197,-2.14097925202306,-0.46028697,-2.179567,0.3436117,313.41928,-86.494896,-1.0322801,STN
42812407571000,2.704948,-1.02876701251201,8.57565813600939,-2.70349980693925,-0.514654,-1.8258762,0.34880406,313.96106,-86.59954,-0.95039254,STN
42812412547000,2.709924,-0.954999845126836,8.44476729417,-3.21872772090788,-0.537256,-1.3778065,0.35246924,314.4434,-86.79858,-0.8787962,STN
42812417773000,2.71515,-1.06636702149533,8.43140343302181,-3.41918856859813,-0.5342017,-0.8958339,0.34972036,314.806,-86.9859,-0.8231958,STN
42812422517000,2.719894,-1.16746267489987,8.41927213618157,-3.60116068138852,-0.48624873,-0.41813725,0.3481932,315.1189,-87.20122,-0.80169237,STN
42812427523000,2.7249,-1.51527670500704,8.46955001560637,-3.46073845546765,-0.3811799,0.016493361,0.34116822,315.30173,-87.42917,-0.7921258,STN
42812432607000,2.729984,-1.89521840720721,8.52193538768769,-3.26276809222222,-0.23945917,0.37598756,0.3371976,315.36703,-87.67525,-0.7895675,STN
42812437530000,2.734907,-2.26333018828829,8.50305797417417,-2.84274320222222,-0.0983493,0.623388,0.3155119,315.36484,-87.95833,-0.82468665,STN
42812442603000,2.73998,-2.63585514636193,8.48326876404384,-2.40572806044032,0.025350908,0.763887,0.26542094,315.30548,-88.23121,-0.9033385,STN
42812447540000,2.744917,-2.91592639434298,8.45992950962583,-1.9296069291243,0.119729586,0.82863873,0.19028452,315.2014,-88.479004,-0.9963049,STN
42812453262000,2.750639,-3.21475824280401,8.43385327095851,-1.3906920588536,0.16401732,0.82619524,0.116980694,315.06213,-88.61168,-1.132999,STN
42812457559000,2.754936,-3.33642702938484,8.41815415994278,-1.03745998729232,0.15577064,0.79412484,0.03145956,314.92276,-88.63045,-1.2924156,STN
42812463060000,2.760437,-3.48728615346365,8.39942937212864,-0.590432882713269,0.11759156,0.7309003,-0.042455133,314.821,-88.500946,-1.4871674,STN
42812467613000,2.76499,-3.51478117128187,8.41121278713629,-0.323338230320151,0.043066,0.6606508,-0.10415252,314.73734,-91.70001,-1.6990315,STN
42812472546000,2.769923,-3.54457096326457,8.42397966309342,-0.0339514698863166,-0.021685716,0.58001655,-0.14019357,314.6659,-91.95137,-1.9396622,STN
42812477573000,2.77495,-3.58208103957353,8.43849738915021,0.229670194493572,-0.064751714,0.47311515,-0.16920967,314.62558,-92.21995,-2.1919496,STN
42812482566000,2.779943,-3.6220660607714,8.45349204609596,0.479576116666039,-0.11056661,0.32436943,-0.1853976,314.6233,-92.491196,-2.4469092,STN
42812487706000,2.785083,-3.69794192445511,8.47641868366327,0.667408269586083,-0.14660765,0.15577064,-0.1966986,314.6379,-92.75336,-2.7042372,STN
42812492534000,2.789911,-3.77652875076985,8.49953245610878,0.829204773245351,-0.15760323,0.05589417,-0.20525073,314.67703,-93.01458,-2.9618983,STN
42812497588000,2.794965,-3.89302172536211,8.5364747963449,0.846726751572859,-0.14721853,-0.17867808,-0.23182335,314.7895,-93.273705,-3.2259507,STN
42812502632000,2.800009,-4.01745975996889,8.57638868863614,0.827943666858171,-0.11575896,-0.42394048,-0.26083946,314.9344,-93.53389,-3.4900827,STN
42812507570000,2.804947,-4.13928272089044,8.61546378779041,0.809555309934869,-0.06047566,-0.65576386,-0.31337386,315.1487,-93.81025,-3.7734816,STN
42812512563000,2.80994,-4.26246255966754,8.65497410979878,0.790962141421697,0.008552114,-0.86651236,-0.36865717,315.42682,-94.09542,-4.063427,STN
42812517616000,2.814993,-4.19551678741434,8.78780296824631,0.667769917202008,0.09040806,-1.0677924,-0.3866777,315.7675,-94.38482,-4.3551364,STN
42812523197000,2.820574,-4.03044178519448,8.97867090589711,0.482060636662484,0.18509217,-1.235475,-0.3866777,316.15717,-94.6846,-4.6548142,STN
42812527584000,2.824961,-3.80003284836974,9.09113703439907,0.275586072706553,0.29168814,-1.3521502,-0.3371976,316.6023,-95.01751,-4.9835086,STN
42812532614000,2.829991,-3.48997148338082,9.20296204969927,0.011271467008547,0.38331795,-1.4175128,-0.26358834,317.07803,-95.34319,-5.302552,STN
42812537607000,2.834984,-3.22502280755392,9.18084092068865,-0.234954576589612,0.47555858,-1.4486669,-0.19333886,317.59497,-95.632866,-5.578797,STN
42812542605000,2.839982,-2.97502733362027,9.11139777376922,-0.475690993272077,0.5534439,-1.4721853,-0.13958271,318.12402,-95.90943,-5.8376784,STN
42812547604000,2.844981,-2.76646951785881,8.95966959036933,-0.717102712744273,0.6072,-1.4813483,-0.1133155,318.6659,-96.13465,-6.033666,STN
42812552571000,2.849948,-2.57966666213184,8.76841942356241,-0.957277759887798,0.6093381,-1.4944818,-0.09132435,319.2092,-96.35216,-6.217197,STN
42812557597000,2.854974,-2.37862597193309,8.55039734851301,-1.21611207156134,0.5748242,-1.4743233,-0.087964594,319.75397,-96.5396,-6.3561263,STN
42812562605000,2.859982,-2.16749026948738,8.31111004270202,-1.48824249003131,0.52626044,-1.4419475,-0.073303826,320.29016,-96.725655,-6.489671,STN
42812567551000,2.864928,-1.9195915407814,8.0878837513723,-1.76258699328382,0.47036624,-1.3768903,-0.06352998,320.82965,-96.893585,-6.588118,STN
42812572547000,2.869924,-1.62605946802282,7.87674696243677,-2.0458197563879,0.43982297,-1.3020593,-0.061391957,321.34467,-97.06948,-6.6912084,STN
42812577567000,2.874944,-1.3502470855098,7.70825926952941,-2.26240420652941,0.44226643,-1.2394456,-0.038179077,321.84302,-97.238335,-6.7706084,STN
42812582560000,2.879937,-1.08772243920588,7.56762085111765,-2.43585794261765,0.47342056,-1.1921035,-0.014049901,322.31262,-97.417694,-6.855533,STN
42812587544000,2.884921,-0.875184641623429,7.43403973616045,-2.52011244388346,0.52290064,-1.1148291,-0.002443461,322.7391,-97.59555,-6.919504,STN
42812593008000,2.890385,-0.681997256103572,7.29306537399721,-2.5409975507284,0.54428095,-0.9324858,0.01863139,323.11362,-97.77535,-6.976965,STN
42812597553000,2.89493,-0.606222851897507,7.18727614661654,-2.50404500935892,0.6261369,-0.86559606,0.027794369,323.47855,-97.961235,-7.018082,STN
42812602618000,2.899995,-0.577429905325485,7.07690294172932,-2.42726390869608,0.6420194,-0.70463306,0.01740966,323.75854,-98.149826,-7.056896,STN
42812607561000,2.904938,-0.58606419842958,6.93735838187059,-2.27063517441606,0.66339964,-0.5390886,-0.005497787,324.00134,-98.3376,-7.0753508,STN
42812612571000,2.909948,-0.6242152911639,6.77044735115794,-2.04649730541696,0.68477994,-0.38759398,-0.03848451,324.1977,-98.5407,-7.0986047,STN
42812617607000,2.914984,-0.685786093043822,6.60071489942756,-1.81686448957758,0.68661255,-0.22571471,-0.07788532,324.33636,-98.74676,-7.122184,STN
42812622607000,2.919984,-0.766128453880774,6.43057820380971,-1.58528947970786,0.698219,-0.09773844,-0.12889257,324.43793,-98.973274,-7.156828,STN
42812627601000,2.924978,-0.845223518078326,6.27027774035323,-1.34531794587253,0.70066243,0.005192355,-0.16768251,324.49957,-99.18917,-7.193404,STN
42812632592000,2.929969,-0.923219625617201,6.11887337435208,-1.09756567360338,0.70829827,0.0693332,-0.20555615,324.53375,-99.4207,-7.2425804,STN
42812637584000,2.934961,-1.01328700710481,6.01455780866245,-0.848883705649683,0.7174612,0.11301007,-0.22785273,324.55414,-99.64221,-7.298729,STN
42812642587000,2.939964,-1.11921415707969,5.97122411626972,-0.598510493720229,0.72051555,0.13622294,-0.23732115,324.5623,-99.8681,-7.3613396,STN
42812647586000,2.944963,-1.24845680291971,6.0135589513382,-0.366365290608273,0.7315111,0.18173242,-0.24678956,324.56995,-100.07576,-7.429628,STN
42812652628000,2.950005,-1.4082360899854,6.16393960690998,-0.154892617613625,0.7150178,0.25870144,-0.23884831,324.56345,-100.27445,-7.4943657,STN
42812657527000,2.954904,-1.59373923695122,6.38616528760163,0.0264822043180894,0.6994407,0.35094208,-0.24220806,324.54492,-100.45926,-7.5686474,STN
42812662753000,2.96013,-1.84296399036585,6.75237298882114,0.179068758885163,0.66706485,0.4538729,-0.25228736,324.50305,-100.63429,-7.639068,STN
42812667561000,2.964938,-2.09711442473076,7.10890799377532,0.32367921447683,0.6444628,0.5662721,-0.2782491,324.41733,-100.80734,-7.7308655,STN
42812672606000,2.969983,-2.39785987977473,7.50990200029641,0.48121253216777,0.59864795,0.6774496,-0.310625,324.30472,-100.96927,-7.821962,STN
42812677517000,2.974894,-2.80856413482411,7.91665741364681,0.740378406717341,0.537256,0.77671516,-0.36346483,324.1722,-101.13449,-7.94418,STN
42812682590000,2.979967,-3.42261652839844,8.36324103782924,1.17837384634082,0.49357912,0.8222246,-0.43799037,324.02463,-101.301605,-8.077167,STN
42812687570000,2.984947,-3.99515331430152,8.73981661229005,1.5876222904556,0.4288274,0.88147855,-0.46761733,323.85022,-101.466,-8.244712,STN
42812692600000,2.989977,-4.37304381344665,8.71074803841899,1.86377303399376,0.3921755,0.883922,-0.5439755,323.67822,-101.64938,-8.443493,STN
42812697589000,2.994966,-4.73459544547054,8.66621585722662,2.12277190422164,0.3222314,0.8228355,-0.6450737,323.52625,-101.8563,-8.74667,STN
42812702641000,3.000018,-5.02300584617414,8.52910290853122,2.29770928997361,0.2666427,0.66889745,-0.76083267,323.40063,-102.07901,-9.074332,STN
42812707567000,3.004944,-5.28465047618804,8.39904123096576,2.45949228845171,0.23182335,0.43799037,-0.8741482,323.32764,-102.35034,-9.494657,STN
42812712596000,3.009973,-5.36668369379152,8.30060097581332,2.54152563454267,0.22510384,0.15760323,-0.9773844,323.3132,-102.64472,-9.946343,STN
42812717596000,3.014973,-5.44824386241696,8.20272838170669,2.62308593091467,0.23671028,-0.18020524,-1.0516045,323.39438,-103.001595,-10.48143,STN
42812722587000,3.019964,-5.49044967206875,8.11231355310006,2.59164812160835,0.2846632,-0.52320606,-1.0946705,323.55923,-103.38681,-11.039558,STN
42812727499000,3.024876,-5.51932704567219,8.02568113075506,2.52426748268877,0.35124752,-0.85062987,-1.1108584,323.8191,-103.79399,-11.614386,STN
42812732601000,3.029978,-5.51826696689016,8.04773724413331,2.32791373318872,0.4098906,-1.1487321,-1.1099422,324.17615,-104.23349,-12.221247,STN
42812737518000,3.034895,-5.50898095398344,8.09881014543483,2.10505044154013,0.46120325,-1.425454,-1.0925325,324.62512,-104.68611,-12.829817,STN
42812742601000,3.039978,-5.49938144135279,8.15160728948925,1.87466319088937,0.5143485,-1.649947,-1.0546589,325.154,-105.16255,-13.444116,STN
42812747530000,3.044907,-5.49007276581542,8.2028048348452,1.65125599859002,0.55833083,-1.8170186,-1.0140363,325.74936,-105.640594,-14.050986,STN
42812752615000,3.049992,-5.51600069613965,8.32730160558603,1.30840482412968,0.59589905,-1.9401081,-0.96944314,326.40024,-106.11388,-14.642947,STN
42812757536000,3.054913,-5.55360872073816,8.47303290952619,0.937026305256858,0.63316184,-2.046704,-0.93767816,327.09705,-106.58435,-15.223046,STN
42812762600000,3.059977,-5.60392480058221,8.6431321324068,0.455081343829468,0.6768387,-2.1175644,-0.9114109,327.82388,-107.077415,-15.787144,STN
42812767600000,3.064977,-5.65788385777068,8.81849836397784,-0.0575282767921871,0.7461719,-2.1526892,-0.8921687,328.57037,-107.56578,-16.337988,STN
42812772595000,3.069972,-5.73913605662719,8.99653066121451,-0.632767824899417,0.82741696,-2.1526892,-0.9117164,329.33148,-108.084435,-16.889242,STN
42812778304000,3.075681,-5.8522048463057,9.20211047396127,-1.33687918265181,0.9459248,-2.1267273,-0.97310835,330.0898,-108.612724,-17.439434,STN
42812782591000,3.079968,-5.92679948657103,9.35435977596807,-1.93876052461439,1.1026118,-2.0885482,-1.0118983,330.84372,-109.18224,-17.985542,STN
42812787593000,3.08497,-6.00430431927516,9.5300378283896,-2.70864240234063,1.1814134,-1.9446895,-1.1230757,331.54575,-109.78233,-18.557932,STN
42812792546000,3.089923,-6.03050053389531,9.72012321838855,-3.43644020221525,1.3191634,-1.7058412,-1.2727377,332.20908,-110.46206,-19.141481,STN
42812797566000,3.094943,-6.02578821925113,9.92275466712409,-4.15271995030386,1.4239268,-1.3521502,-1.4248432,332.77853,-111.16698,-19.740976,STN
42812802584000,3.099961,-5.90589301986396,10.2154015285412,-4.67110749453075,1.4776831,-0.89461213,-1.5683966,333.2257,-111.95121,-20.341915,STN
42812807559000,3.104936,-5.70443579332659,10.5701411162791,-5.0433654479272,1.4969252,-0.39706242,-1.6911805,333.53717,-112.76672,-20.956287,STN
42812812539000,3.109916,-5.44688885726691,11.0562625012482,-5.26517745533485,1.5100589,0.09590584,-1.7947221,333.672,-113.64868,-21.59232,STN
42812817575000,3.114952,-5.10138799066536,11.7472647810702,-5.25994248605232,1.5311338,0.5448918,-1.8729129,333.65573,-114.540115,-22.215977,STN
42812822571000,3.119948,-4.78934608010131,12.3405178764217,-5.01615715196406,1.5824465,0.947452,-1.9278907,333.44644,-115.39947,-22.769539,STN
42812827625000,3.125002,-4.49791209464781,12.8678747362133,-4.58131897170983,1.6331482,1.3084733,-1.9843957,333.10327,-116.26138,-23.299793,STN
42812832592000,3.129969,-4.21098352357079,13.3570513224017,-3.98942359273754,1.7018706,1.6001616,-2.0207422,332.6077,-117.01237,-23.692055,STN
42812837607000,3.134984,-3.92071410124839,13.8186270927375,-3.20902723441989,1.7434094,1.7876972,-2.0607538,332.03387,-117.76431,-24.064182,STN
42812842596000,3.139973,-3.67717212289843,14.3567053342153,-2.36759593443924,1.7528778,1.8564194,-2.076331,331.42206,-118.369576,-24.297491,STN
42812848076000,3.145453,-3.46887222548341,15.0510385115001,-1.35814245672705,1.7229455,1.7751744,-2.079996,330.81128,-118.9684,-24.523666,STN
42812852674000,3.150051,-3.39258167098113,15.7917286957811,-0.536692922254718,1.6606371,1.5693128,-2.0696115,330.28323,-119.39622,-24.639502,STN
42812857633000,3.15501,-3.39727402857425,16.7302011943484,0.326701497143563,1.5601498,1.2379184,-2.0497584,329.83456,-119.80445,-24.769001,STN
42812862588000,3.159965,-3.49588861477363,17.4660386539582,1.08543483658106,1.4263704,0.79137594,-2.0433443,329.38257,-120.08731,-24.876598,STN
42812867614000,3.164991,-3.70403607339158,17.9800346465449,1.73536455921631,1.258077,0.23945917,-2.0476203,329.0745,-120.34523,-25.020536,STN
42812872534000,3.169911,-3.96496787502703,18.44561232,2.37168325932973,1.0436633,-0.35918877,-2.1056526,328.90247,-120.4606,-25.158552,STN
42812877599000,3.174976,-4.48411887610811,18.76025012,3.02717683251892,0.77671516,-0.6560693,-2.1682663,328.81168,-120.55355,-25.327425,STN
42812882600000,3.179977,-4.92636731691719,18.937982422786,3.49102247253231,0.4914411,-1.2452488,-2.173764,328.99554,-120.57489,-25.580381,STN
42812887608000,3.184985,-5.23860501732887,18.8691064806127,3.614999264337,0.3359759,-1.7910569,-2.127949,329.26068,-120.59584,-25.861109,STN
42812892497000,3.189874,-5.5559969869987,18.553198370437,3.57591680562056,0.0720821,-2.2623394,-2.0454822,329.72018,-120.58343,-26.229107,STN
42812897614000,3.194991,-5.92846863174317,17.4259809447945,3.02211037950795,-0.13652839,-2.6367998,-1.9752327,330.32425,-120.57327,-26.61911,STN
42812902613000,3.19999,-6.28376175071254,16.2332941352809,2.30854370731881,-0.2733622,-2.8936687,-1.9242256,331.07144,-120.58676,-27.061806,STN
42812907574000,3.204951,-6.6126214110342,14.7969518234935,1.1236819290513,-0.3381139,-3.009733,-1.9034561,331.8976,-120.598045,-27.497644,STN
42812912531000,3.209908,-6.8396837571809,13.5046518629446,-0.154044144226745,-0.32895094,-2.924212,-1.8759671,332.7474,-120.7576,-28.031149,STN
42812918007000,3.215384,-6.80975638073046,12.4721602399658,-1.82498476343922,-0.2510656,-2.605951,-1.822211,333.5642,-120.91853,-28.524647,STN
42812922546000,3.219923,-6.72798212875622,11.7235836193035,-3.22466058646766,-0.13164146,-2.0341814,-1.7192802,334.26068,-121.25197,-29.086226,STN
42812927599000,3.224976,-6.38611098094527,11.3624519941294,-4.84734430308458,-0.02443461,-1.2241739,-1.5607607,334.78085,-121.56172,-29.56753,STN
42812932587000,3.229964,-5.97839396615848,11.0887718826463,-6.18077541728778,0.06291912,-0.30970868,-1.3976597,334.9638,-121.9556,-29.991686,STN
42812937613000,3.23499,-5.24910566286467,11.1884267825146,-6.30760803612836,0.13041973,0.5748242,-1.2391402,334.901,-122.30884,-30.318825,STN
42812942680000,3.240057,-4.54829903214286,11.2766905714286,-6.34942286071429,0.17501289,1.3060299,-1.0931433,334.49277,-122.66413,-30.541922,STN
42812947602000,3.244979,-4.28722683644003,11.213672802903,-5.34114406348358,0.20372356,1.8121318,-0.96974856,333.88882,-122.98307,-30.680208,STN
42812952957000,3.250334,-4.00631327605779,11.1413881012384,-4.24155919188854,0.21013765,2.083356,-0.8573494,333.09152,-123.18052,-30.653107,STN
42812957603000,3.25498,-3.84101108926729,10.9852695557276,-3.22219543498452,0.19853121,2.1560488,-0.7583892,332.22125,-123.349464,-30.569073,STN
42812962852000,3.260229,-3.65930537719535,10.8025814169143,-2.10178700022697,0.17134771,2.0839667,-0.675617,331.38037,-123.42821,-30.420176,STN
42812967620000,3.264997,-3.55237772737098,10.5640500102675,-1.44377071971179,0.1414153,1.9165897,-0.6017023,330.57846,-123.48007,-30.245138,STN
42812972501000,3.269878,-3.44291592812753,10.3198654893272,-0.770159674159236,0.10323623,1.8148806,-0.5580254,329.85492,-123.4603,-30.039398,STN
42812977594000,3.274971,-3.31366392999317,10.0107143680359,-0.408221076946239,0.032070424,1.5815301,-0.5155703,329.2572,-123.41121,-29.837505,STN
42812982521000,3.279898,-3.1847559864377,9.6976525284418,-0.145801251816763,0.005192355,1.3524556,-0.49327368,328.7136,-123.354324,-29.638624,STN
42812987605000,3.284982,-3.01718538944223,9.35155623157371,-0.166873948851594,-0.022907447,1.1603385,-0.4636467,328.25677,-123.264084,-29.476086,STN
42812992506000,3.289883,-2.84421425976096,9.01028895996016,-0.283746282872112,-0.06505715,1.0235047,-0.44623706,327.86487,-123.163284,-29.324461,STN
42812997548000,3.294925,-2.6200641016205,8.66310849802148,-0.555622610864895,-0.077579886,0.9450085,-0.410196,327.51666,-123.05416,-29.187883,STN
42813002671000,3.300048,-2.37507774318824,8.3118072437818,-0.888434237003957,-0.0870483,0.91996306,-0.3753767,327.20172,-122.93341,-29.052925,STN
42813007621000,3.304998,-2.08368687455389,7.98921693904074,-1.20762592566271,-0.09193522,0.960891,-0.34574974,326.8739,-122.81831,-28.914055,STN
42813012568000,3.309945,-1.76116538536359,7.676468823672,-1.52526077896854,-0.08460484,1.0375546,-0.2932153,326.5535,-122.68651,-28.758013,STN
42813017620000,3.314997,-1.44546507003488,7.38954626845573,-1.72731467373571,-0.062308256,1.1490375,-0.23762658,326.18317,-122.56353,-28.57688,STN
42813022627000,3.320004,-1.13886063435381,7.12010592888975,-1.87132587967448,-0.063224554,1.2443326,-0.17592919,325.8085,-122.4214,-28.37561,STN
42813027593000,3.32497,-0.855228125710868,6.87217859652158,-1.86753021932456,-0.06169739,1.3362677,-0.10842858,325.36523,-122.27701,-28.13883,STN
42813032577000,3.329954,-0.582907355673139,6.63499610427901,-1.77529250956106,-0.062308256,1.3982705,-0.04153884,324.917,-122.115234,-27.88085,STN
42813037603000,3.33498,-0.313142130095627,6.36866697866122,-1.58753037438487,-0.069027774,1.4352279,0.03756821,324.42926,-121.929756,-27.579025,STN
42813042602000,3.339979,-0.0508022479789406,6.07031970829483,-1.28403913462985,-0.09896017,1.4083499,0.10720685,323.9568,-121.7258,-27.26257,STN
42813047592000,3.344969,0.147304794240785,5.77593202654247,-0.970682820991587,-0.13652839,1.3377949,0.1704314,323.4867,-121.48155,-26.90669,STN
42813052620000,3.349997,0.30163872041867,5.48173309024439,-0.647546163371394,-0.18234327,1.2366967,0.2284636,323.04834,-121.215385,-26.53925,STN
42813057608000,3.354985,0.40894390885005,5.18291095170804,-0.37644361883148,-0.23304509,1.1032226,0.27947086,322.65808,-120.90224,-26.151892,STN
42813062594000,3.359971,0.484812746554121,4.87943551176763,-0.13935346981281,-0.28099802,0.9621128,0.33292156,322.31235,-120.56717,-25.758629,STN
42813067607000,3.364984,0.522473020897275,4.63027327175315,-0.0196680891800327,-0.33933565,0.82863873,0.3930918,322.00833,-120.197235,-25.367094,STN
42813072606000,3.369983,0.531691192298065,4.42286492057379,0.0125954322749591,-0.38759398,0.7761043,0.45845437,321.73105,-119.80639,-24.96607,STN
42813077579000,3.374956,0.507926465637979,4.3238690939996,0.0240012979766873,-0.44226643,0.70096785,0.49693888,321.508,-119.39862,-24.583685,STN
42813082606000,3.379983,0.450247618230831,4.33348217751597,0.014388157495008,-0.46639562,0.64873886,0.58551437,321.30508,-118.9592,-24.173409,STN
42813087600000,3.384977,0.392947406583467,4.34303215545128,0.00483812296835064,-0.5213735,0.6010914,0.6945538,321.12146,-118.510826,-23.770388,STN
42813092601000,3.389978,0.335566878259784,4.35259551941893,-0.00472529766997803,-0.57451874,0.5363397,0.8054258,320.966,-118.03671,-23.349537,STN
42813097549000,3.394926,0.251384041881733,4.43317353398927,-0.0394084375528722,-0.6221663,0.47739118,0.8958339,320.82043,-117.5366,-22.910704,STN
42813102604000,3.399981,0.135914133798847,4.59194484436494,-0.101954639313457,-0.6579019,0.4175264,0.9999864,320.70294,-117.00068,-22.444834,STN
42813107563000,3.40494,0.0370015112756978,4.75050711368278,-0.164885368452786,-0.6936375,0.3454443,1.0852021,320.60156,-116.46449,-21.99039,STN
42813112566000,3.409943,-0.0468679565405038,4.91358652280463,-0.230117180754644,-0.71685034,0.26145032,1.1756102,320.5267,-115.9003,-21.514091,STN
42813117570000,3.414947,-0.109950282760466,5.08971118236189,-0.288410908283832,-0.7367035,0.19303341,1.2672399,320.45157,-115.330505,-21.034138,STN
42813122605000,3.419982,-0.144165650014394,5.28522740334516,-0.337289994153066,-0.77091193,0.12217305,1.366811,320.4046,-114.73485,-20.537325,STN
42813127565000,3.424942,-0.148667355906393,5.48061181164384,-0.343721001227169,-0.7696902,0.065973446,1.4770721,320.36377,-114.13167,-20.02621,STN
42813132600000,3.429977,-0.116557900240487,5.68244289041096,-0.297850359855403,-0.7874053,0.008246681,1.5867225,320.34515,-113.50179,-19.49795,STN
42813137560000,3.434937,-0.0857820260834185,5.90133196217542,-0.228206443988959,-0.8035932,-0.05100725,1.7082846,320.3336,-112.8471,-18.94051,STN
42813142603000,3.43998,-0.0561587383108771,6.16300422055817,-0.109713280010325,-0.806953,-0.12767084,1.8270979,320.34415,-112.17322,-18.364983,STN
42813147520000,3.444897,-0.0524382368933412,6.43550696817914,-0.0206434644949912,-0.8035932,-0.17592919,1.9459113,320.3603,-111.44821,-17.743696,STN
42813152625000,3.450002,-0.0908508063850913,6.7476091300825,0.0273722477457278,-0.7959574,-0.22449298,2.0564778,320.3969,-110.70612,-17.104591,STN
42813157555000,3.454932,-0.154817360745091,7.05170120336927,0.0335234328860223,-0.77488256,-0.2415972,2.1670444,320.41672,-109.916275,-16.420925,STN
42813162604000,3.459981,-0.271185524859453,7.3682224690027,-0.0362974616942626,-0.7443393,-0.23945917,2.2504275,320.43945,-109.12071,-15.725931,STN
42813167519000,3.464896,-0.406644144784425,7.66097416503324,-0.11590846562773,-0.7058548,-0.22632557,2.327702,320.44952,-108.29893,-15.005408,STN
42813173070000,3.470447,-0.628778791179487,7.94369107589744,-0.242121325948718,-0.64934975,-0.17623462,2.3744333,320.44025,-107.48615,-14.280424,STN
42813177525000,3.474902,-0.82925034141342,8.15517938690598,-0.341670123222517,-0.625526,-0.099571034,2.3857343,320.40472,-106.69096,-13.567207,STN
42813182598000,3.479975,-1.17606045608811,8.31372124230063,-0.445713162798287,-0.5907067,-0.019242255,2.3893993,320.3466,-105.91294,-12.854575,STN
42813187541000,3.484918,-1.52190569635997,8.44904056002689,-0.547731376037265,-0.5589417,0.06780604,2.3640485,320.23956,-105.20496,-12.193427,STN
42813192602000,3.489979,-1.9082735285632,8.50955625720323,-0.654797142124472,-0.5479461,0.16218472,2.3075435,320.10028,-104.520645,-11.5505,STN
42813197571000,3.494948,-2.2979103625,8.55853756501283,-0.756376215414885,-0.537256,0.24281894,2.198504,319.90692,-103.9565,-11.02375,STN
42813202617000,3.499994,-2.7681344875,8.53270109538067,-0.833885710641574,-0.54428095,0.32620203,2.0717494,319.68137,-103.41869,-10.52495,STN
42813207580000,3.504957,-3.21984050840537,8.49085834893194,-0.906327513245902,-0.5656612,0.40408736,1.9147571,319.39066,-103.02895,-10.182824,STN
42813212599000,3.509976,-3.64486513615499,8.40012190988574,-0.968409745770492,-0.6010914,0.45845437,1.7461584,319.08295,-102.66973,-9.881131,STN
42813217586000,3.514963,-4.04467611772189,8.28480061317154,-1.01797406076426,-0.61850107,0.49663344,1.5635096,318.8567,-102.395294,-9.642436,STN
42813222604000,3.519981,-4.37621325149232,8.08964072805558,-1.02973071081808,-0.64812803,0.5036584,1.3775011,318.61923,-102.153305,-9.454342,STN
42813227581000,3.524958,-4.70504153263529,7.8960754135434,-1.04139130215285,-0.68325275,0.46639562,1.1914927,318.44864,-102.00909,-9.363999,STN
42813232551000,3.529928,-5.0334073267443,7.70278234279284,-1.05303549321851,-0.7370089,0.40744713,1.0091494,318.27634,-101.89794,-9.32593,STN
42813237556000,3.534933,-5.35000694435798,7.50788122568093,-1.07174533988327,-0.8045095,0.30024028,0.8356637,318.13312,-101.81374,-9.332988,STN
42813242502000,3.539879,-5.58281566067991,7.31387404648781,-1.1299475442863,-0.8784242,0.17623462,0.68630713,318.00677,-101.756065,-9.385444,STN
42813247559000,3.544936,-5.80809659354457,7.13168694960024,-1.22047432339354,-0.9914343,0.024740042,0.5684101,317.98825,-101.82783,-9.582314,STN
42813252676000,3.550053,-5.98223152295923,7.01559671044319,-1.44298023208963,-1.1160508,-0.13103059,0.4978552,318.00223,-101.91162,-9.807738,STN
42813257581000,3.554958,-6.15286195035231,6.95493662882308,-1.76904462848029,-1.2278391,-0.28191432,0.45020768,318.07913,-102.05496,-10.099963,STN
42813262561000,3.559938,-6.34359566583508,7.13204656845363,-2.63188738547896,-1.3158038,-0.4196644,0.4266894,318.19366,-102.19855,-10.403451,STN
42813267638000,3.565015,-6.52559915518079,7.31877259693544,-3.4805648097169,-1.3518448,-0.47158796,0.42210788,318.33868,-102.408905,-10.751709,STN
42813272575000,3.569952,-6.5697743038307,7.56615352162945,-3.97532684361394,-1.3414601,-0.5589417,0.41905355,318.53015,-102.62198,-11.103107,STN
42813277501000,3.574878,-6.61385102699243,7.8129832633841,-4.46898651122115,-1.3148874,-0.5751296,0.4175264,318.71622,-102.98362,-11.51806,STN
42813282556000,3.579933,-6.65716566521438,8.11977166046143,-4.85820733498366,-1.246776,-0.50946164,0.42180246,318.90155,-103.34078,-11.91768,STN
42813287513000,3.58489,-6.69947205761957,8.42531654619269,-5.22956168452322,-1.1294898,-0.36102137,0.4120286,319.06454,-103.70093,-12.305843,STN
42813292569000,3.589946,-6.68755560065985,8.69135650762082,-5.33613368273234,-1.006095,-0.11178834,0.39767328,319.19208,-104.11303,-12.691988,STN
42813297546000,3.594923,-6.66983669433086,8.9482797936803,-5.41143874553903,-0.8924741,0.20463985,0.37659842,319.25452,-104.52652,-13.061399,STN
42813302631000,3.600008,-6.53572564074113,9.13757603476733,-5.1784479872644,-0.78801614,0.5549711,0.3408628,319.27472,-104.963554,-13.413004,STN
42813307574000,3.604951,-6.36937918966031,9.29888200489831,-4.85583688917048,-0.70096785,0.874759,0.29016098,319.20755,-105.40442,-13.750936,STN
42813312892000,3.610269,-6.15136162562008,9.33583907703531,-4.24935812751678,-0.63316184,1.131017,0.23976462,319.06882,-105.83087,-14.053897,STN
42813317606000,3.614983,-5.95376134650326,9.35340366754207,-3.68290406129754,-0.5714644,1.3063353,0.18387043,318.8585,-106.26453,-14.349557,STN
42813322572000,3.619949,-5.70760519631309,9.31277683116752,-2.99688360856251,-0.5354234,1.3924674,0.129198,318.5951,-106.63044,-14.593767,STN
42813327500000,3.624877,-5.45563502236325,9.26048055958497,-2.2980227163695,-0.49571714,1.3839152,0.076358154,318.31143,-107.00333,-14.837741,STN
42813332563000,3.62994,-5.09108904298072,9.29189791557532,-1.77853751449282,-0.47128254,1.2922854,0.015577064,318.02768,-107.276276,-15.031217,STN
42813337543000,3.63492,-4.71080283334461,9.34029823065771,-1.30836548158314,-0.4334089,1.1249083,-0.03359759,317.77588,-107.555374,-15.231009,STN
42813342563000,3.63994,-4.32746211600058,9.38908730329097,-0.834416966481419,-0.39858958,0.87872964,-0.06169739,317.5556,-107.73234,-15.391622,STN
42813347559000,3.644936,-3.9459541032813,9.43764312139371,-0.362734340694921,-0.3555236,0.5626069,-0.07452556,317.40863,-107.91857,-15.5671015,STN
42813352611000,3.649988,-3.51254493742493,9.54525946127911,-0.141615853608787,-0.31795537,0.23854288,-0.06780604,317.33987,-108.10579,-15.751295,STN
42813357641000,3.655018,-3.06082756549363,9.67722130723844,-0.0299553955653777,-0.28680122,-0.05497787,-0.063224554,317.3568,-108.29723,-15.947777,STN
42813362562000,3.659939,-2.64170387837325,9.79312790738523,-0.128181067981936,-0.28985557,-0.3036,-0.042455133,317.4122,-108.26208,-16.001654,STN
42813367559000,3.664936,-2.22141782814371,9.90775170658683,-0.27623639951497,-0.32498032,-0.39736784,-0.029321533,317.50803,-108.23017,-16.061337,STN
42813372572000,3.669949,-1.86041312844257,10.1293038761155,-0.504612519857979,-0.36774087,-0.5360342,-0.018325957,317.6803,-108.11262,-16.053894,STN
42813377560000,3.674937,-1.51661854308608,10.3768361881777,-0.752144611741675,-0.45753807,-0.6096435,0.005497787,317.85934,-107.98281,-16.039888,STN
42813382593000,3.67997,-1.24460027819433,10.7010487648536,-0.919587148407252,-0.59773165,-0.6401868,0.055588737,318.0614,-107.77739,-15.948062,STN
42813387576000,3.684953,-1.00499575098652,11.0515809230126,-1.05270077257462,-0.73853606,-0.6536258,0.12980886,318.27527,-107.55586,-15.846207,STN
42813392565000,3.689942,-0.805090175059085,11.4467650963539,-1.15711543951116,-0.8781188,-0.6646214,0.2171626,318.49182,-107.26553,-15.676973,STN
42813397556000,3.694933,-0.636124958852641,11.8764193212302,-1.23918424556105,-1.0005972,-0.72601336,0.31215215,318.7218,-106.94965,-15.490097,STN
42813402568000,3.699945,-0.576692762751411,12.3662202033243,-1.24164713591888,-1.0619892,-0.88270026,0.40744713,318.96094,-106.57388,-15.24634,STN
42813407564000,3.704941,-0.596699345548819,12.8963944594397,-1.18662909067531,-1.0754282,-1.1417072,0.48930305,319.24423,-106.181435,-14.989167,STN
42813412576000,3.709953,-0.886561601461742,13.4027676689527,-1.15892971455864,-1.073901,-1.4367551,0.5497787,319.56494,-105.74496,-14.690206,STN
42813417564000,3.714941,-1.30776468260997,13.8941714330362,-1.14488957210738,-1.0516045,-1.6914859,0.56230146,319.94345,-105.31664,-14.393856,STN
42813422535000,3.719912,-1.7495714395909,14.2996756469126,-1.153856021277,-1.0482447,-1.8252654,0.51007247,320.35977,-104.88284,-14.094158,STN
42813427525000,3.724902,-2.20635089791627,14.6559636501625,-1.17669502519595,-1.028697,-1.8387043,0.4266894,320.80493,-104.47745,-13.810467,STN
42813432547000,3.729924,-2.47295618000393,14.9311982450956,-1.18877470134717,-0.9837985,-1.7458528,0.3200934,321.26013,-104.152756,-13.596883,STN
42813437530000,3.734907,-2.56680783311372,15.1306331488274,-1.19112099144992,-0.93187493,-1.6022996,0.21135938,321.69012,-103.87167,-13.412772,STN
42813442540000,3.739917,-2.66116801414524,15.3311486751561,-1.19347999474409,-0.86101454,-1.4043792,0.11453723,322.07336,-103.69236,-13.313264,STN
42813447536000,3.744913,-2.75526451403216,15.5311038786568,-1.19583240601308,-0.7867944,-1.1951579,0.029932396,322.39838,-103.55535,-13.24142,STN
42813452580000,3.749957,-2.7114073039167,15.389533709209,-1.18205135901796,-0.6933321,-0.999681,-0.03848451,322.66812,-103.45539,-13.19333,STN
42813457477000,3.754854,-2.51428326569545,14.8698426249522,-1.15069067723538,-0.5873469,-0.8136725,-0.09040806,322.87115,-103.38603,-13.163226,STN
42813462439000,3.759816,-2.31501173551935,14.1986264235234,-1.09101187147251,-0.44440445,-0.7348709,-0.110872045,323.04886,-103.350494,-13.15679,STN
42813467544000,3.764921,-2.11089013002037,13.2327827773931,-0.976504673234216,-0.37873647,-0.54092115,-0.13836098,323.13354,-103.33553,-13.163732,STN
42813472430000,3.769807,-1.93434507465904,12.3417946024797,-0.852165931011922,-0.24251351,-0.27275133,-0.15424347,323.18454,-103.327065,-13.167342,STN
42813477484000,3.774861,-1.7820094648927,11.4739435098712,-0.69983031160515,-0.13744467,0.05681047,-0.1423316,323.1587,-103.320755,-13.168147,STN
42813482450000,3.779827,-1.64585637512664,10.6075082617595,-0.556514168708777,-0.07238753,0.4596761,-0.118507855,323.04465,-103.322014,-13.17178,STN
42813487490000,3.784867,-1.54106887176677,9.69436009262897,-0.426777284598367,-0.025350908,0.86132,-0.079107046,322.83636,-103.318436,-13.163426,STN
42813492440000,3.789817,-1.43704573972603,8.86051403835616,-0.292814143561644,0.02565634,1.2641857,-0.021685716,322.52267,-103.30958,-13.146535,STN
42813497751000,3.795128,-1.32329140496692,8.08793225701239,-0.136401892436865,0.0711658,1.6569719,0.04642576,322.10156,-103.28667,-13.109467,STN
42813502520000,3.799897,-1.24608274513338,7.44631580641673,0.0536080246142754,0.10934488,2.0112739,0.12736541,321.5972,-103.254036,-13.059438,STN
42813507539000,3.804916,-1.25103340526316,6.95124943157895,0.424907803157895,0.13439035,2.307238,0.20525073,321.00748,-103.2024,-12.984549,STN
42813512521000,3.809898,-1.32308690789378,6.82479774397054,0.793541562577301,0.14294247,2.5567765,0.31703907,320.35507,-103.12312,-12.881768,STN
42813517626000,3.815003,-1.57206995863951,7.64733149092397,1.17146221485995,0.124005646,2.8221974,0.46028697,319.62894,-103.01033,-12.741134,STN
42813522604000,3.819981,-1.84891936188148,8.55259310267944,1.5381160237434,0.0888809,3.1358767,0.5946773,318.8483,-102.86438,-12.574515,STN
42813527536000,3.824913,-2.43089999196167,10.3816744490514,1.88453312517113,0.023823744,3.4623842,0.71868294,318.0063,-102.675354,-12.364333,STN
42813532741000,3.830118,-3.058465590618,12.3288997560457,2.2490410468876,-0.05375614,3.7595701,0.7996226,317.08124,-102.439705,-12.117494,STN
42813537548000,3.834925,-3.7851824903717,14.3131978188536,2.57374431733095,-0.15485434,4.0118575,0.85154617,316.09238,-102.17058,-11.840538,STN
42813542540000,3.839917,-4.5149540628612,16.0720092662245,2.93001745409758,-0.27916542,4.157549,0.8576548,315.06308,-101.88915,-11.570021,STN
42813547532000,3.844909,-5.17171165672193,16.9461763347229,3.34218941855045,-0.39767328,3.943746,0.8054258,314.08286,-101.606186,-11.307538,STN
42813552646000,3.850023,-5.85033734975072,17.6971851441036,3.85872315892617,-0.5112942,2.5638015,0.6188065,313.4165,-101.375145,-11.126529,STN
42813557569000,3.854946,-6.53290110446788,17.6926647633749,4.83058547463087,-0.569021,0.89980453,0.36254853,312.90955,-101.18421,-10.990533,STN
42813562636000,3.860013,-7.08248146523568,17.5205586570418,5.66914285045415,-0.5702427,0.18112154,0.15760323,312.52332,-101.08752,-10.953578,STN
42813568281000,3.865658,-5.59901939897696,15.0343385231858,4.38726633028014,-0.5170974,-1.3808609,0.08399397,312.8671,-101.044235,-10.974265,STN
42813572909000,3.870286,-4.4078598729305,13.0499520262838,3.35266449536058,-0.45081854,-1.9425515,0.09254608,313.1031,-101.10564,-11.082753,STN
42813577563000,3.87494,-3.78251437353849,12.2870307869236,2.68562923796651,-0.41599923,-2.087632,0.09987647,313.66623,-101.21254,-11.211586,STN
42813582530000,3.879907,-3.11511190351698,11.4728000615471,1.97373320799738,-0.40866885,-2.116648,0.13133603,314.3449,-78.74311,-11.252551,STN
42813587576000,3.884953,-2.53563410394168,10.658594481448,1.50289804656611,-0.42363504,-1.9339994,0.19883664,314.99298,-78.698364,-11.276518,STN
42813592550000,3.889927,-1.98480159039718,9.85868975565611,1.09097112252388,-0.42852196,-1.6646078,0.2770274,315.6126,-78.65426,-11.284746,STN
42813597549000,3.894926,-1.56676377463445,9.15038153313284,0.941314786166131,-0.46303585,-1.3622295,0.35308012,316.1714,-78.671776,-11.225902,STN
42813602604000,3.899981,-1.17016004928964,8.45255983034325,0.840908793684538,-0.5039638,-1.0424415,0.43310347,316.63165,-78.70436,-11.144642,STN
42813607570000,3.904947,-0.880753013853138,8.05496510377292,0.98387762520275,-0.5552765,-0.74006325,0.5002986,316.9925,-78.77709,-11.019741,STN
42813612499000,3.909876,-0.601955995125176,7.68462253363893,1.14616247353667,-0.61544675,-0.48472157,0.5665775,317.25775,-78.862144,-10.875949,STN
42813617540000,3.914917,-0.350827955910513,7.40895551834585,1.44662225376512,-0.6805039,-0.30757064,0.6243043,317.4292,-78.98383,-10.688362,STN
42813622586000,3.919963,-0.118982933688986,7.19223102879641,1.82463043930955,-0.7125743,-0.2144137,0.66156703,317.5406,-79.10769,-10.491904,STN
42813627564000,3.924941,0.0719994820059849,7.17068247552368,2.19105112417707,-0.72204274,-0.23060162,0.6942484,317.60117,-79.26072,-10.245606,STN
42813632554000,3.929931,0.249522704542359,7.2199944474564,2.55596002542565,-0.743423,-0.31642818,0.7128797,317.6476,-79.40399,-9.995078,STN
42813637982000,3.935359,0.42305855244392,7.53079428349075,2.76526252717434,-0.7415904,-0.44715336,0.73731434,317.66946,-79.55538,-9.70396,STN
42813642574000,3.939951,0.565840042691854,7.84664414244392,2.90371724563164,-0.7318166,-0.5864306,0.7635816,317.7098,-79.69317,-9.407153,STN
42813647551000,3.944928,0.688841386173424,8.27873137703462,2.87239015699911,-0.7171558,-0.7104363,0.80481493,317.74945,-79.83705,-9.060251,STN
42813652632000,3.950009,0.804046487501233,8.74915218072408,2.78118608169084,-0.7107417,-0.81489426,0.84482664,317.81226,-79.96241,-8.70635,STN
42813657571000,3.954948,0.840131584807864,9.16347221715818,2.60870849034853,-0.70738196,-0.88789266,0.8848383,317.86786,-80.090904,-8.308912,STN
42813662568000,3.959945,0.849635163320425,9.56737480011915,2.40438150271075,-0.7330383,-0.92485,0.89949906,317.9315,-80.18793,-7.9103684,STN
42813667603000,3.96498,0.888821722251497,9.76175750371258,2.10584244112575,-0.74128497,-0.9431759,0.91629785,318.00775,-80.29103,-7.480605,STN
42813672580000,3.969957,0.939054207741317,9.87135545446707,1.77476474787066,-0.76083267,-0.94989544,0.915687,318.08197,-80.35331,-7.0575566,STN
42813677565000,3.974942,0.989367436627545,9.98112957231138,1.44315488231377,-0.7791586,-0.9221011,0.90194255,318.16168,-80.4059,-6.6386747,STN
42813682551000,3.979928,1.03969075843832,10.0909257110419,1.11147849521916,-0.7910705,-0.9053023,0.8918633,318.23907,-80.426315,-6.2260375,STN
42813687546000,3.984923,1.20661696310586,9.9733943293928,0.510338317257388,-0.7666359,-0.9117164,0.8848383,318.3028,-80.4245,-5.823398,STN
42813692568000,3.989945,1.47538916792047,9.65810394035465,-0.326990585513165,-0.6939429,-1.0247264,0.8567385,318.38666,-80.40022,-5.4335513,STN
42813697550000,3.994927,1.48877926503103,9.23100171664081,-1.37584129489915,-0.5925393,-1.2608259,0.77671516,318.57153,-80.43707,-5.0567055,STN
42813702642000,4.000019,1.3800130685609,8.73918967203258,-2.55335388092708,-0.5018258,-1.4364496,0.64843345,318.7705,-80.462074,-4.706378,STN
42813707662000,4.005039,0.87632125966929,8.52220431875685,-3.50049309874489,-0.3817908,-1.4401149,0.45814893,319.04477,-80.5774,-4.382928,STN
42813712594000,4.009971,0.15646665774878,8.46103995298336,-4.30974129868513,-0.22235495,-1.2913691,0.29260445,319.32736,-80.70558,-4.093172,STN
42813717628000,4.015005,-0.580597984437506,8.4749333568153,-4.75051647690506,-0.06169739,-1.0870347,0.18387043,319.67096,-80.973755,-3.8984518,STN
42813722608000,4.019985,-1.31117871209874,8.53542755332228,-4.95061184679481,0.08124508,-0.85918194,0.12522738,319.9677,-81.265114,-3.7453456,STN
42813727584000,4.024961,-1.92507069523088,8.50444318419723,-4.87935630435486,0.19150625,-0.6337727,0.0720821,320.27576,-81.65062,-3.7611775,STN
42813732607000,4.029984,-2.45486447678084,8.40237279933313,-4.59744775043953,0.27183503,-0.40469822,0.03268129,320.51385,-82.050446,-3.798574,STN
42813737593000,4.03497,-2.77679610726306,8.26948401623856,-4.2170183252731,0.33475417,-0.16310102,-0.00580322,320.70746,-82.44024,-3.9791238,STN
42813742607000,4.039984,-2.95637369415412,8.11353460210609,-3.76334863467178,0.35521814,0.08368854,-0.036957346,320.82788,-82.80243,-4.174247,STN
42813747593000,4.04497,-3.02797748746659,8.01303667725968,-3.29498480950401,0.35308012,0.34483343,-0.050701816,320.8802,-83.06232,-4.452019,STN
42813752618000,4.049995,-3.01368481743392,7.95586604687655,-2.80903372990793,0.31673363,0.6020077,-0.044593163,320.858,-83.268616,-4.7353325,STN
42813757657000,4.055034,-2.94318133022596,8.00887655658808,-2.35301114799961,0.25045475,0.8344419,-0.0290161,320.75763,-83.355965,-5.039405,STN
42813762593000,4.05997,-2.82758134971144,8.15222044937885,-1.93222735991392,0.21685717,0.95172805,-0.002443461,320.6155,-83.402245,-5.3365197,STN
42813767592000,4.064969,-2.74025071119804,8.34312387667481,-1.5335600554132,0.20463985,1.1386528,0.03145956,320.36642,-83.36466,-5.62156,STN
42813772605000,4.069982,-2.68390826821516,8.58257956577017,-1.16263840454768,0.18112154,1.2757921,0.06994407,320.10196,-83.30104,-5.8925543,STN
42813777503000,4.07488,-2.70547086931622,8.7636859708868,-0.807401317582839,0.16615535,1.3460416,0.10170906,319.81686,-83.21102,-6.117849,STN
42813782605000,4.079982,-2.83181098879525,8.88066747251484,-0.44709802383643,0.18417588,1.3329079,0.102319926,319.52478,-83.11316,-6.33535,STN
42813787509000,4.084886,-2.98658254310975,8.93190415114097,-0.0986128213938556,0.21074851,1.2281445,0.057421334,319.24466,-82.9871,-6.535168,STN
42813792602000,4.089979,-3.21303816199743,8.86444944650795,0.267570653659982,0.2519819,1.0173961,-0.026267206,319.01035,-82.85293,-6.7370386,STN
42813797524000,4.094901,-3.45373035362504,8.74285035131953,0.599841818489159,0.3032946,0.7076874,-0.14966199,318.8735,-82.67588,-6.9540043,STN
42813802711000,4.100088,-3.75588310309036,8.48943184077308,0.901994649375061,0.36377025,0.33505958,-0.2843578,318.82443,-82.481514,-7.1873736,STN
