timestamp,rel_time,acc_x,acc_y,acc_z,gyro_x,gyro_y,gyro_z,azimuth,pitch,roll,label
47963718949000,0,-0.257278570159575,9.93192563104113,0.41749385561397,0.003970624,-0.016493361,0.008552114,70.09592,-95.44939,-3.676695,STD
47963723937000,0.004988,-0.259674909782735,9.9304878233137,0.424682874233227,-0.014660766,-0.018936822,0.01160644,70.1188,-95.19017,-3.470257,STD
47963728961000,0.010012,-0.262088544559551,9.92903963846555,0.431923778311645,-0.009773844,-0.021380283,0.008857546,70.145065,-94.95046,-3.2780604,STD
47963733951000,0.015002,-0.264485845024581,9.92760125423142,0.439115679456412,-0.005192355,-0.0033597588,0.016493361,70.16605,-94.716,-3.0919185,STD
47963739535000,0.020586,-0.267168515524927,9.92599164750529,0.447163690677328,-0.0125227375,-0.02107485,0.0067195175,70.19729,-94.49473,-2.921638,STD
47963743972000,0.025023,-0.269300143212971,9.92471266737567,0.453558573518877,-0.008246681,-0.018936822,0.007941248,70.21781,-94.283775,-2.7542088,STD
47963749009000,0.03006,-0.27172002346194,9.92326073523392,0.460818214013103,-0.013744468,-0.01282817,0.002443461,70.241806,-94.08163,-2.5998676,STD
47963753941000,0.034992,-0.274089459512747,9.9218390696943,0.467926521918111,-0.005497787,-0.01985312,0.002443461,70.2689,-93.89108,-2.4513514,STD
47963758965000,0.040016,-0.276503094289563,9.92039088484614,0.475167425996529,-0.008857546,-0.014049901,0.008246681,70.29053,-93.705025,-2.3095107,STD
47963763949000,0.045,-0.278897512228983,9.91895423013214,0.482350679564768,-0.01038471,-0.015577064,0.006414085,70.31604,-93.53034,-2.176659,STD
47963768950000,0.050001,-0.281300097324297,9.91751267511112,0.489558434599833,-0.0070249503,-0.011301007,0.002443461,70.338234,-93.362724,-2.048841,STD
47963773937000,0.054988,-0.283695956526522,9.91607515563705,0.496746011956336,-0.013133603,-0.0018325958,0.004276057,70.3594,-93.19886,-1.9257023,STD
47963778961000,0.060012,-0.286109591303338,9.9146269707889,0.503986916034754,-0.01740966,0.00580322,0.0076358155,70.37984,-93.043106,-1.8087003,STD
47963783948000,0.064999,-0.288505450505563,9.91318945131483,0.511174493391257,-0.016187929,0.004276057,0.019242255,70.400375,-92.891754,-1.693992,STD
47963788953000,0.070004,-0.290909957284616,9.91174674328039,0.51838801347734,-0.022602014,-0.00061086525,0.01282817,70.41964,-92.746056,-1.5883452,STD
47963794045000,0.075096,-0.293356260685004,9.9102789572042,0.525726923423062,-0.008246681,0.016187929,0.01863139,70.43346,-92.60732,-1.4804324,STD
47963799002000,0.080053,-0.295737707259183,9.90885008533074,0.532871262896931,-0.017104227,0.008857546,0.00580322,70.45542,-92.471146,-1.3844638,STD
47963803945000,0.084996,-0.298112427940273,9.90742524900423,0.539995424692237,-0.018020526,0.029626964,0.01160644,70.46491,-92.34148,-1.2853103,STD
47963809515000,0.090566,-0.300788372547531,9.90581967782505,0.548023258234592,-0.020158553,0.01985312,0.011911872,70.48518,-92.217224,-1.1957319,STD
47963813951000,0.095002,-0.30291951981464,9.90454098594877,0.554416699813386,-0.03145956,0.017715093,0.0143553335,70.497635,-92.09402,-1.1073929,STD
47963818946000,0.099997,-0.305319222384344,9.90310116044787,0.561615807271925,-0.028710667,0.015271631,0.009162978,70.51307,-91.97934,-1.0248665,STD
47963823925000,0.104976,-0.32872467784137,9.89004753203288,0.711003225349044,-0.032986723,0.017104227,0.017715093,70.52822,-91.862175,-0.9411603,STD
47963828958000,0.110009,-0.371679486394693,9.86618376611546,0.992595862521042,-0.023518313,0.0076358155,0.015882496,70.54733,-91.755554,-0.865288,STD
47963833950000,0.115001,-0.368176092893145,9.87411253074597,0.694443995766129,-0.031154128,0.01740966,0.015271631,70.57315,-91.62868,-0.79906917,STD
47963838996000,0.120047,-0.31946181559879,9.91308423336693,-0.172670207217742,-0.01985312,0.01282817,0.02076942,70.605934,-91.51211,-0.73455054,STD
47963844008000,0.125059,-0.294404591649415,9.93362521631034,-0.428499330822386,-0.028099801,0.013439035,0.014660766,70.72402,-91.38843,-0.67241853,STD
47963848987000,0.130038,-0.289791745874045,9.93823766711812,-0.156341809148109,-0.022907447,0.01038471,0.013439035,70.8433,-91.2723,-0.6102821,STD
47963853976000,0.135027,-0.293958290036188,9.92741701447527,0.0680542465874548,-0.03268129,0.00061086525,0.014660766,70.91758,-91.286865,-0.5246513,STD
47963859004000,0.140055,-0.308479455271411,9.89837510856454,0.237467847905911,-0.02107485,0.017715093,0.018020526,70.98369,-91.315445,-0.4415641,STD
47963863950000,0.145001,-0.31165890787136,9.8745133929797,0.378120022096284,-0.023823744,0.017715093,0.011911872,71.11662,-91.316635,-0.35216337,STD
47963868985000,0.150036,-0.302203238099814,9.85560165849593,0.491588138342975,-0.015882496,0.021685716,0.013744468,71.24117,-91.32872,-0.26302126,STD
47963873962000,0.155013,-0.292785409576931,9.85110053751746,0.528833338664937,-0.013439035,0.025961773,0.016493361,71.417755,-91.339966,-0.1717078,STD
47963879000000,0.160051,-0.283156998325683,9.86554344092995,0.466248680612652,-0.020463986,0.025350908,0.015577064,71.59134,-91.35506,-0.08467899,STD
47963883940000,0.164991,-0.281750963688951,9.86564092303843,0.428944520256205,-0.008246681,0.018325957,0.016493361,71.80626,-91.383415,0.006217179,STD
47963888981000,0.170032,-0.29141403398719,9.84631490352282,0.424112990152122,-0.008246681,0.023823744,0.015271631,72.01384,-91.409035,0.09252349,STD
47963893928000,0.174979,-0.302377844648402,9.83904543242009,0.368243527123288,-0.015271631,0.00580322,0.004276057,72.25631,-91.47217,0.18173969,STD
47963898983000,0.180034,-0.315641065936073,9.84788729680365,0.240032384931507,-0.008857546,0.004276057,0.009468411,72.48835,-91.54003,0.27151468,STD
47963903882000,0.184933,-0.32780025214516,9.85781728678382,0.14255769392742,-0.013133603,0.015882496,0.013133603,72.7155,-91.601204,0.3521172,STD
47963909011000,0.190062,-0.338015372702506,9.87314028761568,0.137450133648747,-0.014660766,0.009773844,0.0125227375,72.94403,-91.66373,0.42950338,STD
47963913879000,0.19493,-0.343368782937601,9.88279957158348,0.122905243306411,-0.01038471,0.01160644,0.018936822,73.218094,-91.79281,0.51235294,STD
47963918980000,0.200031,-0.338553159357277,9.88119433131798,0.0843802539933625,-0.013133603,0.016187929,0.011301007,73.488144,-91.91367,0.5876918,STD
47963923893000,0.204944,-0.33391501808103,9.87964825301482,0.0472751231376466,0.00030543262,0.016187929,0.005192355,73.7851,-92.05691,0.6636513,STD
47963928960000,0.210011,-0.32913149236421,9.87805371225314,0.0090069167370946,-0.0106901415,0.0067195175,0.015271631,74.07886,-92.18822,0.73902476,STD
47963933894000,0.214945,-0.324473525936976,9.87650102543292,-0.0282568153292807,-0.0027488936,0.013133603,0.010995574,74.38883,-92.337776,0.8069793,STD
47963938941000,0.219992,-0.319708881316334,9.87491277849703,-0.0663739729577761,0.00061086525,0.015882496,0.0125227375,74.69808,-92.47891,0.8764584,STD
47963943935000,0.224986,-0.312806219588049,9.87691635321709,-0.112986199455491,-0.0009162979,0.014660766,0.005497787,75.0338,-92.63459,0.9386381,STD
47963948925000,0.229976,-0.298187600662792,9.89153475843785,-0.190952166717651,-0.0018325958,0.01160644,0.008246681,75.3645,-92.786224,1.0013515,STD
47963953919000,0.23497,-0.280446645240272,9.90356094886629,-0.258140378335355,0.0009162979,0.009468411,0.009773844,75.71024,-92.96983,1.0644164,STD
47963958982000,0.240033,-0.253300593834095,9.9080853821032,-0.294335121417374,-0.0033597588,0.0125227375,0.01282817,76.05026,-93.144844,1.1260308,STD
47963963931000,0.244982,-0.227080449543627,9.91144240671492,-0.322019655772014,-0.0030543262,0.008857546,0.01160644,76.41346,-93.348114,1.1846067,STD
47963968946000,0.249997,-0.202941083796743,9.90661443576598,-0.29063847475573,-0.00061086525,0.0015271631,0.008857546,76.77114,-93.54338,1.2409306,STD
47963973953000,0.255004,-0.178840225512666,9.90179416646562,-0.25930735344994,0.002443461,-0.0018325958,0.0125227375,77.152245,-93.760086,1.2971058,STD
47963978956000,0.260007,-0.154758620959992,9.89697774798955,-0.228001261999397,-0.0021380284,0.0027488936,0.006414085,77.5272,-93.96628,1.347126,STD
47963983926000,0.264977,-0.132840588672414,9.89098896072797,-0.191235252731418,-0.0036651916,0.00061086525,0.005192355,77.89939,-94.16724,1.3969052,STD
47963988934000,0.269985,-0.123652721913793,9.87720736685824,-0.117732343606513,-0.008857546,0.002443461,0.0143553335,78.26352,-94.35888,1.4457219,STD
47963993990000,0.275041,-0.113848253627512,9.86384263798471,-0.0409067604947637,-0.004276057,0.00030543262,0.007941248,78.639656,-94.544334,1.4984598,STD
47963998955000,0.280006,-0.0959036006328899,9.85935638409284,0.0757334853756015,-0.0036651916,0.0106901415,0.0106901415,79.00571,-94.72139,1.5541149,STD
47964003918000,0.284969,-0.0779661760986886,9.85487193735258,0.192326746252665,-0.0027488936,0.013744468,0.01282817,79.368546,-94.87671,1.6042963,STD
47964008984000,0.290035,-0.0855977344998001,9.88148392123151,0.25052099447421,-0.0033597588,0.007941248,0.005192355,79.724754,-95.02443,1.6503526,STD
47964013894000,0.294945,-0.094998396744902,9.90968599140344,0.302224649092363,-0.008246681,-0.0033597588,0.010079277,80.07616,-95.166084,1.6984625,STD
47964018929000,0.29998,-0.097977474841948,9.9186231291704,0.346227178703814,-0.009468411,0.004276057,0.013439035,80.4231,-95.28003,1.7434425,STD
47964023908000,0.304959,-0.100351888090828,9.92574625784284,0.388966578010158,-0.01038471,-0.004581489,0.010079277,80.77234,-95.386986,1.7854253,STD
47964028957000,0.310008,-0.102759683329549,9.93296953092321,0.43230685258291,-0.01282817,-0.00030543262,0.009468411,81.109146,-95.47529,1.8209906,STD
47964033877000,0.314928,-0.105105960329848,9.94000825216612,0.474539799878996,-0.00061086525,-0.004581489,-0.005192355,81.44537,-95.560715,1.8496612,STD
47964038986000,0.320037,-0.117639621396731,9.92843043833581,0.560805299777117,-0.009773844,0.0036651916,0.0012217305,81.76915,-95.63493,1.8827509,STD
47964043937000,0.324988,-0.130849531261144,9.91522072158247,0.648871373203009,-0.01282817,0.00580322,0.007941248,82.09078,-95.7083,1.9103004,STD
47964048980000,0.330031,-0.141763212556533,9.90815096545226,0.739567717022613,-0.01038471,0.002443461,0.016493361,82.40719,-95.7591,1.937274,STD
47964053876000,0.334927,-0.151580640797739,9.90324215138191,0.827924576319095,-0.019547688,0.005497787,0.008246681,82.716644,-95.801476,1.9605582,STD
47964058999000,0.34005,-0.142714143456433,9.89540838010551,0.86729346014806,-0.018325957,-0.0067195175,0.009773844,83.03214,-95.82771,1.9792564,STD
47964064549000,0.3456,-0.129145914133764,9.88636318354323,0.898952668197754,-0.011301007,-0.005497787,0.004581489,83.33861,-95.84883,1.9935111,STD
47964068982000,0.350033,-0.132185030938292,9.88070276796281,0.912358835853762,-0.0106901415,-0.007330383,-0.0036651916,83.64696,-95.848404,2.0017703,STD
47964073983000,0.355034,-0.147366860019019,9.87564205610735,0.917419436740279,-0.010079277,-0.0143553335,0.009162978,83.95323,-95.84928,2.0141149,STD
47964078989000,0.36004,-0.165180482798295,9.88265155012175,0.904433976202313,-0.0021380284,-0.0070249503,0.005192355,84.254265,-95.8434,2.0212398,STD
47964083985000,0.365036,-0.184598387741477,9.89721476846591,0.880161582350852,-0.009162978,-0.012217305,0.0036651916,84.5577,-95.83317,2.031751,STD
47964088942000,0.369993,-0.199066905278893,9.89488723258466,0.845884775060737,-0.005192355,-0.009468411,0.003970624,84.84736,-95.82075,2.0391252,STD
47964093997000,0.375048,-0.211068188076751,9.88288596231841,0.80508043109227,-0.004886922,-0.01282817,0.0070249503,85.13682,-95.80388,2.0462728,STD
47964098956000,0.380007,-0.222841553337796,9.87111260935098,0.765051006415787,-0.00580322,-0.028710667,0.0021380284,85.42219,-95.78703,2.0481064,STD
47964103950000,0.385001,-0.234698013534137,9.85925616153503,0.724739059080768,0.0009162979,-0.042455133,-0.0015271631,85.704704,-95.77115,2.0509424,STD
47964108951000,0.390002,-0.242226962771237,9.84471034309623,0.656758156452272,-0.0067195175,-0.030848695,0.0070249503,85.981316,-95.75035,2.055997,STD
47964113948000,0.394999,-0.246883501120463,9.82841259623431,0.570612093667413,-0.01282817,-0.036957346,0.0125227375,86.263306,-95.72948,2.0582194,STD
47964118942000,0.399993,-0.25153724386932,9.81212463389121,0.484517749551426,-0.006414085,-0.028099801,0.016187929,86.5279,-95.721634,2.0634139,STD
47964123936000,0.404987,-0.256190986618177,9.79583667154812,0.398423405435438,-0.002443461,-0.01985312,0.0125227375,86.79106,-95.709724,2.0677183,STD
47964128953000,0.410004,-0.244192485861227,9.79948139719198,0.33516680947604,-0.008857546,-0.032375857,0.015271631,87.05465,-95.69621,2.0743582,STD
47964133924000,0.414975,-0.215131769010072,9.82369864859091,0.296419176892868,-0.004581489,-0.020463986,0.013744468,87.3055,-95.68426,2.0794158,STD
47964138979000,0.42003,-0.206214808849123,9.84813566546366,0.262421788125313,-0.0106901415,-0.020463986,0.0030543262,87.54216,-95.69104,2.0825305,STD
47964143995000,0.425046,-0.215846338449123,9.87221447689223,0.23352718926817,-0.004581489,-0.026267206,0.00580322,87.77405,-95.7015,2.0891023,STD
47964148980000,0.430031,-0.230463818703244,9.88581410288719,0.187125421124318,-0.007330383,-0.03481932,0.017104227,88.00338,-95.71438,2.0991325,STD
47964153986000,0.435037,-0.249490105370572,9.89057027472964,0.1252899790253,-0.008552114,-0.030848695,0.010079277,88.226906,-95.725494,2.104733,STD
47964159001000,0.440052,-0.27338326742268,9.88790465979381,0.0735538225051546,-0.0143553335,-0.03604105,0.008246681,88.45045,-95.737946,2.112932,STD
47964163966000,0.445017,-0.301394373976436,9.87856792488954,0.03153717144919,-0.014660766,-0.025961773,0.009773844,88.66514,-95.74908,2.1203425,STD
47964168980000,0.450031,-0.318333776747717,9.86908971531362,-0.0260601102257344,-0.02076942,-0.034513887,0.0070249503,88.88308,-95.765236,2.1204207,STD
47964173987000,0.455038,-0.32309271756451,9.85957189331084,-0.0998236672944621,-0.011911872,-0.035124753,0.0030543262,89.09255,-95.783165,2.1209626,STD
47964178983000,0.460034,-0.327841203348551,9.85007498124256,-0.173425171411771,-0.010995574,-0.028099801,0.002443461,89.29363,-95.79968,2.1175396,STD
47964183992000,0.465043,-0.332602045080389,9.84055335743351,-0.247218192653484,-0.021685716,-0.03176499,-0.0021380284,89.494576,-95.812614,2.1116328,STD
47964188994000,0.470045,-0.348153733722426,9.84618557058067,-0.311074273328717,-0.016187929,-0.03145956,0.0018325958,89.68959,-95.82902,2.1083982,STD
47964194003000,0.475054,-0.376625525943219,9.86991204758136,-0.363272562370165,-0.022602014,-0.019242255,0.0030543262,89.87904,-95.83682,2.103428,STD
47964198918000,0.479969,-0.388798515304048,9.8909660811433,-0.408051330742375,-0.015577064,-0.023518313,0.0018325958,90.06286,-95.87336,2.0973313,STD
47964204042000,0.485093,-0.379385207335507,9.9097925791291,-0.44570454295799,-0.022907447,-0.018936822,-0.0009162979,90.237526,-95.90214,2.0919027,STD
47964209011000,0.490062,-0.370273647727316,9.91996106106287,-0.458792628852209,-0.025961773,-0.01160644,0.0036651916,90.40421,-95.93802,2.0841606,STD
47964213965000,0.495016,-0.361220410064879,9.91543435006202,-0.429369602904303,-0.017715093,-0.010995574,0.008857546,90.56855,-95.97272,2.0760617,STD
47964218874000,0.499925,-0.352249408109913,9.91094875775212,-0.400213843037878,-0.035124753,-0.01740966,0.011301007,90.73549,-96.010155,2.074773,STD
47964223942000,0.504993,-0.342987839988551,9.90631787940082,-0.370113743016888,-0.021685716,-0.011911872,0.015271631,90.89623,-96.05648,2.0756752,STD
47964228969000,0.51002,-0.332302079589041,9.89953185616439,-0.33322039609589,-0.034208454,-0.019242255,0.007941248,91.05945,-96.090065,2.079918,STD
47964234016000,0.515067,-0.313110443760175,9.8803403305539,-0.256453837750645,-0.032070424,-0.021991149,0.014660766,91.21782,-96.130905,2.0892713,STD
47964238964000,0.520015,-0.293633672438416,9.86021417343173,-0.180495152359629,-0.03481932,-0.03268129,0.015577064,91.38031,-96.15291,2.094148,STD
47964243970000,0.525021,-0.269727463771816,9.83152665313653,-0.0992140728483096,-0.033292156,-0.025350908,0.020463986,91.53629,-96.17592,2.1022503,STD
47964248949000,0.53,-0.247595593342202,9.81197522211009,-0.0180799564642202,-0.030848695,-0.036957346,0.028710667,91.703674,-96.186,2.1133192,STD
47964253985000,0.535036,-0.236533943109174,9.85400942045872,0.0659885926990826,-0.029932396,-0.03359759,0.023823744,91.862015,-96.19382,2.1223671,STD
47964259047000,0.540098,-0.225415183482569,9.89626063412844,0.150491173291743,-0.031154128,-0.048258353,0.029321533,92.03355,-96.19172,2.1407547,STD
47964263958000,0.545009,-0.214628097641743,9.93725148958716,0.232473032890826,-0.033292156,-0.048258353,0.032375857,92.197395,-96.18785,2.1572185,STD
47964268884000,0.549935,-0.203808064073853,9.97836754619266,0.314705295237615,-0.0290161,-0.046120327,0.02443461,92.3623,-96.18374,2.1713655,STD
47964274063000,0.555114,-0.20858678150079,10.0035567922591,0.357609768404423,-0.02321288,-0.040927973,0.023823744,92.52432,-96.17949,2.188151,STD
47964278908000,0.559959,-0.217749423725316,10.0218822106536,0.385097699861769,-0.02687807,-0.034513887,0.02443461,92.68292,-96.172165,2.202761,STD
47964283978000,0.565029,-0.209577690260697,10.0411684146766,0.421152701010945,-0.02107485,-0.039095376,0.019242255,92.851875,-96.136444,2.218026,STD
47964288916000,0.569967,-0.195461191359204,10.0599905475124,0.458796691530348,-0.018936822,-0.03176499,0.016493361,93.01365,-96.09899,2.2343385,STD
47964294007000,0.575058,-0.200438665148515,10.0527603894389,0.490629604356436,-0.005497787,-0.023823744,0.009773844,93.17394,-96.05718,2.2430265,STD
47964298911000,0.579962,-0.212181008442844,10.0363210279028,0.518811228262826,-0.010079277,-0.032375857,0.002443461,93.33481,-96.010864,2.2503831,STD
47964303978000,0.585029,-0.224313645774077,10.0193352520252,0.547929557857786,-0.008552114,-0.022602014,0.0030543262,93.49282,-95.96484,2.256923,STD
47964309034000,0.590085,-0.236419944243924,10.0023863507351,0.576984674185419,-0.0106901415,-0.029932396,0.0030543262,93.5750083860665,-95.9398602615031,2.25780067194331,STD
47964313997000,0.595048,-0.226700242615233,9.97592633205048,0.612805089154211,-0.010079277,-0.029626964,-0.0036651916,93.655685,-95.91534,2.2586622,STD
47964318961000,0.600012,-0.209680897823324,9.94614277633581,0.651098601607446,-0.009162978,-0.02687807,-0.0018325958,93.81129,-95.868034,2.2636046,STD
47964323987000,0.605038,-0.211490555295883,9.90520498885077,0.683348505574614,-0.00030543262,-0.024740042,-0.004581489,93.9618,-95.808914,2.2672002,STD
47964328990000,0.610041,-0.232036344502573,9.85384056946827,0.709030715265866,-0.009162978,-0.021380283,-0.0070249503,94.10953,-95.74618,2.2715273,STD
47964333979000,0.61503,-0.257681064417887,9.81712006473459,0.712173542764665,-0.004276057,-0.01863139,0.006414085,94.256004,-95.68471,2.2823374,STD
47964339003000,0.620054,-0.286431513592272,9.78836953550443,0.702590066377851,0.0009162979,-0.01985312,0.0061086523,94.400696,-95.619934,2.2884283,STD
47964343947000,0.624998,-0.299812252197899,9.77205741317365,0.693244435604201,0.004581489,-0.01740966,0.011301007,94.54184,-95.55377,2.2971416,STD
47964349022000,0.630073,-0.304583260345538,9.76251519760479,0.683702419308923,-0.0012217305,-0.016187929,0.013744468,94.682144,-95.48696,2.3047993,STD
47964353973000,0.635024,-0.31749391212198,9.74497089204988,0.655122088404131,0.0015271631,-0.019547688,0.015577064,94.81555,-95.421745,2.3087506,STD
47964359026000,0.640077,-0.336352678943882,9.72139744583009,0.612689855670304,0.009468411,-0.020158553,0.020463986,94.94666,-95.35798,2.314416,STD
47964363946000,0.644997,-0.3485951880008,9.71598883378338,0.561844138215822,0.0027488936,-0.011911872,0.02443461,95.074066,-95.293434,2.3198211,STD
47964368955000,0.650006,-0.355791441315132,9.72558378142814,0.501875357256726,0.0030543262,-0.016798794,0.02687807,95.20413,-95.23396,2.3258536,STD
47964373978000,0.655029,-0.363007807934793,9.73520554665467,0.441738965410541,-0.0009162979,-0.020463986,0.032070424,95.32459,-95.17692,2.329606,STD
47964378990000,0.660041,-0.370208371243124,9.74480624092409,0.381734267832783,-0.0009162979,-0.028405234,0.029932396,95.44631,-95.12104,2.3318295,STD
47964383982000,0.665033,-0.368449538877631,9.75928105300078,0.321543346360094,-0.012217305,-0.03023783,0.034208454,95.56636,-95.06353,2.3374627,STD
47964389682000,0.670733,-0.357812796866719,9.78055498129384,0.252404467755261,-0.01863139,-0.03268129,0.03145956,95.6874,-95.00679,2.340352,STD
47964394023000,0.675074,-0.34952872,9.78509038225463,0.196151391056822,-0.0143553335,-0.032986723,0.03604105,95.80053,-94.96994,2.3442883,STD
47964398999000,0.68005,-0.33987528,9.78026356649448,0.128577333232857,-0.02076942,-0.03481932,0.03573562,95.913345,-94.92811,2.3460708,STD
47964403977000,0.685028,-0.330508963329837,9.78961817946028,0.0793906020062935,-0.031154128,-0.044593163,0.046120327,96.02738,-94.90018,2.3525255,STD
47964408968000,0.690019,-0.321393323259273,9.81240725584057,0.0474858741333079,-0.036957346,-0.04734206,0.040317107,96.13808,-94.8695,2.3544414,STD
47964413949000,0.695,-0.314212205795296,9.82215909547272,0.0214407580432277,-0.027488936,-0.047647487,0.040011674,96.246826,-94.853874,2.362058,STD
47964418949000,0.7,-0.309760778817514,9.81325605559171,0.00363503758213257,-0.028710667,-0.055283304,0.039095376,96.35675,-94.83297,2.3676107,STD
47964423970000,0.705021,-0.305116883889779,9.8106728923422,-0.0162814921717398,-0.042760566,-0.057726767,0.037873644,96.460266,-94.81692,2.3768752,STD
47964428954000,0.710005,-0.300019076434903,9.82596663409164,-0.0417705470122824,-0.03268129,-0.06627888,0.042760566,96.56625,-94.80687,2.3871279,STD
47964433947000,0.714998,-0.30060269962047,9.84282432037953,-0.0704867283869991,-0.03940081,-0.053450707,0.03023783,96.66414,-94.7897,2.392974,STD
47964438951000,0.720002,-0.310277133293631,9.86217308670637,-0.104347271497931,-0.04337143,-0.054367006,0.03390302,96.767265,-94.77823,2.4041069,STD
47964443917000,0.724968,-0.319810266659395,9.88312710679227,-0.116947198652454,-0.04550946,-0.063224554,0.043066,96.86644,-94.76818,2.4137924,STD
47964448914000,0.729965,-0.329300662211205,9.90685307089737,-0.0979664125037184,-0.038789943,-0.053450707,0.034513887,96.95882,-94.75682,2.4195795,STD
47964453883000,0.734934,-0.338688251319906,9.9180719192413,-0.0949412864724286,-0.033292156,-0.05497787,0.04520403,97.053764,-94.752304,2.431172,STD
47964459630000,0.740681,-0.349450458412202,9.90730949863121,-0.121846798584278,-0.046120327,-0.04520403,0.027488936,97.140495,-94.73895,2.4324214,STD
47964463885000,0.744936,-0.346560111461919,9.8961926388724,-0.120068153281503,-0.053450707,-0.04337143,0.028405234,97.23331,-94.72966,2.4399495,STD
47964468913000,0.749964,-0.322745971687438,9.87714144243323,-0.0772027036767557,-0.04550946,-0.04184427,0.031154128,97.32179,-94.7183,2.443062,STD
47964473900000,0.754951,-0.296016831877806,9.86150070050181,-0.0387481682788978,-0.056199603,-0.03176499,0.033292156,97.40096,-94.69868,2.4402711,STD
47964478911000,0.759962,-0.262218516968043,9.85305095193239,-0.00917464560031693,-0.057726767,-0.026572637,0.033292156,97.47992,-94.68308,2.4376714,STD
47964484064000,0.765115,-0.228361609814815,9.84532744499233,0.0206353640304624,-0.04520403,-0.035124753,0.035430185,97.562546,-94.6647,2.4399705,STD
47964488922000,0.769973,-0.207969705,9.85042552366864,0.0410272667159763,-0.04337143,-0.024740042,0.03268129,97.63714,-94.64256,2.4412916,STD
47964493907000,0.774958,-0.184188974945201,9.85873234989245,0.0658575901997337,-0.042455133,-0.038789943,0.032375857,97.72679,-94.62404,2.4492247,STD
47964498933000,0.779984,-0.149677945687801,9.87845282331251,0.105298773848202,-0.052839845,-0.040011674,0.03481932,97.80865,-94.603065,2.4573874,STD
47964503871000,0.784922,-0.129945441643795,9.89465668720167,0.141337901559765,-0.04917465,-0.038789943,0.02321288,97.88956,-94.57778,2.4608421,STD
47964508882000,0.789933,-0.151420402058473,9.90181515184964,0.169971179621122,-0.046731193,-0.040317107,0.03573562,97.97108,-94.55389,2.4716218,STD
47964513867000,0.794918,-0.172783937813246,9.90893647419451,0.1984558914822,-0.0421497,-0.054061573,0.04184427,98.05771,-94.52797,2.485438,STD
47964518863000,0.799914,-0.194194614770286,9.91607351059069,0.227003458274165,-0.040317107,-0.052534413,0.040011674,98.13943,-94.50284,2.500351,STD
47964523856000,0.804907,-0.211777828180554,9.92048389909623,0.252261207950144,-0.033292156,-0.052534413,0.036651913,98.23381,-94.484726,2.5145676,STD
47964528905000,0.809956,-0.216580019381269,9.91568160760751,0.266667796595491,-0.03481932,-0.061086524,0.041233405,98.32894,-94.46587,2.5299969,STD
47964533868000,0.814919,-0.223297262016595,9.911995,0.281263229719055,-0.035124753,-0.070249505,0.045814894,98.42394,-94.435616,2.5380676,STD
47964538858000,0.819909,-0.237210098228929,9.911995,0.297494867527779,-0.04062254,-0.073303826,0.03940081,98.51832,-94.40299,2.5440876,STD
47964543886000,0.824937,-0.251228883895386,9.911995,0.313850112999175,-0.038179077,-0.06627888,0.043982297,98.60673,-94.36946,2.5531898,STD
47964548868000,0.829919,-0.265119414959484,9.911995,0.330055728142074,-0.04550946,-0.0720821,0.042760566,98.69842,-94.33087,2.5584161,STD
47964553918000,0.834969,-0.277502854043252,9.90930043914028,0.346112316678361,-0.043982297,-0.063224554,0.038789943,98.782936,-94.29571,2.5643983,STD
47964558976000,0.840027,-0.275351805843954,9.88348777090457,0.359018614858564,-0.042760566,-0.05467244,0.03726278,98.8682,-94.259514,2.5704849,STD
47964563891000,0.844942,-0.273261572174608,9.85840487956836,0.371560025605045,-0.0421497,-0.052534413,0.034208454,98.95248,-94.2158,2.5710645,STD
47964568942000,0.849993,-0.271113500910342,9.83262793467738,0.384448462162618,-0.033292156,-0.061086524,0.038179077,99.03658,-94.17598,2.5732083,STD
47964573907000,0.854958,-0.269002003419335,9.8072898765931,0.397117455927883,-0.036651913,-0.06047566,0.044898596,99.11664,-94.13428,2.5754898,STD
47964578952000,0.860003,-0.274151877265239,9.80607510389209,0.372219474874382,-0.03848451,-0.067500606,0.05009095,99.20045,-94.09605,2.5782225,STD
47964583951000,0.865002,-0.284010695881384,9.82086364065074,0.322925350910214,-0.03390302,-0.06627888,0.04917465,99.28085,-94.05929,2.581228,STD
47964588939000,0.86999,-0.319029282176518,9.81945885503195,0.296940294684505,-0.033292156,-0.06811147,0.0571159,99.3663,-94.01251,2.5763223,STD
47964594004000,0.875055,-0.367458318109026,9.80977285163738,0.282411582893371,-0.034208454,-0.06872234,0.058948494,99.45006,-93.96605,2.5698204,STD
47964598929000,0.87998,-0.396071686252964,9.81314984207814,0.254978410844243,-0.0290161,-0.06780604,0.06047566,99.52991,-93.92854,2.5641644,STD
47964603947000,0.884998,-0.415886729065045,9.82305756004536,0.220302096268426,-0.029626964,-0.06291912,0.05100725,99.60774,-93.888466,2.5561924,STD
47964608955000,0.890006,-0.412917678000782,9.825804,0.198843200261384,-0.029321533,-0.06169739,0.055588737,99.68365,-93.8557,2.5524728,STD
47964613965000,0.895016,-0.401196990078171,9.825804,0.182434238638362,-0.02565634,-0.052839845,0.062002823,99.755005,-93.82265,2.5470426,STD
47964618945000,0.899996,-0.389546485915576,9.825804,0.166123534270569,-0.035124753,-0.05222898,0.05681047,99.82465,-93.78841,2.536895,STD
47964623933000,0.904984,-0.377877266083643,9.825804,0.149786627968048,-0.024129177,-0.057421334,0.061086524,99.89288,-93.762695,2.5315142,STD
47964628947000,0.909998,-0.370441578903553,9.8227500551269,0.152813749667005,-0.022602014,-0.048258353,0.064751714,99.95526,-93.735535,2.529373,STD
47964633948000,0.914999,-0.36557928684264,9.81788766152284,0.167400636004061,-0.025045475,-0.05131268,0.0720821,100.02195,-93.71169,2.5293043,STD
47964638952000,0.920003,-0.343157966451189,9.8221587470638,0.166450893714178,-0.032070424,-0.058948494,0.070249505,100.08788,-93.6944,2.531203,STD
47964644023000,0.925074,-0.311216984355915,9.83128492708823,0.157324899510476,-0.0290161,-0.064751714,0.0711658,100.15343,-93.680664,2.5358045,STD
47964648984000,0.930035,-0.293000679069417,9.84831546076459,0.158402697007042,-0.018020526,-0.06078109,0.077579886,100.21986,-93.66899,2.5443506,STD
47964653974000,0.935025,-0.285789170226358,9.87235380684105,0.168018040457746,-0.023823744,-0.06291912,0.073303826,100.288666,-93.65255,2.5497282,STD
47964658973000,0.940024,-0.278564654653924,9.89643550865191,0.177650726211268,-0.0070249503,-0.073303826,0.07819075,100.35881,-93.65071,2.5639353,STD
47964663954000,0.945005,-0.271366152540241,9.92043049899396,0.187248727359155,0.0009162979,-0.07544186,0.0729984,100.42609,-93.642815,2.573753,STD
47964668949000,0.95,-0.257992543825388,9.94130699253303,0.171220025605974,-0.0027488936,-0.0729984,0.08399397,100.49428,-93.63995,2.5891232,STD
47964673933000,0.954984,-0.239715377047674,9.95958404480184,0.134665706364159,0.008246681,-0.07422013,0.093767814,100.56304,-93.64004,2.602242,STD
47964678951000,0.960002,-0.225159173598991,9.97414003722006,0.0915007440820103,0.015271631,-0.06719518,0.0842994,100.62953,-93.635475,2.6146724,STD
47964683946000,0.964997,-0.215100054479024,9.98419883597939,0.0412051400792766,0.015882496,-0.055588737,0.082161374,100.69428,-93.63494,2.631465,STD
47964688934000,0.969985,-0.213268012907726,9.98345263571635,-0.00920729790724526,0.02076942,-0.03970624,0.082161374,100.74641,-93.645096,2.6561377,STD
47964694046000,0.975097,-0.217978548999326,9.97403185865486,-0.0610232313131916,0.018325957,-0.021685716,0.07696902,100.79371,-93.65192,2.6781583,STD
47964698995000,0.980046,-0.226166818190676,9.97063601543996,-0.108612272963574,0.015882496,-0.018325957,0.08368854,100.8374,-93.66827,2.7040665,STD
47964703947000,0.984998,-0.238015207517614,9.97300561659921,-0.153636140033978,0.017715093,-0.007941248,0.0888809,100.8732,-93.682945,2.7276623,STD
47964708946000,0.989997,-0.249976051266677,9.97539770791485,-0.199087333791036,0.01985312,0.0015271631,0.08399397,100.904144,-93.7014,2.7486632,STD
47964714754000,0.995805,-0.263872546664668,9.97817691702893,-0.251894001792835,0.03634648,0.0033597588,0.09254608,100.93399,-93.72609,2.7742498,STD
47964718949000,1,-0.281740876297534,9.99941797120959,-0.277210782621598,0.04062254,-0.005192355,0.09621128,100.96349,-93.74602,2.7963135,STD
47964723937000,1.004988,-0.309903858504471,10.0416625621499,-0.295986100825391,0.0571159,0.0015271631,0.098043874,100.987686,-93.771935,2.8196938,STD
47964728953000,1.010004,-0.323471336380914,10.0887649118736,-0.321438522986896,0.06047566,0.009773844,0.09437868,101.00676,-93.80228,2.83763,STD
47964733942000,1.014993,-0.318692027090127,10.1413368050415,-0.354893638117435,0.063224554,0.017715093,0.099265605,101.02359,-93.83675,2.8579235,STD
47964738950000,1.020001,-0.318011575819627,10.1745219859545,-0.391288039669192,0.067500606,0.018325957,0.09468412,101.032715,-93.86563,2.87005,STD
47964744002000,1.025053,-0.322482292382184,10.1834635871373,-0.43152443738126,0.06658431,0.0143553335,0.0888809,101.040565,-93.893936,2.8827293,STD
47964749019000,1.03007,-0.324207711731987,10.1869144906968,-0.466705358148258,0.07574729,0.01038471,0.09040806,101.04602,-93.92857,2.8959625,STD
47964753948000,1.034999,-0.319535884160728,10.1775706599367,-0.490064452100158,0.07849618,0.018325957,0.08827003,101.04873,-93.95897,2.9061987,STD
47964758989000,1.04004,-0.319576618511807,10.1646647348984,-0.521738735280066,0.08399397,0.018325957,0.084910266,101.0467,-93.99843,2.9210515,STD
47964763964000,1.045015,-0.332658610045762,10.142861658521,-0.574066705969248,0.07666359,0.02443461,0.07819075,101.04038,-94.03383,2.933996,STD
47964768964000,1.050015,-0.34822622095099,10.1218192054851,-0.630453146223419,0.086132,0.053450707,0.083383106,101.02429,-94.07419,2.9464126,STD
47964773940000,1.054991,-0.391718232092726,10.1109462117824,-0.73048477230355,0.093767814,0.09254608,0.071776666,101.003105,-94.10713,2.9519904,STD
47964779295000,1.060346,-0.438522838134526,10.0992450700465,-0.838135366688418,0.098043874,0.122478485,0.0711658,100.97234,-94.14927,2.9597597,STD
47964784717000,1.065768,-0.485913048024094,10.087397527471,-0.947132849929269,0.099265605,0.17256944,0.065973446,100.924545,-94.188385,2.963492,STD
47964788949000,1.07,-0.522902234348818,10.0781502386146,-1.03220797886237,0.112399206,0.22968534,0.053450707,100.86799,-94.227,2.962454,STD
47964793959000,1.07501,-0.567107831035156,10.0576857109375,-1.12121591855469,0.121256754,0.2742785,0.051618114,100.80123,-94.26575,2.9633927,STD
47964798888000,1.079939,-0.610779353719161,10.0334237623355,-1.20370659446957,0.1337795,0.30115658,0.048563786,100.72374,-94.304985,2.9609118,STD
47964803944000,1.084995,-0.672618290142043,10.0135495057939,-1.24253991190543,0.15210545,0.30818152,0.046120327,100.62391,-94.36505,2.9435675,STD
47964809000000,1.090051,-0.74049090633866,9.9954500085506,-1.26516410627979,0.16615535,0.3173445,0.037873644,100.516624,-94.42583,2.9245203,STD
47964813956000,1.095007,-0.817288986614051,9.99763467780873,-1.29477480649954,0.19547687,0.3210097,0.03634648,100.403786,-94.50207,2.9006436,STD
47964818948000,1.099999,-0.901135711467038,10.012431454039,-1.32929994818942,0.21594086,0.3454443,0.022907447,100.28298,-94.57691,2.8721569,STD
47964823939000,1.10499,-0.987318685144896,10.0312372360978,-1.43525426351057,0.25045475,0.35430184,0.017104227,100.1677,-94.66552,2.839151,JOG
47964828961000,1.110012,-1.07521262256549,10.0521643484466,-1.57755871488991,0.26328292,0.38331795,0.004581489,100.04023,-94.75185,2.802027,JOG
47964833948000,1.114999,-1.14369844952874,10.0697690800123,-1.66000127849093,0.30207285,0.40775254,-0.0036651916,99.90887,-94.85159,2.7538793,JOG
47964838951000,1.120002,-1.18051288740908,10.0820405507632,-1.64282119381211,0.34055737,0.45234573,-0.032986723,99.76387,-94.95124,2.698358,JOG
47964843960000,1.125011,-1.21737147612437,10.0943267384489,-1.62562050539391,0.3735441,0.5207626,-0.053145275,99.59412,-95.07719,2.6302617,JOG
47964848952000,1.130003,-1.25410497080729,10.1065712281529,-1.60847819423727,0.41263947,0.5815437,-0.07941248,99.41437,-95.21249,2.5548522,JOG
47964854167000,1.135218,-1.29980340721569,10.0941346825289,-1.57323856801981,0.44501534,0.6239988,-0.099265605,99.22637,-95.35869,2.4786978,JOG
47964859001000,1.140052,-1.34925827399243,10.058167225017,-1.52378365429737,0.4877759,0.6383542,-0.122478485,99.029915,-95.517075,2.3970723,JOG
47964863945000,1.144996,-1.38498953236968,10.040445978991,-1.50188770638655,0.53023106,0.64996064,-0.1459968,98.824066,-95.67522,2.303128,JOG
47964868951000,1.150002,-1.39960437158317,10.0501892644802,-1.52137415019307,0.58062744,0.6536258,-0.160963,98.617676,-95.848625,2.2078261,JOG
47964873922000,1.154973,-1.41411702953968,10.0598644287166,-1.54072435238289,0.6123924,0.66339964,-0.17837265,98.40739,-96.01919,2.1046786,JOG
47964878951000,1.160002,-1.42879901643634,10.0696524796007,-1.56030032639468,0.6585127,0.68752885,-0.1966986,98.19309,-96.208694,2.0004292,JOG
47964883944000,1.164995,-1.43874959873142,10.0792576276511,-1.59288207787909,0.6963864,0.7110472,-0.20586158,97.982315,-96.40894,1.8963181,JOG
47964888941000,1.169992,-1.44349248964321,10.0887432609019,-1.64031054127849,0.729984,0.74097955,-0.21197024,97.76387,-96.621445,1.7919087,JOG
47964893919000,1.17497,-1.43989515580586,10.0836160930098,-1.69117539836604,0.7678576,0.782213,-0.22327125,97.533875,-96.85097,1.6833766,JOG
47964898950000,1.180001,-1.42592023147056,10.0603245524509,-1.74707514434883,0.80481493,0.83016586,-0.24312437,97.294495,-97.08975,1.5752281,JOG
47964903919000,1.18497,-1.41380198419186,10.033590843593,-1.78663431786664,0.8524625,0.87781334,-0.25259277,97.04224,-97.35036,1.4708103,JOG
47964908977000,1.190028,-1.40425998474343,10.0001942440658,-1.80094716758594,0.87689704,0.95356065,-0.26450464,96.7693,-97.61357,1.3663857,JOG
47964913881000,1.194932,-1.39059121840157,9.9622630532184,-1.78409997660452,0.9080512,1.0213667,-0.2910773,96.481705,-97.901726,1.2667755,JOG
47964918949000,1.2,-1.36785388070833,9.91224094828071,-1.70679277203223,0.95386606,1.0461067,-0.31306845,96.18659,-98.19943,1.1699373,JOG
47964924119000,1.20517,-1.32861767357689,9.86797428566034,-1.63235503078448,1.0054842,1.1004738,-0.31306845,95.86489,-98.50929,1.0808183,JOG
47964928951000,1.210002,-1.24561688649108,9.84613198527329,-1.57556500416313,1.0635164,1.1087204,-0.31948254,95.55033,-98.83094,0.9866832,JOG
47964933961000,1.215012,-1.15762118574486,9.82346719520548,-1.52037539520548,1.0998629,1.1151345,-0.3286455,95.23138,-99.14873,0.9020251,JOG
47964938938000,1.219989,-1.05333397902397,9.8007960890411,-1.4977042890411,1.1768318,1.0968086,-0.33200526,94.919266,-99.49159,0.82010484,JOG
47964944271000,1.225322,-0.941249711971145,9.78002895326606,-1.47851889023721,1.2635747,1.0891727,-0.3378085,94.60891,-99.83561,0.7540234,JOG
47964948952000,1.230003,-0.838085017073818,9.81177175146044,-1.53406911853425,1.3319917,1.097114,-0.34208453,94.30117,-100.192116,0.6906238,JOG
47964953884000,1.234935,-0.729388525889538,9.84521663090812,-1.59259800679766,1.412015,1.1227703,-0.3594942,93.995186,-100.5709,0.64604706,JOG
47964958996000,1.240047,-0.610697540620638,9.94678710147106,-1.64349848329217,1.4743233,1.1749994,-0.37659842,93.680756,-100.95846,0.6050276,JOG
47964963889000,1.24494,-0.494970682556641,10.067545374745,-1.68878292771395,1.5271631,1.2357804,-0.38759398,93.357574,-101.35997,0.5657623,JOG
47964968945000,1.249996,-0.351117562404839,10.2739015122455,-1.72805549495426,1.572978,1.2974777,-0.42180246,93.01732,-101.78297,0.5436655,JOG
47964973918000,1.254969,-0.205903702617291,10.489380570178,-1.76553001164552,1.6236799,1.3585643,-0.43463063,92.66232,-102.21552,0.53066033,JOG
47964978958000,1.260009,-0.0810451153176188,10.7832511218538,-1.82418459652417,1.6823229,1.421178,-0.44257188,92.28928,-102.66064,0.5378289,JOG
47964983882000,1.264933,0.036704077359169,11.0846887427087,-1.88541418242109,1.7620409,1.4749341,-0.42638394,91.904434,-103.11879,0.5536722,JOG
47964988956000,1.270007,0.129403026880993,11.3990898465877,-2.05145132605753,1.8090774,1.5280794,-0.39370266,91.50823,-103.5775,0.606059,JOG
47964994163000,1.275214,0.218466975309269,11.722532749389,-2.24364190163565,1.8359555,1.593442,-0.33628133,91.09894,-104.04521,0.674956,JOG
47964998997000,1.280048,0.334019923014663,11.9506612105572,-2.55238460997067,1.8591684,1.6471981,-0.26053402,90.68711,-104.51769,0.7833924,JOG
47965003908000,1.284959,0.462747919120235,12.1575453665689,-2.91098410175953,1.885741,1.7275269,-0.18570304,90.25719,-104.99097,0.91225815,JOG
47965008929000,1.28998,0.613039952148069,12.1649396986051,-3.32163527949571,1.9336939,1.8445076,-0.086437434,89.81193,-105.492226,1.0873543,JOG
47965013942000,1.294993,0.772724990051502,12.0670684038627,-3.75433027678112,1.9788979,2.0418172,0.010995574,89.332214,-105.992584,1.291107,JOG
47965018952000,1.300003,0.954171229340488,11.7748005847326,-4.04325260254457,2.005165,2.159714,0.086132,88.83317,-106.5448,1.529857,JOG
47965023957000,1.305008,1.14085432451965,11.4346221621084,-4.29631183964861,2.0042489,2.3741279,0.12461651,88.264565,-107.09329,1.8030779,JOG
47965028958000,1.310009,1.3233938234714,10.9776644812623,-4.44259939664694,1.9905044,2.5485299,0.21288654,87.67269,-107.71291,2.1323612,JOG
47965033948000,1.314999,1.5014346832128,10.4016502888451,-4.47925484525531,1.998751,2.7366762,0.2742785,87.02841,-108.32773,2.4777627,JOG
47965038952000,1.320003,1.60080079183439,9.8906256653249,-4.3691183275829,2.0109684,2.9556715,0.3378085,86.31534,-108.99893,2.8870785,JOG
47965044082000,1.325133,1.66201195773433,9.40093633812536,-4.18077628244202,2.010663,3.1041117,0.38453966,85.585754,-109.65985,3.3117726,JOG
47965049026000,1.330077,1.61929447159598,9.08573885091146,-3.8170664031064,1.9663752,3.0827315,0.42058071,84.84561,-110.34132,3.7687752,JOG
47965053944000,1.334995,1.50978293404018,8.87547674088542,-3.33521551893601,1.8994855,2.9260445,0.43463063,84.116844,-111.00796,4.224437,JOG
47965058941000,1.339992,1.37378888994647,8.71814268795503,-3.03089831952891,1.822211,2.734233,0.43585235,83.41993,-111.65686,4.692973,JOG
47965063958000,1.345009,1.20403020794433,8.63583568747323,-2.97431214591006,1.7379116,2.5014932,0.44623706,82.78894,-112.2783,5.138585,JOG
47965068944000,1.349995,0.966861707902228,8.54206272219496,-3.07863831996662,1.6826283,2.237294,0.4718934,82.25348,-112.81547,5.544167,JOG
47965073937000,1.354988,0.675838475743595,8.43879628752331,-3.30864054392854,1.6224581,2.0161607,0.47433686,81.774376,-113.32052,5.9172754,JOG
47965078951000,1.360002,0.335382223834197,8.40110175459256,-3.51347013546868,1.5540411,1.89918,0.44929138,81.35824,-113.79899,6.2513943,JOG
47965083946000,1.364997,-0.047667503626943,8.42363407489402,-3.69372888610457,1.4526376,1.7379116,0.42058071,81.01634,-114.24425,6.548412,JOG
47965088939000,1.36999,-0.497980667827759,8.43920642312213,-3.82850434691741,1.3643675,1.5198327,0.3885103,80.71097,-114.6939,6.7818766,JOG
47965093966000,1.375017,-1.05353168507319,8.44435051746982,-3.89537617689924,1.248914,1.3112222,0.3491095,80.44394,-115.09805,6.9833035,JOG
47965098948000,1.379999,-1.54170056360621,8.47884939701434,-3.93636941543565,1.1175779,1.1307116,0.29535335,80.20481,-115.46816,7.1228666,JOG
47965103937000,1.384988,-1.97524704882428,8.53945243360328,-3.95501656352815,0.95203346,0.97433007,0.25167647,80.01248,-115.78883,7.2304673,JOG
47965109798000,1.390849,-2.27791913144933,8.65276665361324,-4.00556026132418,0.8020661,0.8738427,0.2098322,79.833015,-116.04872,7.261291,JOG
47965113958000,1.395009,-2.37442181049657,8.75731121558337,-4.0578324583367,0.6731735,0.83077675,0.18692477,79.67803,-116.2634,7.272552,JOG
47965118944000,1.399995,-2.28700888828216,8.80176290711232,-4.08005818120871,0.5821546,0.8194757,0.18845193,79.53847,-116.42154,7.2346997,JOG
47965123937000,1.404988,-1.99430862325107,8.76459484434512,-4.06147400428488,0.54550266,0.8011498,0.19333886,79.41067,-116.556076,7.184487,JOG
47965128949000,1.41,-1.63137404687187,8.64683099299299,-3.96050789209209,0.49693888,0.79717916,0.20677789,79.28784,-116.658295,7.124797,JOG
47965133959000,1.41501,-1.17991244041542,8.42590253053053,-3.75398837017017,0.47250426,0.79168135,0.21135938,79.170525,-116.756,7.0607667,JOG
47965138940000,1.419991,-0.620386444961994,8.14695035350893,-3.58156326109245,0.45234573,0.8063421,0.18478674,79.04878,-116.85445,7.0306177,JOG
47965143981000,1.425032,0.0879332914663249,7.78852366910023,-3.44928673493901,0.42485678,0.84696466,0.1423316,78.921196,-116.94238,6.999413,JOG
47965148900000,1.429951,0.714895944875632,7.47367212308804,-3.32149944461761,0.3622431,0.8481864,0.09621128,78.8029,-117.02259,7.0271025,JOG
47965153942000,1.434993,1.03883094091237,7.32416378747033,-3.19690901749407,0.312763,0.8063421,0.05497787,78.68173,-117.09503,7.0437956,JOG
47965158915000,1.439966,1.3195945179716,7.1704953598783,-3.10742331030426,0.26206118,0.7330383,0.016493361,78.59987,-117.21366,7.1654506,JOG
47965163957000,1.445008,1.47630453133874,6.99419656288032,-3.12701204279919,0.1957823,0.63285637,-0.01863139,78.530594,-117.30907,7.2645717,JOG
47965168916000,1.449967,1.62003311980868,6.83507592711373,-3.14482667069282,0.13958271,0.5729916,-0.064751714,78.45269,-117.390785,7.3995924,JOG
47965173936000,1.454987,1.73616892075563,6.71429460099526,-3.15876290665765,0.03573562,0.5348125,-0.08857546,78.39334,-117.43852,7.5164933,JOG
47965179351000,1.460402,1.85624131170213,6.60809838085106,-3.21865118389058,-0.07544186,0.47616947,-0.12858713,78.33908,-117.48537,7.6353273,JOG
47965183947000,1.464998,1.94543076617021,6.57688208808511,-3.3791922112462,-0.17531833,0.39461896,-0.18203785,78.296005,-117.50281,7.7321205,JOG
47965188935000,1.469986,2.01655385078682,6.55987852908807,-3.54271637886815,-0.25900686,0.35308012,-0.22143865,78.24346,-117.50586,7.8387666,JOG
47965194051000,1.475102,1.99739837867266,6.60297854136448,-3.67201591564852,-0.34208453,0.36285394,-0.24923302,78.19425,-117.478546,7.9274845,JOG
47965198984000,1.480035,1.96744597474487,6.65519866360844,-3.79964949378777,-0.39920044,0.3894266,-0.27763826,78.136734,-117.46474,8.014013,JOG
47965203950000,1.485001,1.88734163448925,6.75415097394234,-3.94101010581591,-0.44073927,0.38820487,-0.312763,78.08073,-117.430466,8.086701,JOG
47965208975000,1.490026,1.80170043420638,6.85573284954707,-4.08001478200079,-0.49327368,0.355829,-0.34300083,78.02543,-117.39569,8.157403,JOG
47965213964000,1.495015,1.69349739487987,6.96393579062623,-4.19762687097282,-0.5308419,0.3295618,-0.38148534,77.964775,-117.351105,8.214846,JOG
47965218922000,1.499973,1.59244770211836,7.07071790908561,-4.31546413176562,-0.5693264,0.27488935,-0.39645153,77.921394,-117.30594,8.259941,JOG
47965223941000,1.504992,1.53639950346905,7.17347304561267,-4.44157246899232,-0.5757405,0.18448131,-0.41691554,77.88963,-117.256744,8.2839575,JOG
47965228966000,1.510017,1.47801353825285,7.27071383185024,-4.56910592189365,-0.59773165,0.057421334,-0.4196644,77.882385,-117.20028,8.288057,JOG
47965233950000,1.515001,1.39168550207994,7.29661215255923,-4.71154731679327,-0.59895337,-0.08735373,-0.41874814,77.90139,-117.14754,8.273731,JOG
47965238936000,1.519987,1.30532282383795,7.32252086585278,-4.85404587116115,-0.59986967,-0.2180789,-0.41386122,77.9464,-117.099014,8.2373,JOG
47965243966000,1.525017,1.2627554779814,7.29237941055799,-4.93858581146061,-0.5879578,-0.36010507,-0.39828414,78.03206,-117.055374,8.185306,JOG
47965248972000,1.530023,1.22778718959701,7.25304022875638,-5.01289328164661,-0.5726862,-0.5021312,-0.37690386,78.1509,-117.01375,8.121189,JOG
47965253940000,1.534991,1.25354283991036,7.18921817044072,-5.01367131434212,-0.5519168,-0.6291912,-0.34238997,78.27719,-116.98692,8.045804,JOG
47965258958000,1.540009,1.30995311716999,7.1122949239142,-4.9777739528012,-0.52870387,-0.7687739,-0.30451632,78.44372,-116.966995,7.9599032,JOG
47965263936000,1.544987,1.41243070712782,7.0017977357594,-4.88331606854135,-0.49754974,-0.9053023,-0.26175576,78.634,-116.970024,7.863528,JOG
47965268948000,1.549999,1.52791688453133,6.88149973688221,-4.77264186334837,-0.44806966,-1.0125091,-0.20525073,78.85509,-116.987755,7.769484,JOG
47965273946000,1.554997,1.73668714102964,6.75213827201065,-4.63825051987703,-0.38515055,-1.1026118,-0.15363261,79.098656,-117.01784,7.6848207,JOG
47965278972000,1.560023,1.97079288923557,6.61962547817748,-4.49690355208773,-0.2910773,-1.1591167,-0.099265605,79.36261,-117.072495,7.608398,JOG
47965283976000,1.565027,2.27691502948487,6.37566734640209,-4.24364644301463,-0.16829337,-1.1917981,-0.04886922,79.6491,-117.15286,7.5536833,JOG
47965288985000,1.570036,2.6278697761375,6.06317346679695,-3.92153737174785,-0.01863139,-1.2269229,-0.009162978,79.948235,-117.265755,7.5036197,JOG
47965294000000,1.575051,3.08206888405145,5.62648786559486,-3.20268748398714,0.13439035,-1.2990049,0.046731193,80.258835,-117.40588,7.4903393,JOG
47965299021000,1.580072,3.59745096279743,5.11625955005359,-2.24923058180064,0.24556783,-1.4764613,0.121256754,80.60422,-117.57478,7.473166,JOG
47965303977000,1.585028,3.96584433361122,4.55615920131424,-1.15870342580816,0.25534168,-1.7712038,0.21044308,81.00157,-117.74246,7.467311,JOG
47965308985000,1.590036,4.29511517629463,3.97287956318164,-0.0109594059415457,0.129198,-2.1126773,0.31337386,81.460266,-117.905205,7.4544344,JOG
47965313952000,1.595003,4.552768367889,3.67217678826561,0.860627470878097,-0.124311075,-2.2773056,0.37201694,81.98409,-117.947945,7.4739203,JOG
47965318969000,1.60002,4.78609790004955,3.47694179952428,1.63680534314371,-0.28313604,-2.5592198,0.5183192,82.64502,-117.994225,7.4844384,JOG
47965323932000,1.604983,4.78244944855026,3.61660532084515,1.79448578030733,-0.6291912,-2.6972754,0.66675943,83.36305,-117.7912,7.55392,JOG
47965328958000,1.610009,4.67678829141132,3.90277076513308,1.6888246691393,-0.9575313,-2.5977044,0.79626286,84.10437,-117.55858,7.6556497,JOG
47965333949000,1.615,4.38961645710016,4.24435618806517,1.25534455382821,-1.2547172,-2.2510383,0.87689704,84.85625,-117.13707,7.8419375,JOG
47965338945000,1.619996,3.92836399609563,4.64103348273402,0.508115456224814,-1.4764613,-1.7073684,0.8707884,85.53217,-116.65386,8.081712,JOG
47965343960000,1.625011,3.29002843011918,5.24973578114843,-0.494300221781148,-1.591304,-1.0164797,0.7965683,86.08782,-116.116455,8.3653555,JOG
47965348952000,1.630003,2.43021997941495,6.12508271072589,-1.81509032071073,-1.5815301,-0.28924468,0.6918049,86.48435,-115.5611,8.710819,JOG
47965353944000,1.634995,1.46327971878894,7.13147352495361,-2.41379871559723,-1.4126259,0.25137106,0.591623,86.711716,-115.10614,9.027121,JOG
47965359003000,1.640054,0.408084754186932,8.24345051977732,-2.51316673486669,-1.0943651,0.39522982,0.46517387,86.83638,-114.69435,9.344719,JOG
47965363946000,1.644997,-0.819760575794572,9.43085815447483,-1.61919531799011,-0.7153232,0.042455133,0.27030787,86.86302,-114.430374,9.491521,JOG
47965368955000,1.650006,-2.22822954539804,10.7183247954798,0.113560203178287,-0.398895,-0.8524625,0.040317107,86.98444,-114.22395,9.545329,JOG
47965373931000,1.654982,-3.36010807153429,12.0078042520967,1.91624020325604,-0.26236662,-2.0607538,-0.13500121,87.31526,-113.92904,9.328272,JOG
47965378976000,1.660027,-4.29446810542674,13.323535274297,3.80879596714356,-0.43585235,-3.1483996,-0.2171626,87.83737,-113.62495,8.999455,JOG
47965383945000,1.664996,-4.81809128703981,14.4083042325651,4.73457166896139,-0.84513205,-3.9541306,-0.15454891,88.76589,-112.82312,8.379063,JOG
47965388939000,1.66999,-4.99941489194852,15.3149237518707,4.84909186670657,-1.2431108,-4.408004,-0.053145275,89.87985,-111.98914,7.692447,JOG
47965393961000,1.675012,-4.93881291956133,15.963976686582,4.17854534400556,-1.5430456,-4.546059,0.0720821,91.258354,-110.655235,6.8771734,JOG
47965398952000,1.680003,-4.66367661452958,16.3766812679635,2.8170943605399,-1.7269161,-4.3472223,0.20708331,92.660065,-109.30461,6.124282,JOG
47965403945000,1.684996,-4.3433950537996,16.6671296635604,0.963017002632337,-1.8026633,-3.768733,0.3032946,93.99608,-107.89543,5.43063,JOG
47965409039000,1.69009,-3.97314278520511,16.8452263568066,-1.40378567143818,-1.8118263,-3.3872478,0.34300083,95.31535,-106.520744,4.8035975,JOG
47965413942000,1.694993,-3.72077175743919,16.8908260315859,-3.53689923354705,-1.6957619,-2.5201247,0.32834008,96.27488,-105.425224,4.338396,JOG
47965418933000,1.699984,-3.59909140331888,16.773652353762,-5.51983821572695,-1.5952746,-1.6197093,0.24373524,97.09928,-104.36529,3.9232008,JOG
47965423951000,1.705002,-3.46724608345538,16.5595373826807,-6.79092875387881,-1.3536774,-0.94806284,0.09193522,97.637535,-103.77737,3.5972931,JOG
47965428955000,1.710006,-3.31467580685557,16.1323398010188,-6.45527404977183,-1.1249083,-0.6658431,-0.056199603,98.019936,-103.23,3.2992432,JOG
47965433933000,1.714984,-3.18883781316106,15.7175077391827,-5.73373044963942,-1.047023,-0.74281216,-0.1469131,98.24731,-103.0404,3.017572,JOG
47965438940000,1.719991,-3.09758473665865,15.3140731274038,-4.48020172091346,-1.1618657,-0.9663888,-0.20555615,98.42735,-102.85526,2.7241614,JOG
47965443965000,1.725016,-3.07308882225508,15.073589899647,-3.83086970303348,-1.4437801,-1.128879,-0.27091873,98.61275,-102.62309,2.4344602,JOG
47965448926000,1.729977,-3.13653898531909,15.0509291609272,-3.98496277365258,-1.767844,-1.144456,-0.3136793,98.81487,-102.34949,2.140548,JOG
47965453883000,1.734934,-3.22322484831527,15.1531911642365,-4.22499447680788,-1.9984456,-1.0213667,-0.30268374,99.04775,-101.87292,1.8667443,JOG
47965458974000,1.740025,-3.36252629504434,15.5278644377833,-4.65730950692611,-2.1410828,-0.84940815,-0.24587326,99.26972,-101.34315,1.6059844,JOG
47965463904000,1.744955,-3.56209281022265,15.8397768474831,-4.93214257454017,-2.1881194,-0.6640105,-0.15027285,99.45752,-100.81627,1.3631986,JOG
47965468910000,1.749961,-3.919449682091,16.034698517667,-4.86716876524685,-2.1398609,-0.46731192,-0.056505036,99.59601,-100.29195,1.1545628,JOG
47965473926000,1.754977,-4.28140936506537,16.1611390501672,-4.75403017300091,-2.0418172,-0.3191771,0.012217305,99.69229,-99.82978,0.9626853,JOG
47965478914000,1.759965,-4.65418939275362,16.0594717101449,-4.48291743478261,-1.9593502,-0.24740042,0.03359759,99.75733,-99.38955,0.79640007,JOG
47965483918000,1.764969,-4.93700259012854,15.8581576485238,-4.23630919530026,-1.919644,-0.24923302,0.02443461,99.810585,-98.96003,0.5978197,JOG
47965488940000,1.769991,-4.95632163105041,15.3679372215304,-4.06243785221932,-1.9193386,-0.3145956,-0.03970624,99.86068,-98.55329,0.39658272,JOG
47965493937000,1.774988,-4.97554449992468,14.8801571590681,-3.88943205744125,-1.9507982,-0.43401974,-0.13958271,99.9276,-98.12563,0.13774286,JOG
47965498928000,1.779979,-4.99474428750753,14.3929627840932,-3.71663399425587,-2.0103576,-0.5714644,-0.23273966,100.01642,-97.70535,-0.13330661,JOG
47965504228000,1.785279,-4.86078694564143,13.8853544736114,-3.6580884612374,-2.08977,-0.72326446,-0.2968805,100.14182,-97.26766,-0.44894272,JOG
47965508915000,1.789966,-4.44821082910654,13.4550333973117,-3.84441306339197,-2.1896465,-0.79351395,-0.3295618,100.28113,-96.83195,-0.7756888,JOG
47965513869000,1.79492,-3.99314506952109,12.9925780784391,-4.06505149182105,-2.2275202,-0.8781188,-0.34972036,100.468216,-96.41723,-1.1036012,JOG
47965518862000,1.799913,-3.47482920835633,12.5025339235317,-4.36190502254631,-2.2806654,-0.88178396,-0.31887165,100.65302,-96.00028,-1.4177316,JOG
47965523846000,1.804897,-2.99391930540731,12.0091695647971,-4.68344883836472,-2.2971587,-0.786489,-0.25350907,100.83706,-95.63362,-1.6640766,JOG
47965528871000,1.809922,-2.64986897563186,11.4955170096667,-5.10503191761152,-2.266921,-0.64873886,-0.16982053,101.01106,-95.289314,-1.8889015,JOG
47965533865000,1.814916,-2.36554519843858,11.0041199921929,-5.48304885370096,-2.1917844,-0.453262,-0.07666359,101.14886,-94.98942,-2.0095992,JOG
47965538850000,1.819901,-2.28062304595316,10.5795092297658,-5.71894374361103,-2.0583105,-0.19333886,-0.018325957,101.22992,-94.72453,-2.1080837,JOG
47965543892000,1.824943,-2.20360311045242,10.1684917437598,-5.89737090717629,-1.9205604,0.12858713,0.019547688,101.23902,-94.52026,-2.1329122,JOG
47965548868000,1.829919,-2.16178491513261,9.83394647230889,-5.84161311934477,-1.8005253,0.4196644,0.032986723,101.183624,-94.34878,-2.1427145,JOG
47965553937000,1.834988,-2.12229025100942,9.49542385550856,-5.78945489577004,-1.672549,0.6221663,0.02443461,101.05434,-94.24513,-2.1405702,JOG
47965558999000,1.84005,-2.09898801870794,9.16919347923476,-5.76149243112863,-1.5714508,0.72356987,-0.0012217305,100.87202,-94.16999,-2.1361973,JOG
47965563916000,1.844967,-2.06904491128518,8.8631046641524,-5.74745389807562,-1.4804319,0.75136423,-0.025045475,100.64952,-94.123695,-2.1355808,JOG
47965568945000,1.849996,-1.95261094136931,8.67681039009767,-5.88717455498501,-1.3924674,0.7425067,-0.045814894,100.40972,-94.10896,-2.140478,JOG
47965574228000,1.855279,-1.82338113134328,8.48605173134328,-6.03739035597015,-1.3191634,0.71593404,-0.06352998,100.167145,-94.11976,-2.1538131,JOG
47965578961000,1.860012,-1.62413131476181,8.37484219832345,-6.21347164886526,-1.2406673,0.7171558,-0.065973446,99.920074,-94.15762,-2.1681938,JOG
47965584025000,1.865076,-1.41432685404351,8.24838133310219,-6.40413268007281,-1.1267409,0.7470882,-0.03145956,99.65763,-94.22734,-2.1677635,JOG
47965588941000,1.869992,-1.25109694793274,8.03618262134004,-6.61633156227789,-0.9761627,0.8362745,0.024740042,99.37869,-94.325836,-2.1602774,JOG
47965593945000,1.874996,-1.08494510696888,7.82018539724365,-6.83232895986825,-0.8020661,0.9798279,0.07544186,99.06973,-94.46151,-2.1111526,JOG
47965598950000,1.880001,-0.974234637015254,7.52803368733689,-6.9454131089138,-0.6243043,1.1753048,0.1151481,98.72161,-94.635925,-2.0465019,JOG
47965603880000,1.884931,-0.88312205752619,7.21564764874104,-7.02350952795442,-0.43768495,1.2455542,0.13408493,98.36949,-94.860405,-1.9732593,JOG
47965609240000,1.890291,-0.786847355800654,6.7573211380719,-6.82824748676471,-0.33200526,1.2223413,0.110872045,97.98869,-95.143616,-1.8709027,JOG
47965613982000,1.895033,-0.703367186785131,6.27962904636438,-6.48505133860294,0.082161374,1.1655309,0.09773844,97.59855,-95.56631,-1.7600596,JOG
47965618944000,1.899995,-0.597801203989168,5.83057897004316,-6.06662967242109,0.22693644,0.98746365,0.05100725,97.246956,-95.97203,-1.6609792,JOG
47965623934000,1.904985,-0.480524414127105,5.41000013277482,-5.60965470330879,0.5045747,0.73914695,-0.027183503,96.92868,-96.53721,-1.5787605,JOG
47965629135000,1.910186,-0.347642853808378,4.98016776702613,-5.14383976959768,0.77854776,0.43188173,-0.11942416,96.64918,-97.08498,-1.5284224,JOG
47965633941000,1.914992,-0.199694890007466,4.60313925972626,-4.738175794691,1.0149527,0.12522738,-0.2180789,96.43348,-97.7059,-1.510369,JOG
47965638970000,1.920021,-0.0788762327947715,4.29465634020985,-4.36875587190112,1.2104294,-0.19333886,-0.27305678,96.31557,-98.31698,-1.4921553,JOG
47965644295000,1.925346,-0.0244606241027921,4.15408259043215,-4.09667791840655,1.3640621,-0.5207626,-0.2828306,96.277336,-98.98338,-1.5022792,JOG
47965648948000,1.929999,0.0147802636177007,4.03468417372263,-3.82208965360401,1.5152513,-0.784351,-0.23915374,96.289825,-99.62513,-1.4990098,JOG
47965653953000,1.935004,-0.0420732913521898,3.94721723211679,-3.0873667504562,1.6823229,-0.8927795,-0.1591304,96.34196,-100.309616,-1.4969414,JOG
47965659430000,1.940481,-0.104288460297263,3.85150165985401,-2.28335529380474,1.8435913,-0.8915578,-0.07788532,96.42976,-100.97899,-1.4705012,JOG
47965663952000,1.945003,0.0377608736315305,3.78482828694407,-1.70595320947756,1.9935588,-0.82863873,0.010079277,96.522964,-101.6837,-1.4241197,JOG
47965668880000,1.949931,0.19698985396483,3.71245142960842,-1.07868758281362,2.127949,-0.72295904,0.08582657,96.595505,-102.42146,-1.3583581,JOG
47965673936000,1.954987,0.223823012781013,3.63180236386065,-0.963429786067305,2.182927,-0.5497787,0.15149458,96.61748,-103.017975,-1.2513149,JOG
47965678892000,1.959943,0.237874923476759,3.55217485524524,-0.897854251729991,2.1908681,-0.22937989,0.18020524,96.56112,-103.63232,-1.1206185,JOG
47965683948000,1.964999,0.290702373934118,3.55196551561975,-1.01884856268474,2.1991148,0.23273966,0.20555615,96.36776,-104.10201,-0.8759803,JOG
47965688937000,1.969988,0.347418593295084,3.56141831097042,-1.16063913082798,2.1981986,0.75136423,0.21624629,96.06746,-104.5712,-0.6101898,JOG
47965693997000,1.975048,0.375082593069288,3.72020179211756,-1.22772508188984,2.2434027,1.2950343,0.2669481,95.62634,-105.039665,-0.29673207,JOG
47965699006000,1.980057,0.398423489933826,3.89759263168548,-1.28374325971195,2.2999077,1.851838,0.33322698,95.04468,-105.51543,0.054474182,JOG
47965703943000,1.984994,0.327166884970521,4.39560943565995,-1.12773916626094,2.36863,2.105958,0.41538838,94.403114,-106.03768,0.44101432,JOG
47965708991000,1.990042,0.235223714160327,4.97025415121719,-0.92546413575504,2.410169,2.5549438,0.45875978,93.56671,-106.575775,0.8837471,JOG
47965713957000,1.995008,0.0749612196073243,5.80590248379551,-1.10993139784081,2.4966063,2.9104674,0.516792,92.70195,-107.15371,1.3665892,JOG
47965718880000,1.999931,-0.109673086864945,6.73406425929297,-1.43428894284505,2.5824327,3.1746666,0.55771995,91.75511,-107.7514,1.8760537,JOG
47965723942000,2.004993,-0.238576973711617,7.9134547309848,-2.75964681035477,2.6780334,3.4300084,0.5635232,90.755516,-108.318054,2.3955414,JOG
47965728902000,2.009953,-0.351865562164365,9.1171462790321,-4.27016135591772,2.79929,3.7479637,0.5363397,89.684044,-108.92176,2.935639,JOG
47965733952000,2.015003,-0.303845387139659,10.860936549958,-6.175174918929,2.964529,4.224744,0.5161811,88.553604,-109.59046,3.477858,JOG
47965738958000,2.020009,-0.21886652661349,12.7081085180521,-8.14757908275026,3.148705,4.8456883,0.5161811,87.3134,-110.296616,4.057279,JOG
47965743963000,2.025014,0.092090177143617,14.4297721287234,-9.17970067393617,3.3163874,5.4528885,0.5717699,85.95805,-111.24092,4.6688333,JOG
47965748928000,2.029979,0.506877987148936,16.0788060297872,-9.76141539148936,3.413515,5.7931404,0.6771441,84.53478,-112.20645,5.331825,JOG
47965753940000,2.034991,1.14644395149469,16.963667183052,-8.43702538106838,3.3906076,5.509088,0.75961095,83.10373,-113.366264,5.9966693,JOG
47965759663000,2.040714,1.94276786375152,17.7409177015834,-6.35323148903776,3.2363641,4.399757,0.795652,81.839195,-114.48672,6.62014,JOG
47965763951000,2.045002,2.48856307939886,18.1970433573936,-4.34895441041027,3.0604348,2.6923885,0.77457714,80.85265,-115.53975,7.1679974,JOG
47965768942000,2.049993,3.08105489477841,18.621750301448,-1.6434161469943,2.8805351,0.8194757,0.6826419,80.2169,-116.5137,7.5435276,JOG
47965773935000,2.054986,3.05785899577346,18.884767262891,-0.913585250295858,2.6945267,-1.0375546,0.63041294,80.066986,-117.1232,7.780061,JOG
47965778958000,2.060009,2.73255532474876,19.0700096717385,-1.14852691104536,2.6062565,-2.3695462,0.62949663,80.25897,-117.69624,7.8296895,JOG
47965783948000,2.064999,2.22865172906331,19.1432637359595,-1.51849500014884,2.6823094,-2.9437597,0.5314528,80.77377,-117.96965,7.7724624,JOG
47965788935000,2.069986,1.57467110726335,19.1243078906529,-2.00187192554078,2.7235427,-2.9657507,0.28313604,81.45308,-118.194695,7.5778255,JOG
47965793991000,2.075042,0.998595912885352,18.7309024022989,-2.57786581149425,2.6639833,-2.6083946,-0.046120327,82.16045,-118.40755,7.2865367,JOG
47965798960000,2.080011,0.507717521749681,18.0202973256705,-3.21834516168582,2.474615,-2.2999077,-0.32711834,82.83899,-118.578064,6.9441094,JOG
47965803940000,2.084991,0.121754969072013,17.4393306929367,-4.01184888665156,2.2153027,-1.4636332,-0.441961,83.286674,-118.74423,6.6237173,JOG
47965808945000,2.089996,-0.156836608895675,16.9907513431189,-4.96567093127771,2.121535,-0.5164866,-0.6178902,83.56745,-118.882645,6.288953,JOG
47965813949000,2.095,-0.455468892621069,16.6277294003919,-5.6124572561911,2.091908,0.34666604,-0.7122689,83.66606,-119.08298,6.016852,JOG
47965818946000,2.099997,-0.776975079964542,16.3642722854344,-5.90270583537371,2.2348504,0.98929626,-0.7305948,83.56143,-119.30127,5.8285427,JOG
47965823939000,2.10499,-1.23193130494674,16.0676339847063,-6.09400547631052,2.495079,1.4104879,-0.7287622,83.277214,-119.66914,5.6958046,JOG
47965829652000,2.110703,-2.08022877030904,15.6463711877439,-6.07092257011919,2.7714956,1.7195857,-0.77488256,82.84988,-120.07588,5.626215,JOG
47965833919000,2.11497,-2.59745291117324,15.3858647475786,-5.98424952658013,2.97583,1.9391917,-0.8359691,82.357574,-120.57938,5.5688486,JOG
47965838936000,2.119987,-3.06280924218672,15.1459900299551,-5.7971476876685,3.0360003,2.0054705,-0.86132,81.82635,-121.113235,5.537669,JOG
47965843921000,2.124972,-3.40305933775438,14.8978438682976,-5.68334861854539,3.0014863,1.9920316,-0.8216137,81.299034,-121.68002,5.451162,JOG
47965848951000,2.130002,-3.57354709770837,14.6335879538577,-5.67056203988675,2.8432722,1.9049833,-0.7098254,80.78201,-122.224884,5.3822017,JOG
47965853883000,2.134934,-3.73276055908234,14.3319836004085,-5.70634743306097,2.6288586,1.8044959,-0.56046885,80.306816,-122.730934,5.283151,JOG
47965858931000,2.139982,-3.84923927234444,13.7749117349151,-6.0253977433899,2.3200662,1.88849,-0.44073927,79.82115,-123.16434,5.2247567,JOG
47965863898000,2.144949,-3.92833644383142,13.2260071896552,-6.2278893256705,1.9294178,2.0069978,-0.40194935,79.3719,-123.52994,5.156994,JOG
47965868944000,2.149995,-3.89593493716475,12.6659229396552,-6.07976795900383,1.5421293,2.1239784,-0.47647488,78.90364,-123.8055,5.107036,JOG
47965873923000,2.154974,-3.87215170840735,12.1095409964883,-5.91775241231151,1.1866057,2.239432,-0.59650993,78.40471,-124.04193,5.0688653,JOG
47965879010000,2.160061,-3.89227861673208,11.5208287178269,-5.66616584808924,0.88453287,2.3674083,-0.70707655,77.8647,-124.17938,5.036889,JOG
47965883916000,2.164967,-3.8999260080402,10.9194362160804,-5.38794031055276,0.6392705,2.5201247,-0.77824235,77.27525,-124.2565,5.016375,JOG
47965888936000,2.169987,-3.86610402291457,10.1850157658291,-4.97724457507538,0.4373795,2.6212227,-0.8054258,76.65794,-124.25839,4.991566,JOG
47965893976000,2.175027,-3.77196491954023,9.38725702358821,-4.53071032853573,0.26419923,2.6441302,-0.79198676,76.01583,-124.21463,4.970576,JOG
47965899502000,2.180553,-3.45988438712644,8.30290978916542,-3.92241796943528,0.0870483,2.6090055,-0.75228053,75.36473,-124.11464,4.9535475,JOG
47965903940000,2.184991,-3.11205834632585,7.39126777549251,-3.41039039359732,-0.079107046,2.5534167,-0.7305948,74.71104,-123.98303,4.940415,JOG
47965908958000,2.190009,-2.41147234244484,6.23151386327817,-2.75714120238377,-0.16065755,2.3463335,-0.7113526,74.10958,-123.829254,4.9022713,JOG
47965913945000,2.194996,-1.65542584831602,5.09432982201629,-2.17317584749602,-0.33414328,2.0775528,-0.70096785,73.530685,-123.62515,4.886119,JOG
47965918947000,2.199998,-0.664449128430216,4.01367181196293,-1.84135553788262,-0.5131268,1.8234328,-0.677755,73.00517,-123.39975,4.842532,JOG
47965923986000,2.205037,0.332711949764936,2.92086038168462,-1.51090299079334,-0.6453791,1.6209309,-0.6395759,72.523766,-123.173584,4.872217,JOG
47965928960000,2.210011,1.30314170279334,1.7918027193144,-1.23097138607248,-0.7672467,1.4789047,-0.59650993,72.09673,-122.902824,4.874339,JOG
47965934253000,2.215304,2.32738525116968,0.60897658861909,-0.89984741172441,-0.8713993,1.3634512,-0.5589417,71.82418,-122.742905,5.1093297,JOG
47965938927000,2.219978,3.14919265063666,-0.25259575049847,-0.281282676255059,-0.94959,1.1850786,-0.50488013,71.61767,-122.56329,5.3217025,JOG
47965944248000,2.225299,4.07855648538182,-1.22347021789091,0.443869310778182,-1.0143417,0.9654725,-0.4175264,71.349945,-122.39765,5.5915074,JOG
47965948951000,2.230002,4.80855091711169,-1.93474690507013,1.3937979812426,-1.0680978,0.5839872,-0.29168814,71.18523,-122.22351,5.8314133,JOG
47965953951000,2.235002,5.54955489887594,-2.68554774199877,2.37649346419375,-1.1169671,0.06261369,-0.14630222,71.24335,-122.135315,6.2507873,JOG
47965958955000,2.240006,5.86296504234621,-3.37113194506438,3.02779857982833,-1.1945469,-0.43982297,-0.04520403,71.40395,-122.035576,6.625652,JOG
47965963925000,2.244976,6.13502721798947,-4.00190624903471,3.64852998933307,-1.3322971,-0.9804387,0.029321533,71.55963,-121.787186,6.972509,JOG
47965968947000,2.249998,6.10220103446763,-4.2457562261993,4.07057806628315,-1.5066991,-1.5216653,0.05131268,71.85123,-121.51663,7.260116,JOG
47965973972000,2.255023,6.04082649213685,-4.46276507781112,4.46519290286115,-1.6985108,-1.9932534,0.02107485,72.227234,-121.16864,7.5261707,JOG
47965978958000,2.260009,5.61090505078031,-4.32901183693477,4.49863117567027,-1.8848248,-2.3600779,-0.050396383,72.71412,-120.77637,7.731741,JOG
47965983998000,2.265049,5.1367982735837,-4.06770992477221,4.4281239353551,-2.0616703,-2.5857925,-0.1328632,73.26935,-120.28386,7.885909,JOG
47965988929000,2.26998,4.20925269121579,-2.33285608109121,3.13557203003546,-2.1661282,-2.7061331,-0.19028452,73.890114,-119.75682,8.001524,JOG
47965993976000,2.275027,3.25988693290898,-0.557190425228699,1.81261330641993,-2.1566598,-2.741258,-0.20586158,74.54503,-119.17198,8.035007,JOG
47965999030000,2.280081,2.71021133462093,0.736544102996578,0.609804373491806,-2.03693,-2.7269025,-0.17715092,75.22328,-118.58531,8.06721,JOG
47966003888000,2.284939,2.23684315171079,1.91368082519359,-0.529630384404826,-1.9520199,-2.6868908,-0.16218472,75.90706,-117.98709,8.102581,JOG
47966008956000,2.290007,1.76824233607615,3.21205392061791,-2.1627653310621,-1.6997325,-2.6117544,-0.11942416,76.73046,-117.57269,8.036224,JOG
47966013923000,2.294974,1.32289547375429,4.52335313292417,-4.0084808298242,-1.3655893,-2.499966,-0.06719518,77.532135,-117.199745,7.9906135,JOG
47966018945000,2.299996,0.966764267233645,5.75751066347871,-6.11699287154725,-0.93187493,-2.3335052,0.012217305,78.24254,-116.9406,7.8398395,JOG
47966023954000,2.305005,0.647959018953271,6.95303033152648,-8.31376030124611,-0.40042216,-2.111761,0.11453723,78.91495,-116.803955,7.734996,JOG
47966028960000,2.310011,0.36571223538798,7.56217632604301,-10.3600349951296,0.20311269,-1.8548924,0.20525073,79.585915,-117.00998,7.6565037,JOG
47966033948000,2.314999,0.0935485623098695,8.02309832861606,-12.3617546439074,0.82558435,-1.57084,0.23060162,80.17086,-117.35382,7.6168003,JOG
47966038928000,2.319979,-0.0209925004371685,7.86954490867007,-13.2429438031633,1.4712689,-1.2067643,0.20219639,80.59047,-118.03645,7.490442,JOG
47966043986000,2.325037,-0.039678771442087,7.33231477276497,-13.44382137805,2.081218,-0.79901177,0.14477506,80.91007,-118.86028,7.405142,JOG
47966048943000,2.329994,-0.0425981451297156,6.26917221593706,-11.2035945814,2.50638,-0.605062,0.043982297,81.149925,-120.04916,7.243547,JOG
47966053958000,2.335009,-0.0329092845103894,4.75286536612871,-6.93565101623966,2.5192082,-0.86742866,-0.13041973,81.372665,-121.24193,7.0390344,JOG
47966058925000,2.339976,0.00267090437341648,3.14374945832781,-2.20070565094524,2.003638,-1.7308867,-0.33169982,81.65599,-122.43309,6.740688,JOG
47966063953000,2.345004,0.0589782720444358,1.43106715892419,2.98895665114013,0.9950995,-3.0460796,-0.52473325,82.072426,-123.44182,6.286438,JOG
47966068942000,2.349993,0.433546889740651,0.857080888908323,6.06862256942099,-0.40133846,-4.238794,-0.6392705,82.65179,-123.726425,5.744026,JOG
47966073933000,2.354984,1.11101931960997,1.35197208316446,7.18332910595094,-1.7974709,-4.834388,-0.6178902,83.38016,-123.71989,5.0833154,JOG
47966078954000,2.360005,1.85737111377408,2.76913822104735,7.17961349498395,-2.8780916,-4.661818,-0.4550946,84.30712,-122.84854,4.356922,JOG
47966084024000,2.365075,2.67083282816011,5.04877939058989,6.13721356039326,-3.4376442,-4.11937,-0.27458394,85.312355,-121.71702,3.6203575,JOG
47966088930000,2.369981,3.35065923189264,7.33560498160111,4.54314437871356,-3.530801,-3.3609805,-0.106595986,86.28591,-120.19545,3.1061952,JOG
47966094009000,2.37506,3.95838548445164,9.77551272498843,2.3688350550671,-3.3484578,-2.8878655,0.07513642,87.24892,-118.583145,2.7059686,JOG
47966098975000,2.380026,4.32490437874468,12.0857992682979,0.277582791776596,-3.029586,-1.8212948,0.18692477,87.85249,-116.916336,2.766227,JOG
47966103978000,2.385029,4.31471007434043,14.2877483689362,-1.77145243470213,-2.8393016,-0.70524395,0.46395215,88.384415,-115.29418,2.991021,JOG
47966108963000,2.390014,3.23786641448595,15.9027373820736,-2.18162456601899,-2.3423629,0.20463985,0.8231409,88.67919,-114.06897,3.4814503,JOG
47966113984000,2.395035,1.04958314654531,16.9302789719034,-0.906711737910566,-1.6945401,0.5852089,1.0925325,88.85138,-113.00892,4.0647287,JOG
47966119526000,2.400577,-1.61308954043962,17.7602003531692,1.58082474135298,-0.8885035,0.30940324,1.1630874,88.95794,-112.37147,4.662349,JOG
47966123988000,2.405039,-3.93645550745183,18.2074788788525,4.36803573623183,-0.26725355,-0.26450464,1.1377366,89.06737,-111.9288,5.2707086,JOG
47966128907000,2.409958,-6.22123725136536,18.6042839179789,6.24350935678692,-0.116980694,-0.73792523,1.0680978,89.28203,-111.292114,5.500939,JOG
47966133984000,2.415035,-8.15465913653578,18.8659507978872,6.34042267869245,-0.36346483,-0.8151997,0.87689704,89.5232,-110.74187,5.668255,JOG
47966138928000,2.419979,-9.46381419252616,18.60906182571,5.87249605989038,-0.6780604,-0.64843345,0.6270532,89.8877,-109.70789,5.408018,JOG
47966144016000,2.425067,-9.91539282571001,17.5456667835576,4.51290437797708,-0.8546005,-0.5018258,0.35338554,90.24194,-108.68099,5.0997953,JOG
47966148884000,2.429935,-9.97969981123878,16.191899620643,3.01162784364681,-0.89766645,-0.5681047,0.09285152,90.57816,-107.58004,4.5171914,JOG
47966154046000,2.435097,-9.4307883712465,14.1919508279425,1.08327673855653,-0.8668178,-0.7464773,-0.103847094,90.8769,-106.493675,3.9125783,JOG
47966158908000,2.439959,-8.75496713790792,12.3263194732328,-0.252873774754018,-0.8136725,-0.9379836,-0.24037547,91.1716,-105.6136,3.2097735,JOG
47966163952000,2.445003,-7.70246808610865,10.4308690112393,-0.576719585204574,-0.8491027,-1.239751,-0.30543262,91.53327,-104.754326,2.477111,JOG
47966168916000,2.449967,-6.66711078964519,8.82047739058823,-0.533298468943044,-1.0323622,-1.7507398,-0.30757064,91.99024,-104.2093,1.7581102,JOG
47966173974000,2.455025,-5.61329198006536,7.82997817647059,0.434586743594771,-1.4034629,-2.4058928,-0.26450464,92.56792,-103.630844,1.0182009,JOG
47966178938000,2.459989,-4.59470124627907,7.0380590593731,1.23439618605662,-1.8393153,-2.9596422,-0.18936823,93.24535,-103.11915,0.3913814,JOG
47966183986000,2.465037,-3.65128991790698,7.29713058600607,1.16107406261881,-2.2870796,-3.1740558,-0.0870483,94.01406,-102.5219,-0.22660576,JOG
47966189614000,2.470665,-2.68488321311755,7.84313135902896,0.761474450170358,-2.7033842,-3.001181,0.051618114,94.82761,-101.71046,-0.668742,JOG
47966194072000,2.475123,-2.10303097686542,8.82864349589438,-0.23858398120954,-2.9345965,-2.7882943,0.20891592,95.697426,-100.83821,-1.0752151,JOG
47966199034000,2.480085,-1.45539733032368,9.92557288645656,-1.35170420025554,-2.9651399,-2.1380284,0.27030787,96.39271,-99.90827,-1.2831138,JOG
47966203975000,2.485026,-0.996536125631963,12.211076038033,-3.84526262750672,-2.9208522,-1.2486086,0.3323107,96.96775,-98.9421,-1.4139241,JOG
47966208909000,2.48996,-0.574481486044948,14.725250897234,-6.60450147618133,-2.7672195,-0.21594086,0.2947425,97.31558,-98.01515,-1.5135015,JOG
47966213987000,2.495038,-0.960599304446586,16.0479270084204,-6.5528016166785,-2.5854871,0.7021896,0.17898351,97.446785,-97.28303,-1.399204,JOG
47966218883000,2.499934,-1.61704147909607,16.8851286040377,-5.5015428976362,-2.4501805,1.221425,0.010995574,97.39964,-96.60093,-1.2902565,JOG
47966223978000,2.505029,-2.63329156403092,17.2892389120095,-4.41955983769322,-2.4291058,1.1716396,-0.18906279,97.25024,-96.33803,-1.0784601,JOG
47966228892000,2.509943,-3.71514036254459,17.5363850653983,-3.37967914090369,-2.50638,0.63529986,-0.42088616,97.09488,-96.09747,-0.9366125,JOG
47966233968000,2.515019,-4.62816171075918,17.416439264179,-2.94930013422746,-2.5897632,-0.12156218,-0.6197228,97.01268,-95.70448,-0.9855781,JOG
47966238908000,2.519959,-5.44763627316639,17.1729387771949,-2.74794352411165,-2.6471846,-0.7974846,-0.7302894,97.06201,-95.313995,-1.0869532,JOG
47966244007000,2.525058,-5.69631822683806,16.5480301829779,-2.91561406531308,-2.6743681,-1.3045027,-0.72784597,97.259254,-94.81029,-1.3997506,JOG
47966248997000,2.530048,-5.71958642822086,15.7987935153374,-3.21810097484663,-2.6685648,-1.6401732,-0.63132924,97.60159,-94.35483,-1.7148485,JOG
47966253976000,2.535027,-5.36942110030412,14.8623135818819,-3.99554688960465,-2.6258042,-1.7724255,-0.47403142,98.01462,-93.99331,-2.125475,JOG
47966259381000,2.540432,-4.80175398930053,13.7508311950051,-5.07840718390932,-2.5601363,-1.6740762,-0.3023783,98.45893,-93.727356,-2.4892259,JOG
47966263952000,2.545003,-4.18341362015932,12.6620744126394,-6.05602463356346,-2.4828618,-1.3472633,-0.12858713,98.865875,-93.59086,-2.8092449,JOG
47966268985000,2.550036,-3.37965271480616,11.3310049479554,-7.18743394583112,-2.3597724,-0.8622363,0.03145956,99.19936,-93.52946,-3.0697684,JOG
47966273972000,2.555023,-2.69886364486075,10.2275613582448,-7.84452782007614,-2.2308798,-0.34574974,0.1414153,99.42398,-93.52755,-3.223398,JOG
47966278995000,2.560046,-2.08201816053897,9.24446434722501,-8.23005640502905,-2.1542163,0.08032878,0.19547687,99.534805,-93.53387,-3.3396199,JOG
47966283986000,2.565037,-1.56641703161391,8.66056735832201,-8.41429413206448,-2.1111503,0.30268374,0.22296582,99.554405,-93.50199,-3.337211,JOG
47966288995000,2.570046,-1.10525446271121,8.30188492144106,-8.48416720139833,-2.0851886,0.32162055,0.25137106,99.510124,-93.46212,-3.3170712,JOG
47966294023000,2.575074,-0.713460080963844,8.14717254403519,-8.61598441589327,-1.9416351,0.2565634,0.26542094,99.433075,-93.373505,-3.2124057,JOG
47966299000000,2.580051,-0.377085845554911,8.14256482550271,-8.79108301276102,-1.8344283,0.13439035,0.3182608,99.36703,-93.26961,-3.0901706,JOG
47966303939000,2.58499,-0.129971223968175,8.07381144190352,-8.88482211869496,-1.5439619,0.022907447,0.36865717,99.3268,-93.13675,-2.8918452,JOG
47966308939000,2.58999,0.0329648398829063,7.93962884582666,-8.89919861989592,-1.1884383,-0.02321288,0.41630468,99.301346,-93.032135,-2.683384,JOG
47966313948000,2.594999,0.131883422832505,7.75824899614487,-8.7004660070001,-0.8399397,-0.009773844,0.4569272,99.3037,-92.949646,-2.3959568,JOG
47966318982000,2.600033,0.166119755398194,7.52837644465862,-8.28473916627777,-0.57818395,0.05131268,0.47494772,99.30115,-92.97741,-2.1091192,JOG
47966323976000,2.605027,0.0735580885094825,7.19513870876136,-7.62098224254247,-0.38606682,0.12583824,0.49449542,99.27254,-93.117874,-1.7986534,JOG
47966328886000,2.609937,-0.126160521516199,6.77712306524101,-6.75243869503161,-0.23671028,0.17104226,0.4804455,99.22923,-93.39769,-1.5012133,JOG
47966333981000,2.615032,-0.42546405449683,6.31377527367274,-5.80161944235341,-0.0842994,0.14538592,0.4184427,99.18719,-93.74606,-1.2072672,JOG
47966338976000,2.620027,-0.809252494799921,5.83048601777932,-4.82082675168384,0.09254608,0.040317107,0.32589662,99.14816,-94.19361,-0.93632406,JOG
47966344051000,2.625102,-1.28510395155925,5.42081084823285,-4.01809774636175,0.28771752,-0.14935656,0.19333886,99.12,-94.59962,-0.75287753,JOG
47966349033000,2.630084,-1.83774861476091,5.09961586803287,-3.42294198936739,0.4718934,-0.34574974,0.08246681,99.1165,-95.06721,-0.59792393,JOG
47966353961000,2.635012,-2.40152023682941,4.76419165645504,-2.81547223799691,0.64873886,-0.47861293,0.002443461,99.142624,-95.46729,-0.55796695,JOG
47966358941000,2.639992,-2.99054376770552,4.40525565780587,-2.18043122950598,0.8341365,-0.56199604,-0.08552113,99.20229,-95.925156,-0.55727535,JOG
47966363887000,2.644938,-3.47118460081902,4.11090413134514,-1.54097328847325,1.044885,-0.569021,-0.16310102,99.2761,-96.37409,-0.6889794,JOG
47966368947000,2.649998,-3.79041708635271,3.91246203965103,-0.872310446418588,1.2812898,-0.51007247,-0.23335053,99.34896,-96.88528,-0.84439903,JOG
47966373945000,2.654996,-4.04809341176974,3.75553664023112,-0.23602433001926,1.5506815,-0.3915646,-0.31612277,99.40813,-97.397484,-1.1321057,JOG
47966378953000,2.660004,-3.96085497342178,3.83251184005992,0.256616616661673,1.8191566,-0.20952678,-0.3979787,99.42841,-97.983246,-1.4361583,JOG
47966383909000,2.66496,-3.76935754994145,3.94428194480874,0.565543713206479,2.0552561,-0.10323623,-0.4605924,99.44577,-98.546585,-1.8154296,JOG
47966388929000,2.66998,-3.28616241703747,4.15538666065574,0.38727754191452,2.201253,0.16340645,-0.46639562,99.36512,-99.16529,-2.1892,JOG
47966393958000,2.675009,-2.73947930780458,4.31142789012771,0.030854287509629,2.2409592,0.5109888,-0.45081854,99.24205,-99.74472,-2.550924,JOG
47966398997000,2.680048,-1.97643711337928,4.27718884021893,-0.937622344269207,2.2800546,0.9779953,-0.41874814,99.011345,-100.3629,-2.890825,JOG
47966403927000,2.684978,-1.22298621360395,4.23805069039012,-1.74791425409383,2.2971587,1.5601498,-0.35888332,98.647934,-100.96937,-3.102972,JOG
47966409776000,2.690827,-0.304620992173827,4.17166260516543,-2.2236938081284,2.2724187,2.2214115,-0.24373524,98.13637,-101.562256,-3.2574525,JOG
47966413966000,2.695017,0.255064882339008,4.11778569570688,-2.30545137638786,2.2559254,2.8124237,-0.095294975,97.43597,-102.23792,-3.1816425,JOG
47966418942000,2.699993,0.612206752997779,4.03401177994078,-1.59116763967432,2.2174408,3.2653801,0.064751714,96.59896,-102.890274,-3.0320485,JOG
47966423995000,2.705046,0.941961448982614,3.99378183880397,-0.860338127478984,2.1493294,3.4929276,0.17654006,95.54098,-103.44135,-2.5169091,JOG
47966428960000,2.710011,0.860199998442874,4.50706219178449,-0.0745194242166604,2.0693061,3.4840698,0.19120082,94.44266,-104.0019,-1.9833008,JOG
47966434303000,2.715354,0.767902360632911,5.07704091455696,0.729413223797468,2.010663,3.3341024,0.15668693,93.35614,-104.41711,-1.363834,JOG
47966438933000,2.719984,0.597939204437511,5.93871466290783,0.555497464089856,2.0576997,3.1456506,0.11148291,92.30273,-104.86842,-0.76701725,JOG
47966443946000,2.724997,0.413916461023355,6.87166725480478,0.367195152337315,2.1951442,3.0445523,0.070554934,91.31099,-105.17407,-0.19025184,JOG
47966448927000,2.729978,0.379013806905488,8.16293589900915,-1.18970653010671,2.375655,3.1322114,0.06872234,90.33896,-105.527626,0.3630799,JOG
47966453887000,2.734938,0.399702375198171,9.58527503663981,-3.25339155484538,2.6282477,3.3518176,0.12370021,89.37795,-105.958496,0.90505135,JOG
47966458912000,2.739963,0.512963592828179,11.3644628401383,-5.02775465846959,2.9416215,3.6233473,0.23671028,88.39525,-106.45005,1.4294609,JOG
47966463917000,2.744968,0.638357767648323,13.1826783797066,-6.75192445703074,3.2290337,3.7974439,0.40194935,87.40543,-107.01927,1.9780037,JOG
47966468908000,2.749959,0.871774439022751,14.6983149817606,-7.44136924665451,3.3814445,3.7788124,0.6010914,86.37351,-107.922165,2.5667226,JOG
47966473899000,2.75495,1.14249275673418,16.111555656139,-7.77632576377076,3.3915238,3.4593298,0.87995136,85.414856,-108.86888,3.197842,JOG
47966479736000,2.760787,1.59524217068482,17.2055552198638,-6.87900832470965,3.2519412,2.785851,1.1994339,84.56057,-110.00808,3.843078,JOG
47966483920000,2.764971,1.96031146063276,17.8233650452543,-5.85200019943933,3.0680707,2.3252585,1.4944818,83.777374,-111.12248,4.52828,JOG
47966488916000,2.769967,2.19927373647625,18.2545938146346,-4.65283605733487,3.001181,1.251052,1.6310102,83.3883,-112.17885,5.1420527,JOG
47966498924000,2.779975,2.47807360796429,18.8073873685742,-2.27822998188475,2.914438,-1.044885,1.9049833,83.310455,-113.95248,6.2762427,JOG
47966503900000,2.784951,2.61669352808065,19.0822375608606,-1.09757052630523,2.9119947,-1.9300288,1.7654005,83.66831,-114.68973,6.65275,JOG
47966508888000,2.789939,2.63271937434555,19.2353263298429,-0.494667974554974,2.8389962,-2.7149906,1.1731668,84.27548,-115.16926,6.841404,JOG
47966513869000,2.79492,2.5886460382199,19.3283699371728,-0.176360321989529,2.726597,-3.232699,0.34116822,84.97673,-115.59582,6.840062,JOG
47966518864000,2.799915,2.00223738743417,18.9754091971939,-1.63644485978474,2.5833492,-3.2592716,-0.3857614,85.706154,-115.84992,6.6660776,JOG
47966523867000,2.804918,1.20108216032289,18.4459094852969,-3.80048469229675,2.3472497,-2.803566,-0.8772025,86.352486,-115.99852,6.339581,JOG
47966528868000,2.809919,0.347499186905177,18.0003595771399,-5.24955175627883,2.0787745,-2.0045543,-1.1255192,86.864685,-116.034164,5.939581,JOG
47966533864000,2.814915,-0.535353790964634,17.6030764279856,-6.28935635576627,1.8784106,-1.0793989,-1.2629639,87.16919,-116.00589,5.529756,JOG
47966538859000,2.81991,-1.55981463963546,17.0723540662704,-6.55596489114413,1.7828102,-0.13805555,-1.3735305,87.20519,-116.189575,5.117055,JOG
47966543892000,2.824943,-2.65798355093016,16.4755225292719,-6.46524659922734,1.7617353,0.8390234,-1.4584408,86.97314,-116.33861,4.8105607,JOG
47966549115000,2.830166,-3.64943268731069,15.9457726928936,-5.812090010906,1.745242,1.6126842,-1.5512923,86.576294,-116.587456,4.466916,JOG
47966553932000,2.834983,-4.50103991189175,15.4951654156286,-4.97288491018908,1.779145,2.076331,-1.6380352,85.99755,-116.84592,4.1992927,JOG
47966558944000,2.839995,-5.19104370200957,14.8428055248272,-4.01976502963317,1.8762726,2.298075,-1.6847663,85.34662,-117.13819,3.8629386,JOG
47966563965000,2.845016,-5.64096325980861,13.9634172812334,-2.96654437400319,1.9575176,2.1252003,-1.6151277,84.68306,-117.44311,3.553577,JOG
47966568945000,2.849996,-6.02106498382254,12.9313472181696,-2.50821182173034,2.0076087,1.7562376,-1.4566082,84.075874,-117.69029,3.1507916,JOG
47966573938000,2.854989,-6.35239236239053,11.7763026077375,-2.48980480120296,2.0622811,1.4364496,-1.2687671,83.51286,-117.973366,2.7659276,JOG
47966578954000,2.860005,-6.65984398327515,10.7013635787474,-2.63538390031828,2.0971005,1.3329079,-1.0888673,83.035255,-118.218475,2.35399,JOG
47966584436000,2.865487,-6.96708233557495,9.62333390708419,-2.98035349656057,2.0250182,1.4828753,-0.93676186,82.59515,-118.45874,1.9800923,JOG
47966588957000,2.870008,-7.02225441028616,8.92206204746713,-3.25230921200696,1.8219056,1.6120734,-0.86620694,82.19647,-118.74364,1.5793582,JOG
47966593968000,2.875019,-6.93874646345708,8.28183243662993,-3.54458784944896,1.6850718,1.9055941,-0.7272351,81.74855,-119.032455,1.279809,JOG
47966598940000,2.879991,-6.64257947925853,7.71233260379735,-3.4663447300189,1.3005321,2.2766948,-0.5662721,81.25484,-119.286125,1.0024086,JOG
47966603944000,2.884995,-6.10785707342752,7.21210843948529,-2.9790573893908,0.8720101,2.7375927,-0.38912117,80.687584,-119.48998,0.817545,JOG
47966608936000,2.889987,-5.44299580131608,6.60713961728449,-2.34837633176135,0.47036624,3.0601294,-0.21563543,80.07247,-119.67125,0.71447337,JOG
47966613957000,2.895008,-4.37771823834174,5.67897726022154,-1.2778252319807,0.13622294,3.1248813,-0.05955936,79.4299,-119.74981,0.6757996,JOG
47966618898000,2.899949,-3.29443083619159,4.73212364121549,-0.351807295091211,-0.06169739,3.0225613,0.065973446,78.75941,-119.73311,0.75723046,JOG
47966623940000,2.904991,-2.14038412513901,3.71938863280656,0.415987127064677,-0.15088372,2.903748,0.15118915,78.09308,-119.65218,0.8663605,JOG
47966628882000,2.909933,-0.997165450997432,2.70668033230792,1.08740926486866,-0.23273966,2.7614164,0.21166481,77.456436,-119.46518,1.0921159,JOG
47966633952000,2.915003,0.19679551582066,1.63259494918527,1.63404195455856,-0.3231477,2.5405886,0.25900686,76.878525,-119.24963,1.2995822,JOG
47966638927000,2.919978,1.24370550422044,0.618700885240646,2.14235601608636,-0.42455134,2.270586,0.28008172,76.33499,-118.99544,1.641398,JOG
47966643955000,2.925006,2.06832288703027,-0.330976928297216,2.60351649595,-0.5757405,1.9236146,0.28588495,75.87076,-118.701035,1.9438881,JOG
47966648927000,2.929978,2.88375598713578,-1.2700775824162,3.05954074135216,-0.7507534,1.5167783,0.23518312,75.490036,-118.40907,2.3967192,JOG
47966654087000,2.935138,3.38165002516937,-2.47072189553596,3.8701081225522,-0.9966267,1.0586295,0.116675265,75.20575,-118.0564,2.7752519,JOG
47966658973000,2.940024,3.81157444794432,-3.63455770897448,4.67784486464037,-1.3567317,0.5403103,-0.0870483,75.0261,-117.62059,3.052922,JOG
47966663951000,2.945002,4.11181902547887,-4.61211333037397,5.47111706400122,-1.8402315,-0.02687807,-0.3539964,74.91323,-117.08967,3.3355365,JOG
47966668884000,2.949935,4.36079074015405,-5.50745408024729,6.24675979625013,-2.3548856,-0.6554584,-0.6224717,74.92742,-116.44108,3.4928467,JOG
47966673939000,2.95499,4.66244389155335,-5.65718758163772,6.69036095749876,-2.8298333,-1.2993103,-0.7974846,75.04804,-115.61831,3.5985246,JOG
47966678895000,2.959946,4.9733655243871,-5.55354692258065,7.01070430296774,-3.1884112,-1.6136005,-0.850019,75.23766,-114.67092,3.6364653,JOG
47966683944000,2.964995,5.1353629289464,-4.86250936901824,6.89610773084362,-3.316082,-2.1856759,-0.820392,75.65625,-113.58606,3.5904663,JOG
47966688923000,2.969974,5.2407590227482,-3.97542618710628,6.6282262045128,-3.47002,-2.6804767,-0.6945538,76.15859,-112.38264,3.5427046,JOG
47966693958000,2.975009,5.22777405379337,-2.9517751684353,6.07255341862376,-3.4724634,-3.0839531,-0.56413406,76.81292,-111.12832,3.5136175,JOG
47966698937000,2.979988,5.12638949711994,-1.84576367772301,5.31217056687929,-3.3719761,-3.3276885,-0.44226643,77.586525,-109.85447,3.4996657,JOG
47966703944000,2.984995,4.99646276554471,-0.788584586436965,4.34372374686317,-3.2241468,-3.390913,-0.35094208,78.455696,-108.59247,3.5271168,JOG
47966708963000,2.990014,4.83850850806612,0.216579619946226,3.17103229769966,-3.0772338,-3.2980614,-0.26358834,79.37411,-107.36198,3.600347,JOG
47966713951000,2.995002,4.57350474227677,1.28179663186627,1.65992863487622,-2.9049697,-3.1349604,-0.20555615,80.352325,-106.28691,3.7136035,JOG
47966718947000,2.999998,4.19891891239949,2.41567762856538,-0.202875871027296,-2.6477954,-2.905886,-0.17562376,81.30092,-105.28831,3.874221,JOG
47966723909000,3.00496,3.65692428531582,3.5820540065233,-2.37570469164567,-2.238821,-2.5854871,-0.13408493,82.422264,-104.730705,4.191621,JOG
47966728959000,3.01001,2.99114080951952,4.79612994093036,-4.80385694668436,-1.6597209,-2.1875083,-0.096516706,83.44046,-104.29341,4.523719,JOG
47966733951000,3.015002,2.20882630296193,6.124318661142,-7.40134174620402,-0.9398162,-1.7693712,-0.07391469,84.13131,-104.06996,4.6993537,JOG
47966738929000,3.01998,1.23007490606287,7.65361806811377,-10.3070095548653,-0.12767084,-1.4587462,-0.06047566,84.73933,-104.03567,4.9034038,JOG
47966743931000,3.024982,0.197101453235407,9.61117380011521,-13.1685376324885,0.78984874,-1.1768318,-0.041233405,85.3042,-104.67841,5.099589,JOG
47966748960000,3.030011,-0.88949737889785,11.9878195241935,-15.9890708225806,1.8194622,-0.79534656,-0.007941248,85.71709,-105.53461,5.308808,JOG
47966753943000,3.034994,-1.88657641405076,13.1685487328934,-16.3111480163452,2.8619037,-0.25473082,0.022602014,85.87958,-106.88529,5.3135934,JOG
47966758954000,3.040005,-2.78302772942132,12.7885312810152,-13.334344897665,3.62182,0.18600847,0.05497787,85.95089,-108.4008,5.34665,JOG
47966763922000,3.044973,-3.37666599819831,11.9024068800673,-9.59956228358657,3.8686097,-0.01863139,0.051923547,86.00781,-110.235504,5.1506863,JOG
47966769677000,3.050728,-3.65801450684644,10.1745958557444,-4.19436052237103,3.5262196,-1.3631458,-0.025350908,86.24518,-112.02222,4.8715663,JOG
47966773984000,3.055035,-3.86857367743679,8.88151469470903,-0.149146971449163,2.441323,-3.617544,-0.24312437,86.7535,-113.17892,4.30864,JOG
47966779018000,3.060069,-3.92855680108524,7.51115486154346,4.24078437716353,0.49846604,-4.7204614,-0.61117065,87.27238,-113.95712,3.6640537,JOG
47966783958000,3.065009,-2.88415997221965,7.00212110493461,6.54460123756609,-1.8506162,-5.918368,-0.7141015,88.39592,-114.29733,2.773164,JOG
47966789285000,3.070336,-1.72414870783874,6.58967315998633,8.86206445782897,-2.7672195,-5.73633,-0.41447207,89.52888,-113.60715,1.8827357,JOG
47966794054000,3.075105,0.0859594594103863,9.33604440513471,7.12774898711441,-3.5769215,-4.7119093,-0.19058995,90.75652,-112.2839,0.9386157,JOG
47966799523000,3.080574,2.12327387895626,12.4353292723151,5.12411280814367,-3.1789427,-3.244,0.6420194,91.98265,-110.747665,0.4942813,JOG
47966804562000,3.085613,3.04140239208748,14.0399089553698,2.91030718371266,-1.4349225,-1.5989398,0.93584555,92.86956,-109.36311,0.12440173,JOG
47966808924000,3.089975,3.83617845366287,15.4289100622333,0.99393089203414,-0.82344633,0.06261369,1.3665055,93.346825,-107.83857,0.639652,JOG
47966813961000,3.095012,3.14439892750052,16.5800446829243,-0.644406167787173,0.2950479,1.5406022,1.3671165,93.41473,-107.012535,1.2254603,JOG
47966818901000,3.099952,1.69555402937719,17.4922805274283,-1.97617291309548,1.040609,2.4611762,0.88239485,93.17738,-106.309265,1.8525795,JOG
47966823940000,3.104991,-0.735336077450308,17.5051886696367,-1.61410134188975,1.2895365,2.7733283,0.2782491,92.65529,-106.12472,2.621479,JOG
47966828955000,3.110006,-3.50987193762851,17.176006681974,-0.612446803585626,1.2788464,2.6847527,-0.2883284,91.96575,-106.09799,3.2534835,JOG
47966833982000,3.115033,-4.78855990746062,15.3708925959576,1.14937718236798,1.2098186,2.384207,-0.6743952,91.21014,-106.22221,3.5494738,JOG
47966838987000,3.120038,-5.40593332715744,12.9298926554047,3.23419955342713,1.1548407,2.0595322,-0.7153232,90.48446,-106.34495,3.7602916,JOG
47966844032000,3.125083,-5.44278415562642,10.3486462311617,4.13572589933485,0.97585726,1.6627752,-0.58184916,89.921906,-106.23474,3.4828854,JOG
47966849054000,3.130105,-5.21052706569476,7.72370448692483,4.48192020340774,0.6432411,1.0626001,-0.49938235,89.502304,-106.07724,3.150114,JOG
47966853981000,3.135032,-4.55096908908225,5.55249048201782,4.15134826465714,0.17134771,0.25350907,-0.5699373,89.276794,-105.65495,2.6911428,JOG
47966858987000,3.140038,-3.42865956474,3.76970651251295,3.11346015454734,-0.42730024,-0.50946164,-0.5934556,89.21745,-105.12383,2.2300577,JOG
47966863946000,3.144997,-2.37332979671772,2.80904999051787,2.99691188271335,-0.96761054,-1.2043208,-0.47311515,89.36868,-104.54222,1.7669525,JOG
47966868990000,3.150041,-1.34651882216318,2.49698007037616,3.63111864720225,-1.3805555,-1.9538525,-0.24281894,89.75667,-103.83553,1.2716908,JOG
47966873950000,3.155001,-0.670656343596801,3.45476152459275,4.10320641188666,-1.7186694,-2.3832908,0.08399397,90.23884,-103.21321,0.94940734,JOG
47966878978000,3.160029,-0.181005336982525,5.16616306583078,4.49302547975121,-1.9782871,-3.3484578,0.2770274,91.088,-102.49648,0.5753949,JOG
47966883981000,3.165032,-0.0395374065269882,6.87522996309795,4.32984232478954,-2.051591,-4.1731257,0.70738196,92.0673,-101.67257,0.49004814,JOG
47966888974000,3.170025,-0.120045373743092,8.58483998724374,3.81364435521442,-2.017077,-4.648379,1.1337659,93.229614,-100.800804,0.4392452,JOG
47966894048000,3.175099,-0.275005252096284,10.4449612010981,2.96934159747034,-1.7763962,-4.672814,1.4810427,94.53718,-99.873344,0.5922852,JOG
47966899103000,3.180154,-0.479109830775566,12.3815813143445,1.91084571159918,-1.4731015,-4.264145,1.7443258,95.86509,-98.99246,0.8593827,JOG
47966903978000,3.185029,-0.774683220259242,14.0329195070571,0.692318976418627,-1.1475104,-3.5072827,1.960572,97.099655,-98.27174,1.2585753,JOG
47966908979000,3.19003,-1.15636059663946,15.5550303974076,-0.71482883950072,-0.8240572,-2.427273,2.0708332,98.11773,-97.69162,1.7358369,JOG
47966913983000,3.195034,-1.7057905216258,16.7495402557181,-2.81189287280033,-0.56138515,-1.0567969,2.0384574,98.80831,-97.37679,2.2549045,JOG
47966918982000,3.200033,-2.44565946651556,17.5683286597981,-5.69244945069029,-0.42119157,0.5919284,1.8161024,99.098305,-97.16915,2.7824423,JOG
47966923982000,3.205033,-3.5791450848888,18.1640702317315,-6.63548890079428,-0.56138515,2.3649647,1.4074335,98.96886,-97.15461,3.207207,JOG
47966928988000,3.210039,-5.06898699741859,18.5591411473392,-5.83106943272438,-1.2336423,3.5592062,0.81489426,98.52364,-97.01082,3.531635,JOG
47966933977000,3.215028,-6.27845409578916,18.2281438971564,-4.34711005837709,-2.2003367,3.7067304,0.09560041,97.83343,-96.96322,3.602565,JOG
47966938982000,3.220033,-7.22825938737739,17.2023539481819,-2.20529952652333,-2.9874365,2.9196305,-0.65179324,97.064445,-96.70105,3.5033941,JOG
47966943973000,3.225024,-7.60458651059871,16.3569306701633,-0.727117994299852,-3.474296,1.536326,-1.2534955,96.40545,-95.99161,3.040646,JOG
47966949072000,3.230123,-7.38712518614547,15.6803844507669,0.0895699131370609,-3.6630535,-0.024129177,-1.5482379,96.01809,-95.12604,2.4443254,JOG
47966953971000,3.235022,-6.97692032935265,15.078273524091,0.105661917026308,-3.5741725,-1.3671165,-1.5118915,95.944496,-93.91908,1.6490917,JOG
47966958966000,3.240017,-6.33589985728643,14.5173801557789,-0.728607348492462,-3.280041,-2.1905627,-1.2284501,96.17306,-92.77136,0.8454117,JOG
47966963929000,3.24498,-5.53647149948331,13.8984813066375,-1.7967323134539,-2.9217684,-2.4410176,-0.8051204,96.63044,-91.69216,0.12976347,JOG
47966968992000,3.250043,-4.50544034827106,13.1854319106717,-3.20355986040342,-2.5625796,-2.2223277,-0.39370266,97.194496,-90.966606,-0.4893002,JOG
47966973947000,3.254998,-3.53538708268551,12.5428307338045,-4.51764705064782,-2.2305744,-1.9767599,-0.089186326,97.83448,-90.94531,-0.924315,JOG
47966978991000,3.260042,-2.60133066690224,11.9643797836671,-5.76937738865332,-2.082745,-1.2687671,0.014966198,98.278534,-88.66148,-1.2845349,JOG
47966983938000,3.264989,-1.91772956627572,11.5218791633038,-6.63846707715933,-1.8894062,-0.4120286,0.15149458,98.622185,-88.45479,-1.4049792,JOG
47966989006000,3.270057,-1.59451493206441,11.2710255046218,-6.94720957671206,-1.8808541,0.28344148,0.21838433,98.80592,-88.2332,-1.5129415,JOG
47966993934000,3.274985,-1.48383597044442,11.0246556065574,-7.07428201211978,-1.9495764,0.6188065,0.26206118,98.86855,-88.268524,-1.4399775,JOG
47966998983000,3.280034,-1.71751534529518,10.7680670819672,-6.90933176103478,-2.0299053,0.57726765,0.30695978,98.83839,-88.31504,-1.3501803,JOG
47967003896000,3.284947,-1.97840328724086,10.5340706572859,-6.82497435683525,-2.08977,0.30818152,0.3313944,98.7843,-88.42224,-1.2016908,JOG
47967008998000,3.290049,-2.35030377945919,10.3383332065098,-6.96688353600401,-2.1084013,-0.02565634,0.37018433,98.760056,-88.52401,-1.0397774,JOG
47967013922000,3.294973,-2.65715755611963,10.1222212211639,-7.18389264853796,-2.0873265,-0.2929099,0.42180246,98.77599,-88.55762,-0.9210497,JOG
47967018938000,3.299989,-2.82187240896276,9.82481957605486,-7.63228310781979,-2.028378,-0.44073927,0.44868052,98.85198,-88.5866,-0.7998668,JOG
47967023990000,3.305041,-2.9380615989506,9.50799894625822,-8.03796764829341,-1.9037615,-0.47616947,0.46303585,98.93619,-88.5941,-0.74413586,JOG
47967028928000,3.309979,-2.81775566134195,9.11700450508798,-8.21842710430358,-1.7073684,-0.4184427,0.45875978,99.03454,-88.63405,-0.68700534,JOG
47967033888000,3.314939,-2.6767865967316,8.76047515761378,-8.32347872419929,-1.4431691,-0.3109304,0.45265114,99.11061,-88.75328,-0.66505843,JOG
47967038975000,3.320026,-2.47604127608166,8.49585635399888,-8.2185435088968,-1.1368202,-0.17104226,0.45204028,99.1596,-88.92614,-0.64387155,JOG
47967043979000,3.32503,-2.28183062777242,8.21304541118612,-8.08110539537126,-0.8350528,0.0027488936,0.4886922,99.15618,-89.16551,-0.6047391,JOG
47967049575000,3.330626,-2.08544799267117,7.75309630260366,-7.70901186788814,-0.55771995,0.14844026,0.50854534,99.11991,-89.39076,-0.57158864,JOG
47967053999000,3.33505,-1.94255858277744,7.37832828914494,-7.40591496785931,-0.32375857,0.23762658,0.5119051,99.05164,-90.5453,-0.50405055,JOG
47967058966000,3.340017,-1.92332754756418,6.8302435345563,-6.96360070613503,-0.13958271,0.24862215,0.46944994,98.96329,-90.821144,-0.4453311,JOG
47967063917000,3.344968,-1.91734035611832,6.28575824254097,-6.48821002394126,0.030543262,0.19761491,0.39920044,98.86691,-91.23779,-0.37215403,JOG
47967068982000,3.350033,-2.05669727216429,5.74897608532667,-5.62110040194722,0.18875736,0.12858713,0.31673363,98.77084,-91.74746,-0.31645107,JOG
47967073955000,3.355006,-2.21222226848531,5.25564787436221,-4.84949828281553,0.34330627,-0.03268129,0.267559,98.717285,-92.2591,-0.27803248,JOG
47967078989000,3.36004,-2.43953048919761,4.88221281015408,-4.36646832969605,0.4541783,-0.20311269,0.19120082,98.6826,-92.8105,-0.2735723,JOG
47967083890000,3.364941,-2.66083314905279,4.51864402793635,-3.89620019297802,0.675617,-0.35002577,0.115453534,98.67558,-93.31987,-0.31972453,JOG
47967088978000,3.370029,-2.99008311209044,4.13677857654723,-3.39094010695536,0.9236283,-0.4373795,0.056199603,98.696724,-93.87029,-0.3859325,JOG
47967094024000,3.375075,-3.33730887210194,3.75714514983713,-2.88630520360222,1.178359,-0.45265114,-0.014660766,98.73422,-94.487465,-0.4794337,JOG
47967099024000,3.380075,-3.62202997285552,3.52874912400371,-2.36899971860776,1.4413365,-0.39400807,-0.10598512,98.77162,-95.10521,-0.6517438,JOG
47967103884000,3.384935,-3.88084341493152,3.35141407488415,-1.86095861017403,1.649947,-0.23579398,-0.20066923,98.78009,-95.783356,-0.8436886,JOG
47967108986000,3.390037,-3.83203499025065,3.46065581773867,-1.51579175020273,1.8078557,0.0015271631,-0.29840767,98.7457,-96.46445,-1.1285585,JOG
47967113999000,3.39505,-3.70374090103207,3.64203703186509,-1.22381212436417,1.9120082,0.2837469,-0.3576616,98.64973,-97.19515,-1.4229926,JOG
47967118978000,3.400029,-3.38476690310419,3.83829403802889,-1.07646310971212,2.0115793,0.593761,-0.3903429,98.48075,-97.91057,-1.7749652,JOG
47967123980000,3.405031,-2.95780477172421,4.04441364171704,-1.00775655806782,2.0650299,0.9718866,-0.41416663,98.209816,-98.64883,-2.1266234,JOG
47967129660000,3.410711,-2.36386016659349,4.12816356854919,-1.14411977190182,2.0857995,1.3836098,-0.40744713,97.84627,-99.341194,-2.4358547,JOG
47967133975000,3.415026,-1.88143162777889,4.14878015805229,-1.3090526170924,2.0668626,1.8515326,-0.36926803,97.36073,-100.03574,-2.71933,JOG
47967138981000,3.420032,-1.21651210407842,4.13442938995421,-1.35383727330662,2.0412061,2.3808472,-0.2919936,96.74433,-100.681046,-2.8784654,JOG
47967144104000,3.425155,-0.486339520835718,4.10166520973097,-1.33043432234306,2.0503693,2.8875601,-0.1863139,96.00775,-101.32121,-2.9887242,JOG
47967149038000,3.430089,-0.259934228782527,4.25941364275178,-1.09029958386745,2.0778582,3.3023374,-0.06994407,95.138245,-101.93184,-2.9134946,JOG
47967154018000,3.435069,-0.341680063561523,4.54180843171973,-0.706341889087415,2.1056526,3.5326338,0.03390302,94.188225,-102.53709,-2.785406,JOG
47967158973000,3.440024,-0.423015527683997,4.82278557616475,-0.324311692775152,2.0992384,3.5769215,0.06963864,93.097374,-103.00301,-2.3296406,JOG
47967163964000,3.445015,-0.504941925551862,5.1058041287228,0.0604941013307016,2.0839667,3.4807103,0.049480084,91.99995,-103.491585,-1.8620614,JOG
47967168976000,3.450027,-0.312901275351143,6.85276051079592,-0.919268809762233,2.090381,3.4177911,0.022296581,90.896935,-103.999405,-1.3858218,JOG
47967173976000,3.455027,-0.0227749189754888,9.12102076967778,-2.38748391120353,2.112372,3.3148603,0.0106901415,89.84632,-104.52186,-0.92576665,JOG
47967178956000,3.460007,0.31183654450293,11.3276906218966,-4.13053643304209,2.1856759,3.2882876,-0.0027488936,88.8425,-104.92467,-0.54066014,JOG
47967183981000,3.465032,0.686158555371337,13.5120902476292,-6.11495594369739,2.3020456,3.3707545,0.016493361,87.850945,-105.35141,-0.15234411,JOG
47967188978000,3.470029,1.06529959779207,15.0899231825002,-7.20650830726883,2.5158484,3.513086,0.0852157,86.80678,-105.97237,0.39056182,JOG
47967194048000,3.475099,1.45324284730975,16.4098769094807,-7.89723640285492,2.738509,3.6282341,0.160963,85.766495,-106.635704,0.9272883,JOG
47967199740000,3.480791,2.11829440450522,17.3917120017902,-7.30652526270512,2.9132164,3.5967746,0.36010507,84.73262,-107.56958,1.5647327,JOG
47967203974000,3.485025,2.69092936665341,17.9522489668821,-6.40321388995525,2.9944615,3.343571,0.46944994,83.74465,-108.52337,2.1654124,JOG
47967208972000,3.490023,3.23933636660457,18.4082860608883,-4.87112315266203,2.9520063,2.803566,0.7244862,82.8794,-109.51094,2.8690345,JOG
47967213984000,3.495035,3.70996051293264,18.7377232139425,-3.04510152191391,2.8502972,1.9917262,1.0137309,82.186005,-110.4879,3.5278952,JOG
47967218973000,3.500024,4.08005158958186,18.9733870257935,-1.57449360476574,2.6945267,0.9477574,1.2678508,81.766464,-111.25765,4.2097692,JOG
47967223987000,3.505038,4.38001347020655,19.1427202884635,-0.350455161501259,2.5512786,-0.07422013,1.4474452,81.58241,-112.00577,4.829406,JOG
47967228981000,3.510032,4.53777795496478,18.9373933741692,0.281903534758457,2.4825563,-1.1432343,1.2565498,81.72293,-112.48135,5.3204618,JOG
47967233975000,3.515026,4.59945293849816,18.477202788513,0.514370762093046,2.5298984,-2.2608123,0.52534413,82.09658,-112.92272,5.5674644,JOG
47967238972000,3.520023,4.2831915973607,17.8750116480938,-0.0907690164222875,2.667954,-3.1810808,-0.17684549,82.69631,-113.21742,5.6826825,JOG
47967244089000,3.52514,3.67482666548387,17.1516804311828,-1.34103095632258,2.7937922,-3.4468071,-0.6270532,83.34837,-113.48552,5.608547,JOG
47967249003000,3.530054,3.03130657254941,16.5796867917507,-2.87832974480637,2.6615398,-3.0827315,-0.90408057,84.00547,-113.68159,5.3834505,JOG
47967253983000,3.535034,2.32909754431222,16.1035307913473,-4.72042606973578,2.3881776,-2.144137,-1.0302242,84.528076,-113.847855,5.120167,JOG
47967258969000,3.54002,1.5793076089273,15.6960012848315,-5.93081372018924,2.1600194,-1.0323622,-0.98440933,84.866936,-114.14991,4.8596454,JOG
47967263959000,3.54501,0.790295987743555,15.3453296009462,-6.61831498117215,2.0735822,-0.47219884,-0.890947,85.083534,-114.40627,4.6319537,JOG
47967268980000,3.550031,-0.0967606596746008,14.9834522401326,-6.77274413844531,2.0390682,0.5537493,-0.84604836,84.852005,-114.835304,4.5422792,JOG
47967273990000,3.555041,-1.0845942695571,14.6124123546249,-6.33424234121723,2.014939,1.4245378,-0.7476991,84.52881,-115.243774,4.545301,JOG
47967278986000,3.560037,-2.0818358563982,14.2757448243122,-5.59925931870936,1.9792033,2.0152445,-0.70707655,84.03301,-115.71786,4.5370927,JOG
47967283981000,3.565032,-3.09168357710855,13.9742262345173,-4.55112366113057,1.9602666,2.0821342,-0.7147123,83.45848,-116.184166,4.5861764,JOG
47967288974000,3.570025,-4.04539776463366,13.6835567290099,-3.8078682629802,2.0152445,1.7956384,-0.77946407,82.8966,-116.610954,4.5241404,JOG
47967294062000,3.575113,-4.95721592732673,13.398915369802,-3.37849360539604,2.0250182,1.4694363,-0.8784242,82.326256,-117.0126,4.457875,JOG
47967299059000,3.58011,-5.51649092066508,13.0714089038005,-3.19006620296912,1.9364429,1.2754866,-0.9407325,81.87645,-117.28792,4.2372503,JOG
47967304462000,3.585513,-5.73157673598575,12.6617215092043,-3.25664026422209,1.78617,1.0626001,-0.90224797,81.51553,-117.54959,3.978421,JOG
47967308936000,3.589987,-5.78979721527123,12.0871696355149,-3.37326727275943,1.625207,0.92087936,-0.7486154,81.2331,-117.74124,3.6119044,JOG
47967313989000,3.59504,-5.71370993974057,11.1598542580582,-3.57775229127358,1.4709635,0.8197812,-0.5155703,81.00843,-117.9016,3.2579777,JOG
47967318905000,3.599956,-5.69784010670425,10.310276065633,-3.73669939940093,1.3301591,0.8353582,-0.28221974,80.80779,-118.055626,2.9221334,JOG
47967323992000,3.605043,-5.77080205453264,9.51198500035239,-3.83970471838605,1.1795808,1.0635164,-0.14019357,80.59562,-118.17063,2.6406286,JOG
47967328916000,3.609967,-5.82664578153153,8.75119577027027,-3.88958558941441,0.9425651,1.3833044,-0.053145275,80.36597,-118.31302,2.4304712,JOG
47967333981000,3.615032,-5.78195296406634,8.05100929914005,-3.59659986587838,0.68294734,1.7788396,-0.034513887,80.0684,-118.407936,2.2800252,JOG
47967338947000,3.619998,-5.67301700755219,7.38201134504726,-3.23146799519496,0.42180246,2.1774292,-0.07788532,79.683914,-118.50571,2.1696002,JOG
47967344018000,3.625069,-5.26178202564002,6.77950419491926,-2.49985211654195,0.21013765,2.4788911,-0.10567969,79.22863,-118.544556,2.1053858,JOG
47967349022000,3.630073,-4.80455221610738,6.17763495721476,-1.77103433911745,0.057726767,2.6673431,-0.108123146,78.69777,-118.539406,2.0748758,JOG
47967353982000,3.635033,-4.09124080134228,5.54402312768456,-1.01388815621812,-0.03573562,2.7528641,-0.079107046,78.11728,-118.49184,2.0667822,JOG
47967358953000,3.640004,-3.3763474459396,4.90900611062919,-0.255062818477685,-0.13103059,2.7134633,0.005192355,77.523,-118.358444,2.1226642,JOG
47967363952000,3.645003,-2.24452289211781,3.86202613327683,0.583991425841085,-0.18570304,2.6352727,0.11911872,76.92463,-118.211555,2.192341,JOG
47967368882000,3.649933,-1.00403267779426,2.70656946148956,1.4343274539394,-0.21594086,2.3698518,0.17654006,76.38686,-118.04562,2.2309022,JOG
47967374011000,3.655062,0.428456742704662,1.43169542931225,2.07497989011177,-0.2666427,2.0176878,0.28160888,75.90092,-117.8094,2.3941247,JOG
47967378950000,3.660001,1.82873421192226,0.193354864339946,2.65604734673245,-0.36926803,1.6337591,0.3707952,75.49561,-117.54994,2.521387,JOG
47967383977000,3.665028,3.09583082856317,-0.981466325886094,3.35310347123446,-0.5225952,1.2049317,0.42821655,75.187454,-117.25543,2.784709,JOG
47967388924000,3.669975,4.32395730702515,-2.12741341387684,4.05162921509107,-0.79443026,0.72082096,0.4578435,75.00004,-116.89946,3.0026143,JOG
47967394022000,3.675073,5.25293890115422,-3.24515255675073,4.83315172735209,-1.1927143,0.19150625,0.44776422,74.93447,-116.51776,3.3925343,JOG
47967398994000,3.680045,6.08425407007759,-4.32124367415131,5.60904558923375,-1.7027869,-0.3622431,0.37812558,74.99858,-116.03087,3.7095718,JOG
47967403972000,3.685023,6.47091013990403,-5.22865789379162,6.07497674325304,-2.2504275,-0.9239337,0.21930063,75.16141,-115.428825,4.105246,JOG
47967408962000,3.690013,6.71892990028398,-6.0850281877595,6.44466660057775,-2.7369816,-1.461495,-0.022907447,75.448105,-114.69872,4.4025087,JOG
47967413980000,3.695031,6.66696437156673,-6.03442466314313,6.15829232805609,-3.1282408,-1.8826867,-0.2846632,75.81807,-113.81037,4.7377515,JOG
47967418943000,3.699994,6.49688706537718,-5.62531991733075,5.61588389814313,-3.3664784,-2.1169536,-0.4538729,76.27343,-112.82459,5.003828,JOG
47967423982000,3.705033,6.0657551644039,-4.37165882370598,4.92842809488757,-3.4935384,-2.2021692,-0.43860126,76.79351,-111.75767,5.2760587,JOG
47967428975000,3.710026,5.49771297242257,-2.67260346860416,4.17272885956725,-3.5750887,-2.2611177,-0.37507126,77.36913,-110.6334,5.5075555,JOG
47967433987000,3.715038,4.81699609004398,-1.03475456077569,3.48782247033187,-3.5882225,-2.3738225,-0.33078352,77.99783,-109.559364,5.7087073,JOG
47967439005000,3.720056,4.10124169188325,0.584099088604558,2.82490910693723,-3.49476,-2.5622742,-0.33567044,78.67798,-108.50419,5.918185,JOG
47967443994000,3.725045,3.33299499958159,2.17113586712493,1.82397241138972,-3.26874,-2.7800477,-0.36285394,79.45069,-107.52428,6.041337,JOG
47967448991000,3.730042,2.54637171994421,3.75391724799761,0.71793232447101,-2.910162,-2.9452868,-0.3680463,80.274254,-106.62145,6.1747913,JOG
47967454011000,3.735062,1.82256629558516,5.27277055653773,-1.00112343803222,-2.420248,-2.9959886,-0.35430184,81.339005,-105.95379,6.2067313,JOG
47967458974000,3.740025,1.12783968802327,6.75201844189122,-2.89153582793875,-1.8234328,-2.9361238,-0.33261612,82.408806,-105.402565,6.237127,JOG
47967463908000,3.744959,0.591381326364807,8.20835207429902,-5.1226653933122,-1.1239921,-2.8759537,-0.32589662,83.36224,-104.96878,6.107653,JOG
47967468967000,3.750018,0.0969541353866046,9.69643374201922,-7.53719787650847,-0.72204274,-2.758362,-0.3032946,84.27874,-104.613785,6.004237,JOG
47967473956000,3.755007,-0.391254861145778,11.2132797346407,-10.2068327344933,0.15118915,-2.626415,-0.2678644,85.1899,-104.79561,5.7945275,JOG
47967478959000,3.76001,-0.881073727617714,12.7533831796913,-12.9950327158164,1.1710287,-2.2849414,-0.21563543,85.97864,-105.10871,5.6209397,JOG
47967483967000,3.765018,-1.55712364715689,12.6191251874012,-11.5674024309882,2.2968533,-1.604743,-0.2180789,86.53748,-105.935196,5.368707,JOG
47967489522000,3.770573,-2.40066491333653,11.6252249865629,-7.8568406023908,3.3527339,-0.68661255,-0.30543262,86.89941,-106.99223,5.153737,JOG
47967493959000,3.77501,-3.07443495798802,10.8313572653892,-4.89306691499449,3.921144,0.102319926,-0.42455134,87.01836,-108.498924,4.8768854,JOG
47967498967000,3.780018,-3.83491284476168,9.93532626524551,-1.54788354188637,3.7815614,0.19761491,-0.5513059,87.050476,-110.03777,4.600073,JOG
47967503899000,3.78495,-4.33304973340508,7.91299067541971,2.69446732367284,3.0115657,-1.0412198,-0.7486154,87.18784,-111.64137,4.0154552,JOG
47967508876000,3.789927,-4.58952715194791,4.75318828764529,7.90608881661752,1.5482379,-3.5906658,-1.2177598,87.59373,-112.93152,3.1981733,JOG
47967513868000,3.794919,-3.71613351590953,4.19408495004874,9.90749481838565,-0.7302894,-5.8417044,-1.7040086,88.29373,-112.74687,2.2156165,JOG
47967518862000,3.799913,-2.19620138832131,5.12655851534412,10.0660151278027,-3.0805933,-6.750672,-1.808772,89.31039,-112.14413,1.093952,JOG
47967523899000,3.80495,-0.426801283762298,7.43935811763888,8.38320670356753,-4.397619,-6.4495153,-1.5128077,90.693596,-110.72271,-0.17546614,JOG
47967528890000,3.809941,1.49214214581139,10.6930121957865,5.42404399390838,-4.3670754,-5.4782395,-0.9639453,92.20168,-109.04899,-1.3874189,JOG
47967533885000,3.814936,2.52112898351539,13.141946417577,2.35166982974181,-3.3072245,-4.0836344,-0.22693644,93.62387,-107.21796,-2.115876,JOG
47967538874000,3.819925,2.89121221082423,14.9923625541212,-0.79878185898709,-1.9300288,-2.2256875,0.48258355,94.723946,-105.48812,-2.53128,JOG
47967543909000,3.82496,2.2883618144198,16.3340166612871,-2.47990843875248,-0.6462954,-0.1826487,0.981355,95.30171,-104.17506,-2.1125917,JOG
47967548890000,3.829941,0.937590226986138,17.254997150099,-2.98526698867327,0.35185838,1.4953982,1.146594,95.49056,-103.2033,-1.5098549,JOG
47967553883000,3.834934,-0.694233042155036,17.9275056532514,-3.47934846060666,1.0091494,2.4862216,1.0763446,95.24472,-102.95568,-0.7502937,JOG
47967559199000,3.84025,-2.68260138425654,18.4170276794211,-3.99410388622125,1.4269812,2.97583,0.84391034,94.67527,-102.981384,0.029299803,JOG
47967563867000,3.844918,-3.49302308979083,18.2115943213395,-3.59088460107465,1.9504927,3.086702,0.70463306,93.93681,-103.3095,0.62295276,JOG
47967568966000,3.850017,-3.56330543174055,17.4338040554596,-2.40545643876415,2.3020456,3.0250046,0.5131268,93.104225,-103.72224,1.1276329,JOG
47967573933000,3.854984,-3.45588166680362,16.0657036072309,-1.68745377896467,2.805704,2.728735,0.5381723,92.34623,-104.37847,1.3608603,JOG
47967578982000,3.860033,-3.12920002695152,13.9201999030403,-1.49762530024651,2.6801713,2.281887,0.6600399,91.651085,-104.94255,1.555514,JOG
47967583911000,3.864962,-2.68158810208021,11.6161309783616,-1.15449918463864,1.9920316,1.8894062,0.75533485,91.05317,-105.358444,1.7209405,JOG
47967589009000,3.87006,-1.83350158217885,8.60594712661377,-0.327353052322539,1.0977248,1.740966,0.8038987,90.52235,-105.67356,1.8939602,JOG
47967594008000,3.875059,-1.0993221374652,6.06934692966734,0.636090630778548,0.21135938,1.5213599,0.8185594,90.11933,-105.854965,2.0866106,JOG
47967599014000,3.880065,-0.505997199885807,4.13367695800053,1.82274049539191,-0.657291,0.9056077,0.7431176,89.86604,-105.78408,2.220217,JOG
47967603918000,3.884969,0.0388392732777778,2.37238782222222,3.10075730555556,-1.5137241,-0.04153884,0.62949663,89.78007,-105.493126,2.385887,JOG
47967608984000,3.890035,0.306427096677096,1.6474681153229,5.35822548054553,-2.2763894,-1.4437801,0.4877759,89.98579,-104.98306,2.438287,JOG
47967613940000,3.894991,0.512953504423814,1.25877894770938,7.26484022046418,-2.9077187,-3.2015448,0.35063666,90.55559,-104.18156,2.4534874,JOG
47967618985000,3.900036,0.317938398162462,3.2138053842886,6.9918190238446,-3.2070425,-4.6108108,0.37782016,91.42298,-103.261375,2.4154265,JOG
47967623968000,3.905019,0.0742654290943396,5.15271972830189,6.66509623245283,-3.0115657,-5.4131823,0.5839872,92.65135,-102.03312,2.3751805,JOG
47967628911000,3.909962,-0.466339122313803,7.12240067428004,6.00696886668322,-2.5372288,-5.6871552,0.8176431,94.13163,-100.79904,2.330495,JOG
47967633964000,3.915015,-1.00577505011264,9.12993866854407,5.28765407226133,-2.014939,-5.5127535,0.99265605,95.725266,-99.62886,2.3127015,JOG
47967639050000,3.920101,-1.45842277198442,11.1097008108514,4.24519260300385,-1.5158621,-4.932737,1.0986412,97.285416,-98.60937,2.3773878,JOG
47967644085000,3.925136,-1.90495501983326,13.0594462750347,3.18910761698935,-1.1145236,-3.9660425,1.1227703,98.68418,-97.77525,2.4309633,JOG
47967648989000,3.93004,-2.27475550657712,14.5386480402964,1.16608150764243,-0.86834496,-2.6682594,1.0418307,99.81477,-97.05944,2.5330114,JOG
47967653951000,3.935002,-2.64892965323761,16.0353444430755,-0.880871093209819,-0.8078693,-1.8771889,0.84665924,100.7935,-96.521675,2.5603373,JOG
47967658983000,3.940034,-3.5872096027131,16.9582320579124,-3.16552677816693,-1.0390818,-0.08002335,0.5873469,101.1043,-95.98038,2.6208224,JOG
47967663894000,3.944945,-4.60802398754933,17.7470430215075,-5.43451851983031,-1.3182472,1.6215417,0.43860126,101.20954,-95.45807,2.6747766,JOG
47967668982000,3.950033,-6.03261562763772,18.0546317258637,-5.37004911260504,-2.0231857,2.6471846,0.09040806,100.96218,-94.977425,2.5654645,JOG
47967673916000,3.954967,-7.50179405751634,18.2311095267974,-4.73031662352941,-2.6416867,2.7510316,-0.36987892,100.494576,-94.430115,2.4021194,JOG
47967678984000,3.960035,-8.50571225491401,17.6797272788698,-3.39589368877969,-3.1257975,2.0457878,-0.80970186,99.93168,-93.89357,2.010727,JOG
47967683917000,3.964968,-9.23601593703931,16.784984708231,-1.7660119041769,-3.3976326,0.90316427,-1.1334605,99.466576,-93.23053,1.5320915,JOG
47967688991000,3.970042,-9.2645411736527,16.1250317679641,-1.11494883871725,-3.488957,-0.2519819,-1.2247849,99.18644,-92.3224,0.8060486,JOG
47967694081000,3.975132,-9.00001356886228,15.568613998503,-0.877786732177208,-3.3890803,-1.1768318,-1.0931433,99.16846,-91.50896,0.069312766,JOG
47967698994000,3.980045,-8.41016976286579,15.0007568940464,-1.26632254633098,-3.1496212,-1.6832392,-0.7993172,99.349754,-90.97972,-0.7219495,JOG
47967704000000,3.985051,-7.57808769828456,14.4008830141271,-2.0887296596892,-2.8435776,-1.765706,-0.4596761,99.6772,-88.55656,-1.4382489,JOG
47967708969000,3.99002,-6.57067489670782,13.7152875925926,-3.22178762139918,-2.5967882,-1.3713925,-0.15577064,100.01429,-87.78714,-2.0320914,JOG
47967713989000,3.99504,-5.43187774384222,12.962523401084,-4.57772806624511,-2.449875,-0.7089091,0.03604105,100.29774,-87.01636,-2.545127,JOG
47967718977000,4.000028,-4.31242242048781,12.3714842310976,-5.54794925995935,-2.3811526,-0.0421497,0.15241088,100.47906,-86.44648,-2.8888094,JOG
47967723983000,4.005034,-3.19671078097561,11.8794020621951,-6.2787647199187,-2.3316727,0.44043383,0.2507602,100.52135,-85.9368,-3.17963,JOG
47967728988000,4.010039,-2.35686868065069,11.486173895145,-6.49452676107977,-2.2925773,0.6579019,0.33108896,100.47591,-85.69103,-3.295939,JOG
47967733980000,4.015031,-1.67308007791096,11.1490947267325,-6.42229561845286,-2.2721133,0.5644395,0.43676865,100.37998,-85.4806,-3.3765283,JOG
47967739027000,4.020078,-1.31688543926232,10.7887790889116,-6.50069568955265,-2.2351558,0.3191771,0.54061574,100.31869,-85.50659,-3.2630303,JOG
47967744084000,4.025135,-1.13465741798207,10.4175740996423,-6.65817659409114,-2.2015584,0.032375857,0.61300325,100.29438,-85.54629,-3.1289413,JOG
47967749026000,4.030077,-0.956573399558694,10.054810592233,-6.81207626390115,-2.1606305,-0.20769419,0.6618725,100.33566,-85.66998,-2.8617208,JOG
47967753974000,4.035025,-0.778273172290612,9.69160665968319,-6.96616278074046,-2.0851886,-0.29779682,0.68233645,100.41217,-85.79718,-2.5880806,JOG
47967758927000,4.039978,-0.676446461912932,9.36885931267424,-7.13200864936736,-1.9596558,-0.37873647,0.6844745,100.55013,-85.93028,-2.310714,JOG
47967763961000,4.045012,-0.722970856165559,9.12072834634355,-7.32327581942955,-1.8747455,-0.36835176,0.68203104,100.68293,-86.05432,-2.037388,JOG
47967768892000,4.049943,-0.795358292768362,8.86013661054614,-7.30636394839925,-1.6878207,-0.27152961,0.6609562,100.79085,-86.25455,-1.7306334,JOG
47967773937000,4.054988,-0.899995298135593,8.57352265480226,-7.05614524971751,-1.4886786,-0.17837265,0.6469063,100.89136,-86.46039,-1.4322433,JOG
47967778892000,4.059943,-0.999418131934092,8.26064043868184,-6.66856846174971,-1.2608259,-0.13652839,0.6395759,100.96457,-86.712074,-1.1667898,JOG
47967783948000,4.064999,-1.09439719446842,7.88072408936838,-5.99896582542173,-1.0045679,-0.16829337,0.63163465,101.02792,-87.01001,-0.9138736,JOG
47967788971000,4.070022,-1.18482043553045,7.50259308886199,-5.37511172459869,-0.7641924,-0.24801129,0.61269784,101.056786,-87.28505,-0.7108787,JOG
47967793974000,4.075025,-1.26645821494036,7.12448136997579,-4.84231802250919,-0.5503896,-0.3640757,0.59437186,101.1019,-87.615265,-0.5151176,JOG
47967798909000,4.07996,-1.36238398091015,6.74484268014993,-4.33736109232394,-0.37812558,-0.47311515,0.5739079,101.15496,-87.8865,-0.3515128,JOG
47967803947000,4.084998,-1.64766377626439,6.27616862045191,-4.07245846700454,-0.22388211,-0.54641896,0.52931476,101.22777,-88.20444,-0.2042828,JOG
47967808933000,4.089984,-1.92858717516372,5.83800643793411,-3.82657864453265,-0.10629055,-0.5928447,0.4352415,101.32554,-88.46763,-0.0964611,JOG
47967814560000,4.095611,-2.23872259114904,5.46905240077396,-3.6287335925382,0.025045475,-0.6065892,0.32528573,101.43131,-88.773094,-0.009825228,JOG
47967818955000,4.100006,-2.50692235863385,5.18439464876946,-3.50257438215972,0.16462818,-0.62980205,0.23182335,101.53248,-89.064865,-0.0025066796,JOG
47967823932000,4.104983,-2.92825943021597,4.87796743309895,-3.48821062517328,0.34055737,-0.6389651,0.15790866,101.631065,-89.404526,-0.023236305,JOG
47967828940000,4.109991,-3.32673825535171,4.57791165717764,-3.47411004670898,0.569021,-0.61636305,0.087964594,101.72177,-89.744255,-0.12147499,JOG
47967833948000,4.114999,-3.61030705667333,4.31519361443353,-3.46159966994174,0.850019,-0.5525276,0.018020526,101.80082,-90.320946,-0.24245022,JOG
47967839893000,4.120944,-3.92220675067121,4.02654285305659,-3.43676177850578,1.1563679,-0.4196644,-0.070554934,101.8463,-90.85536,-0.46126297,JOG
