timestamp,rel_time,acc_x,acc_y,acc_z,gyro_x,gyro_y,gyro_z,azimuth,pitch,roll,label
14002606146000,0,0.314950552858627,9.29730281726667,0.375225736969515,-0.11178834,-1.1994339,0.03756821,307.9471,-83.79158,-6.068551,STD
14002611147000,0.005001,0.362804443435948,9.32075122272514,0.436239448017745,-0.025350908,-1.1542299,0.040011674,308.11728,-83.776764,-6.0916805,STD
14002616169000,0.010023,0.410859280164463,9.34429809179381,0.497509365411109,0.06994407,-1.0684034,0.04520403,308.27002,-83.764854,-6.1163683,STD
14002621152000,0.015006,0.458540931183618,9.36766209987211,0.558303471020653,0.1572978,-0.9266826,0.03756821,308.39117,-83.75243,-6.14557,STD
14002626145000,0.019999,0.506318270846198,9.39107299538383,0.619219579651689,0.25228736,-0.73426,0.0106901415,308.4713,-83.738304,-6.1805263,STD
14002631132000,0.024986,0.554038197322722,9.4144557584355,0.68006248646983,0.33505958,-0.5006041,-0.023518313,308.49826,-83.719376,-6.221366,STD
14002636136000,0.02999,0.601920794493071,9.437918230124,0.741112798424508,0.37873647,-0.25381452,-0.05222898,308.46692,-83.69198,-6.2693324,STD
14002641152000,0.035006,0.649918218035531,9.46143696673261,0.802309514004976,0.4016439,-0.0015271631,-0.07391469,308.3692,-83.653885,-6.325283,STD
14002646164000,0.040018,0.69787736612062,9.48493694836785,0.863457428376847,0.40133846,0.2275473,-0.084910266,308.21112,-83.60636,-6.385505,STD
14002651154000,0.045008,0.745625999190172,9.50833377764955,0.924336936101436,0.39522982,0.4279111,-0.08277224,307.9941,-83.55245,-6.446332,STD
14002656250000,0.050104,0.79438893188004,9.53222761372561,0.986509675853841,0.3866777,0.59498274,-0.09254608,307.72748,-96.51142,-6.5110373,STD
14002661157000,0.055011,0.841343349209156,9.55523527730983,1.04637655850004,0.37965274,0.7312057,-0.09560041,307.4197,-96.575294,-6.5699744,STD
14002666138000,0.059992,0.889005862499625,9.57858990790144,1.10714626350529,0.37782016,0.8268061,-0.09193522,307.0841,-96.64163,-6.626101,STD
14002671145000,0.064999,0.936917166263002,9.60206644581997,1.16823317636642,0.37384954,0.89369583,-0.09285152,306.72662,-96.710815,-6.680493,STD
14002676144000,0.069998,0.984751919111637,9.62550547379175,1.22922248681035,0.36713,0.9221011,-0.099571034,306.36218,-96.78063,-6.731623,STD
14002681119000,0.074973,1.03235701921605,9.6488319719233,1.2899189900027,0.3622431,0.9334021,-0.10170906,305.993,-96.84894,-6.777857,STD
14002686199000,0.080053,1.08096685007644,9.67265078810587,1.35189652492072,0.3381139,0.90377516,-0.116675265,305.63687,-96.920685,-6.8262014,STD
14002691184000,0.085038,1.12866763882428,9.69602417367085,1.41271503113456,0.31703907,0.84696466,-0.1160644,305.29474,-96.98701,-6.8674054,STD
14002696182000,0.090036,1.17649282280857,9.71945851289929,1.47369214127634,0.27091873,0.7461719,-0.12705997,304.98245,-97.05618,-6.9134684,STD
14002701259000,0.095113,1.22507394707593,9.74326326285183,1.53563307528791,0.21380283,0.6188065,-0.1554652,304.70224,-97.125755,-6.9619956,STD
14002706264000,0.100118,1.27296611311062,9.76673042328368,1.59669558754474,0.14752395,0.4896085,-0.19242255,304.45865,-97.194695,-7.014186,STD
14002711165000,0.105019,1.31986311725368,9.78970995440784,1.65648926837805,0.051923547,0.34697145,-0.24648413,304.26138,-97.2678,-7.077874,STD
14002716201000,0.110055,1.36805191808299,9.81332246588332,1.7179299900015,-0.032070424,0.2144137,-0.2947425,304.10315,-97.34284,-7.1487284,STD
14002721179000,0.115033,1.41568572478043,9.8366630302449,1.7786630941003,-0.12339478,0.08155051,-0.33933565,303.98953,-97.42203,-7.2322087,STD
14002726143000,0.119997,1.46318556737708,9.85993795219968,1.83922539396901,-0.20922135,-0.048258353,-0.36163223,303.9158,-97.50041,-7.320925,STD
14002731145000,0.124999,1.51104902681874,9.88339104640149,1.90025130531938,-0.29565877,-0.18906279,-0.37904188,303.88498,-97.581604,-7.4186363,STD
14002736194000,0.130048,1.55936222288451,9.90706451154042,1.96185063087078,-0.3830125,-0.33475417,-0.38606682,303.89365,-97.65916,-7.517148,STD
14002741185000,0.135039,1.6071204248184,9.93046602956546,2.02274233889752,-0.46731192,-0.46914452,-0.38759398,303.93927,-97.73445,-7.6162944,STD
14002746173000,0.140027,1.60716141465793,9.93375978460678,2.04314110507513,-0.5510005,-0.58001655,-0.3827071,304.01883,-97.80549,-7.7127156,STD
14002751263000,0.145117,1.56917604380395,9.92109801805267,2.03169679465813,-0.6200282,-0.6719518,-0.37568212,304.12936,-97.87407,-7.805964,STD
14002756205000,0.150059,1.53229515917519,9.90880441288363,2.02058524611573,-0.66248333,-0.729984,-0.35735616,304.14667,-97.7231,-7.696578,STD
14002761180000,0.155034,1.49516800396919,9.89642871767603,2.00939950066886,-0.6976081,-0.75808376,-0.33567044,304.1801,-97.5899,-7.586204,STD
14002766210000,0.160064,1.45763039780111,9.88391620573749,1.99809009371453,-0.69027776,-0.7483099,-0.3042109,304.2172,-82.52874,-7.469636,STD
14002771189000,0.165043,1.42047339161605,9.87153056022219,1.98689535470348,-0.6588182,-0.711658,-0.27030787,304.25208,-82.63212,-7.348061,STD
14002776191000,0.170045,1.38314474230139,9.85908770043758,1.97564890269841,-0.59956425,-0.64476824,-0.22418754,304.2727,-82.727585,-7.2162356,STD
14002781116000,0.17497,1.34639072433364,9.84683638407629,1.96457557680377,-0.5155703,-0.6059783,-0.17501289,304.28815,-82.81637,-7.0762005,STD
14002786149000,0.180003,1.30883072993127,9.83431640940697,1.95325942467631,-0.42485678,-0.516792,-0.14721853,304.26736,-82.898315,-6.932449,STD
14002791148000,0.185002,1.2715244688509,9.82188101235314,1.94201971784437,-0.35918877,-0.39645153,-0.09712757,304.22388,-82.98843,-6.771998,STD
14002796140000,0.189994,1.2342704469839,9.8094630283378,1.93079574974974,-0.24312437,-0.2773328,-0.036651913,304.15308,-83.08644,-6.604779,STD
14002801165000,0.195019,1.19677015453964,9.79696295428389,1.91949758475064,-0.1432479,-0.15241088,0.004276057,304.04477,-83.18582,-6.433746,STD
14002806149000,0.200003,1.15957583463075,9.78456487088395,1.90829160378437,-0.036651913,-0.054061573,0.041233405,303.90897,-83.30194,-6.2515674,STD
14002811139000,0.204993,1.12233673825328,9.77215186202246,1.89707213247183,0.057421334,0.02565634,0.07819075,303.7426,-83.42911,-6.063074,STD
14002816172000,0.210026,1.0847767438509,9.75963188735314,1.88575598034437,0.12522738,0.07727446,0.111177474,303.55676,-83.56564,-5.870267,STD
14002821151000,0.215005,1.04761973766584,9.74724624183784,1.87456124133332,0.18112154,0.11728613,0.14202617,303.3526,-83.713135,-5.672751,STD
14002826143000,0.219997,1.01036571579883,9.73482825782249,1.86333727323869,0.22327125,0.14844026,0.15943582,303.1379,-83.86485,-5.4746957,STD
14002831113000,0.224967,0.973275874316656,9.72246500049952,1.85216276974704,0.25259277,0.17989981,0.17073683,302.91364,-84.02098,-5.2746887,STD
14002836159000,0.230013,0.935618864232337,9.70991268733016,1.84081738853601,0.2657264,0.21380283,0.17806722,302.68207,-84.17648,-5.075916,STD
14002841751000,0.235605,0.893887195506314,9.69600215715913,1.82824438581462,0.2938262,0.23884831,0.17379116,302.44675,-84.33076,-4.882082,STD
14002846121000,0.239975,0.861275000883152,9.68513144599185,1.81841891694973,0.31123585,0.27305678,0.16890424,302.20184,-84.479744,-4.691437,STD
14002851152000,0.245006,0.823729931970308,9.67261644647638,1.80710726160436,0.30787608,0.29657507,0.16340645,301.95596,-84.62131,-4.5067205,STD
14002856153000,0.250007,0.786408745400416,9.6601760742687,1.79586305799033,0.29810223,0.31429017,0.15699236,301.70526,-84.75591,-4.328237,STD
14002861138000,0.254992,0.749206962746763,9.64777550329184,1.78465482863301,0.28710666,0.32589662,0.14202617,301.45313,-84.87927,-4.1580453,STD
14002866189000,0.260043,0.711512638938619,9.63521075223785,1.77329820546675,0.2660318,0.32834008,0.119729586,301.2021,-84.988976,-3.995778,STD
14002871144000,0.264998,0.674534738627917,9.62288480856877,1.76215742784077,0.24770586,0.29626966,0.10323623,300.96118,-85.08808,-3.8394244,STD
14002876145000,0.269999,0.637213552058024,9.61044443636109,1.75091322422674,0.22815818,0.2657264,0.09407325,300.72266,-85.17292,-3.6908252,STD
14002881114000,0.274968,0.600131173320612,9.59808366661505,1.73974096912614,0.20647246,0.24984388,0.07422013,300.49268,-85.24126,-3.5529976,STD
14002886156000,0.28001,0.562504014215353,9.5855413037534,1.72840458147928,0.19547687,0.19792034,0.065973446,300.28467,-85.30179,-3.4165642,STD
14002891147000,0.285001,0.525257455093111,9.57312580731498,1.7171828617757,0.14935656,0.14996742,0.041233405,300.08344,-85.33705,-3.293281,STD
14002896122000,0.289976,0.488130299887108,9.56075011210738,1.70599711632882,0.115453534,0.09040806,0.010079277,299.9031,-85.36326,-3.1760082,STD
14002901141000,0.294995,0.450674783911445,9.54826496351503,1.69471244167599,0.065973446,0.046731193,-0.0018325958,299.7342,-85.36951,-3.0624325,STD
14002906149000,0.300003,0.413301358128197,9.53580717826886,1.68345249932465,0.022296581,0.0125227375,-0.024129177,299.58215,-85.35627,-2.9622693,STD
14002911113000,0.304967,0.37625629311461,9.52345884640745,1.67229148617927,-0.04550946,-0.007941248,-0.03176499,299.44012,-85.32202,-2.8630872,STD
14002916182000,0.310036,0.338427639900695,9.51084931896879,1.6608943919742,-0.08460484,-0.021380283,-0.05589417,299.30783,-85.27282,-2.7765698,STD
14002921148000,0.315002,0.301367649397578,9.49849601195353,1.64972888204674,-0.12736541,-0.008552114,-0.056199603,299.17462,-85.20557,-2.6875057,STD
14002926143000,0.319997,0.264091239296276,9.4860705652074,1.63849816877897,-0.15149458,-0.004581489,-0.058948494,299.04922,-85.125435,-2.6073203,STD
14002931114000,0.324968,0.226993935069333,9.47370482030751,1.62732141689628,-0.16310102,0.0125227375,-0.05955936,298.91727,-85.03515,-2.52879,STD
14002936120000,0.329974,0.189635434775615,9.46125201021519,1.61606597132703,-0.1853976,0.016187929,-0.05100725,298.78876,-84.93438,-2.4497962,STD
14002941143000,0.334997,0.152150067820892,9.44875691131514,1.60477230311001,-0.18142697,0.019242255,-0.04917465,298.65665,-84.83388,-2.3747442,STD
14002946116000,0.33997,0.131894260007653,9.4405509540231,1.60138657085154,-0.17470746,0.024740042,-0.05222898,298.52368,-84.727,-2.3003018,STD
14002951268000,0.345122,0.127489431297119,9.43614611322617,1.6055466863463,-0.17195857,0.01985312,-0.060170226,298.3938,-84.61811,-2.2280416,STD
14002956199000,0.350053,0.123273551954797,9.43193022231591,1.60952834968183,-0.15393804,0.020463986,-0.061391957,298.20422,-84.55133,-2.2794855,STD
14002961144000,0.354998,0.11904570296924,9.42770236172956,1.61352131767903,-0.13683382,0.019242255,-0.06719518,298.02145,-84.48383,-2.3310235,STD
14002966186000,0.36004,0.114734921455553,9.42339156838753,1.6175926108321,-0.12980886,0.017715093,-0.08277224,297.84335,-84.41727,-2.3826094,STD
14002971148000,0.365002,0.11049253790321,9.41914917319453,1.62159930591847,-0.129198,0.018020526,-0.09712757,297.66946,-84.35312,-2.432539,STD
14002976142000,0.369996,0.10622279516633,9.41487941874191,1.62563184023152,-0.13622294,0.02565634,-0.10415252,297.4983,-84.288086,-2.4820285,STD
14002981127000,0.374981,0.101960747200101,9.41061735908106,1.62965710726207,-0.1459968,0.03145956,-0.10170906,297.33163,-84.22232,-2.5299404,STD
14002986161000,0.380015,0.0976568054825491,9.40631340555393,1.63372194060846,-0.15699236,0.03023783,-0.112704635,297.16913,-84.152405,-2.580818,STD
14002991143000,0.384997,0.0933973224398705,9.40205391082366,1.63774478521151,-0.172264,0.030848695,-0.10598512,297.00757,-84.08208,-2.6234186,STD
14002996112000,0.389966,0.0891489540659101,9.39780553079262,1.64175713262872,-0.1853976,0.021991149,-0.10170906,296.85287,-84.00858,-2.6668642,STD
14003001146000,0.395,0.0848450123483581,9.39350157726549,1.64582196597511,-0.1966986,-0.006414085,-0.089186326,296.70648,-83.93446,-2.7029974,STD
14003006152000,0.400006,0.0805650099172763,9.38922156309052,1.64986418999816,-0.20189096,-0.06047566,-0.08674286,296.57315,-83.85878,-2.7374814,STD
14003011138000,0.404992,0.0763021069765305,9.38495864845281,1.65389026450455,-0.1957823,-0.12889257,-0.099265605,296.45483,-83.78383,-2.7693844,STD
14003016110000,0.409964,0.0720511736790198,9.38070770349117,1.65790503434926,-0.17623462,-0.21135938,-0.1133155,296.3582,-83.712234,-2.7972503,STD
14003021151000,0.415005,0.0677412471398501,9.376397765126,1.66197552002649,-0.1563815,-0.31948254,-0.14049901,296.2909,-83.64028,-2.8279974,STD
14003026140000,0.419994,0.0634757792755539,9.3721322855577,1.66600401696037,-0.12003502,-0.44806966,-0.16768251,296.2546,-83.57712,-2.85816,STD
14003031127000,0.424981,0.0592120213602912,9.36786851594312,1.67003089894258,-0.08582657,-0.56291234,-0.19914207,296.2467,-83.515976,-2.8929534,STD
14003036157000,0.430011,0.0549114995408064,9.36356798232345,1.67409250238564,-0.06169739,-0.6994407,-0.22113322,296.28204,-83.46088,-2.9269378,STD
14003041143000,0.434997,0.0506485966000605,9.35930506768573,1.67811857689202,-0.035124753,-0.816116,-0.24740042,296.34476,-83.41214,-2.966896,STD
14003046110000,0.439964,0.0464019381751338,9.35505839760841,1.68212930935756,0.005192355,-0.9049969,-0.26267207,296.43726,-83.373375,-3.0055172,STD
14003051267000,0.445121,0.0419928345920158,9.35064928192716,1.68629346223149,0.08032878,-0.95386606,-0.2660318,296.5499,-83.35009,-3.0448375,STD
14003056191000,0.450045,0.0377829400713113,9.34643937585494,1.69026947323619,0.1872302,-0.97035944,-0.2751948,296.67667,-83.34383,-3.08752,STD
14003061146000,0.455,0.0335465413405861,9.34220296549997,1.69427051599173,0.3323107,-0.958753,-0.27397305,296.80658,-83.36797,-3.1269448,STD
14003066112000,0.459966,0.0293007378901762,9.33795715039951,1.69828044098144,0.5030475,-0.9211848,-0.2669481,296.93146,-83.424835,-3.1671503,STD
14003071151000,0.465005,0.0249925213000402,9.33364892198807,1.702349311707,0.67103547,-0.8720101,-0.25411993,297.04773,-83.516495,-3.205901,STD
14003076146000,0.47,0.0207219235886432,9.32937831255859,1.70638265349588,0.8173377,-0.84604836,-0.2302962,297.15823,-83.64404,-3.2401366,STD
14003081125000,0.474979,0.0164650054695149,9.32512138275891,1.71040307567143,0.93951076,-0.77671516,-0.22082779,297.24197,-83.80093,-3.2778702,STD
14003086158000,0.480012,0.0121619187264796,9.32081828420865,1.71446710154199,0.98440933,-0.7180721,-0.19822577,297.3205,-83.972664,-3.306257,STD
14003091143000,0.484997,0.00789987076025057,9.31655622454779,1.71849236857253,1.0112875,-0.66706485,-0.15271631,297.38147,-84.16554,-3.3279018,STD
14003096117000,0.489971,0.00364722751370628,9.31230356963243,1.72250875336891,0.98868537,-0.6600399,-0.10293079,297.4389,-84.352264,-3.343179,STD
14003101181000,0.495035,-0.00068236343934968,9.30797396679942,1.72659781099031,0.9279043,-0.65270954,-0.022907447,297.48157,-84.53988,-3.3392417,STD
14003106192000,0.500046,-0.00496664074301543,9.30368967774014,1.73064407239253,0.8258898,-0.65118235,0.05009095,297.52444,-84.71204,-3.3245902,STD
14003111144000,0.504998,-0.0092004745501902,9.29945583231576,1.73464269272057,0.6960809,-0.6591236,0.13255776,297.56738,-84.87326,-3.2863252,STD
14003116170000,0.510024,-0.0134975764716079,9.29515871860353,1.7387010662603,0.55924714,-0.6536258,0.19914207,297.60583,-85.015076,-3.2344015,STD
14003121157000,0.515011,-0.0177613343868705,9.29089494898895,1.74272794824251,0.41447207,-0.61850107,0.26358834,297.63687,-85.13708,-3.1626942,STD
14003126146000,0.52,-0.0220268022511668,9.28662946942065,1.74675644517639,0.2864958,-0.52503866,0.32498032,297.64835,-85.240814,-3.0770242,STD
14003131126000,0.52498,-0.0262845753448118,9.28237168464411,1.75077767482777,0.16982053,-0.41141775,0.35735616,297.64294,-85.31827,-2.9853904,STD
14003136155000,0.530009,-0.0305842421897799,9.2780720060013,1.754838470795,0.08368854,-0.27152961,0.3680463,297.6023,-85.377625,-2.8878317,STD
14003141144000,0.534998,-0.0348497100540762,9.273806526433,1.75886696772888,-0.009162978,-0.12644911,0.3662137,297.52734,-85.408775,-2.789848,STD
14003146123000,0.539977,-0.0913552775490949,9.26936660888645,1.7503439425672,-0.062308256,0.01985312,0.36071593,297.41254,-85.426285,-2.69521,STD
14003151169000,0.545023,-0.377644542865387,9.26406484893033,1.68672409635765,-0.11178834,0.1414153,0.36193767,297.26443,-85.41975,-2.6037633,STD
14003156081000,0.549935,-0.617106608110383,9.25077438203347,1.62221672467952,-0.15027285,0.2125811,0.34483343,297.04953,-85.4044,-2.5270293,STD
14003161142000,0.554996,-0.792595809936393,9.22231659545944,1.55107245634602,-0.19547687,0.24129178,0.32070425,296.81558,-85.37053,-2.4549813,STD
14003166840000,0.560694,-0.911554300476643,9.19452278844022,1.46840575376089,-0.24617869,0.20463985,0.28008172,296.55383,-85.34066,-2.4229429,STD
14003171153000,0.565007,-0.914824664314331,9.17817095217736,1.40299840870942,-0.2773328,0.11728613,0.2406809,296.30353,-85.29867,-2.396885,STD
14003176077000,0.569931,-0.91855832337688,9.15950263737134,1.32832514948535,-0.312763,0.06719518,0.21410827,296.0302,-85.26709,-2.3943791,STD
14003181135000,0.574989,-0.835135618816503,9.16691380887372,1.18566582323831,-0.31337386,-0.048258353,0.16218472,295.80634,-85.22549,-2.4060383,STD
14003186093000,0.579947,-0.730277178694037,9.1812124778157,1.02837812572777,-0.3304781,-0.17256944,0.10445796,295.60394,-85.165375,-2.4243631,STD
14003191143000,0.584997,-0.591328540186175,9.23394448557604,0.757721365883871,-0.3268129,-0.2929099,0.057421334,295.4079,-85.14603,-2.4422228,STD
14003196112000,0.589966,-0.446593422510599,9.29534781539171,0.463865220929032,-0.3277292,-0.38759398,0.021991149,295.24426,-85.11342,-2.4696283,STD
14003201188000,0.595042,-0.289986984023275,9.38881360681629,0.0976866234081463,-0.310625,-0.48197266,-0.01160644,295.09116,-85.13147,-2.4877493,STD
14003206119000,0.599973,-0.132968747279717,9.4967635158458,-0.294858963327099,-0.31306845,-0.5540548,-0.040011674,294.9623,-85.137955,-2.5118911,STD
14003211142000,0.604996,-0.019924303875394,9.55732303838309,-0.733670765785277,-0.2950479,-0.58184916,-0.04886922,294.8332,-85.225685,-2.5193365,STD
14003216123000,0.609977,0.0729501216892268,9.59712624355646,-1.18477513699981,-0.269697,-0.5748242,-0.06352998,294.71854,-85.30524,-2.5354455,STD
14003221147000,0.615001,0.157344176865815,9.59814495282215,-1.65448462812567,-0.23762658,-0.5494733,-0.08582657,294.5913,-85.46792,-2.5414755,STD
14003226142000,0.619996,0.233759745507987,9.56757863812567,-2.13335549090522,-0.18325958,-0.4877759,-0.09987647,294.45627,-85.632256,-2.550412,STD
14003231120000,0.624974,0.316133908701103,9.54553514798756,-2.48880246027901,-0.1255328,-0.41141775,-0.108123146,294.3128,-85.87956,-2.5594606,STD
14003236128000,0.629982,0.402028180040532,9.52745225082477,-2.7871720572627,-0.05131268,-0.35246924,-0.113926366,294.16278,-86.12258,-2.5726762,STD
14003241142000,0.634996,0.496727584421488,9.53339461157025,-2.92373578099174,0.03604105,-0.2864958,-0.12186762,293.99274,-86.43219,-2.5831132,STD
14003246113000,0.639967,0.597609773680865,9.55861514176732,-2.92877999237126,0.115453534,-0.23151793,-0.116980694,293.81665,-86.71727,-2.5921352,STD
14003251163000,0.645017,0.763619734072593,9.61108007317787,-2.73944155103913,0.1881465,-0.19608775,-0.13164146,293.64853,-86.99376,-2.605382,STD
14003256150000,0.650004,0.959336429719973,9.67631883061762,-2.45518634639477,0.22449298,-0.18417588,-0.14569137,293.47794,-87.20328,-2.617053,STD
14003261132000,0.654986,1.14764018009773,9.71236327626386,-2.0975115491449,0.23426682,-0.18936823,-0.15699236,293.3322,-87.33316,-2.6215813,STD
14003266112000,0.659966,1.3313831810374,9.73028977880098,-1.69417329092276,0.19792034,-0.21013765,-0.1863139,293.19208,-87.36496,-2.635027,STD
14003271151000,0.665005,1.49557222083812,9.75186798129376,-1.32263914455011,0.119729586,-0.23854288,-0.1966986,293.01578,-92.633934,-2.6006932,STD
14003276141000,0.669995,1.63540616325635,9.7768383188421,-0.993030480321873,0.014049901,-0.24617869,-0.20066923,292.84354,-92.69841,-2.5731366,STD
14003281120000,0.674974,1.70317345274378,9.79288259978287,-0.793092290307935,-0.05100725,-0.2565634,-0.20586158,292.68732,-92.74548,-2.5217342,STD
14003286126000,0.67998,1.71736851614686,9.80234567893802,-0.68899505986972,-0.18051068,-0.2666427,-0.20616703,292.53534,-92.79379,-2.4708407,STD
14003291144000,0.684998,1.63578128942488,9.79111279954622,-0.649414600226892,-0.2959642,-0.2761111,-0.20250183,292.38275,-92.7961,-2.400448,STD
14003296109000,0.689963,1.47630007234882,9.7629689833284,-0.6634865083358,-0.37659842,-0.2968805,-0.18997909,292.23758,-92.78866,-2.3288407,STD
14003301149000,0.695003,1.19983429128325,9.71943226230647,-0.667896758912267,-0.41630468,-0.35155296,-0.16829337,292.10687,-92.75519,-2.252138,STD
14003306121000,0.699975,0.821780469842199,9.66272451994839,-0.663171089043271,-0.39858958,-0.42119157,-0.13500121,291.9876,-92.715645,-2.1701884,STD
14003311146000,0.705,0.405241547683215,9.56094991583925,-0.619558295602837,-0.34055737,-0.49480084,-0.11026118,291.86496,-92.70541,-2.107872,STD
14003316133000,0.709987,-0.0418689865910166,9.41642924955083,-0.538265456184397,-0.24220806,-0.5494733,-0.101098195,291.75864,-92.705185,-2.042502,STD
14003321146000,0.715,-0.452298495633188,9.25331909315866,-0.430277893512858,-0.12156218,-0.5580254,-0.1255328,291.60522,-92.78716,-2.02505,STD
14003326152000,0.720006,-0.801217657484716,9.06257664832606,-0.281405710405628,-0.03390302,-0.5030475,-0.15760323,291.4545,-92.883354,-2.0080037,STD
14003331118000,0.724972,-1.08058013090348,8.91697758082367,-0.0645937643769288,0.02107485,-0.41141775,-0.19211712,291.3035,-93.035614,-2.0530767,STD
14003336101000,0.729955,-1.22277390956688,8.86111569564755,0.295968882663616,0.021685716,-0.29779682,-0.21685717,291.13562,-93.194954,-2.1017718,STD
14003341102000,0.734956,-1.28145019332076,8.84661238011116,0.613469742889043,-0.01160644,-0.19120082,-0.22449298,290.97543,-93.35453,-2.188978,STD
14003346124000,0.739978,-1.23371821652441,8.88479772231044,0.875995515586542,-0.106901415,-0.12492194,-0.23701571,290.79852,-93.49979,-2.2800837,STD
14003351102000,0.744956,-1.12405198410645,8.94774290402647,1.07354258764479,-0.22632557,-0.096516706,-0.23854288,290.61856,-93.57905,-2.38521,STD
14003356143000,0.749997,-0.928779488176135,9.04537926089355,1.18893088301158,-0.37904188,-0.10842858,-0.23945917,290.43372,-93.63064,-2.489405,STD
14003361072000,0.754926,-0.761171510951157,9.11470728534704,1.24596964832905,-0.5122105,-0.13439035,-0.24556783,290.22177,-93.62497,-2.584691,STD
14003366144000,0.759998,-0.661277294873008,9.10471766190231,1.13109132565553,-0.6062838,-0.18020524,-0.2648101,290.02112,-93.60279,-2.6804316,STD
14003371079000,0.764933,-0.545252750686494,9.10531588673864,1.00493950147688,-0.6579019,-0.19822577,-0.27305678,289.78607,-93.53673,-2.74042,STD
14003376171000,0.770025,-0.381344787060501,9.13015040782237,0.841031506732532,-0.66981375,-0.24556783,-0.26725355,289.57547,-93.46867,-2.7990794,STD
14003381084000,0.774938,-0.242077434713351,9.18070778493994,0.670867500502979,-0.66889745,-0.2828306,-0.2611449,289.40666151702,-93.4144415340653,-2.83196278116007,STD
14003396118000,0.789972,0.074310745994726,9.49006548198066,0.0802762508936419,-0.5674938,-0.31673363,-0.19242255,288.8901,-93.2485,-2.9325874,STD
14003401191000,0.795045,0.158299490496248,9.58624466693347,-0.102531720092046,-0.5571091,-0.312763,-0.15393804,288.76398,-93.201675,-2.9322522,STD
14003406067000,0.799921,0.17698743494047,9.65632442201101,-0.233347355593797,-0.5555819,-0.3222314,-0.13103059,288.643,-93.157295,-2.9282753,STD
14003411038000,0.804892,0.185692368549024,9.71205077596593,-0.341032000230577,-0.5876524,-0.364992,-0.10048734,288.5454,-93.10656,-2.9035301,STD
14003416089000,0.809943,0.160571654430827,9.71707502056502,-0.366152709102617,-0.60903263,-0.44684792,-0.0693332,288.46378,-93.05237,-2.8727212,STD
14003421066000,0.81492,0.134851086385296,9.72485944247788,-0.393340112791014,-0.60903263,-0.5696318,-0.052839845,288.42825,-93.00516,-2.8443213,STD
14003426072000,0.819926,0.106877832953418,9.73884586472819,-0.425975586487406,-0.5681047,-0.6899723,-0.028710667,288.41638,-92.951096,-2.8061094,STD
14003431057000,0.824911,0.0874357692202978,9.77159023457915,-0.468777574801985,-0.5009095,-0.8042041,-0.018020526,288.43985,-92.90471,-2.7716446,STD
14003436081000,0.829935,0.0923090461671225,9.85930948830143,-0.541876754447483,-0.40011674,-0.8958339,-0.003970624,288.49072,-92.859116,-2.73112,STD
14003441066000,0.83492,0.097107855176575,9.94702796184561,-0.600460979094942,-0.28313604,-0.94134337,0.025045475,288.57782,-92.824936,-2.6965036,STD
14003446043000,0.839897,0.101807038182786,10.0363121916593,-0.623956835244011,-0.19364429,-0.9575313,0.049480084,288.68085,-92.79627,-2.6608882,STD
14003451268000,0.845122,0.110687215455746,10.1355851075675,-0.594900564064918,-0.13103059,-0.9669997,0.0711658,288.80188,-92.78029,-2.627258,STD
14003456143000,0.849997,0.128308247490092,10.2413116125684,-0.440716531464427,-0.08093964,-0.95264435,0.086132,288.91898,-92.77039,-2.59068,STD
14003461119000,0.854973,0.139479460647693,10.339633940148,-0.278292504371927,-0.0580322,-0.91965765,0.10476339,289.04755,-92.76377,-2.5536096,STD
14003466163000,0.860017,0.110687678304277,10.3828214833855,-0.0839479735538668,-0.032070424,-0.8885035,0.11178834,289.17072,-92.766884,-2.5179179,STD
14003471142000,0.864996,0.0822669240838425,10.4254524861173,0.107892117434063,-0.010995574,-0.8750645,0.12492194,289.28467,-92.749146,-2.470042,STD
14003476142000,0.869996,0.0537262992390602,10.4682632942433,0.300541335136343,-0.0027488936,-0.86254174,0.13225232,289.38834,-92.73669,-2.4240742,STD
14003481156000,0.87501,0.0142224146719682,10.5033390134195,0.480749027584493,0.01282817,-0.87995136,0.13652839,289.50027,-92.73231,-2.384197,STD
14003486133000,0.879987,-0.0994883609463221,10.4843873296223,0.570770084667992,0.018936822,-0.9129381,0.1459968,289.61163,-92.72825,-2.3429432,STD
14003491146000,0.885,-0.213517324220078,10.4555624410163,0.652773446948133,0.008857546,-0.9370673,0.14905111,289.70636,-92.691376,-2.30765,STD
14003496134000,0.889988,-0.32302717995415,10.3506152831216,0.666462169385806,0.00061086525,-0.9596693,0.13958271,289.80798,-92.65817,-2.2748425,STD
14003501510000,0.895364,-0.433479640429594,10.2333046572792,0.677850515064439,-0.016798794,-0.95447695,0.1337795,289.90845,-92.62481,-2.256253,STD
14003506176000,0.90003,-0.459075089221957,10.0925299895943,0.656520961783294,-0.027794369,-0.92087936,0.12522738,290.0047,-92.59571,-2.2416713,STD
14003511134000,0.904988,-0.486272310634845,9.94294559131265,0.633856597195227,-0.029321533,-0.83199847,0.12736541,290.09158,-92.57456,-2.2390273,STD
14003516128000,0.909982,-0.479559101282026,9.82928132181252,0.658643366904451,-0.04062254,-0.70066243,0.13347405,290.1543,-92.552895,-2.237093,STD
14003521108000,0.914962,-0.469975550855019,9.71907036431227,0.687394008178439,-0.058643065,-0.55955255,0.13805555,290.18695,-92.531075,-2.2342463,STD
14003526139000,0.919993,-0.393311426345711,9.69301102342108,0.774417728595736,-0.08124508,-0.42760566,0.13958271,290.2037,-92.51104,-2.2364438,STD
14003531099000,0.924953,-0.312487057213492,9.6739936357722,0.864750841197077,-0.15393804,-0.31490102,0.13622294,290.185,-92.48351,-2.2376573,STD
14003536171000,0.930025,-0.17044159442015,9.78665313446361,0.98117991743155,-0.2443461,-0.23732115,0.13591751,290.13968,-92.4511,-2.2401679,STD
14003541138000,0.934992,-0.026759630903537,9.90716059807074,1.09705248231511,-0.36132678,-0.20525073,0.13500121,290.07574,-92.411354,-2.242719,STD
14003546148000,0.940002,0.101391297881633,10.0818590670554,1.22598759883382,-0.4578435,-0.21471913,0.13958271,289.9943,-92.35258,-2.2325919,STD
14003551144000,0.944998,0.226934017987755,10.2631983304179,1.35618000874636,-0.5491679,-0.24037547,0.15057829,289.909,-92.291725,-2.2201076,STD
14003556142000,0.949996,0.304309745065421,10.4130676504673,1.47493558037383,-0.59589905,-0.23609942,0.17562376,289.82523,-92.20837,-2.1801744,STD
14003561138000,0.954992,0.371383197547664,10.5561577596262,1.59119623570093,-0.6267477,-0.25595254,0.20861048,289.7552,-92.13812,-2.1348734,STD
14003566119000,0.959973,0.361796423496312,10.6632304848261,1.72404314722866,-0.6310238,-0.2764165,0.24281894,289.6753,-87.93535,-2.059761,STD
14003571082000,0.964936,0.316720846743941,10.7533818893572,1.86427828187566,-0.6102544,-0.3368922,0.2565634,289.6115,-87.978264,-1.9821489,STD
14003576137000,0.969991,0.226523812441331,10.7396504736083,1.90191729766841,-0.6102544,-0.3652974,0.29016098,289.54724,-88.0028,-1.8764362,STD
14003581101000,0.974955,0.125430203900889,10.6963245217589,1.90913830221007,-0.61483586,-0.3491095,0.31490102,289.48572,-87.98588,-1.7713689,STD
14003586142000,0.979996,0.00528239298143053,10.6338584264099,1.90890001643741,-0.636827,-0.30665436,0.3399465,289.42853,-87.91428,-1.6606889,STD
14003591184000,0.985038,-0.212949865369326,10.467812258597,1.86620238089016,-0.68508536,-0.26297748,0.35246924,289.36414,-87.796936,-1.5489872,STD
14003596127000,0.989981,-0.444929786526598,10.3152571942333,1.82998350724184,-0.7672467,-0.2180789,0.3567453,289.30438,-87.62478,-1.4436276,STD
14003601242000,0.995096,-0.828141158252123,10.23861470038,1.83728276696469,-0.82558435,-0.17989981,0.3491095,289.23175,-87.41921,-1.3406221,JOG
14003606173000,1.000027,-1.19756740927433,10.1647292385636,1.84431945312174,-0.87109387,-0.1469131,0.32375857,289.15228,-87.17281,-1.268241,JOG
14003611151000,1.005005,-1.51750174710417,10.1796500963079,1.84621387044325,-0.9062186,-0.16982053,0.28955013,289.07605,-86.902504,-1.2014399,JOG
14003616117000,1.009971,-1.76834247137641,10.3098946410894,1.84139001520438,-0.945314,-0.226631,0.25900686,288.9986,-86.611725,-1.1415025,JOG
14003621148000,1.015002,-2.00453462275449,10.4703747005988,1.79780175389222,-0.98624194,-0.33169982,0.22052236,288.96576,-86.28923,-1.1412379,JOG
14003626141000,1.019995,-2.21798001825803,10.6629957798585,1.70929997271639,-1.028697,-0.44532076,0.16401732,288.95026,-85.95577,-1.1528292,JOG
14003631145000,1.024999,-2.37240379830777,10.8598701209302,1.53983587212271,-1.0790935,-0.5653558,0.12308934,288.9801,-85.60808,-1.1920459,JOG
14003636165000,1.030019,-2.49134386797625,11.0596894697674,1.320986177714,-1.1273518,-0.6591236,0.08307768,289.03314,-85.2522,-1.2435286,JOG
14003641202000,1.035056,-2.56110967713044,11.2134080926237,1.12494240593463,-1.1722504,-0.74067414,0.05955936,289.1574,-84.89263,-1.3121325,JOG
14003646114000,1.039968,-2.59827082210921,11.3341820805767,0.948427282561469,-1.2311989,-0.79198676,0.03268129,289.29712,-84.52158,-1.3888483,JOG
14003651138000,1.044992,-2.56918862400154,11.4214494808026,0.77560308946556,-1.2626585,-0.83260936,0.018936822,289.47333,-84.19245,-1.4796004,JOG
14003656155000,1.050009,-2.49039287842948,11.4817047833301,0.608741618792205,-1.2922854,-0.8524625,0.009162978,289.6544,-83.85471,-1.5726247,JOG
14003661143000,1.054997,-2.36451116711527,11.5136774899551,0.418374041205383,-1.321607,-0.8524625,-0.005192355,289.8506,-83.54871,-1.6730822,JOG
14003666123000,1.059977,-2.19242011328262,11.5183286953384,0.204422896559391,-1.3332134,-0.8338311,-0.01863139,290.0425,-83.24702,-1.7724484,JOG
14003671152000,1.065006,-2.0003765496249,11.5188792881356,0.00944375709919422,-1.3393221,-0.7800749,-0.023823744,290.24615,-82.97803,-1.8557808,JOG
14003676142000,1.069996,-1.78792516210985,11.5144531299435,-0.158746861906085,-1.3420709,-0.6881397,-0.043982297,290.42926,-82.71256,-1.9457505,JOG
14003681123000,1.074977,-1.55918427433958,11.5142824233063,-0.294009397428632,-1.3631458,-0.60048056,-0.062002823,290.59448,-82.495316,-2.0152357,JOG
14003686144000,1.079998,-1.28771937396677,11.524526589689,-0.350351167993183,-1.3918564,-0.5207626,-0.06963864,290.73157,-82.280846,-2.08746,JOG
14003691113000,1.084967,-1.04033954381944,11.5265748926587,-0.414280495498016,-1.4208726,-0.49113566,-0.076052725,290.8716,-82.1075,-2.1262407,JOG
14003696133000,1.089987,-0.820947067430556,11.517035896627,-0.490590939823413,-1.4773777,-0.50671273,-0.08307768,290.9983,-81.92301,-2.1666272,JOG
14003701140000,1.094994,-0.646434038439384,11.5130458772388,-0.57250188400684,-1.536937,-0.52412236,-0.09101892,291.12375,-81.74306,-2.1817107,JOG
14003706144000,1.099998,-0.538607692414724,11.5173590180902,-0.663075995391954,-1.6059648,-0.5494733,-0.09285152,291.2517,-81.54962,-2.19514,JOG
14003711140000,1.104994,-0.441672089144698,11.5268054314172,-0.75682113740337,-1.6658295,-0.5925393,-0.096516706,291.4047,-81.35706,-2.184332,JOG
14003716118000,1.109972,-0.394423976908821,11.5598787897919,-0.865491814786918,-1.7146988,-0.65057147,-0.093767814,291.5637,-81.15371,-2.1704104,JOG
14003721153000,1.115007,-0.357410065034524,11.6071122714539,-0.992198012645492,-1.7437148,-0.72234815,-0.10476339,291.76645,-80.95415,-2.1423492,JOG
14003726171000,1.120025,-0.376370967575459,11.7256178504636,-1.20550820335372,-1.7504344,-0.86284715,-0.116980694,291.9984,-80.75255,-2.108957,JOG
14003731159000,1.125013,-0.393294110110935,11.8525121608558,-1.45378509508716,-1.7305813,-1.0259482,-0.12797627,292.25827,-80.57393,-2.0707371,JOG
14003736175000,1.130029,-0.398052155752773,12.0380758415214,-1.93434810237718,-1.6783522,-1.1939361,-0.13469578,292.55188,-80.40714,-2.029197,JOG
14003741130000,1.134984,-0.413329556459975,12.2306290609629,-2.44068629945874,-1.5656476,-1.3649784,-0.13041973,292.93924,-80.27846,-1.996076,JOG
14003746144000,1.139998,-0.513642770460545,12.4996510387428,-3.2067143734878,-1.4144585,-1.5079209,-0.112399206,293.35504,-80.18057,-1.9560373,JOG
14003751522000,1.145376,-0.641640749942688,12.7942398718802,-4.05244640820854,-1.2257011,-1.6175711,-0.06352998,293.86002,-80.19281,-1.9131685,JOG
14003756189000,1.150043,-0.96390057711222,13.1123685282862,-5.03575198779811,-1.0094548,-1.6844609,0.02443461,294.37857,-80.259346,-1.8528923,JOG
14003761124000,1.154978,-1.30466600395637,13.4487655540765,-6.07552336882973,-0.7309003,-1.700038,0.113926366,294.9873,-80.507904,-1.8034766,JOG
14003766186000,1.16004,-1.9668261861546,13.5113364131955,-7.06402216701132,-0.41141775,-1.6783522,0.18417588,295.5881,-80.82611,-1.7392042,JOG
14003771152000,1.165006,-2.67399715397341,13.520702616839,-8.01940525790251,-0.23396139,-1.5919148,0.19425514,296.1613,-81.17618,-1.6761693,JOG
14003776164000,1.170018,-3.4709318877293,13.2021504217017,-8.63967958068194,0.087659165,-1.4822645,0.17592919,296.80573,-81.804146,-1.6638596,JOG
14003781089000,1.174943,-4.27258877134418,12.815986321795,-9.17248812042699,0.40591997,-1.361924,0.10720685,297.4087,-82.45683,-1.6746881,JOG
14003786137000,1.179991,-4.79560623325801,12.3634718632344,-9.22502382010218,0.6976081,-1.2675453,0.019547688,298.0459,-83.27947,-1.7932088,JOG
14003791082000,1.184936,-5.26555006677147,11.9121397989782,-9.20641229377088,0.94134337,-1.1786644,-0.052534413,298.63382,-84.122284,-1.9371576,JOG
14003796135000,1.189989,-5.44141156103671,11.4779361685133,-8.91065067241545,1.1334605,-1.1099422,-0.12767084,299.22534,-84.98061,-2.2051399,JOG
14003801236000,1.19509,-5.55907996837846,11.0449158711822,-8.55764515550631,1.2626585,-1.065349,-0.19700404,299.78174,-85.74213,-2.4976037,JOG
14003806163000,1.200017,-5.4794319986392,10.7066358304595,-8.24274319360612,1.3787229,-1.0497719,-0.25442538,300.32162,-86.27578,-2.8695698,JOG
14003811164000,1.205018,-5.34551403762699,10.3852317358561,-7.93026734528847,1.4804319,-1.0732902,-0.31764993,300.8459,-86.48684,-3.26564,JOG
14003816122000,1.209976,-4.91211632469345,9.82269725454545,-7.76433242215645,1.6154331,-1.0845913,-0.3747658,301.34735,-86.29599,-3.6950498,JOG
14003821154000,1.215008,-4.29063198372093,9.104425,-7.6828263627907,1.7782288,-1.0925325,-0.41263947,301.84326,-94.21466,-4.139252,JOG
14003826139000,1.219993,-3.82106207795752,8.78363706450973,-7.71021359732037,1.9868392,-1.0812315,-0.45845437,302.3251,-94.936676,-4.58741,JOG
14003831139000,1.224993,-3.40286095648075,8.60305052223104,-7.77674565369194,2.2369885,-1.0112875,-0.5195409,302.7823,-95.82307,-5.0532475,JOG
14003836167000,1.230021,-2.87016284825256,8.75274135914269,-8.07977868338482,2.4862216,-0.8002335,-0.5696318,303.18433,-96.77287,-5.461565,JOG
14003841158000,1.235012,-2.29795476891292,9.02961609635065,-8.47201813535432,2.7101038,-0.42058071,-0.6026186,303.50677,-97.831184,-5.8806195,JOG
14003846151000,1.240005,-1.55411992790909,9.59317467045454,-8.72923783068182,2.889698,0.13133603,-0.59589905,303.70752,-98.94329,-6.242,JOG
14003851226000,1.24508,-0.704059975438735,10.323169791502,-8.91653918073123,3.0390546,0.73945236,-0.5662721,303.77377,-100.127815,-6.5903788,JOG
14003856193000,1.250047,0.0602370961783671,11.1329230457724,-8.80411600354191,3.1511483,1.2983941,-0.54305923,303.6856,-101.35577,-6.8354573,JOG
14003861151000,1.255005,0.784689366602488,11.9953660425938,-8.52382217591499,3.2284229,1.8994855,-0.5012149,303.40582,-102.61886,-7.028628,JOG
14003866128000,1.259982,1.51656964556375,12.8371382671233,-7.62903917500527,3.242778,2.232407,-0.47128254,303.0323,-103.833725,-7.0691786,JOG
14003871171000,1.265025,2.26467164722866,13.6564876027397,-5.863110874647,3.2323935,2.9443705,-0.40500367,302.38214,-105.057655,-7.01499,JOG
14003876147000,1.270001,2.7395344413928,14.1622120197574,-3.7254320425,3.2333097,3.6092973,-0.3115413,301.642,-106.14693,-6.7825327,JOG
14003881139000,1.274993,2.97801044514867,14.3960123202269,-1.2237723625,3.235448,4.085467,-0.21655174,300.76492,-107.227684,-6.4767914,JOG
14003886977000,1.280831,3.09027539381254,14.5215915676945,1.58993568002859,3.2415564,4.336227,-0.0870483,299.77078,-107.99857,-5.983375,JOG
14003891157000,1.285011,3.07392606258934,14.5256789538493,3.53957950004084,3.1942143,4.266283,-0.058643065,298.74545,-108.75832,-5.4723825,JOG
14003896147000,1.290001,2.9053884671978,14.4814837485984,5.3351695697846,3.1758883,3.9052615,0.0067195175,297.80072,-109.11742,-4.898746,JOG
14003901219000,1.295073,2.59484642474673,14.3907100643258,6.66333435514901,3.150843,3.372587,0.05681047,296.93588,-109.46221,-4.351156,JOG
14003906185000,1.300039,2.09540566934932,14.2154891437405,7.63184410910388,3.1105258,2.8087585,0.0720821,296.31403,-109.41383,-3.8867471,JOG
14003911156000,1.30501,1.39797692294521,13.9528210686834,8.26587033247717,2.9996538,2.2339342,0.0421497,295.841,-109.346756,-3.4862435,JOG
14003916153000,1.310007,0.597900811759001,13.7449084622924,8.71264663241515,2.8005116,1.5167783,-0.07819075,295.62567,-109.05226,-3.249572,JOG
14003921165000,1.315019,-0.362771591699164,13.6260625821727,8.85625235097493,2.5867088,0.5516113,-0.24831672,295.6146,-108.74644,-3.1180482,JOG
14003926145000,1.319999,-1.28054170243599,13.65559903391,8.68436133217993,2.3921483,-0.59528816,-0.4813618,295.82788,-108.375755,-3.2056625,JOG
14003931144000,1.324998,-2.15614966,13.8685843571429,8.12113242857143,2.2043073,-1.7870862,-0.7501425,296.28558,-107.98535,-3.4309025,JOG
14003936171000,1.330025,-2.96738174163249,14.0695074350305,7.31443413894168,2.0060816,-2.8921416,-1.0238101,296.8942,-107.68778,-3.8452957,JOG
14003941151000,1.335005,-3.67821310304091,14.2507937319196,6.19332390587176,1.8212948,-3.7760634,-1.2922854,297.7422,-107.38998,-4.3958926,JOG
14003946152000,1.340006,-4.30681278056398,14.4009498861324,5.00299266116366,1.6484199,-4.3979244,-1.57084,298.73993,-107.24999,-5.1472,JOG
14003951216000,1.34507,-4.82614491520614,14.5091439678744,3.70899063010887,1.4767667,-4.679228,-1.8674151,299.8666,-107.12718,-5.9968567,JOG
14003956152000,1.350006,-5.18670070932971,14.6532860344304,2.32936252137512,1.2980887,-4.6868634,-2.1386392,301.06378,-107.21286,-7.0095263,JOG
14003961151000,1.355005,-4.90362733166763,14.9714302312804,0.405466073674847,1.1578951,-4.592485,-2.3585508,302.29553,-107.34377,-8.074067,JOG
14003966138000,1.359992,-4.62123346601434,15.2888107293182,-1.51381209889592,1.135904,-4.243681,-2.43216,303.45856,-107.72151,-9.208644,JOG
14003971165000,1.365019,-4.33657456033175,15.6087368900633,-3.44848452189838,1.1667526,-3.6511416,-2.4877486,304.51205,-108.148895,-10.341022,JOG
14003976100000,1.369954,-3.95150498961103,15.7731617134384,-4.70914043443879,1.3072516,-2.7852402,-2.4205534,305.37653,-108.628174,-11.376906,JOG
14003981129000,1.374983,-3.36355687702763,15.6636653235309,-4.81149560954876,1.5057828,-1.7632625,-2.2922719,306.02972,-109.14802,-12.329197,JOG
14003986097000,1.379951,-2.78274036811644,15.5554970862947,-4.91260925240943,1.7101172,-0.6976081,-2.1627684,306.37845,-109.93954,-13.099907,JOG
14003991146000,1.385,-2.19245402482084,15.4455652364948,-5.01537148727327,1.8393153,0.2565634,-2.074193,306.4678,-110.72329,-13.754161,JOG
14003996134000,1.389988,-1.68724389800279,15.3196562702276,-4.69705820746865,1.892155,0.9221011,-1.9917262,306.32465,-111.49567,-14.288314,JOG
14004001181000,1.395035,-1.35049882196935,15.1535286274965,-3.43538687784487,1.8051068,1.2760975,-1.9294178,306.01297,-112.23027,-14.736181,JOG
14004006169000,1.400023,-1.04564100758647,14.9649067561383,-2.2623905704447,1.616044,1.35551,-1.8845193,305.5615,-112.85142,-14.9989605,JOG
14004011142000,1.404996,-0.882726056830103,14.6535580189282,-1.4659176122691,1.4001031,1.2932017,-1.8380935,305.0697,-113.41891,-15.218148,JOG
14004016115000,1.409969,-0.719811106073736,14.342209281718,-0.669444654093501,1.219287,1.1957687,-1.7779233,304.54364,-113.81325,-15.369502,JOG
14004021158000,1.415012,-0.539638222787214,13.9565987052432,-0.11281718522207,1.0977248,1.16492,-1.7076738,304.03723,-114.15063,-15.49939,JOG
14004026123000,1.419977,-0.349021506994409,13.5151709734149,0.213237774647115,1.0384709,1.2956452,-1.5384641,303.54202,-114.421906,-15.575071,JOG
14004031119000,1.424973,-0.097160835826356,12.8357277950491,0.627924946592647,1.0543534,1.5793921,-1.3292428,303.02322,-114.57882,-15.589631,JOG
14004036129000,1.429983,0.191032374275573,12.0148136705497,1.09514727855479,1.1322387,1.9517145,-1.1496484,302.46805,-114.70283,-15.54273,JOG
14004041122000,1.434976,0.403530937286938,11.3820218142718,1.49472109036474,1.239751,2.1801782,-1.0164797,301.87466,-114.79191,-15.434452,JOG
14004046115000,1.439969,0.517551857850393,10.9935061790162,1.80722283149342,1.2983941,2.225382,-0.89461213,301.2598,-114.84867,-15.263756,JOG
14004051227000,1.445081,0.665301375071121,10.6072815246444,2.06760179060536,1.2641857,2.1569653,-0.79076505,300.61472,-114.868286,-15.049413,JOG
14004056212000,1.450066,0.944300188457382,10.2809052910464,2.06233766578454,1.1798862,2.119397,-0.68752885,299.97604,-114.85902,-14.797167,JOG
14004061106000,1.45496,1.23725842275461,9.99046522832202,2.08658458591659,1.0656544,2.1184807,-0.64476824,299.33563,-114.81592,-14.549259,JOG
14004066156000,1.46001,1.57500110025218,9.7465401870999,2.16632942490786,1.0021244,2.1212296,-0.5488624,298.73242,-114.72986,-14.265258,JOG
14004071098000,1.464952,1.87308455069175,9.47463664250139,2.20794423464306,0.8793405,2.1038198,-0.45662177,298.1104,-114.60149,-13.96553,JOG
14004076141000,1.469995,2.09581016668511,9.11382073713337,2.15894461959048,0.7507534,2.0610592,-0.3454443,297.51608,-114.43057,-13.640219,JOG
14004081111000,1.474965,2.3291570912404,8.76015495521405,2.12340102296378,0.61208695,2.0409007,-0.24037547,296.89655,-114.19973,-13.26419,JOG
14004086119000,1.479973,2.66609258261251,8.41795518177826,2.18131175385291,0.48533243,2.0818288,-0.15577064,296.28824,-113.92129,-12.865998,JOG
14004091106000,1.48496,3.01482860985642,8.07105180442375,2.24112147916182,0.3378085,2.078469,-0.08674286,295.6861,-113.602356,-12.4377,JOG
14004096125000,1.489979,3.39719290592743,7.70733936466822,2.30640324406286,0.19517145,2.0002782,0.008246681,295.10968,-113.23274,-11.987454,JOG
14004101164000,1.495018,3.7713138224498,7.27735390799197,2.33928325024096,0.061391957,1.8316795,0.10323623,294.5457,-112.80931,-11.500239,JOG
14004106145000,1.499999,4.11135879086345,6.65473660953815,2.27223208885542,-0.06261369,1.591304,0.21471913,294.03723,-112.33427,-11.002203,JOG
14004111138000,1.504992,4.41665888588957,5.98582169153374,2.14059846478528,-0.20280726,1.3087788,0.3115413,293.5681,-111.79718,-10.458947,JOG
14004116143000,1.509997,4.6157154595092,5.18054723570552,1.81486947460123,-0.35033122,1.0073168,0.3744604,293.17892,-111.21559,-9.923152,JOG
14004121128000,1.514982,4.80570271553428,4.36213228801373,1.47462489246696,-0.4990769,0.70249504,0.40591997,292.85483,-110.60936,-9.363529,JOG
14004126140000,1.519994,4.94054512340027,3.42822277250026,1.02514976500884,-0.6609562,0.40775254,0.4297437,292.61588,-109.955284,-8.817035,JOG
14004131127000,1.524981,5.05278165324319,2.53048774145601,0.571697665596708,-0.8402451,0.10048734,0.46181414,292.45868,-109.33078,-8.276475,JOG
14004136149000,1.530003,5.08105611356065,1.74822985415442,0.0910331589300412,-1.0177015,-0.21105394,0.49113566,292.38538,-108.6633,-7.754063,JOG
14004141155000,1.535009,5.07409141216168,1.01029299272599,-0.44012736984433,-1.217149,-0.5170974,0.548557,292.39832,-108.03599,-7.23779,JOG
14004146140000,1.539994,4.89674353364585,0.478249101447019,-1.22130287508933,-1.4257594,-0.7510588,0.6273586,292.4812,-107.35624,-6.7219863,JOG
14004151133000,1.544987,4.71911104469308,-0.0546486215531577,-2.00373202206793,-1.5891659,-0.8698721,0.68752885,292.62473,-106.746,-6.2196827,JOG
14004156146000,1.55,4.01939526746903,-0.481769612506798,-3.06299938150871,-1.6743816,-0.88300574,0.70249504,292.80637,-106.10224,-5.711079,JOG
14004161159000,1.555013,3.26510664162554,-0.897595347204149,-4.15091580471347,-1.6655241,-0.86345804,0.6808093,293.01364,-105.44324,-5.195317,JOG
14004166147000,1.560001,2.0510971703341,-0.763645524145545,-4.83058885119048,-1.616044,-0.7648033,0.5864306,293.21695,-104.97278,-4.739148,JOG
14004171126000,1.56498,0.801343189291475,-0.585109248651114,-5.47606581845238,-1.5100589,-0.66798115,0.4428773,293.41165,-104.536354,-4.2950463,JOG
14004176152000,1.570006,-0.676387241315542,-0.0775768218909622,-5.13055156353591,-1.3735305,-0.6423248,0.27672195,293.6305,-104.39526,-4.0220194,JOG
14004181148000,1.575002,-2.18761987038257,0.491005787928698,-4.59189443646409,-1.219287,-0.7806858,0.08460484,293.85782,-104.31188,-3.7971792,JOG
14004186155000,1.580009,-3.67092641294704,0.954664642622631,-3.37584018772718,-1.087951,-1.0635164,-0.13133603,294.1477,-104.47778,-3.8770654,JOG
14004191116000,1.58497,-5.13793158463944,1.4049794698847,-2.11310174301348,-0.9837985,-1.4123205,-0.37048978,294.47684,-104.70207,-4.031941,JOG
14004196147000,1.590001,-6.23192255309268,1.8365484812878,-0.581309377121951,-0.9651671,-1.8029687,-0.6093381,294.86478,-104.96498,-4.609433,JOG
14004201142000,1.594996,-7.25864972499512,2.26124024245854,0.977449084585366,-1.0687088,-2.208278,-0.7993172,295.33276,-105.25985,-5.261722,JOG
14004206172000,1.600026,-7.64707595176302,2.78403451984965,2.07105002119205,-1.2690725,-2.5631905,-0.8906415,295.87256,-105.456795,-6.2549834,JOG
14004211131000,1.604985,-7.89358560502058,3.31955566058708,3.0485887910596,-1.4807373,-2.8038714,-0.84604836,296.48068,-105.68258,-7.2615604,JOG
14004216134000,1.609988,-7.87675732067713,3.77418041837018,3.562118946876,-1.6172657,-2.871983,-0.68875057,297.18408,-105.703156,-8.3530855,JOG
14004221168000,1.615022,-7.67079940712379,4.17065004310584,3.74233227580904,-1.6511687,-2.7852402,-0.48533243,297.91455,-105.76217,-9.399436,JOG
14004226154000,1.620008,-7.29939835478102,4.29479572827965,3.48174289152525,-1.5992452,-2.6013696,-0.28863382,298.64294,-105.68535,-10.390283,JOG
14004231133000,1.624987,-6.86331839995935,4.3141769449243,3.05050831675643,-1.4856243,-2.4049764,-0.1704314,299.34845,-105.67893,-11.307967,JOG
14004236162000,1.630016,-6.20959834029763,4.44585312022714,2.6232968259252,-1.3457361,-2.2919664,-0.11148291,300.02667,-105.665955,-12.102386,JOG
14004241156000,1.63501,-5.48850057936166,4.61442140003916,2.20187602860779,-1.1554517,-2.2947154,-0.098043874,300.68185,-105.73449,-12.843362,JOG
14004246121000,1.639975,-4.6588553741624,5.21392638099836,1.1981327228348,-0.89552844,-2.388483,-0.0842994,301.33032,-105.85906,-13.471269,JOG
14004251171000,1.645025,-3.7669648638795,6.00775546760645,-0.0719939132567345,-0.54611355,-2.44621,-0.0720821,301.965,-106.05824,-14.073799,JOG
14004256166000,1.65002,-2.7618747944807,7.36473127764311,-1.44583446043259,-0.039095376,-2.3988678,-0.013133603,302.5689,-106.24621,-14.516726,JOG
14004261156000,1.65501,-1.68813137699049,9.04440454260675,-2.88491798774939,0.54458636,-2.2043073,0.032070424,303.1403,-106.497185,-14.944708,JOG
14004266131000,1.659985,-0.324522002849245,11.0164129038911,-3.40019809291941,0.74281216,-2.019215,0.20830505,303.5883,-106.682846,-15.141905,JOG
14004271163000,1.665017,1.36619265570912,13.3270569089943,-2.94421736232192,0.86437434,-1.7910569,0.44715336,303.96634,-106.89825,-15.297455,JOG
14004276155000,1.670009,3.00880434953644,15.0294744110258,-3.02925243447313,0.6927212,-1.2950343,0.75502944,304.17792,-106.91633,-15.11133,JOG
14004281165000,1.675019,4.63507627107965,16.3591906427076,-3.4597362474529,0.31490102,-0.45112398,1.0500773,304.23297,-106.88319,-14.85134,JOG
14004286155000,1.680009,5.90479350811353,17.2861605511985,-2.50678274215425,-0.22724187,0.36743546,1.2742649,304.23676,-106.31262,-14.152421,JOG
14004291155000,1.685009,6.94689906422626,17.9536838688196,-0.643478630229666,-0.7706065,0.6252206,1.3811663,304.169,-105.67794,-13.421137,JOG
14004296130000,1.689984,7.46650143932844,18.1314507078348,1.15114805297376,-1.0076222,0.37140608,1.4117095,304.0279,-104.74319,-12.370099,JOG
14004301181000,1.695035,7.6531956396758,17.9914302037823,2.93407704247009,-0.9425651,-0.15271631,1.3912456,303.9031,-103.81947,-11.352096,JOG
14004306162000,1.700016,7.60013937988143,17.3035097726546,4.25266003235156,-0.7144069,-0.8035932,1.3710871,303.90417,-102.59208,-10.210329,JOG
14004311145000,1.704999,7.34417720109156,16.1449442200056,5.19567864501741,-0.50488013,-1.5100589,1.3979651,304.07428,-101.43544,-9.133915,JOG
14004316134000,1.709988,7.0258833037205,14.8939547158611,5.82979407688344,-0.3313944,-2.1407773,1.4712689,304.44467,-100.162994,-8.077266,JOG
14004321160000,1.715014,6.61415066948366,13.5000164330619,6.01333734999485,-0.20525073,-2.59465,1.5720617,304.9577,-98.96881,-7.0604043,JOG
14004326157000,1.720011,6.13952714657348,12.2044474243836,5.85440722044263,-0.16157386,-2.7592783,1.6236799,305.57822,-97.77651,-6.1140647,JOG
14004331137000,1.724991,5.59325324441856,11.014681821588,5.31276275567851,-0.20280726,-2.640465,1.6349808,306.2312,-96.62229,-5.17721,JOG
14004336139000,1.729993,5.03282768981109,10.0038107084003,4.69454255231109,-0.301462,-2.3096814,1.5922203,306.8676,-95.53176,-4.3161206,JOG
14004341118000,1.734972,4.45787261176648,9.26595162570338,3.97105768051648,-0.41783184,-1.8747455,1.5176947,307.42142,-94.46312,-3.4693081,JOG
14004346113000,1.739967,3.89219213191295,8.84980134892708,3.2856072110241,-0.5338962,-1.3695599,1.450805,307.85373,-93.52386,-2.7168307,JOG
14004351143000,1.744997,3.33861129493542,8.8987907763653,2.6536431366826,-0.6588182,-0.6933321,1.4300356,308.09717,-92.58307,-1.9729606,JOG
14004356118000,1.749972,2.6574369586402,9.80079102253102,2.1240900031861,-0.81306165,-0.30634892,1.4440855,308.2746,-91.7706,-1.32471,JOG
14004361111000,1.754965,1.80788442644169,11.7656780115136,1.71117901308189,-0.91782504,0.4541783,1.5427402,308.14087,-90.94187,-0.6582262,JOG
14004366126000,1.75998,1.05467382442459,13.3203290974764,1.49274267330674,-1.0604621,1.0937542,1.6804903,307.92126,-90.22975,-0.07093322,JOG
14004371127000,1.764981,0.435807434321394,14.3171605460064,1.53427734229468,-1.1499538,1.6325374,1.8548924,307.50528,-89.399,0.5466163,JOG
14004376161000,1.770015,-0.245439461731855,15.2803309376176,1.60037031815526,-1.2040154,2.094046,2.0280726,306.87943,-88.78215,1.0153488,JOG
14004381119000,1.774973,-1.29625479641648,15.9667696951183,1.82369797626993,-1.2986995,2.4871378,2.189341,306.11713,-88.10663,1.5162774,JOG
14004391302000,1.785156,-3.45447435129617,17.3766135570849,2.28238001390237,-1.7333301,2.8936687,2.3490822,304.25632,-86.838066,2.283059,JOG
14004396212000,1.790066,-4.50478612617341,17.9742199007524,2.49758904863848,-2.1190915,2.8756483,2.31915,303.2929,-86.180046,2.5558417,JOG
14004401189000,1.795043,-5.6532591465335,17.8674845603726,2.66409631337334,-2.6132815,2.7714956,2.2180517,302.32144,-85.43542,2.8166153,JOG
14004407258000,1.801112,-7.01446254932794,17.7182278630622,2.85580482784234,-3.1239648,2.550057,2.017077,301.4666,-84.639725,2.970145,JOG
14004411073000,1.804927,-7.51661817984841,17.452380773623,2.87426642056594,-3.595553,2.116648,1.7583756,300.70126,-83.748795,3.0812051,JOG
14004416049000,1.809903,-8.17159233908034,17.1056297599798,2.89834633810005,-3.937332,1.4648548,1.4932601,300.09546,-82.823494,3.033895,JOG
14004421073000,1.814927,-8.11390045723821,16.6036419215686,2.68622440171047,-4.0387354,0.60048056,1.2660183,299.67102,-81.84865,2.9485419,JOG
14004426038000,1.819892,-7.94032844847726,16.082925377451,2.43826418206091,-3.9413025,-0.47891834,1.042747,299.4917,-80.85421,2.8296936,JOG
14004431061000,1.824915,-7.48756131189454,15.5861405361031,1.35844033848197,-3.6566393,-1.5711454,0.79504114,299.5766,-79.91112,2.631728,JOG
14004436038000,1.829892,-7.02106287196644,15.0958411705782,0.235035864971537,-3.2534683,-2.4874432,0.5717699,299.91357,-79.039276,2.4366786,JOG
14004441061000,1.834915,-6.58088646300817,14.9712858226458,-1.17768736301192,-2.7919595,-3.1132748,0.35460728,300.49118,-78.29255,2.255737,JOG
14004446040000,1.839894,-6.14663197615247,14.8727950227209,-2.59684854955591,-2.3542747,-3.4578028,0.15149458,301.24628,-77.66734,2.0657804,JOG
14004451236000,1.84509,-5.70996445216457,15.0566337473135,-4.07450932146147,-2.0253236,-3.5683694,0.007941248,302.15234,-77.28009,1.915815,JOG
14004456103000,1.849957,-5.30449159888445,15.2903772626139,-5.45788794780473,-1.7721201,-3.5417967,-0.037873644,303.1107,-77.00288,1.756308,JOG
14004461146000,1.855,-4.98255212504265,15.6320244919431,-6.42711389232228,-1.6701056,-3.3615913,-0.11942416,304.1009,-76.99037,1.5996931,JOG
14004466133000,1.859987,-4.67924500673934,15.9851277270142,-7.31439998691943,-1.4871514,-2.9755247,-0.09987647,305.01022,-77.069695,1.4435271,JOG
14004471160000,1.865014,-4.63981575950263,16.203367650829,-7.60523724524869,-1.3371841,-2.5042422,-0.043982297,305.91376,-77.34862,1.3080623,JOG
14004476127000,1.869981,-4.68309448781844,16.3764820619693,-7.70622069359078,-1.1969905,-2.0592268,0.047036625,306.70117,-77.66478,1.1619493,JOG
14004481143000,1.874997,-4.85760638133732,16.1242976898339,-7.48432607494948,-1.0864239,-1.7162259,0.112399206,307.48065,-78.09528,1.0426687,JOG
14004486162000,1.880016,-5.06877415829013,15.7526429668746,-7.17179773859942,-1.001819,-1.4831808,0.16829337,308.14798,-78.53868,0.92304265,JOG
14004491151000,1.885005,-5.28737341925734,14.9871321765976,-6.84068469408463,-0.9602802,-1.4065173,0.20525073,308.7719,-78.99253,0.8051898,JOG
14004496115000,1.889969,-5.51316415284974,13.8479140025907,-6.49173515932642,-0.98440933,-1.5442673,0.22021692,309.3774,-79.432304,0.6928541,JOG
14004501156000,1.89501,-5.56739942250732,12.5962563037681,-6.58494894191332,-1.024421,-1.8622227,0.22540927,309.99173,-79.81733,0.5712524,JOG
14004506139000,1.899993,-5.52883294557026,11.3090989278715,-6.91276404621679,-1.003957,-2.2308798,0.1994475,310.65198,-80.19958,0.4507032,JOG
14004511150000,1.905004,-5.38084028923436,10.0827248212204,-7.51416779673533,-0.8671232,-2.5448647,0.1459968,311.37335,-80.53855,0.31474862,JOG
14004516135000,1.909989,-5.18138090709289,8.89524570443063,-8.24242679547221,-0.61666846,-2.7101038,0.067500606,312.15176,-80.90976,0.16825171,JOG
14004521157000,1.915011,-4.91085001630707,7.84151161532363,-8.86883818966382,-0.28252518,-2.7036896,-0.022296581,313.00098,-81.33851,0.0054043876,JOG
14004526152000,1.920006,-4.59882291771199,6.88142815405921,-9.42568670446563,0.08246681,-2.615725,-0.12095132,313.86945,-81.84121,-0.18887384,JOG
14004531141000,1.924995,-4.36205670713569,6.05587390220823,-9.72418441682635,0.4642576,-2.5411994,-0.23243423,314.78412,-82.491554,-0.4029623,JOG
14004536156000,1.93001,-4.16922723432795,5.30646852699151,-9.86880623542294,0.81336707,-2.5283713,-0.3417791,315.6858,-83.2203,-0.6601933,JOG
14004541148000,1.935002,-4.03483720175556,4.61896677825589,-9.97207256292339,1.1392636,-2.5415049,-0.47678033,316.60034,-84.074585,-0.9395449,JOG
14004546113000,1.939967,-3.97586052433928,4.01105290777598,-10.0219760000954,1.4214834,-2.5024095,-0.6078109,317.4876,-84.96673,-1.2688112,JOG
14004551168000,1.945022,-3.9282877048218,3.46395313113208,-10.0525349769392,1.6756034,-2.4465153,-0.745561,318.3758,-85.861275,-1.6329111,JOG
14004556198000,1.950052,-3.90533587329903,3.06000056080617,-10.0433540526015,1.8756617,-2.2678373,-0.80664754,319.20453,-86.64013,-2.0346358,JOG
14004561154000,1.955008,-3.87965607532412,2.69842757638682,-10.0803489938363,1.949271,-2.0250182,-0.9034697,319.99097,-87.078896,-2.4994893,JOG
14004566138000,1.959992,-3.84414965679065,2.44988243479277,-10.2629540675877,2.003638,-1.7394388,-0.98532563,320.69717,-86.98815,-2.9968617,JOG
14004571116000,1.96497,-3.80045341695334,2.3031823612658,-10.5738589198898,2.01555,-1.3814718,-1.0219775,321.2981,-93.640915,-3.523471,JOG
14004576149000,1.970003,-3.74090752188539,2.34440651972821,-11.1280929946783,1.9749273,-0.9104946,-1.0711522,321.7658,-94.613205,-4.0875683,JOG
14004581135000,1.974989,-3.58125030774274,2.46190619703403,-11.73858460537,1.9495764,-0.23060162,-1.1026118,322.05798,-95.7648,-4.6551456,JOG
14004586155000,1.980009,-3.11595440161307,2.81212880354876,-12.5390935844521,2.017077,0.8353582,-1.1334605,322.08353,-97.02456,-5.223494,JOG
14004591110000,1.984964,-2.55415282593712,3.2397543944075,-12.8096070943168,2.1514673,2.2834144,-1.119716,321.79602,-98.38729,-5.7437496,JOG
14004596113000,1.989967,-1.7720218981056,3.84325064625151,-11.9936805082628,2.3124304,3.813021,-1.1023064,321.1592,-99.81149,-6.2189994,JOG
14004601173000,1.995027,-1.14128963231631,4.54674197057063,-10.6221203173699,2.4165828,5.1034737,-1.0910053,320.16916,-101.30812,-6.5447917,JOG
14004606170000,2.000024,-0.817849333907502,5.4154100869943,-8.24714420816839,2.4361305,5.9822035,-1.102001,318.8459,-102.84408,-6.7835307,JOG
14004611120000,2.004974,-0.609499221102673,6.55304163674919,-5.37833033099911,2.409558,6.390261,-1.0955868,317.28174,-104.23059,-6.8030157,JOG
14004616135000,2.009989,-0.70423773993096,8.46202248249334,-1.06299143544728,2.3863451,6.360329,-1.074512,315.59372,-105.632904,-6.750641,JOG
14004621133000,2.014987,-0.839467593694599,10.1510281820342,2.53519338983825,2.3796256,5.9229493,-1.0546589,313.91342,-106.664055,-6.604762,JOG
14004626149000,2.020003,-1.102853843754,11.1782346672759,3.94869966877456,2.4336872,5.1349335,-1.0546589,312.34808,-107.70049,-6.457817,JOG
14004631321000,2.025175,-1.38589031381728,12.2709347276453,5.35457970136986,2.5042422,4.0506473,-1.104139,311.16528,-107.93006,-6.391906,JOG
14004636153000,2.030007,-1.76024413247762,13.6136172809837,6.17316683561644,2.581822,2.7281241,-1.2290609,310.2781,-108.17229,-6.4229093,JOG
14004641128000,2.034982,-2.12750842346807,14.9411549180509,6.87028075203027,2.6398542,1.3487904,-1.3857478,309.6177,-108.26923,-6.575489,JOG
14004646111000,2.039965,-2.42257325516796,16.0509512403101,6.98478334134367,2.637716,0.68966687,-1.5583172,309.1234,-108.38948,-6.8101625,JOG
14004651393000,2.045247,-2.73655038503134,17.1872616198874,7.05974643765006,2.6096163,-1.0910053,-1.7397442,309.2972,-108.43786,-7.313644,JOG
14004656148000,2.050002,-3.03165291881441,17.7968169561245,6.6485380485605,2.554333,-1.5815301,-1.8319849,309.3018,-108.511116,-7.777234,JOG
14004661119000,2.054973,-3.33066686494173,18.3834968560142,6.19037758242149,2.5103507,-2.3677137,-2.0152445,309.8697,-108.613045,-8.488112,JOG
14004666132000,2.059986,-3.577204878175,18.6821876934624,5.56455032567648,2.4318545,-2.8790078,-2.205529,310.50165,-108.745766,-9.225652,JOG
14004671114000,2.064968,-3.7984918864148,18.9586215731612,4.97419224487392,2.3542747,-3.1334333,-2.3671029,311.2772,-108.97673,-10.057606,JOG
14004676154000,2.070008,-3.84902900115173,19.0891756469767,4.60779875669662,2.2922719,-3.1991012,-2.4856107,312.14178,-109.25478,-10.932401,JOG
14004681130000,2.074984,-3.89892437474915,19.2180718912835,4.24605788424221,2.277611,-3.0876184,-2.5308146,313.0244,-109.64672,-11.844059,JOG
14004686159000,2.080013,-4.05404513396854,19.3109361223133,4.30954411588744,2.2409592,-2.9077187,-2.5072963,313.90997,-110.05623,-12.744179,JOG
14004691434000,2.085288,-4.24186833890893,19.3959933969204,4.39846583636604,2.0546453,-2.9177978,-2.490803,314.82117,-110.46379,-13.641042,JOG
14004696160000,2.090014,-4.4409883791905,19.42785241707,3.80907051214254,1.7486018,-3.1557298,-2.4721715,315.7382,-110.8896,-14.514599,JOG
14004701192000,2.095046,-4.65300108395073,19.4617742514738,3.18151290073911,1.3814718,-3.510948,-2.4288,316.70514,-111.278656,-15.381818,JOG
14004706185000,2.100039,-4.21471631053128,19.1203396850047,1.09354123819554,1.0604621,-3.8973203,-2.3903158,317.7567,-111.633705,-16.240335,JOG
14004711100000,2.104954,-3.58829989530546,18.6714899155402,-1.40225909115582,0.86651236,-4.003,-2.332589,318.84045,-111.951126,-17.06075,JOG
14004716132000,2.109986,-2.63115836595392,17.9411951277419,-3.53827881184332,0.86834496,-3.6370916,-2.2256875,319.86932,-112.317795,-17.850199,JOG
14004721088000,2.114942,-1.62941208930876,17.171294916129,-5.56364367764977,0.95814216,-2.8704557,-2.0928242,320.8172,-112.659515,-18.570538,JOG
14004726168000,2.120022,-0.716427080338331,16.3494513527148,-6.45278977927472,1.0115929,-1.887879,-1.9590448,321.53458,-113.04709,-19.126575,JOG
14004731147000,2.125001,0.124013422735008,15.5283309331442,-6.75708727532415,1.0082331,-0.9007208,-1.8829921,322.0187,-113.420944,-19.599693,JOG
14004736177000,2.130031,0.830918568909091,14.9753403545455,-6.5091815,0.91232723,0.03359759,-1.779756,322.03482,-113.80948,-19.861437,JOG
14004741166000,2.13502,1.47339714164205,14.5409888491477,-6.034109171875,0.7993172,0.8668178,-1.6481144,321.79858,-114.16626,-20.033821,JOG
14004746171000,2.140025,1.89092660009837,14.0107802018493,-4.91076899986229,0.763887,1.1930199,-1.5018122,321.39392,-114.47154,-20.082296,JOG
14004751316000,2.14517,2.16234792210309,13.4000814555381,-3.30647494905568,0.7305948,1.5760323,-1.3814718,320.7425,-114.734764,-20.037685,JOG
14004756178000,2.150032,2.23678350282197,12.8608839044989,-2.04234163388895,0.6786713,1.7058412,-1.3420709,320.07147,-114.910194,-19.913576,JOG
14004761181000,2.155035,2.17852501513831,12.3341299526801,-0.928147755942851,0.64751714,1.765706,-1.2843442,319.3301,-115.053085,-19.72624,JOG
14004766174000,2.160028,2.12038297456176,11.8084288770392,0.183819070478265,0.5467244,1.7806722,-1.2156218,318.6288,-115.0819,-19.527308,JOG
14004771174000,2.165028,2.06215942101023,11.2819907880738,1.29734483296687,0.42210788,1.8454239,-1.112691,317.9123,-115.07738,-19.29206,JOG
14004776157000,2.170011,1.88056896382979,10.7407449946809,1.92218740531915,0.3200934,1.9575176,-0.9960158,317.1841,-115.042076,-19.02994,JOG
14004781128000,2.174982,1.62247419635843,10.1904676001432,2.24358848831833,0.25045475,2.1105394,-0.89766645,316.44205,-114.96977,-18.735657,JOG
14004786169000,2.180023,1.4868745699933,9.88616392900201,2.50122077602143,0.19272798,2.2999077,-0.8078693,315.77045,-114.77867,-18.488626,JOG
14004791179000,2.185033,1.41801067945651,9.7162999533059,2.72158522573916,0.13225232,2.4449883,-0.6924158,315.08417,-114.541115,-18.19826,JOG
14004796120000,2.189974,1.50045190659601,9.59810241156431,3.09003584069272,0.094989546,2.4804184,-0.5549711,314.4048,-114.30335,-17.9399,JOG
14004801227000,2.195081,1.70410337877354,9.51479021500899,3.58990776345226,0.065973446,2.3399193,-0.38789943,313.75275,-114.01794,-17.644207,JOG
14004806206000,2.20006,1.98361715409676,9.3282415272142,4.01262695373586,0.029932396,2.07572,-0.20433442,313.14874,-113.69066,-17.343267,JOG
14004811141000,2.204995,2.3524157886071,9.02398279574717,4.35837554722981,-0.02565634,1.7498235,-0.01282817,312.6214,-113.31144,-17.011677,JOG
14004816119000,2.209973,2.79510043271047,8.55930834433717,4.5069915418146,-0.13713925,1.4110987,0.14477506,312.194,-112.82705,-16.64783,JOG
14004821149000,2.215003,3.35017343852382,7.8492146860791,4.35197130710059,-0.2846632,1.1453724,0.2779437,311.85086,-112.2868,-16.260038,JOG
14004826145000,2.219999,3.90198838711186,7.02637950638933,3.93595717958798,-0.43860126,1.0021244,0.408058,311.5671,-111.641495,-15.808023,JOG
14004831117000,2.224971,4.45169410251791,6.07861110662818,3.23460853209594,-0.58001655,0.99265605,0.52870387,311.3246,-110.94306,-15.334545,JOG
14004836118000,2.229972,4.90539464668122,5.09166754668122,2.56297741251116,-0.70371675,1.1016954,0.655153,311.06042,-110.17888,-14.766305,JOG
14004841140000,2.234994,5.24419060542713,4.06096410542713,1.9283312433674,-0.8142834,1.2739595,0.75655663,310.7817,-109.36767,-14.170994,JOG
14004846137000,2.239991,5.43650500284626,3.08668212956504,1.41017662043696,-0.95111716,1.3451253,0.8585711,310.45895,-108.54245,-13.477264,JOG
14004851199000,2.245053,5.45108049865705,2.16357321210663,1.02635762866707,-1.0219775,1.4694363,0.9034697,310.0713,-107.69542,-12.758001,JOG
14004856185000,2.250039,5.26908320996214,1.30316508998605,0.565529596843993,-1.1438452,1.5424347,0.9932669,309.65466,-106.845276,-11.970133,JOG
14004861205000,2.255059,4.85719831117753,0.493763674644351,0.00517478237895988,-1.2382239,1.570229,1.0458013,309.2143,-105.98161,-11.174255,JOG
14004866124000,2.259978,4.13868319315794,-0.188814530356047,-0.566798817549503,-1.2837334,1.570229,1.0421361,308.75333,-105.169624,-10.384769,JOG
14004871160000,2.265014,3.00884622340801,-0.749249580113414,-1.18103561305754,-1.2629639,1.5509869,0.9550878,308.28757,-104.356,-9.60078,JOG
14004876144000,2.269998,1.76496184778116,-1.10670044297872,-1.79508362765957,-1.1939361,1.4596626,0.77640975,307.8393,-103.7038,-8.933355,JOG
14004881135000,2.274989,0.220127806504559,-0.995317428687943,-2.42463987234043,-1.110553,1.3371841,0.5369505,307.39853,-103.08681,-8.306308,JOG
14004886090000,2.279944,-1.24039326914741,-0.703612361715396,-3.12131066577387,-0.9981538,1.2541064,0.28619036,306.99072,-102.76598,-7.9485235,JOG
14004891168000,2.285022,-2.57275010492742,0.00233790008178286,-3.99629117982008,-0.8772025,1.2385293,0.084910266,306.59027,-102.50112,-7.6450553,JOG
14004896140000,2.289994,-3.75664309257529,0.76969121609184,-4.42506719235662,-0.788627,1.2696834,-0.037873644,306.2278,-102.54124,-7.6692057,JOG
14004901274000,2.295128,-4.76334910338933,1.69820647324322,-4.10253039090548,-0.8558222,1.2284501,-0.10140363,305.88354,-102.60359,-7.7398815,JOG
14004906126000,2.29998,-5.61849296597733,2.53427655251541,-3.36402147411016,-1.0644327,1.0082331,-0.09743301,305.59927,-102.92413,-8.113399,JOG
14004911154000,2.305008,-6.32703574656989,3.32420604641082,-1.798524929827,-1.3634512,0.58459806,-0.06872234,305.38214,-103.22641,-8.511672,JOG
14004916099000,2.309953,-6.89056312904183,3.98335036673588,-0.255393850113715,-1.6352862,0.023518313,-0.03145956,305.27783,-103.607216,-9.281505,JOG
14004921150000,2.315004,-7.1966875921685,4.41862110335212,1.32784377306437,-1.7620409,-0.5558874,0.015882496,305.30112,-103.97582,-10.0392685,JOG
14004926087000,2.319941,-7.40145785879977,4.42337955063474,2.73916210789575,-1.7159204,-1.0436633,0.07086037,305.49878,-104.171555,-10.770125,JOG
14004931140000,2.324994,-7.3968040253895,3.47397697888055,3.87472200092325,-1.5534303,-1.3503176,0.07391469,305.80396,-104.40985,-11.49978,JOG
14004936125000,2.329979,-7.11637410489158,2.63781860937973,4.73548239515885,-1.3875804,-1.4828753,0.018325957,306.22952,-104.52916,-12.204313,JOG
14004941135000,2.334989,-5.93563054362078,2.1248726774584,4.75483888260212,-1.2583824,-1.5210545,-0.046731193,306.71118,-104.73006,-12.897945,JOG
14004946163000,2.340017,-4.78974088418783,1.70336464052863,4.6807006322242,-1.1808025,-1.5250251,-0.09010262,307.23715,-104.94906,-13.607112,JOG
14004951144000,2.344998,-3.76586096904115,1.55134759251101,4.34089754987347,-1.1404854,-1.5497651,-0.09743301,307.77676,-105.25237,-14.304509,JOG
14004956115000,2.349969,-2.77071442464994,1.45400409224037,3.9825156,-1.0516045,-1.5943583,-0.07849618,308.28955,-105.46624,-14.820801,JOG
14004961142000,2.354996,-1.9682038387898,1.77099574317386,3.47292142857143,-0.88147855,-1.6569719,-0.058643065,308.81085,-105.73641,-15.322772,JOG
14004966825000,2.360679,-1.06096937301634,2.12935332269545,2.8968276,-0.6206391,-1.8698585,-0.10048734,309.31934,-105.93048,-15.673878,JOG
14004971143000,2.364997,-0.0068055744189699,4.69009784329983,-1.39982314258794,-0.03970624,-2.0164661,-0.10873401,309.82062,-106.15318,-15.995142,JOG
14004976110000,2.369964,1.28796832057161,8.15112798710218,-7.21136602135678,0.26236662,-2.9006937,0.01863139,310.5986,-106.36042,-16.283838,JOG
14004981116000,2.37497,1.33871671780822,10.9724649863014,-9.86501241215009,2.074193,-4.0494256,0.10476339,311.32935,-106.5694,-16.4927,JOG
14004986133000,2.379987,1.08593895273973,13.6385537671233,-11.7489213108993,4.498106,-4.197255,-0.14019357,312.00906,-106.85382,-16.748745,JOG
14004991143000,2.384997,1.62788347140876,15.2418798177135,-9.65737850564692,4.1361685,-3.477045,-0.5213735,312.80814,-106.868805,-16.621683,JOG
14004996118000,2.389972,2.36893796269071,16.5635067545076,-6.5657181331484,1.4792101,-2.0769417,-0.8167268,313.43903,-107.010254,-16.55153,JOG
14005001185000,2.395039,3.3306967887899,17.3810275923243,-3.64104508338672,-0.82253003,-0.4147775,-0.86009824,313.69418,-107.27686,-16.450438,JOG
14005006210000,2.400064,4.34367327523008,18.0406397716859,-0.804710578941845,-1.8035797,1.0033462,-0.6826419,313.60666,-107.51155,-16.343538,JOG
14005011156000,2.40501,4.91924032830937,17.4871780475954,1.79642276021021,-1.7635679,1.6181821,-0.35979962,313.3659,-107.19452,-15.977478,JOG
14005016171000,2.410025,5.35737101705503,16.510908470005,4.36805879907585,-1.2574661,1.4410311,-0.027794369,312.9531,-106.799095,-15.56318,JOG
14005021164000,2.415018,5.65841813487812,14.9719293583108,5.99201464935299,-0.7171558,0.8155051,0.28038713,312.60498,-105.98562,-14.885156,JOG
14005026185000,2.420039,5.90923846530244,13.2065404195004,7.26541035901294,-0.34513888,-0.01160644,0.57604593,312.37613,-105.168724,-14.166444,JOG
14005031159000,2.425013,6.07496225902989,11.8287648168545,7.40933020084272,-0.08979719,-0.76083267,0.8426886,312.3965,-104.17698,-13.364547,JOG
14005036141000,2.429995,6.21054666894659,10.585129222342,7.1428366011171,0.124005646,-1.2434162,1.0919216,312.57043,-103.191444,-12.528987,JOG
14005041191000,2.435045,6.2568792048373,9.78992033084021,6.56157845105391,0.37140608,-1.3561208,1.3371841,312.89185,-102.14289,-11.649852,JOG
14005046150000,2.440004,6.26149225497814,9.21790172802331,5.8511681513356,0.6105598,-1.3234396,1.4651603,313.28937,-101.11492,-10.75898,JOG
14005051187000,2.445041,6.10709415376695,8.98418206227106,5.20194185328185,0.6899723,-0.9392053,1.72264,313.6043,-100.03344,-9.775385,JOG
14005056165000,2.450019,5.86167160784081,8.95586398901099,4.60254452509652,0.7620544,-0.26297748,1.949271,313.80573,-98.96376,-8.775615,JOG
14005061179000,2.455033,5.42042311329076,9.19604284194772,4.16539500494911,0.7330383,0.6936375,2.0958786,313.79175,-97.89035,-7.739396,JOG
14005066178000,2.460032,4.85674436291159,9.60685968429455,3.83578632402714,0.5699373,1.8585575,2.1523838,313.51007,-96.79008,-6.6722755,JOG
14005071161000,2.465015,4.22756700861059,10.1759501415235,3.84400688517231,0.32406402,2.9678888,2.1536055,312.9489,-95.72665,-5.6260633,JOG
14005076167000,2.470021,3.55146293283345,10.8520539687159,4.07254900643559,-0.004886922,3.9089267,2.1138992,312.09436,-94.65859,-4.5856285,JOG
14005081129000,2.474983,2.9132222729719,11.7279732915512,4.5721755864167,-0.344528,4.684115,2.0638082,310.95477,-93.69906,-3.6571891,JOG
14005086139000,2.479993,2.29140256422636,12.7580105560942,5.26994284076969,-0.6973027,5.180137,2.0329595,309.62265,-92.758415,-2.752294,JOG
14005091179000,2.485033,1.61654200806023,13.7651933031504,5.9534530458193,-0.98899084,5.3884425,2.0292943,308.13666,-87.958015,-2.0163736,JOG
14005096163000,2.490017,0.911975959572023,14.7392912670894,6.61546151128393,-1.2299771,5.4000487,2.0176878,306.5648,-88.39048,-1.3176117,JOG
14005101138000,2.494992,0.193262117776294,15.4578465484886,7.15823707084009,-1.387275,5.299256,1.9749273,304.9467,-88.098854,-0.81926644,JOG
14005106265000,2.500119,-0.560542251254887,15.9822320213598,7.61707453071422,-1.5451837,5.1184397,1.9019289,303.35132,-87.4028,-0.36030334,JOG
14005111153000,2.505007,-1.21451813329929,16.2308627328081,8.13198238599358,-1.6878207,4.800179,1.7284433,301.80814,-86.418015,-0.17109992,JOG
14005116108000,2.509962,-1.80070053727264,16.184707156016,8.74585844931427,-1.9483547,4.289496,1.4618006,300.3851,-85.36367,-0.036147065,JOG
14005121151000,2.515005,-2.35129215096008,16.193122802715,9.73633682102349,-2.3228152,3.3713653,1.2321151,299.16867,-84.16422,-0.16079478,JOG
14005126140000,2.519994,-2.82493993335715,16.28699861061,11.2810260374207,-2.948952,1.3909402,1.1096367,298.41736,-82.86315,-0.26236558,JOG
14005131100000,2.524954,-3.27597915610294,16.3783667676471,12.4992116948529,-4.0515637,-0.77457714,1.0512991,297.96457,-81.279594,-0.45039928,JOG
14005136106000,2.52996,-3.6133825570063,16.4589402306723,11.8445483639706,-5.071098,-2.654515,1.0051788,297.97705,-79.60123,-0.55340755,JOG
14005141084000,2.534938,-3.87851376308367,16.5235464854278,10.8399488580382,-5.7916136,-3.4449747,0.97524637,298.24265,-77.562325,-0.5926677,JOG
14005146157000,2.540011,-3.91911387289251,16.5387718445628,8.66276648574115,-5.995948,-4.7320676,0.9068295,299.11087,-75.468254,-0.46327108,JOG
14005151195000,2.545049,-3.87258112203508,16.5902670207501,6.58106397595069,-6.0576453,-5.7937512,0.838718,300.0663,-73.40046,-0.2394005,JOG
14005156181000,2.550035,-3.66115134610175,16.7104924760375,4.67405057379753,-5.7021217,-6.8832297,0.8206975,301.3047,-71.46549,0.13946405,JOG
14005161421000,2.555275,-3.48178061164224,16.8172424225621,2.57867799614404,-5.0145926,-7.964461,0.8393288,302.7683,-69.91585,0.6187093,JOG
14005166109000,2.559963,-3.74884881066497,16.7170913250478,-0.206461758094328,-4.005138,-8.7372055,0.79198676,304.36792,-68.61035,1.1888626,JOG
14005171116000,2.56497,-4.11063461182275,16.6279239669798,-3.07579512827593,-2.8112018,-9.017899,0.6750061,306.087,-67.852615,1.8085159,JOG
14005176142000,2.569996,-4.93728604527944,16.6461923968118,-5.31825817169561,-1.675298,-8.811731,0.4822781,307.83575,-67.39739,2.4192135,JOG
14005181332000,2.575186,-5.80085147974803,16.6722475983202,-7.56397807458268,-0.8368854,-8.230799,0.26542094,309.7898,-67.50046,3.0001178,JOG
14005186325000,2.580179,-6.74966112648819,16.7826917099213,-8.89431959949606,-0.38637227,-7.401854,0.052534413,311.62308,-67.829704,3.4423685,JOG
14005191108000,2.584962,-7.60632257026379,16.8061342494005,-10.0740287932854,-0.34238997,-6.413474,-0.116675265,313.49585,-68.534996,3.7054412,JOG
14005196133000,2.589987,-8.15102919616307,16.2706596450839,-10.66951322494,-0.57971114,-5.350263,-0.21502456,315.13104,-69.28316,3.797693,JOG
14005201192000,2.595046,-8.68030781671827,15.7043225460784,-11.2347760219814,-0.99021256,-4.2745295,-0.23243423,316.5593,-70.136375,3.6670666,JOG
14005206148000,2.600002,-8.90072246439629,14.724701122549,-11.2543683328173,-1.3784174,-3.2479706,-0.19120082,317.6999,-70.9018,3.4106884,JOG
14005211109000,2.604963,-9.07676231689717,13.7183159124073,-11.2416099789537,-1.6441438,-2.3506095,-0.099571034,318.61624,-71.60486,3.0384228,JOG
14005216111000,2.609965,-8.8751257714973,12.4844899976949,-10.9535573415514,-1.7009543,-1.6148223,0.021380283,319.27182,-72.220894,2.6079805,JOG
14005221767000,2.615621,-8.61377511821832,11.0956295622374,-10.5301259040994,-1.5149459,-1.0488557,0.14660765,319.72412,-72.77314,2.1390066,JOG
14005226143000,2.619997,-8.31635994518629,10.0390235426277,-9.92355607685125,-1.1447614,-0.6814202,0.2611449,320.00665,-73.33107,1.659529,JOG
14005231485000,2.625339,-7.94589730921796,8.74332006998253,-9.17247370033912,-0.6994407,-0.51893,0.3539964,320.19907,-73.866844,1.2246488,JOG
14005236108000,2.629962,-7.4727237813791,7.50123973756038,-8.30347227088686,-0.24465153,-0.5137377,0.3979787,320.32123,-74.49327,0.79139984,JOG
14005241438000,2.635292,-6.93013804847028,6.10422355631759,-7.32259958149552,0.13103059,-0.6728681,0.37598756,320.4264,-75.09289,0.4064218,JOG
14005246112000,2.639966,-6.48330416689158,5.22296766301876,-6.66889823575192,0.4382958,-0.74372846,0.33964106,320.5017,-75.79336,0.018033408,JOG
14005251216000,2.64507,-5.99536233300675,4.26063773589056,-5.95505748507256,0.5561928,-0.89736104,0.21319197,320.61575,-76.40021,-0.34706795,JOG
14005256345000,2.650199,-5.67898323677711,3.41543919309529,-5.43357548665363,0.75686204,-0.98624194,0.06963864,320.73557,-77.109634,-0.73517215,JOG
14005261160000,2.655014,-5.40377085778967,2.63725239967071,-4.96856128759004,0.9089675,-1.010982,-0.077579886,320.88834,-77.82269,-1.1617991,JOG
14005266146000,2.66,-5.29391405997524,1.88275684272926,-4.54963252923531,1.010982,-0.9779953,-0.21624629,321.09033,-78.44488,-1.5446944,JOG
14005271155000,2.665009,-5.19798286158461,1.12901076532711,-4.1339301289401,1.069625,-0.9673051,-0.36774087,321.3134,-79.0719,-1.9798187,JOG
14005276149000,2.670003,-5.33423906194383,0.383241501136005,-3.81629547554434,1.110553,-1.108415,-0.537256,321.60056,-79.615234,-2.4110649,JOG
14005281150000,2.675004,-5.52063443811928,-0.362341160839382,-3.51906995418113,1.1774428,-1.4892895,-0.72326446,321.95886,-80.135605,-2.8899393,JOG
14005286148000,2.680002,-5.85264248982762,-0.696884606895245,-3.82947998147376,1.248914,-2.0851886,-0.94225967,322.43875,-80.53567,-3.3985705,JOG
14005291140000,2.684994,-6.19677644489487,-0.995737604205342,-4.19172603595378,1.3610078,-2.6535985,-1.17897,323.02454,-80.882805,-3.96366,JOG
14005296201000,2.690055,-6.33526871079151,-0.965403501081191,-5.05008446787026,1.4431691,-2.9703321,-1.4242324,323.72845,-81.07448,-4.6086226,JOG
14005301239000,2.695093,-6.42385107753978,-0.857135935556916,-6.01957110373317,1.4682146,-2.967278,-1.6502525,324.5061,-81.15169,-5.321693,JOG
14005306175000,2.700029,-5.96231588893485,-0.284943179989659,-6.93432317083764,1.4404203,-2.6618452,-1.8304577,325.31552,-81.09314,-6.1460543,JOG
14005311109000,2.704963,-5.4150337516029,0.360068129110652,-7.84320270796277,1.4199562,-2.046704,-1.9306396,326.03177,-80.8742,-7.0387363,JOG
14005316131000,2.709985,-4.6900469783738,1.3241372938547,-7.8844580567476,1.4767667,-1.1007792,-1.9737056,326.58444,-80.56905,-7.998175,JOG
14005321134000,2.714988,-3.95056883139469,2.31611999595332,-7.83485886278938,1.5396858,0.02443461,-1.9999728,326.89532,-80.07503,-9.01265,JOG
14005326158000,2.720012,-3.41661351736268,3.3766219393731,-7.05404311496512,1.5937474,1.0833695,-2.0210476,326.93723,-79.55319,-9.970891,JOG
14005331132000,2.724986,-2.94386729474305,4.44381155202908,-6.08514730814582,1.6475036,1.9135354,-2.0723603,326.6969,-78.85741,-10.960129,JOG
14005336104000,2.729958,-2.74635573426763,5.62876109484629,-5.17919641190476,1.6985108,2.277611,-2.1551325,326.26913,-78.152954,-11.816629,JOG
14005341108000,2.734962,-2.64043939321881,6.86124252450271,-4.28853604047619,1.7162259,2.9275718,-2.2003367,325.4908,-102.67534,-12.669291,JOG
14005346162000,2.740016,-2.74855963648769,8.41738749285079,-3.44679898733314,1.7232509,3.503923,-2.2565362,324.6265,-103.50282,-13.418094,JOG
14005351161000,2.745015,-2.92371578780777,10.0553349787303,-2.63255931667161,1.7354681,3.9779544,-2.2586741,323.58435,-104.38774,-14.136178,JOG
14005356131000,2.749985,-3.35402166902303,12.1194292563542,-1.49842414553813,1.7528778,4.250095,-2.2174408,322.47458,-105.2172,-14.760983,JOG
14005361124000,2.754978,-3.87624862081017,14.3460147752184,-0.245079530651311,1.7284433,4.0937133,-2.1725423,321.3498,-106.06154,-15.356001,JOG
14005366146000,2.76,-4.4585683483783,15.7769054314795,0.808851716068959,1.6691893,3.4067955,-2.1627684,320.45245,-106.778114,-15.875044,JOG
14005371152000,2.765006,-5.0609306206292,16.8929099256842,1.78010246658225,1.5506815,2.3719897,-2.221717,319.72156,-107.48034,-16.39178,JOG
14005376130000,2.769984,-5.27946829018921,17.5361517759132,1.90266598009534,1.4071281,1.2449434,-2.3429737,319.4815,-107.98292,-16.860952,JOG
14005381114000,2.774968,-5.31197132049224,17.9517272910647,1.61245969161049,1.3347405,0.2883284,-2.4840834,319.50214,-108.49438,-17.366758,JOG
14005396208000,2.790062,-5.11601586527888,19.0535538095618,0.643603401900398,1.7186694,-0.3811799,-2.5900686,320.69135,-110.081276,-19.130928,JOG
14005401248000,2.795102,-4.63046040790837,19.1977781282869,0.191700205247012,1.951409,-0.034208454,-2.5506678,321.147,-110.65739,-19.72563,JOG
14005406071000,2.799925,-4.09951683395186,19.2976453525577,-0.0335284298545637,2.1252003,0.40530908,-2.4917192,321.47717,-111.21843,-20.25199,JOG
14005411068000,2.804922,-3.4947256136008,19.3696437524574,-0.0959275225857573,2.21683,0.7901542,-2.3973405,321.7136,-111.77007,-20.743225,JOG
14005416066000,2.80992,-2.8004512890505,19.4212183150671,0.0190506152647752,2.2611177,1.0155635,-2.2479842,321.83856,-112.25444,-21.127295,JOG
14005421065000,2.814919,-2.03057630785619,19.4555441331558,0.283848392836218,2.2250767,1.0940597,-2.0460932,321.89584,-112.7013,-21.461199,JOG
14005426059000,2.819913,-1.40993535520935,19.4806144576436,0.650355658851022,2.0900755,1.0668762,-1.8435913,321.8565,-113.04622,-21.675413,JOG
14005431040000,2.824894,-0.894362812317429,19.499194024148,1.08696670281597,1.8051068,1.0647382,-1.6798794,321.79526,-113.334335,-21.84353,JOG
14005436064000,2.829918,-0.50115303975356,19.1327811035249,1.41965211231189,1.321607,1.0442741,-1.6169603,321.70917,-113.48805,-21.910944,JOG
14005441059000,2.834913,-0.220929132489648,18.4322208762751,1.65639291455409,1.0458013,0.8906415,-1.5570955,321.6735,-113.59772,-21.946617,JOG
14005446073000,2.839927,0.0321286453763441,17.6243102688172,1.72186862473118,0.56046885,0.61483586,-1.5317446,321.65863,-113.56998,-21.92915,JOG
14005451246000,2.8451,0.269861192125833,16.7041970839776,1.647026903759,0.22113322,0.2657264,-1.5607607,321.7125,-113.536125,-21.928444,JOG
14005456149000,2.850003,0.495097274770549,15.8181886779523,1.49267119346319,0.04917465,-0.061086524,-1.6151277,321.80685,-113.47897,-21.94049,JOG
14005461140000,2.854994,0.724191554894962,14.8871890370182,1.1612156311187,0.002443461,-0.2773328,-1.6972891,321.96677,-113.42358,-21.981186,JOG
14005466113000,2.859967,0.963490500986437,14.109801404439,0.823121209112207,0.061086524,-0.33108896,-1.7702875,322.12402,-113.41242,-22.0612,JOG
14005471149000,2.865003,1.2261421702425,13.5993651327579,0.466311356781751,0.17165314,-0.20861048,-1.7672331,322.28766,-113.40644,-22.141315,JOG
14005476137000,2.869991,1.45836912344042,13.1822542924649,0.337882799499951,0.28680122,-0.06566802,-1.68385,322.368,-113.45342,-22.242409,JOG
14005481105000,2.874959,1.65000688046959,12.8924606372925,0.529520571171038,0.37782016,0.10415252,-1.561677,322.40433,-113.493355,-22.320568,JOG
14005486098000,2.879952,1.79868986049458,12.5879092879624,0.701586757643572,0.3903429,0.34116822,-1.4239268,322.29965,-113.53049,-22.362965,JOG
14005491142000,2.884996,1.87273254359289,12.2571850423053,0.839799650980993,0.3115413,0.6789767,-1.2724323,322.1206,-113.5256,-22.352125,JOG
14005496137000,2.889991,1.86588248734928,11.9579224830994,0.820415635031627,0.19608775,1.2202033,-1.0864239,321.79053,-113.46141,-22.266954,JOG
14005501251000,2.895105,1.74487093340581,11.6916972868156,0.578392552416485,0.10720685,1.8524488,-0.8772025,321.34122,-113.340546,-22.11247,JOG
14005506122000,2.899976,1.63119294690265,11.4132652212389,0.571048878761062,0.043982297,2.3203716,-0.7098254,320.76724,-113.180374,-21.912376,JOG
14005511138000,2.904992,1.51655697267575,11.088463136323,0.905403907497266,-0.00030543262,2.6068676,-0.573297,320.07217,-112.960884,-21.641624,JOG
14005516096000,2.90995,1.41720975175547,10.8055633498628,1.28593761173465,-0.056505036,2.6899452,-0.45845437,319.2879,-112.73093,-21.345625,JOG
14005521145000,2.914999,1.33941974616258,10.5813456071733,1.7572530417337,-0.12308934,2.6514606,-0.3304781,318.47235,-112.45102,-20.99835,JOG
14005526082000,2.919936,1.28568599374094,10.3405650064716,2.19188262785666,-0.11453723,2.6053402,-0.19333886,317.6532,-112.15603,-20.641747,JOG
14005531153000,2.925007,1.29506771109823,10.0309714684632,2.56245683887762,-0.12889257,2.486527,-0.056199603,316.88556,-111.81424,-20.253225,JOG
14005536161000,2.930015,1.35852813770761,9.68234257104778,2.92399141429157,-0.14721853,2.4028385,0.012217305,316.13968,-111.45763,-19.870758,JOG
14005541147000,2.935001,1.63267180026656,9.16832298011072,3.26667095415214,-0.17867808,2.176513,0.13439035,315.4909,-111.044685,-19.447107,JOG
14005546154000,2.940008,1.97681575761046,8.59987656834211,3.60612862125051,-0.26450464,1.8707749,0.26419923,314.89468,-110.60611,-19.02759,JOG
14005551282000,2.945136,2.53918041354884,7.85835134710174,3.93956601233279,-0.38789943,1.5005904,0.40561453,314.39703,-110.12325,-18.584969,JOG
14005556176000,2.95003,3.20682305427831,6.80268643232498,3.969681366465,-0.5207626,1.1588113,0.552833,313.9718,-109.576485,-18.107834,JOG
14005561169000,2.955023,4.21707357941035,4.85106595801402,3.2762821716028,-0.6417139,0.8918633,0.70157874,313.63922,-108.98106,-17.604841,JOG
14005566138000,2.959992,5.05838179557744,3.10149434256709,2.6336939458438,-0.7440339,0.75777835,0.83108217,313.35202,-108.29393,-17.03319,JOG
14005571160000,2.965014,5.21790805606594,2.14433738536536,2.18412025564378,-0.82711154,0.7693848,0.9560041,313.10056,-107.56086,-16.427622,JOG
14005576160000,2.970014,5.32116328242702,1.24301142767602,1.75824855663995,-0.93126404,0.8958339,1.0720685,312.81683,-106.76592,-15.725011,JOG
14005581142000,2.974996,5.21192069368441,0.542038866016027,1.41686582328754,-1.0311406,1.0913107,1.1768318,312.51044,-105.92808,-14.984658,JOG
14005586170000,2.980024,5.07618173199876,-0.150173345328655,1.06473122689712,-1.1398746,1.3029755,1.2904528,312.14844,-105.08089,-14.216955,JOG
14005591161000,2.985015,4.74079302117429,-0.717375099991745,0.655359539230214,-1.244027,1.4984524,1.3988814,311.73444,-104.19124,-13.411827,JOG
14005596156000,2.99001,4.31786749355558,-1.25441232159124,0.236405782713441,-1.3362677,1.6530013,1.5088371,311.2704,-103.317375,-12.609824,JOG
14005601229000,2.995083,3.46098868097684,-1.64989477862196,-0.234406678306037,-1.3888022,1.7513506,1.59558,310.7658,-102.40728,-11.775565,JOG
14005606199000,3.000053,2.5640887200705,-1.96964973564991,-0.747694798377729,-1.3762794,1.7815884,1.6310102,310.23978,-101.56045,-10.988217,JOG
14005611168000,3.005022,1.23454585586141,-1.77903424809734,-1.65311830205287,-1.3045027,1.7513506,1.5531249,309.7012,-100.71441,-10.202982,JOG
14005616888000,3.010742,-0.305329440574431,-1.44486877662969,-2.88629283273983,-1.2235631,1.6566665,1.3921618,309.1902,-100.05114,-9.581367,JOG
14005621177000,3.015031,-1.48426530350963,-0.897362995668418,-4.30501236730882,-1.0989466,1.6001616,1.1655309,308.67477,-99.43228,-8.997349,JOG
14005626322000,3.020176,-2.90017634444444,-0.206669862962963,-5.84569492592593,-0.8897252,1.6493362,0.8970556,308.1796,-99.14536,-8.694355,JOG
14005631119000,3.024973,-4.23705286666667,0.77460660031746,-5.67914793650794,-0.5928447,1.6829338,0.6160576,307.7033,-98.944695,-8.461168,JOG
14005636404000,3.030258,-5.70911970075612,1.87411227733642,-5.39372642054643,-0.46609017,1.559539,0.33536503,307.2616,-99.17223,-8.565547,JOG
14005641147000,3.035001,-7.01882061080754,3.1197015413953,-3.70393796834358,-0.36285394,1.3845261,0.20005837,306.82425,-99.47963,-8.709308,JOG
14005646486000,3.04034,-8.48099489810771,4.50861285953421,-1.81178687190684,-0.4560109,0.82619524,-0.06169739,306.5094,-100.14443,-9.259092,JOG
14005651188000,3.045042,-9.6608236583212,5.61415649897137,-0.234311637127608,-0.8436049,0.0067195175,-0.2996294,306.3233,-100.81077,-9.843326,JOG
14005656510000,3.050364,-10.9778827296441,6.84228812315943,1.51005085672355,-1.3607023,-0.9663888,-0.50793445,306.38138,-101.55017,-10.68692,JOG
14005661165000,3.055019,-11.7168985914188,7.39437634329595,2.1099577062116,-1.8274034,-1.8863518,-0.7012733,306.65558,-102.309296,-11.586071,JOG
14005666166000,3.06002,-12.5108445258411,7.98750055143832,2.75445483924915,-2.0980167,-2.533869,-0.84849185,307.1985,-103.12016,-12.6482935,JOG
14005671193000,3.065047,-12.6629355406337,7.80461130807677,2.55795695369852,-2.1197023,-2.7473664,-0.9599747,307.8758,-103.99027,-13.721011,JOG
14005676160000,3.070014,-12.7580331844262,7.55735659016393,2.29168265737705,-1.9269744,-2.5411994,-1.0668762,308.6123,-104.922424,-14.794006,JOG
14005681107000,3.074961,-11.9048441169377,7.28513374574687,2.24533413422135,-1.5647314,-2.1533,-1.1447614,309.37253,-105.974815,-15.935857,JOG
14005686098000,3.079952,-10.9576444111049,7.00812251542344,2.21852666051598,-1.1102476,-1.915368,-1.2006557,310.1125,-107.05257,-17.048512,JOG
14005691141000,3.084995,-9.24430555525693,7.33395204697914,2.13648140707375,-0.59986967,-1.8777997,-1.2479976,310.79242,-71.83682,-18.162281,JOG
14005696087000,3.089941,-7.33985362556439,7.83297962620942,2.03973111763062,-0.07360926,-1.8793269,-1.2825116,311.41205,-70.74557,-19.245684,JOG
14005701139000,3.094993,-5.09413785495451,8.88994462697785,1.83555996452729,0.5027421,-1.8365663,-1.278541,311.98904,-69.818115,-20.1652,JOG
14005706079000,3.099933,-2.8671513159909,9.98004512539557,1.62502553790546,1.0986412,-1.8634444,-1.153619,312.5879,-68.94402,-21.036055,JOG
14005711167000,3.105021,-0.744555557943925,11.7779461770782,1.30776876293655,1.7556267,-1.8096883,-0.8848383,313.0935,-68.424446,-21.560081,JOG
14005716104000,3.109958,1.29272379196262,13.6105673766847,0.986827506463355,2.324953,-1.8894062,-0.528093,313.64664,-67.978004,-22.013914,JOG
14005721174000,3.115028,3.35235033528302,15.1003186586892,-0.839186975804369,2.6013696,-2.1084013,-0.16340645,313.974,-68.08349,-21.916283,JOG
14005726075000,3.119929,5.33792205622642,16.4753041858987,-2.85272440138034,2.158187,-2.1453588,0.11789699,314.26965,-111.7599,-21.757113,JOG
14005731127000,3.124981,7.06159637278601,16.7516028773482,-4.78958747684127,0.7425067,-1.5641204,0.2180789,314.49533,-111.2184,-21.211615,JOG
14005736147000,3.130001,8.71014740826956,16.7993869306232,-6.68661563925057,-0.23548855,-0.105374254,0.22021692,314.46112,-110.65365,-20.637941,JOG
14005741157000,3.135011,9.176672,16.0683534123223,-4.42817521128555,-2.1325307,1.0995574,0.1740966,314.3172,-109.79242,-19.781567,JOG
14005746155000,3.140009,9.408246,15.1845917345972,-1.35155233433057,-3.0998356,1.4611896,0.16737708,314.00357,-108.954735,-18.946745,JOG
14005751116000,3.14497,9.51315109129617,14.347166025052,0.81575920482226,-2.9495628,1.2144,0.22143865,313.4508,-107.959015,-17.951422,JOG
14005756115000,3.149969,9.58899887543321,13.5128354495495,2.78781322487375,-2.1609359,0.6722572,0.38912117,312.9095,-106.976204,-16.971325,JOG
14005761141000,3.154995,9.74818330009461,13.1704379123936,3.7848265269631,-1.2675453,0.008857546,0.6719518,312.6197,-74.056404,-15.943131,JOG
14005766140000,3.159994,9.92935424881741,12.9666205950804,4.50498166296121,-0.4361578,-0.6056729,1.0650436,312.48343,-75.1277,-14.864917,JOG
14005771154000,3.165008,9.93802014038562,12.8223892039604,4.90240399163106,0.28130344,-1.0793989,1.5314392,312.5793,-76.27021,-13.698811,JOG
14005776169000,3.170023,9.86293782876498,12.7072626792079,5.14266759788431,0.79901177,-1.3918564,2.024102,312.7993,-77.507225,-12.434461,JOG
14005781126000,3.17498,9.48940553708887,12.5381004594122,4.82262930745276,1.1557571,-1.4385877,2.4452937,313.09583,-78.85064,-11.055453,JOG
14005786132000,3.179986,9.01552624440168,12.349387133485,4.31939437010147,1.3500122,-1.0577132,2.7433958,313.34354,-80.27512,-9.599673,JOG
14005791152000,3.185006,8.33215681587579,12.2093641493549,3.80738051268314,1.4804319,-0.33200526,2.8735101,313.50095,-81.73202,-8.112834,JOG
14005796165000,3.190019,7.41355937076318,12.1253785858299,3.28771696080254,1.534188,0.6062838,2.8909197,313.47357,-83.20919,-6.6074677,JOG
14005801142000,3.194996,6.50298868532119,12.2555467938184,2.99322865008236,1.4117095,1.7528778,2.8136454,313.15494,-84.607506,-5.1978793,JOG
14005806155000,3.200009,5.58663564791202,12.506730102025,2.82112164049026,1.1184943,2.9984322,2.683531,312.5351,-85.9486,-3.8287857,JOG
14005811147000,3.205001,4.68384022610103,13.0803583706719,3.05133408312898,0.66981375,4.180456,2.5118778,311.5926,-87.10109,-2.6320732,JOG
14005816117000,3.209971,3.79213091849926,13.8880323638058,3.57422122633644,0.09010262,5.1541753,2.3585508,310.35464,-88.06057,-1.4912978,JOG
14005821151000,3.215005,2.92939318139535,14.846975543008,4.25233568731593,-0.505491,5.8765235,2.2583687,308.8393,-88.51432,-0.5447909,JOG
14005826179000,3.220033,2.10297706976744,15.9276728359907,5.05919156667005,-1.0613784,6.3783493,2.2269092,307.11185,-88.26042,0.35099024,JOG
14005831169000,3.225023,1.2356201689378,16.8270704704835,5.70985639226738,-1.5775595,6.602537,2.2256875,305.23157,-87.50058,1.0292743,JOG
14005836180000,3.230034,0.329264869759122,17.6005571925245,6.25082240789083,-1.8161024,6.99288,2.2608123,303.1663,-86.6099,1.6702963,JOG
14005841159000,3.235013,-0.639999869428333,17.9809330693492,6.74805545438532,-2.2482896,7.028921,2.2693644,301.10345,-85.54502,2.0817244,JOG
14005846165000,3.240019,-1.67119087112275,18.0431595151122,7.21475825316151,-2.6563475,6.851159,2.1484132,299.01025,-84.45089,2.4331565,JOG
14005851186000,3.24504,-2.75175623981126,18.053536161568,8.22277841638494,-3.08884,6.468452,1.917506,296.96402,-83.28203,2.5766761,JOG
14005856185000,3.250039,-3.89859853551799,17.984031243389,10.0547470110754,-3.5537086,5.3469033,1.6261233,295.2071,-82.025444,2.676745,JOG
14005861181000,3.255035,-4.89253986297658,18.126002317786,11.6969673069479,-4.327369,2.7824912,1.428203,293.99664,-80.58919,2.725342,JOG
14005866159000,3.260013,-5.70908552874008,18.508902717244,13.1178491093478,-5.6462274,-0.1994475,1.312444,293.2293,-78.9107,2.789639,JOG
14005871161000,3.265015,-6.64191104469274,18.8239547839851,13.575334707635,-6.778466,-3.0112603,1.2504412,293.10742,-76.94418,2.8844855,JOG
14005876155000,3.270009,-7.74529675046555,19.0317668727498,12.5461677157045,-7.468744,-5.5240545,1.1621711,293.7019,-74.79209,3.127715,JOG
14005881112000,3.274966,-8.8124912027786,19.1589585530594,10.9563170390186,-7.580532,-7.8346524,1.044885,294.9441,-72.43414,3.5164402,JOG
14005886115000,3.279969,-9.85581758192925,19.1920052684008,8.66666394482215,-7.115664,-9.830654,0.88117313,296.72214,-70.12903,4.118721,JOG
14005891133000,3.284987,-10.8761067657183,18.9390199479706,5.75368698186232,-6.047566,10.002308,0.6392705,293.2501,-68.173355,2.6499753,JOG
14005896149000,3.290003,-11.8605556483287,18.2986501023677,2.0070479978273,-4.3713517,10.002308,0.30268374,295.65924,-66.602135,3.2046912,JOG
14005901188000,3.295042,-12.5951859683942,17.5727238207695,-1.57100238367491,-2.4514022,10.002308,-0.12034045,292.92316,-65.64121,1.5418314,JOG
14005906227000,3.300081,-12.9835950362191,16.7343273047703,-4.89616779522968,-0.7275405,10.002308,-0.5342017,290.2555,-65.07609,-0.20046306,JOG
14005911109000,3.304963,-13.0570234977071,15.8360996812354,-8.01022500187178,0.5140431,10.002308,-0.84391034,287.71832,-65.21048,-2.0574205,JOG
14005916141000,3.309995,-12.6285636500702,14.7672044546561,-11.0410172040243,1.1844677,10.002308,-1.0002918,285.20364,-65.59668,-3.9094963,JOG
14005921106000,3.31496,-12.2456698289474,13.8067141,-13.677898477193,1.3008375,-9.743607,-1.0393872,287.95386,-66.41422,-3.4269798,JOG
14005926148000,3.320002,-11.9868250482456,13.1384250111111,-15.2027270471735,0.91965765,-9.244529,-0.99173975,285.43396,-67.15153,-5.2512746,JOG
14005931122000,3.324976,-11.6888703107892,12.3493930511237,-16.5787228620726,0.28496864,-7.847175,-0.95325524,287.94873,-68.10945,-5.0055776,JOG
14005936174000,3.330028,-11.1993304884439,10.9786803647886,-17.4135178387475,-0.042455133,-5.568953,-0.7993172,290.0655,-69.05745,-4.8958535,JOG
14005941143000,3.334997,-10.8081188024088,9.67582608495374,-17.4033152155699,-0.5696318,-2.5234842,-0.5534439,291.60922,-69.860016,-5.0110445,JOG
14005946164000,3.340018,-10.6108764992145,8.45879940055856,-15.5693820384011,-0.69974613,-0.21471913,-0.35369098,292.70477,-70.66428,-5.2519293,JOG
14005951388000,3.345242,-10.4101103797468,7.18127166075949,-13.6185831392405,-0.3359759,1.1472049,-0.30970868,293.21527,-71.45897,-5.65214,JOG
14005956150000,3.350004,-10.2829135897876,5.87506394928127,-11.3045893117357,-0.005497787,1.6942347,-0.4007276,293.28528,-72.16968,-6.162268,JOG
14005961128000,3.354982,-10.1385388592497,4.57076056963775,-9.08154475324915,0.17623462,1.6707164,-0.6053675,293.1084,-72.66878,-6.755487,JOG
14005966122000,3.359976,-9.93134516895566,3.59650730638769,-7.92213948087381,0.30879238,1.3723087,-0.8775079,292.8532,-73.18092,-7.409324,JOG
14005971610000,3.365464,-9.69278137029894,2.53831560663452,-6.68783882883317,0.42149702,1.0595458,-1.2000448,292.61127,-73.42957,-8.124862,JOG
14005976135000,3.369989,-9.3835436557377,1.79447383508197,-6.08190031147541,0.5390886,0.88422745,-1.5332718,292.4261,-73.62385,-8.90415,JOG
14005981784000,3.375638,-8.99732634742704,0.868845620138187,-5.32784022030525,0.6404922,0.81092364,-1.851838,292.31622,-73.60803,-9.748192,JOG
14005986151000,3.380005,-8.69542555419202,0.213289134604517,-4.79304403405177,0.7440339,0.689056,-2.1502457,292.28336,-73.50718,-10.6636305,JOG
14005991472000,3.385326,-8.33068546188851,-0.576155518619644,-4.1562866859689,0.8353582,0.37934732,-2.4153612,292.3332,-73.22924,-11.644222,JOG
14005996127000,3.389981,-8.08132786234357,-1.05796474449185,-3.93228775939515,0.9074403,-0.19425514,-2.6410758,292.50272,-72.84959,-12.676518,JOG
14006001206000,3.39506,-7.80925756200227,-1.58365949383769,-3.68788592307547,0.99265605,-0.95630956,-2.8044822,292.82013,-72.31663,-13.745393,JOG
14006006178000,3.400032,-7.45612355411471,-1.79932634306541,-3.97458060594667,1.1053606,-1.6789632,-2.924212,293.2981,-71.69848,-14.841619,JOG
14006011113000,3.404967,-7.09347981720698,-1.97158212519662,-4.33269129969307,1.2382239,-2.130698,-2.992018,293.92053,-71.01381,-15.948861,JOG
14006016151000,3.410005,-6.3897187147541,-1.83278100819672,-4.61183433715847,1.3402383,-2.189952,-2.9969049,294.6365,-70.24326,-17.069626,JOG
14006021165000,3.415019,-5.59299516089419,-1.60378258655738,-4.86468674548435,1.3891076,-1.8735237,-2.9345965,295.37085,-69.43718,-18.194485,JOG
14006026155000,3.420009,-4.62099102055888,-0.948910541215968,-4.94452254383234,1.3949108,-1.609019,-2.8050933,296.10464,-68.63615,-19.296972,JOG
14006031132000,3.424986,-3.59826545274451,-0.168785006806986,-4.97306370167665,1.3878858,-0.93401295,-2.7140744,296.61206,-67.79842,-20.436735,JOG
14006036127000,3.429981,-2.93995362383234,0.725795777247904,-4.84597881736527,1.3640621,-0.105374254,-2.4859161,296.94754,-67.087425,-21.436443,JOG
14006041139000,3.434993,-2.39606860608936,1.65880171038766,-4.66910554514049,1.3610078,0.7049385,-2.2724187,297.06644,-66.35616,-22.448029,JOG
14006046140000,3.439994,-2.18554368059089,2.53031846860895,-4.3792079283135,1.4150693,1.4446963,-2.164601,296.9201,-65.78683,-23.290056,JOG
14006051147000,3.445001,-2.20521993729996,3.36164093093968,-4.0102780122897,1.4972308,2.1493294,-2.1450534,296.5104,-65.21386,-24.120296,JOG
14006056147000,3.450001,-2.42893448287019,4.29670343081462,-3.6619146559764,1.5723672,2.8017335,-2.1591032,295.88858,-64.77477,-24.785776,JOG
14006061144000,3.454998,-2.76594361393224,5.28951421960411,-3.32490542980586,1.6395624,3.3915238,-2.1847596,295.0453,-64.304474,-25.448528,JOG
14006066114000,3.459968,-3.42170448258064,6.71737410064516,-2.95805523569892,1.7229455,3.9321396,-2.2351558,294.09253,-63.89348,-25.998829,JOG
14006071150000,3.465004,-4.36553698193548,8.54799421548387,-2.55874159010753,1.8212948,4.367992,-2.2996023,292.97235,-63.438248,-26.539362,JOG
14006076143000,3.469997,-5.55346189959281,10.8864022321978,-1.51060459459529,1.947133,4.4587054,-2.395508,292.05188,-116.87411,-26.87382,JOG
14006081130000,3.474984,-6.85784892054822,13.46671684348,-0.158785344447314,2.1416936,3.7647624,-2.568383,291.2473,-117.259514,-27.227507,JOG
14006086149000,3.480003,-8.12068153428489,15.1750497266853,1.02754632497059,2.35794,2.3420575,-2.8359418,291.39813,-117.27551,-27.190893,JOG
14006091141000,3.484995,-9.35171431893143,16.4291360285466,2.12026088531006,2.4669793,0.7031059,-3.1483996,291.83432,-117.405426,-27.257341,JOG
14006096201000,3.490055,-10.0145822408377,17.3300594764398,2.40367805968586,2.430022,-0.6417139,-3.441004,292.9048,-117.49844,-27.323006,JOG
14006101214000,3.495068,-10.2801637804999,17.9750413762719,2.13335449835029,2.3014348,-1.4086553,-3.6050212,294.26736,-117.6989,-27.508936,JOG
14006106247000,3.500101,-9.93027656305423,18.4227764644824,1.65752237294875,2.169488,-1.6255124,-3.5848627,295.43817,-118.28937,-28.10025,JOG
14006111153000,3.505007,-9.16278179482871,18.7210033798189,1.05229823724447,2.0613647,-1.4837917,-3.4080172,296.72363,-118.887344,-28.706211,JOG
14006116121000,3.509975,-8.20528256677878,18.9694040295107,0.430084554198763,1.9477439,-1.102001,-3.1496212,298.04858,-119.398506,-29.224432,JOG
14006121155000,3.515009,-6.9865728495172,19.1472418083975,-0.213268647114028,1.8008307,-0.87964594,-2.8292224,299.362,-119.85307,-29.687445,JOG
14006126139000,3.519993,-5.85136192987769,19.2665762215104,-0.686850980935741,1.6233743,-0.4202753,-2.654515,300.59473,-120.06709,-29.896784,JOG
14006131116000,3.52497,-4.76872558404193,19.3452289573869,-1.04310318677441,1.5076154,-0.013744468,-2.303573,301.7476,-120.17253,-29.994656,JOG
14006136185000,3.530039,-3.73782419176257,19.4039526339592,-1.28030288128407,1.2550226,0.34422258,-1.9367483,302.70306,-120.107185,-29.91417,JOG
14006141146000,3.535,-2.79298506486978,19.4423220075712,-1.40020628488795,0.98471475,0.6957755,-1.5784758,303.5072,-119.97864,-29.76597,JOG
14006146241000,3.540095,-2.0465183670543,19.4698934082959,-1.4163887617068,0.6774496,1.0607675,-1.2660183,304.09158,-119.682434,-29.4441,JOG
14006151246000,3.5451,-1.49350835066386,19.4874491756249,-1.34616532575771,0.35918877,1.4318681,-1.0134255,304.54697,-119.328445,-29.06607,JOG
14006156105000,3.549959,-1.0868602404023,19.2889246600575,-1.1457549182931,0.12003502,1.7788396,-0.81183994,304.80988,-118.84567,-28.555603,JOG
14006161116000,3.55497,-0.90758960348659,18.6867584538314,-0.69527987054023,-0.032375857,2.0463986,-0.70952,304.97067,-118.34409,-28.028975,JOG
14006166123000,3.559977,-0.759909342328924,17.9209866325383,-0.126737827955421,-0.09865474,2.144137,-0.677755,305.02472,-117.77745,-27.438814,JOG
14006171111000,3.564965,-0.700204161660244,16.702006401729,0.768839757387772,-0.081855945,2.0619757,-0.70402217,305.04605,-117.22518,-26.865034,JOG
14006176098000,3.569952,-0.665470973669065,15.5128972402878,1.68689598446043,-0.061086524,1.8026633,-0.77213365,305.05872,-116.720825,-26.349358,JOG
14006181142000,3.574996,-0.679371802215827,14.3683950125659,2.65995466010552,-0.004886922,1.3799446,-0.86742866,305.14194,-116.25418,-25.876114,JOG
14006186152000,3.580006,-0.707839243280708,13.1182412930304,3.62248157112052,0.080634214,0.8011498,-1.0064005,305.34256,-115.88144,-25.515018,JOG
14006191163000,3.585017,-0.777134648854448,11.5521648665768,4.57413848719677,0.1591304,0.17684549,-1.1667526,305.67435,-115.554955,-25.20847,JOG
14006196166000,3.59002,-0.818713966604303,10.2591067492984,5.16343081412535,0.20586158,-0.34330627,-1.3213016,306.1454,-115.32703,-25.019754,JOG
14006201138000,3.594992,-0.742991801927035,10.1210251466791,4.21913085352666,0.16187929,-0.6462954,-1.4037683,306.7189,-115.12891,-24.86574,JOG
14006206355000,3.600209,-0.656702596697053,9.98997641774433,3.22925290486538,0.069027774,-0.59223384,-1.3952162,307.229,-115.08506,-24.872688,JOG
14006211169000,3.605023,-0.510096426317575,10.0046373287047,2.32518161270935,-0.03970624,-0.18661933,-1.2690725,307.7082,-115.027466,-24.860659,JOG
14006216102000,3.609956,-0.353924808557818,10.0159181443741,1.51414037204092,-0.12156218,0.44226643,-1.0601566,308.09146,-114.90825,-24.767841,JOG
14006221129000,3.614983,-0.161635781786361,10.006538002338,1.33123127525572,-0.20891592,0.7657196,-0.8197812,308.42627,-114.740204,-24.62487,JOG
14006226104000,3.619958,0.0132345387304822,9.98812727334482,1.15922616745121,-0.27763826,1.2892311,-0.70280045,308.40536,-114.55295,-24.4426,JOG
14006231182000,3.625036,0.0504569069216418,9.88576612313433,1.0661702141791,-0.43371433,1.6022996,-0.48258355,308.3475,-114.26422,-24.1618,JOG
14006236225000,3.630079,0.0933948055976676,9.77962335568513,0.981189932653061,-0.54641896,1.781894,-0.29901853,308.11102,-113.94846,-23.847616,JOG
14006241145000,3.634999,0.304355783815077,9.54903805789255,1.10874774606414,-0.63621616,1.9098701,-0.14630222,307.79822,-113.57756,-23.479345,JOG
14006246146000,3.64,0.54044574682936,9.30412579322529,1.23108306900971,-0.68936145,1.9642372,-0.015577064,307.42407,-113.17619,-23.080486,JOG
14006251169000,3.645023,0.980106314816734,8.95964941873174,1.28547407052671,-0.70432764,1.9456058,0.099571034,307.04062,-112.73847,-22.64685,JOG
14006256528000,3.650382,1.45618881369991,8.58234529278658,1.33576556205033,-0.7370089,1.8527542,0.21013765,306.61932,-112.28316,-22.198889,JOG
14006261146000,3.655,1.98788631081081,8.08774281675676,1.24508844216216,-0.73975784,1.7776178,0.31703907,306.20612,-111.80054,-21.72395,JOG
14006267066000,3.66092,2.67034993659897,7.45102265015258,1.12893853252657,-0.7476991,1.7073684,0.4370741,305.72696,-111.30303,-21.235714,JOG
14006271149000,3.665003,3.19703300488267,6.83793057552352,1.05487373746185,-0.75747293,1.6850718,0.571159,305.26367,-110.77343,-20.715939,JOG
14006276128000,3.669982,3.83929482143534,6.09029759987372,0.964555683426287,-0.78801614,1.6710218,0.7107417,304.74185,-110.212,-20.163973,JOG
14006281115000,3.674969,4.24153337318621,5.25343344743677,0.811169846200566,-0.79717916,1.641395,0.88239485,304.2383,-109.60408,-19.565403,JOG
14006286124000,3.679978,4.6256325515477,4.4056052456596,0.651909241452007,-0.8151997,1.6432275,1.0454959,303.7353,-108.96018,-18.931019,JOG
14006291150000,3.685004,4.72187810092796,3.54581253927102,0.430418499239453,-0.80848014,1.6639969,1.2189816,303.1929,-108.243225,-18.221947,JOG
14006296129000,3.689983,4.77661780708887,2.69278399484359,0.202336039344686,-0.80664754,1.6896533,1.3787229,302.65323,-107.483955,-17.470112,JOG
14006301251000,3.695105,4.4198993785759,1.63038281660054,-0.00065191825224474,-0.799928,1.7061466,1.5140295,302.08978,-106.678856,-16.670395,JOG
14006306097000,3.699951,3.97896827427438,0.578931857945291,-0.184776978427647,-0.8026769,1.7122552,1.5858061,301.52545,-105.84496,-15.840952,JOG
14006311145000,3.704999,2.87977750541453,-0.339833799411254,-0.477036081966026,-0.8304713,1.6924021,1.5445728,300.95972,-105.03754,-15.036121,JOG
14006316093000,3.709947,1.70438781800984,-1.21337237290802,-0.778887124239938,-0.86101454,1.6701056,1.3891076,300.3958,-104.23949,-14.23941,JOG
14006321177000,3.715031,0.199144561269937,-1.32452834636373,-1.62227296388805,-0.8762862,1.5940529,1.1881329,299.86804,-76.43235,-13.567337,JOG
14006326081000,3.719935,-1.3272421887752,-1.23501807283579,-2.56919802678303,-0.88331115,1.543351,1.0946705,299.34094,-77.093544,-12.904191,JOG
14006331156000,3.72501,-2.7440119429919,-0.810031802271558,-3.61707175825631,-0.8549059,1.6484199,0.92485,298.82816,-77.45844,-12.537644,JOG
14006336125000,3.729979,-4.09068982202001,-0.311262198858504,-4.65995368901382,-0.72173727,1.9172006,0.7666359,298.2835,-77.801865,-12.193019,JOG
14006341126000,3.73498,-5.42249330047439,0.393594911098652,-4.26486132977898,-0.54702985,2.1206186,0.6026186,297.77563,-77.845314,-12.153089,JOG
14006346108000,3.739962,-6.73938640790297,1.18064429898437,-3.26690340063612,-0.39278635,2.0167716,0.44715336,297.28152,-77.84234,-12.157657,JOG
14006351173000,3.745027,-7.82929478906791,1.92841321037857,-1.48657283640407,-0.4071417,1.5100589,0.2910773,296.90384,-102.44584,-12.440529,JOG
14006356103000,3.749957,-8.84664953059207,2.64709493677968,0.380133045181378,-0.57818395,0.6646214,0.15271631,296.6588,-102.78429,-12.7646,JOG
14006361166000,3.75502,-9.6410040754341,3.13346686137205,1.94219989453459,-0.88361657,-0.37110063,0.022602014,296.90002,-103.30302,-13.284711,JOG
14006366121000,3.759975,-10.3659254180662,3.5567128153525,3.39654514631369,-1.1841623,-1.459357,-0.12797627,297.39667,-103.84397,-13.831418,JOG
14006371131000,3.764985,-10.8732372884901,3.72529147407554,4.19053615727174,-1.4309518,-2.4623978,-0.29565877,298.01584,-104.52627,-14.525607,JOG
14006376152000,3.770006,-11.2927369354615,3.79203010631506,4.71967772914643,-1.5943583,-3.2088752,-0.4615087,298.87115,-74.7538,-15.240103,JOG
14006381124000,3.774978,-11.4548180823415,3.62506525303415,4.52121894973659,-1.6575829,-3.5665367,-0.6545421,299.91458,-73.89017,-16.05459,JOG
14006391147000,3.785001,-11.2422148186813,3.20302562537463,3.33897617767233,-1.4471397,-3.1926873,-1.0360274,302.21152,-71.93825,-17.76223,JOG
14006396189000,3.790043,-10.7984246274725,3.10654965014985,2.56716772106893,-1.1462886,-2.7394252,-1.1960741,303.31696,-70.8729,-18.659092,JOG
14006401149000,3.795003,-10.0520725168662,3.73339145397171,0.955492207725789,-0.7287622,-2.363743,-1.3170254,304.333,-69.79944,-19.58964,JOG
14006406127000,3.799981,-9.14189773479078,4.73788458769413,-1.10536945843308,-0.2003638,-2.2464569,-1.4483615,305.29102,-68.73205,-20.539268,JOG
14006411171000,3.805025,-7.75781481362687,6.63123593345986,-3.0503720732397,0.82986045,-2.003638,-1.527774,306.06958,-67.81202,-21.452133,JOG
14006416177000,3.810031,-6.11548445105333,9.01966674959195,-4.89742546130196,2.5170703,-1.4037683,-1.4840971,306.69943,-66.98853,-22.361773,JOG
14006421171000,3.815025,-4.23251568731343,11.466277669936,-4.44889051130064,3.7348301,-1.1707232,-1.4114041,307.241,-66.478165,-23.064901,JOG
14006426160000,3.820014,-2.1339207608209,13.96727294371,-1.9631760445629,4.0329323,-1.2119566,-1.1777482,307.67932,-66.01765,-23.716347,JOG
14006431157000,3.825011,-0.240015354455542,15.5830051160671,-1.2274823393387,3.8347065,-1.9660698,-0.9334021,308.11508,-65.9973,-23.918354,JOG
14006436183000,3.830037,1.55219674058955,16.7264744551537,-1.43750714891884,2.2519548,-2.4480424,-0.7086037,308.49777,-65.8979,-24.088882,JOG
14006441157000,3.835011,3.08299273198198,17.5289188932628,-1.74841234918723,-0.2742785,-2.1288655,-0.45081854,308.87228,-66.255516,-23.740894,JOG
14006446184000,3.840038,4.45957327837838,18.108779306698,-2.13498633554642,-2.7769935,-1.2449434,-0.12003502,309.2147,-66.650894,-23.344368,JOG
14006451195000,3.845049,5.40433609223713,18.1831354544289,-1.61945512315545,-4.2103887,-0.27030787,0.28496864,309.40762,-67.29768,-22.68091,JOG
14006456286000,3.85014,6.01029359755376,17.8416834202012,-0.34983020272243,-4.2116103,0.39706242,0.6942484,309.41873,-67.97975,-21.954405,JOG
14006461179000,3.855033,6.51202437574436,17.032588528352,0.838161258434478,-3.3200526,0.591623,1.0528263,309.24716,-68.855034,-20.999346,JOG
14006466169000,3.860023,6.95157136000379,15.7773872918642,2.02085960714489,-2.2131648,0.49480084,1.3701707,308.96396,-69.7736,-19.98409,JOG
14006471163000,3.865017,7.36590839587946,14.6802695557606,3.0189212902829,-1.201572,0.30757064,1.7015651,308.69812,-70.81092,-18.82825,JOG
14006476177000,3.870031,7.74489494704797,13.8090927091021,3.75228508856089,-0.32711834,0.14049901,2.0781636,308.45245,-71.94496,-17.605515,JOG
14006481117000,3.874971,8.03116469001476,13.1777748724053,4.25241752547959,0.3277292,0.109650314,2.4923303,308.2672,-73.16813,-16.280466,JOG
14006486180000,3.880034,8.21719594594196,12.8104824885391,4.49091919311362,0.78954333,0.3222314,2.8909197,308.0498,-74.49758,-14.883397,JOG
14006491155000,3.885009,8.19510547982021,12.4436791394325,4.47568675648469,1.0638218,0.90377516,3.2192597,307.75253,-75.91166,-13.395247,JOG
14006496161000,3.890015,7.89432077376159,12.066575785935,4.12103024323438,1.146594,1.8509218,3.3915238,307.27863,-77.37367,-11.877136,JOG
14006501150000,3.895004,7.42757875145796,11.7171940771922,3.82685996110699,1.0366384,2.9856038,3.4293976,306.588,-78.85063,-10.329041,JOG
14006506182000,3.900036,6.53847407920687,11.4310450300074,3.6786758579578,0.7501425,4.056451,3.3582318,305.64133,-80.2796,-8.805748,JOG
14006511118000,3.904972,5.71304416237139,11.3972130414013,3.69847454645762,0.36163223,4.9098296,3.2623258,304.4329,-81.6023,-7.364111,JOG
14006516165000,3.910019,4.941024033366,11.7429646878981,3.97318090185203,-0.024129177,5.244278,3.1731396,303.07245,-82.784325,-5.9709034,JOG
14006521081000,3.914935,4.2382940663418,12.2398519352727,4.31934513093129,-0.36651915,5.713117,3.1367931,301.44385,-83.70108,-4.737777,JOG
14006526167000,3.920021,3.60535378343178,13.0597976989073,4.82761567749557,-0.5119051,5.9250875,3.0558534,299.8009,-84.382454,-3.5657372,JOG
14006531099000,3.924953,3.05579689352646,13.8731133319539,5.39401553709725,-0.7510588,5.9088993,2.9907963,298.11734,-84.62962,-2.5397716,JOG
14006536190000,3.930044,2.62824333665386,14.7522405953296,6.13863134702926,-0.9728029,5.698151,2.9400945,296.4355,-84.58082,-1.561933,JOG
14006541086000,3.93494,2.0113559623994,15.5589348420523,6.76712206589537,-1.1994339,5.329494,2.885422,294.85837,-84.11364,-0.73796433,JOG
14006546193000,3.940047,0.845221655714286,16.3019149714286,7.20011705714286,-1.4236214,4.9254065,2.7821858,293.3576,-83.43159,0.028705578,JOG
14006551225000,3.945079,-0.119685019109948,16.7738528586387,7.48485118429319,-1.6453656,4.540867,2.6209173,292.02493,-82.46554,0.64444196,JOG
14006556278000,3.950132,-0.700663865792562,16.6995913652284,7.47174631682614,-1.8677205,4.3316455,2.4208589,290.75784,-81.419174,1.1914638,JOG
14006561114000,3.954968,-1.27999301005361,16.6572437745524,7.67269404114494,-2.1331415,4.1303654,2.1746802,289.6187,-80.30583,1.5330566,JOG
14006566157000,3.960011,-2.12994498384748,16.9161383471225,10.1346245153838,-2.5094345,3.8093557,1.9401081,288.574,-79.137856,1.8133337,JOG
14006571138000,3.964992,-2.94996047971781,17.1889332857143,12.3093391569665,-2.8845057,3.1670308,1.7287487,287.67975,-77.96553,1.9904596,JOG
14006576181000,3.970035,-3.62810714618098,17.598441510989,12.5059029272148,-3.4012976,0.8032878,1.6548339,287.35315,-76.68603,2.2553265,JOG
14006581139000,3.974993,-4.29482361897979,18.001047456044,12.6991536059558,-4.7284026,-2.3185391,1.6972891,287.2904,-74.907555,2.5687044,JOG
14006586167000,3.980021,-5.1212320308226,18.3909486243806,12.4751941363726,-6.077193,-5.1993794,1.7849482,287.77896,-73.03167,3.044218,JOG
14006591795000,3.985649,-6.86264288235877,18.7274795976214,9.94320434767096,-6.8358874,-7.6049666,1.8286251,288.93066,-71.01225,3.7537615,JOG
14006596156000,3.99001,-8.23642149497794,18.8475244381864,7.67625419678964,-6.87651,-9.701456,1.8017471,290.68066,-68.92643,4.6527205,JOG
14006601255000,3.995109,-9.97829838533746,18.2057798924247,3.33073031081386,-6.1679063,10.002308,1.6206255,287.1731,-66.925934,3.4994373,JOG
14006606253000,4.000107,-11.645961872325,17.5465623563656,-0.92602194833152,-4.6315804,10.002308,1.2235631,289.59686,-65.513626,4.341078,JOG
14006611153000,4.005007,-12.3565800623867,16.197664070185,-5.0365457939971,-2.5619688,10.002308,0.68508536,286.84625,-64.47085,2.9582636,JOG
14006616138000,4.009992,-13.0795253026841,14.8253665280196,-9.21837464514871,-0.61178154,10.002308,0.39828414,284.2846,-64.26323,1.3859054,JOG
14006621180000,4.015034,-12.8514709591427,13.848551861353,-11.3869358531241,0.18875736,-9.231091,-0.10476339,286.79413,-64.28984,2.0561762,JOG
14006626088000,4.019942,-12.4152178070998,12.9895368044206,-13.0375040957803,1.284955,-7.2396693,-0.49021935,283.86383,-64.90134,0.087370105,JOG
14006631148000,4.025002,-11.8833986098788,12.3561121860205,-13.1801602136067,1.6991217,-5.5206947,-0.7263188,286.14325,-65.96178,0.42486045,JOG
14006636132000,4.029986,-11.3273542139795,11.8312068745573,-12.7086352607642,1.5338826,-4.2589526,-0.82802784,288.04675,-67.169785,0.46693912,JOG
14006641157000,4.035011,-10.7245136806956,10.9647355487755,-11.5994486885162,0.9578367,-3.458719,-0.83077675,289.68625,-68.48436,0.30455443,JOG
14006646170000,4.040024,-10.0921725813953,9.85319848837209,-10.0284756976744,0.21502456,-2.9593368,-0.7480045,291.05734,-69.67673,0.0076327366,JOG
14006651257000,4.045111,-9.84824162098241,8.67788260797453,-9.51584102122499,-0.44440445,-2.4959953,-0.59956425,292.1884,-70.64142,-0.3068477,JOG
14006656262000,4.050116,-9.82401891833434,7.49581365643825,-9.59819841257328,-0.8063421,-1.928807,-0.4896085,293.13644,-71.458176,-0.6761292,JOG
14006661114000,4.054968,-9.78184032158679,6.38094404641563,-9.45900984997986,-0.83199847,-1.351234,-0.4914411,293.90466,-72.003044,-1.0024292,JOG
14006666103000,4.059957,-9.72892386921063,5.25045749251913,-9.20404894391865,-0.6835582,-0.7583892,-0.60903263,294.50635,-72.487564,-1.3848326,JOG
14006671111000,4.064965,-9.56962173644563,4.14302221549212,-8.77495678223808,-0.46211955,-0.21380283,-0.7858781,294.9606,-72.92943,-1.8518912,JOG
14006676141000,4.069995,-9.35476261165626,3.04485505611062,-8.25452104430568,-0.2733622,0.160963,-0.9960158,295.30273,-73.38362,-2.3970728,JOG
14006681123000,4.074977,-9.11847276628649,2.01056293241833,-7.92674505296733,-0.110872045,0.32467487,-1.1969905,295.5477,-73.78544,-3.0359437,JOG
14006686265000,4.080119,-8.86144880784845,0.972946546008119,-7.69351961840325,0.039095376,0.3472769,-1.4162911,295.73666,-74.19104,-3.7576802,JOG
14006691173000,4.085027,-8.58982151261352,0.103939761594349,-7.46788796084763,0.2049453,0.35277468,-1.642922,295.8755,-74.489624,-4.554144,JOG
14006696177000,4.090031,-8.29484050958628,-0.698795707588295,-7.2357715382442,0.36682457,0.4166101,-1.8567249,295.9968,-74.757164,-5.4163365,JOG
14006701124000,4.094978,-7.99087573674894,-1.3149287890648,-6.7156301944144,0.5161811,0.46089783,-2.0399845,296.1096,-74.91556,-6.3433757,JOG
14006706146000,4.1,-7.67399637673321,-1.82098988677353,-5.99201012058216,0.6389651,0.3726278,-2.1927009,296.24197,-75.00935,-7.322192,JOG
14006711138000,4.104992,-7.36338950963973,-2.13452755696203,-5.29248676630964,0.77366084,0.2510656,-2.3203716,296.3586,-74.98514,-8.3505125,JOG
14006716134000,4.109988,-7.05590964373905,-2.30224390936709,-4.60764530208374,0.92271197,-0.116675265,-2.3866506,296.56213,-74.88319,-9.391933,JOG
14006721143000,4.114997,-6.73556112337438,-2.34976566887148,-4.09197955133815,0.9984592,-0.5366451,-2.4953845,296.80756,-74.600174,-10.459376,JOG
14006726140000,4.119994,-6.40441633535158,-2.2815887304569,-3.74135551456192,1.1447614,-0.95081174,-2.5757134,297.14758,-74.26287,-11.527371,JOG
14006731107000,4.124961,-6.00222204088267,-2.03467283995665,-3.56902712337701,1.2721269,-1.2651019,-2.6184738,297.57803,-73.7986,-12.573425,JOG
14006736215000,4.130069,-5.52513453896168,-1.6250523012117,-3.54493171468821,1.400714,-1.4584408,-2.6254988,298.08798,-73.27437,-13.627494,JOG
14006741158000,4.135012,-5.06885889511323,-0.891636078903456,-3.61027347032181,1.5351044,-1.3738359,-2.588847,298.6156,-72.70274,-14.651702,JOG
14006746182000,4.140036,-4.61008530909813,0.164498891617004,-3.7584191942789,1.6053538,-0.9550878,-2.4868324,299.09253,-72.09136,-15.675757,JOG
14006751251000,4.145105,-4.26813675336355,1.18997846021505,-3.74163540367902,1.5937474,-0.23732115,-2.384207,299.44644,-71.50417,-16.641705,JOG
14006756189000,4.150043,-4.04540644885808,2.15234156344086,-3.57353698448414,1.4798211,0.5531385,-2.349693,299.64417,-70.86734,-17.624498,JOG
14006761177000,4.155031,-3.9284692802974,3.1945237015401,-3.37285672065852,1.3707817,1.3072516,-2.3692408,299.63437,-70.32363,-18.497324,JOG
14006766164000,4.160018,-4.12123221769517,4.43733707020712,-3.08371247346787,1.273654,1.9905044,-2.4010057,299.39618,-69.72832,-19.386343,JOG
14006771164000,4.165018,-4.51454560606061,5.87919228787879,-2.78598016666667,1.2082914,2.5980098,-2.4495697,299.02786,-69.23062,-20.131802,JOG
14006776163000,4.170017,-5.24485065992579,7.65067542810761,-2.47510697959184,1.1835514,3.0870075,-2.5308146,298.4819,-68.676285,-20.897673,JOG
