timestamp,rel_time,acc_x,acc_y,acc_z,gyro_x,gyro_y,gyro_z,azimuth,pitch,roll,label
8059095109000,0,3.43889641368053,9.25160678726983,-1.61016067950914,-0.008246681,-0.03359759,0.005497787,97.12141,-100.66891,10.537913,STD
8059099993000,0.004884,3.44121037582247,9.25276376954891,-1.60830950544639,-0.007941248,-0.027794369,0.0067195175,97.108574,-100.73106,10.5781975,STD
8059104989000,0.00988,3.44357740179732,9.25394728377215,-1.60641588021758,-0.002443461,-0.02076942,0.013744468,97.09375,-100.79358,10.617688,STD
8059109974000,0.014865,3.44593921614573,9.25512819217944,-1.60452642429972,-0.0012217305,-0.017104227,0.008246681,97.07744,-100.85293,10.653146,STD
8059114990000,0.019881,3.44831571780502,9.25631644424985,-1.60262521850555,-0.006414085,-0.01863139,0.009468411,97.060135,-100.91617,10.691696,STD
8059119987000,0.024878,3.45068321756409,9.25750019536545,-1.60073121424847,-0.0036651916,-0.02565634,0.006414085,97.04263,-100.97724,10.726618,STD
8059125086000,0.029977,3.45309904331384,9.25870810950162,-1.59879854910802,-0.007941248,-0.040011674,0.0067195175,97.02719,-101.03886,10.761936,STD
8059130086000,0.034977,3.45546796442558,9.25989257129429,-1.59690340776614,0.004276057,-0.06688975,0.011911872,97.01687,-101.10216,10.79675,STD
8059134995000,0.039886,3.45779377117308,9.26105547588234,-1.59504275799668,0.004581489,-0.07147124,0.013133603,97.003525,-101.16331,10.829865,STD
8059139978000,0.044869,3.46015463795304,9.26223591050491,-1.59315406013536,-0.00061086525,-0.073303826,0.018936822,96.99662,-101.227425,10.864665,STD
8059144972000,0.049863,3.46252071635944,9.26341895094343,-1.59126119296308,-0.0012217305,-0.087659165,0.011911872,96.9938,-101.28847,10.895126,STD
8059149990000,0.054881,3.46489816558718,9.26460767679856,-1.58935922911237,-0.008552114,-0.08674286,0.017715093,96.98663,-101.35345,10.930307,STD
8059154979000,0.05987,3.46726187507248,9.26578953277529,-1.58746825708144,-0.017104227,-0.0870483,0.016187929,96.983025,-101.41399,10.960419,STD
8059159972000,0.064863,3.46962747969466,9.26697233632145,-1.58557576893744,-0.009162978,-0.090713486,0.018325957,96.979546,-101.47747,10.992436,STD
8059165067000,0.069958,3.47204141030752,9.26817930288818,-1.58364461991006,-0.016493361,-0.08552113,0.028099801,96.973,-101.54025,11.025625,STD
8059169985000,0.074876,3.47437148111302,9.26934433950745,-1.58178055888618,-0.029626964,-0.084910266,0.030848695,96.96805,-101.60133,11.056555,STD
8059174995000,0.079886,3.47400797875357,9.26865412768112,-1.5835628481773,-0.03848451,-0.07086037,0.03023783,96.95712,-101.66328,11.088876,STD
8059180812000,0.085703,3.45605908253705,9.25583348752647,-1.60920415526098,-0.04520403,-0.05497787,0.025350908,96.94483,-101.723175,11.120048,STD
8059185053000,0.089944,3.44297308135874,9.24648634382767,-1.62789846217896,-0.04550946,-0.035124753,0.0290161,96.92119,-101.77611,11.148114,STD
8059189978000,0.094869,3.42777653436436,9.23563166740311,-1.64960783769677,-0.051618114,-0.019547688,0.028099801,96.89351,-101.824745,11.173162,STD
8059195442000,0.100333,3.41091685258216,9.22358903755869,-1.67369312253521,-0.060170226,-0.013744468,0.02076942,96.856926,-101.859856,11.184995,STD
8059199975000,0.104866,3.40176576536533,9.19594382053299,-1.69109606926935,-0.04734206,0.003970624,0.022296581,96.81209,-101.89823,11.19934,STD
8059204938000,0.109829,3.39241781406235,9.16322579575179,-1.70979197187531,-0.036651913,0.00030543262,0.013744468,96.77106,-101.9306,11.20814,STD
8059209988000,0.114879,3.38298113564964,9.13380153167883,-1.76110345591241,-0.03176499,0.00030543262,0.0027488936,96.7394868359336,-101.938950591275,11.2016120858591,STD
8059215001000,0.119892,3.37363641576642,9.10576727445255,-1.82184418394161,-0.014660766,0.0106901415,0.00030543262,96.708145,-101.94724,11.195132,STD
8059220061000,0.124952,3.38146438726655,9.08753770606961,-1.87450138618421,0.00061086525,0.008857546,0.0061086523,96.64957,-101.967384,11.1849785,STD
8059225435000,0.130326,3.39675556139219,9.07224666880306,-1.92692829171053,0.007330383,0.02107485,0.01282817,96.57339,-101.968575,11.152575,STD
8059229976000,0.134867,3.40967651816638,9.05932582767402,-1.97122873421053,0.013133603,0.007941248,0.0070249503,96.485695,-101.943954,11.086017,STD
8059234992000,0.139883,3.42394903945671,9.04505343412564,-2.02016311421053,0.008857546,0.007941248,0.0061086523,96.38995,-101.92353,11.024297,STD
8059241142000,0.146033,3.4336889162446,9.03443672869055,-2.07999039607783,0.0009162979,-0.01038471,0.013744468,96.28006,-101.863396,10.920231,STD
8059245072000,0.149963,3.41915956788141,9.04606014669549,-2.11776676250772,0.010995574,-0.015271631,0.010995574,96.164764,-101.804245,10.814953,STD
8059250150000,0.155041,3.40038602310068,9.06107890410747,-2.16657805735022,0.0036651916,-0.018325957,0.02321288,96.01725,-101.70229,10.656939,STD
8059254942000,0.159833,3.35763377749304,9.08913123955432,-2.11350791732591,0.010079277,-0.02321288,0.014966198,95.86914,-101.6013,10.494856,STD
8059259913000,0.164804,3.27806888384401,9.13775426601671,-1.91901599610028,0.018325957,-0.016187929,0.018936822,95.717186,-101.51027,10.342664,STD
8059265034000,0.169925,3.21532684854851,9.17210078380443,-1.79899103430099,0.01863139,0.0012217305,0.014660766,95.5183,-101.33421,10.091767,STD
8059269917000,0.174808,3.2063957426948,9.1631694448052,-1.89723380487013,0.025350908,0.00580322,0.010079277,95.31853,-101.168594,9.846319,STD
8059274964000,0.179855,3.1986535,9.15581378630613,-1.97427665315803,0.019547688,0.01863139,0.007941248,95.06453,-100.87277,9.4809885,STD
8059279946000,0.184837,3.1986535,9.15818107055321,-1.92456469742496,0.027183503,0.027794369,0.01038471,94.808876,-100.5918,9.123529,STD
8059284902000,0.189793,3.1986535,9.16053600044654,-1.8751121778318,0.021991149,0.030543262,0.004886922,94.526344,-100.30261,8.74102,STD
8059289922000,0.194813,3.1986535,9.16292134105681,-1.82502104620193,0.030848695,0.030848695,0.003970624,94.23992,-100.03259,8.36881,STD
8059294909000,0.1998,3.20038276373692,9.1678861062282,-1.78589746996512,0.034513887,0.01282817,0.0036651916,93.95746,-99.771194,7.998983,STD
8059299917000,0.204808,3.21472076505232,9.19178277508719,-1.82413214013951,0.03481932,0.0106901415,0.0067195175,93.668106,-99.525406,7.6376657,STD
8059304880000,0.209771,3.23095500091743,9.21339816868896,-1.86708334995561,0.03726278,0.00580322,0.005497787,93.38733,-99.28633,7.288134,STD
8059309858000,0.214749,3.26387526085627,9.21810116819572,-1.95173562232416,0.038789943,0.01038471,0.005497787,93.2450567026056,-99.1741125516622,7.11799940760707,STD
8059314897000,0.219788,3.2952239377095,9.22206372905028,-2.03068426256983,0.039095376,0.016493361,0.0012217305,93.10104,-99.06052,6.94578,STD
8059319884000,0.224775,3.30475311760774,9.21729911422586,-2.03544877789306,0.055283304,0.028099801,0.005497787,92.811165,-98.85982,6.61474,STD
8059324877000,0.229768,3.31499352638834,9.21430621898385,-2.04234170358409,0.054061573,0.038179077,0.0009162979,92.507645,-98.68255,6.2919326,STD
8059329914000,0.234805,3.33399247936195,9.23330507276487,-2.0755899704805,0.057726767,0.038179077,-0.0021380284,92.201775,-98.52459,5.9770694,STD
8059335044000,0.239935,3.3533655780012,9.25082422178872,-2.10615605906363,0.06383542,0.043982297,0.0033597588,91.892136,-98.3926,5.6842155,STD
8059339883000,0.244774,3.37190980138055,9.24618805702281,-2.09688392316927,0.07452556,0.049480084,0.0021380284,91.5804,-98.27365,5.394382,STD
8059345042000,0.249933,3.39092788283789,9.24087974028934,-2.08589828519619,0.067500606,0.0571159,-0.0067195175,91.26011,-98.16874,5.1085787,STD
8059349888000,0.254779,3.40012510297265,9.23168280826397,-2.06290513882283,0.07574729,0.063224554,-0.005192355,90.93672,-98.084625,4.8311815,STD
8059355126000,0.260017,3.41276380635605,9.21733409046592,-2.03780743618637,0.06994407,0.06383542,-0.0106901415,90.60217,-98.000565,4.548451,STD
8059359869000,0.26476,3.45534631540264,9.15346032689603,-2.01225793075841,0.07880162,0.055588737,-0.006414085,90.26634,-97.93738,4.274452,STD
8059364872000,0.269763,3.50026309650323,9.08608515524515,-1.98530786209806,0.06352998,0.037873644,-0.004276057,89.9317,-97.876114,4.005164,STD
8059369884000,0.274775,3.53120967572618,9.04401488096689,-1.92150272317692,0.06414085,0.014049901,-0.0015271631,89.598816,-97.83439,3.7420034,STD
8059374850000,0.279741,3.56019112260817,9.00537278366849,-1.85387953205363,0.06780604,-0.0033597588,-0.00030543262,89.2667,-97.80214,3.4837048,STD
8059380391000,0.285282,3.58490443441759,8.9753992254225,-1.81259207829366,0.073303826,-0.019547688,0.009162978,88.92916,-97.7761,3.22351,STD
8059384887000,0.289778,3.60446526160276,8.9519261510994,-1.78129471394694,0.07513642,-0.052839845,0.0061086523,88.59852,-97.76098,2.9637692,STD
8059389884000,0.294775,3.61216171561962,8.95667568057264,-1.70519403740837,0.056505036,-0.06994407,0.016493361,88.26523,-97.74679,2.722402,STD
8059394887000,0.299778,3.61451881358784,8.97317546480051,-1.61326714281006,0.05497787,-0.10140363,0.022907447,87.94311,-97.747574,2.482039,STD
8059399889000,0.30478,3.61687544041915,8.98967195105033,-1.52135862256605,0.03726278,-0.122478485,0.038179077,87.62179,-97.744835,2.252938,STD
8059404942000,0.309833,3.61925609523294,9.00633663418114,-1.42851301025237,0.018325957,-0.14446963,0.03726278,87.307335,-97.74992,2.024254,STD
8059409934000,0.314825,3.60735244057827,9.06249730389147,-1.32213034346965,0.018325957,-0.15699236,0.04184427,87.1554717690467,-97.7508658316713,1.91625620183486,STD
8059414970000,0.319861,3.58825004834142,9.13890697257154,-1.20751599004852,-0.034513887,-0.18112154,0.05222898,87.00227,-97.75182,1.8073065,STD
8059419937000,0.324828,3.58985685628868,9.21921132493681,-1.1222944577617,-0.07086037,-0.19914207,0.055283304,86.69577,-97.76038,1.5906855,STD
8059424933000,0.329824,3.60236771468666,9.30261748304715,-1.05139950641506,-0.09254608,-0.20830505,0.06169739,86.41962,-97.735016,1.4024155,STD
8059429979000,0.33487,3.60848101898921,9.3802430483816,-0.958160335116411,-0.12614368,-0.21013765,0.06414085,86.16368,-97.68095,1.2281655,STD
8059434943000,0.339834,3.60308190085179,9.44503212776831,-0.828581443441227,-0.14630222,-0.23335053,0.06994407,85.915985,-97.63091,1.0584987,STD
8059439937000,0.344828,3.60909638849822,9.52350286995473,-0.751070405905019,-0.15882497,-0.24740042,0.07574729,85.6771,-97.56295,0.90284485,STD
8059444958000,0.349849,3.62299248120605,9.61151136036991,-0.709382079414315,-0.18081611,-0.26511553,0.090713486,85.44589,-97.492546,0.7531542,STD
8059450125000,0.355016,3.61111666896552,9.63756996551724,-0.694813851724138,-0.20250183,-0.26358834,0.10873401,85.22657,-97.40162,0.62378967,STD
8059455041000,0.359932,3.5783673057935,9.60949947361622,-0.704170812630428,-0.23793201,-0.25381452,0.116675265,85.00989,-97.30547,0.497693,STD
8059460059000,0.36495,3.54487860576329,9.55551856675641,-0.731432557482301,-0.26389378,-0.23518312,0.12736541,84.79417,-97.2007,0.3869246,STD
8059465075000,0.369966,3.51134967917041,9.47888114886828,-0.774541083788015,-0.29657507,-0.19242255,0.119729586,84.56826,-97.08856,0.2763471,STD
8059470047000,0.374938,3.46169751150494,9.37989171450707,-0.838379606178578,-0.32711834,-0.14049901,0.13133603,84.337364,-96.976974,0.17718564,STD
8059475058000,0.379949,3.39663356359675,9.2590579959326,-0.922033378968623,-0.3652974,-0.1020145,0.1328632,84.09707,-96.85861,0.07564437,STD
8059480078000,0.384969,3.33024662251436,9.1335383514657,-1.0296828084114,-0.37232238,-0.06169739,0.1255328,83.83679,-96.75536,-0.028726067,STD
8059484990000,0.389881,3.26390448845573,9.00559329495316,-1.16236697756623,-0.37812558,-0.03390302,0.11881329,83.568405,-96.646866,-0.1302484,STD
8059489980000,0.394871,3.21083935830342,8.90207187341772,-1.32640314411487,-0.35246924,-0.016187929,0.105374254,83.28255,-96.57011,-0.24643394,STD
8059494968000,0.399859,3.17473954466276,8.82987215189873,-1.52495226049499,-0.31337386,-0.007330383,0.09254608,82.98984,-96.501205,-0.36227733,STD
8059499914000,0.404805,3.12657575697794,8.77386743022057,-1.72453001983096,-0.24648413,0.00580322,0.074830994,82.67573,-96.48253,-0.49775797,STD
8059504985000,0.409876,3.05149223747681,8.74883962523191,-1.93476368627087,-0.18478674,0.007330383,0.055283304,82.36013,-96.479454,-0.6355843,STD
8059509926000,0.414817,2.99600912625298,8.73219659904535,-2.10900020119332,-0.1142318,0.018325957,0.03940081,82.00431,-96.54575,-0.79225385,STD
8059515129000,0.42002,2.96627876205251,8.72724143486476,-2.24278689183572,-0.059864793,0.01740966,0.022907447,81.64814,-96.63062,-0.95232236,STD
8059520332000,0.425223,2.96554309799331,8.71652774247492,-2.32553046120401,0.0070249503,0.004276057,0.014660766,81.27065,-96.78462,-1.1313474,STD
8059525054000,0.429945,2.99824428183133,8.70017723592154,-2.34188118117147,0.054061573,-0.02321288,0.00580322,80.89347,-96.952866,-1.3123084,STD
8059529957000,0.434848,3.04913414627621,8.68531719574424,-2.3482734943291,0.08735373,-0.03390302,0.00580322,80.7038762276406,-97.0586986783252,-1.40443178664935,STD
8059535061000,0.439952,3.18545892313811,8.68026802644355,-2.30283176145026,0.102319926,-0.05100725,-0.00580322,80.50651,-97.16887,-1.5003318,STD
8059539957000,0.444848,3.31875161885692,8.67877459234059,-2.25329651149883,0.13347405,-0.06811147,-0.00580322,80.120476,-97.39484,-1.6842598,STD
8059545046000,0.449937,3.46560508180404,8.68824919440124,-2.18223852947123,0.15210545,-0.074830994,-0.009773844,79.72516,-97.637085,-1.8695495,STD
8059550072000,0.454963,3.6220161358585,8.70774235340361,-2.09604774488119,0.16126843,-0.079107046,-0.004276057,79.320465,-97.87695,-2.040896,STD
8059555046000,0.459937,3.82202025817402,8.76731793407182,-1.9471084377345,0.15302174,-0.0729984,-0.0009162979,78.91054,-98.11765,-2.2096047,STD
8059560631000,0.465522,4.03392829394661,8.83051354401112,-1.7835384511561,0.15332718,-0.054061573,0.0067195175,78.485886,-98.34794,-2.3603816,STD
8059564994000,0.469885,4.05880683260891,8.83880614488439,-1.69646332770666,0.14294247,-0.05222898,0.013439035,78.060684,-98.57256,-2.506733,STD
8059569945000,0.474836,4.08703824331646,8.84821633670735,-1.59765312000595,0.13775012,-0.06047566,0.014660766,77.62572,-98.762215,-2.6249058,STD
8059574984000,0.479875,4.06385865410946,8.83625033199847,-1.57279143989321,0.14355333,-0.065973446,0.015577064,77.1864,-98.95159,-2.737326,STD
8059579990000,0.484881,4.03643223685164,8.82253729042716,-1.55450712990084,0.15302174,-0.06291912,0.028405234,76.74431,-99.139404,-2.842287,STD
8059584986000,0.489877,3.97635294387537,8.83609109287741,-1.54351659148873,0.14721853,-0.069027774,0.020463986,76.30909,-99.30699,-2.9445968,STD
8059589922000,0.494813,3.91047312895326,8.85491378482903,-1.53410517180827,0.17287487,-0.069027774,0.024740042,75.86931,-99.483536,-3.0359678,STD
8059594972000,0.499863,3.84307177859738,8.87417119859639,-1.52447638951769,0.17654006,-0.060170226,0.03268129,75.43146,-99.64944,-3.1253297,STD
8059599926000,0.504817,3.77695172123837,8.8930625308347,-1.51503064942512,0.1777618,-0.054061573,0.033292156,74.9912,-99.821815,-3.2122965,STD
8059604982000,0.509873,3.71755737754941,8.92760498913044,-1.54773115697628,0.19181168,-0.032070424,0.023823744,74.53657,-99.99759,-3.2942715,STD
8059609931000,0.514822,3.66135708126482,8.96507214673913,-1.58988142809289,0.18295415,-0.028710667,0.021685716,74.08275,-100.16658,-3.3712618,STD
8059615077000,0.519968,3.60063077711166,8.98827793669795,-1.6141367140203,0.17928895,-0.03268129,0.019547688,73.64751,-100.33229,-3.4458284,STD
8059619999000,0.52489,3.54194641499713,9.00633454022218,-1.63219341181766,0.17806722,-0.03268129,0.02687807,73.207405,-100.49524,-3.5148783,STD
8059624976000,0.529867,3.51489362584018,8.99928016635549,-1.61889155168036,0.17928895,-0.029321533,0.02565634,72.76928,-100.66389,-3.5858233,STD
8059629986000,0.534877,3.50145642419716,8.98136399103809,-1.59201714839432,0.16523905,-0.032986723,0.02565634,72.33035,-100.826744,-3.651667,STD
8059635827000,0.540718,3.50651342000631,8.96980825023667,-1.55455534843799,0.18142697,-0.049480084,0.01863139,71.907486,-100.99766,-3.7143888,STD
8059639983000,0.544874,3.5190729595456,8.96562164962659,-1.5252497124645,0.19058995,-0.04428773,0.014966198,71.47646,-101.161995,-3.7724826,STD
8059644966000,0.549857,3.53047744693026,8.97010377667395,-1.49760378267435,0.19547687,-0.058948494,0.00580322,71.05654,-101.325356,-3.8334668,STD
8059649992000,0.554883,3.54004092731969,8.97966745678522,-1.47369508170077,0.21624629,-0.055283304,0.00580322,70.8399576904619,-101.412521573285,-3.86307065354929,STD
8059654968000,0.559859,3.53437730578057,8.98003123898938,-1.47429249421943,0.2284636,-0.05222898,-0.007330383,70.62553,-101.49882,-3.89238,STD
8059659985000,0.564876,3.52020699347228,8.97530770290995,-1.48846280652772,0.23579398,-0.044593163,-0.004886922,70.197586,-101.65914,-3.945126,STD
8059665121000,0.570012,3.51167917519747,8.9524061007109,-1.50300827440758,0.24801129,-0.04062254,-0.0009162979,69.76973,-101.82268,-3.9922395,STD
8059670049000,0.57494,3.50701937361769,8.9197872950237,-1.51698767914692,0.24770586,-0.016798794,-0.0070249503,69.33058,-101.98486,-4.037167,STD
8059675055000,0.579946,3.52012987284815,8.90142394996501,-1.5051904759972,0.2434298,0.01282817,-0.005192355,68.89554,-102.15032,-4.0756583,STD
8059680066000,0.584957,3.54531681047936,8.89302859630861,-1.47580581770469,0.2321288,0.019547688,-0.011911872,68.456215,-102.31443,-4.1154275,STD
8059684978000,0.589869,3.56407597823548,8.89028446225714,-1.45417083746682,0.23976462,0.036651913,-0.008552114,67.99975,-102.485756,-4.149817,STD
8059690044000,0.594935,3.56922685081219,8.90058588470114,-1.44902001867502,0.22632557,0.03176499,-0.004581489,67.544,-102.64822,-4.183904,STD
8059694954000,0.599845,3.57024709161139,8.90262630238002,-1.4556074220835,0.23426682,0.03359759,-0.0033597588,67.084175,-102.81179,-4.209241,STD
8059700068000,0.604959,3.56546990128755,8.89307222103004,-1.47949332381974,0.23609942,0.03390302,-0.00061086525,66.62331,-102.96907,-4.230676,STD
8059705534000,0.610425,3.52365290470219,8.87125133188391,-1.52374360139549,0.24984388,0.035430185,-0.0027488936,66.16325,-103.12866,-4.246529,STD
8059709969000,0.61486,3.4506380677116,8.84118625654768,-1.57957845299828,0.24281894,0.04428773,-0.0027488936,65.69821,-103.28217,-4.25787,STD
8059714967000,0.619858,3.38392775810459,8.81671922421266,-1.64135838321294,0.2501493,0.058948494,-0.0012217305,65.22494,-103.44814,-4.2681217,STD
8059720046000,0.624937,3.34176609029182,8.80734975816238,-1.70225868962728,0.2489276,0.083383106,-0.004581489,64.742935,-103.60978,-4.2757916,STD
8059724932000,0.629823,3.30935019705882,8.80390176470588,-1.75987905,0.2593123,0.09101892,-0.0021380284,64.26165,-103.78846,-4.2886934,STD
8059730092000,0.634983,3.29471829694039,8.81365646664035,-1.81840609026846,0.25625798,0.09437868,-0.004581489,63.770927,-103.96304,-4.2996006,STD
8059734952000,0.639843,3.29110558922099,8.83276089999051,-1.88294431305627,0.26511553,0.1255328,0.005497787,63.27838,-104.15236,-4.303661,STD
8059740048000,0.644939,3.31425943615144,8.87906830372901,-1.97555916888699,0.28344148,0.16432275,0.022602014,62.77982,-104.34197,-4.302662,STD
8059744978000,0.649869,3.34341783593052,8.92176261985112,-2.06505892069479,0.27030787,0.1826487,0.023823744,62.269936,-104.53537,-4.3025813,STD
8059750125000,0.655016,3.40702009400496,8.95601022143921,-2.15801624395037,0.28130344,0.2134974,0.036651913,61.744377,-104.736626,-4.287867,STD
8059754982000,0.659873,3.46510624389601,8.98447750584024,-2.23712619538433,0.28955013,0.2489276,0.05131268,61.19572,-104.94845,-4.2674394,STD
8059760051000,0.664942,3.51540709214393,8.99362281075735,-2.27370851327242,0.2919936,0.2846632,0.055283304,60.635227,-105.16015,-4.240952,STD
8059765172000,0.670063,3.56732230656842,9.00473141000988,-2.30927700500494,0.29352075,0.33017266,0.07269296,60.040066,-105.387794,-4.1978803,STD
8059769998000,0.674889,3.62961582368587,9.03795487932429,-2.32588873966214,0.29565877,0.3662137,0.08155051,59.43398,-105.61524,-4.150722,STD
8059775370000,0.680261,3.69895705326624,9.07493715805553,-2.34437987902777,0.29565877,0.3894266,0.093462385,58.81098,-105.84929,-4.089699,STD
8059780099000,0.68499,3.67848496265395,9.10258915812475,-2.36613154096146,0.3118467,0.4184427,0.10842858,58.17409,-106.08621,-4.0186663,STD
8059784949000,0.68984,3.64619132340087,9.13026903496226,-2.38919842614223,0.33505958,0.42852196,0.12614368,57.534046,-106.32282,-3.9397278,STD
8059790039000,0.69493,3.59681354391872,9.12856906395059,-2.4327226467178,0.35796702,0.4370741,0.13316862,56.88481,-106.56288,-3.8421245,STD
8059794985000,0.699876,3.54491232168543,9.11913279161271,-2.47990543717502,0.3820962,0.44776422,0.15057829,56.231495,-106.80676,-3.7324948,STD
8059799955000,0.704846,3.48904689032258,9.11338702956989,-2.51609994731183,0.42332962,0.4550946,0.15515977,55.578655,-107.06218,-3.6227438,STD
8059804973000,0.709864,3.43163185758662,9.10860234358821,-2.54959204974114,0.4447099,0.46914452,0.16157386,54.919792,-107.31621,-3.503,STD
8059809962000,0.714853,3.39385043153327,9.13619382854388,-2.54268181093539,0.49541172,0.4978552,0.16829337,54.25804,-107.59715,-3.3838937,STD
8059815116000,0.720007,3.36053208293153,9.17427179922855,-2.52364272619094,0.5149594,0.52870387,0.16615535,53.588993,-107.87353,-3.260564,STD
8059820052000,0.724943,3.31422412147541,9.21553890018215,-2.52497648003643,0.5369505,0.5522222,0.1572978,52.91731,-108.16756,-3.1385791,STD
8059825056000,0.729947,3.26184987852459,9.25918398870674,-2.53370549774135,0.5647449,0.55741453,0.1441642,52.239105,-108.466515,-3.0135195,STD
8059830062000,0.734953,3.20613830300601,9.29953961723447,-2.52384355170341,0.5928447,0.58123827,0.14202617,51.558846,-108.76066,-2.8808796,STD
8059835001000,0.739892,3.14821161927188,9.33640285715876,-2.49751321592073,0.6032294,0.6188065,0.14049901,50.869953,-109.05555,-2.7460873,STD
8059839995000,0.744886,3.11527877148713,9.35349883093422,-2.44422567875119,0.6236934,0.6765333,0.13408493,50.187542,-109.35548,-2.6096332,STD
8059845077000,0.749968,3.09208087064824,9.3627779622021,-2.37927146919924,0.6337727,0.71685034,0.11148291,49.495667,-109.65312,-2.4723446,STD
8059849990000,0.754881,3.06262478284839,9.37214806600306,-2.28955796465544,0.6646214,0.7470882,0.09468412,48.81023,-109.95016,-2.329791,STD
8059855000000,0.759891,3.02833582113323,9.38194480260337,-2.18179319712098,0.6844745,0.77946407,0.08032878,48.109104,-110.24466,-2.1849022,STD
8059860003000,0.764894,3.00093784972596,9.39787585440957,-2.12944864972596,0.70952,0.79351395,0.055588737,47.41514,-110.53346,-2.043252,STD
8059865002000,0.769893,2.97708412615845,9.41695873363229,-2.10559492615845,0.7153232,0.81397796,0.04062254,46.707954,-110.81953,-1.89525,STD
8059870052000,0.774943,2.95633690377062,9.41734161468971,-2.05366467014925,0.7257079,0.84329945,0.027488936,46.008568,-111.091446,-1.749842,STD
8059875076000,0.779967,2.93743918499607,9.40789300196387,-1.98752221044776,0.7351763,0.8961393,0.010995574,45.293182,-111.362335,-1.6010356,STD
8059880002000,0.784893,2.89894455423795,9.39581798775272,-1.97472117667185,0.7467828,0.9440922,-0.010995574,44.5814655278918,-111.623864899449,-1.4536547120681,STD
8059885061000,0.789952,2.84714242019829,9.38168986479393,-1.99355828055988,0.752586,0.9947941,-0.045814894,43.850533,-111.892456,-1.3022946,STD
8059890051000,0.794942,2.80348917553721,9.37840265608834,-1.96904937744727,0.75900006,1.040609,-0.06627888,43.113644,-112.14545,-1.1469578,STD
8059895105000,0.799996,2.7649685146737,9.38321783296856,-1.91126841129129,0.7593055,1.0842859,-0.08124508,42.358463,-112.39613,-0.9902747,STD
8059899980000,0.804871,2.73245897020685,9.37186722517238,-1.82497350780076,0.7699956,1.1047498,-0.08155051,41.610653,-112.655876,-0.8398121,STD
8059904922000,0.809813,2.70323479879592,9.3475137489966,-1.71294746653288,0.77946407,1.1242975,-0.08277224,40.847523,-112.91269,-0.68484855,STD
8059909886000,0.814777,2.67444557684881,9.30965812361899,-1.63586292552006,0.7968737,1.1355985,-0.098043874,40.09891,-113.159645,-0.53136724,STD
8059914960000,0.819851,2.64542640776351,9.26129225261272,-1.58266097243953,0.7987063,1.1475104,-0.09865474,39.344147,-113.40193,-0.36842805,STD
8059919920000,0.824811,2.60052595560859,9.22506996340493,-1.54722948870326,0.8179486,1.16492,-0.11575896,38.59136,-113.63298,-0.21111138,STD
8059924923000,0.829814,2.54335071041169,9.19648231593079,-1.52340648230907,0.8335256,1.17897,-0.118507855,37.83573,-113.86086,-0.045518093,STD
8059929953000,0.834844,2.49034034333771,9.19189164795727,-1.48735380548163,0.84665924,1.2021828,-0.11209377,37.085037,-114.08895,0.11754591,STD
8059934926000,0.839817,2.44125121354948,9.20527988474513,-1.4427273280922,0.8417723,1.2195925,-0.099265605,36.330433,-114.3137,0.28635174,STD
8059939924000,0.844815,2.39169910144716,9.2843536970328,-1.35889560923477,0.840856,1.2360858,-0.093767814,35.57846,-114.53608,0.452585,STD
8059944923000,0.849814,2.34185571449245,9.44883667100468,-1.22431872989068,0.82894415,1.260215,-0.07666359,34.820816,-114.75134,0.6317917,STD
8059949921000,0.854812,2.26741166331614,9.57670915393597,-1.16118293264571,0.80573124,1.244638,-0.03940081,34.08465,-114.95377,0.8065901,STD
8059955057000,0.859948,2.16690423632383,9.67243056057215,-1.1659690529532,0.7510588,1.2125676,-0.0076358155,33.345768,-115.14147,0.9885651,STD
8059959994000,0.864885,2.07903319087897,9.75349532040538,-1.17057292136036,0.6914995,1.2073752,0.016798794,32.62779,-115.28553,1.1738952,JOG
8059965127000,0.870018,1.99759856104073,9.82534931728708,-1.17536318781914,0.62888575,1.2021828,0.029321533,31.918098,-115.41186,1.3627152,JOG
8059969983000,0.874874,1.92369440156969,9.88809032118576,-1.16795588661268,0.571159,1.1985176,0.027488936,31.236797,-115.51195,1.5375261,JOG
8059975047000,0.879938,1.85096352430514,9.94627493186363,-1.14371222710458,0.52778757,1.1859949,0.027488936,30.558365,-115.59773,1.7158718,JOG
8059979977000,0.884868,1.77854728305838,10.0164022323422,-1.11629542657315,0.4831944,1.1795808,0.021685716,29.891436,-115.65699,1.879626,JOG
8059985081000,0.889972,1.70128952294774,10.1081459138595,-1.08249517858342,0.44409904,1.1655309,0.01160644,29.22674,-115.705185,2.0410502,JOG
8059989913000,0.894804,1.63773468433228,10.1835089884332,-1.0457047659306,0.41905355,1.1542299,-0.008552114,28.577602,-115.740234,2.18102,JOG
8059995071000,0.899962,1.58579232755951,10.2448951545741,-0.998484437109263,0.3921755,1.1282681,-0.018020526,27.933405,-115.76389,2.3189096,JOG
8059999919000,0.90481,1.55418601936609,10.3046933501445,-0.965885840316954,0.34972036,1.1053606,-0.029321533,27.306376,-115.76259,2.435701,JOG
8060005054000,0.909945,1.56398904298814,10.3733149249477,-0.960984328505931,0.3210097,1.1007792,-0.05222898,26.676237,-115.75776,2.5475256,JOG
8060009949000,0.91484,1.54866495962671,10.4291610186645,-0.90696443817347,0.29626966,1.0830641,-0.06291912,26.066568,-115.730125,2.6456087,JOG
8060015057000,0.919948,1.47054411818545,10.4633390907276,-0.72630985978441,0.26511553,0.97402465,-0.06688975,25.477325,-115.69345,2.7291307,JOG
8060020093000,0.924984,1.42959759746064,10.4648615051879,-0.668566066187312,0.2098322,0.8210029,-0.06566802,24.90062,-115.6389,2.8063617,JOG
8060025048000,0.929939,1.46846875391827,10.3957569113498,-0.875879026904524,0.14813483,0.7519751,-0.058643065,24.328451,-115.57558,2.8825018,JOG
8060030705000,0.935596,1.51284698440885,10.3168619189497,-1.11256306702102,0.14080444,0.65484756,-0.049785517,23.825636,-115.48642,2.922444,JOG
8060034991000,0.939882,1.54646994638209,10.2570874912624,-1.29188564010558,0.1563815,0.5366451,-0.059864793,23.34276,-115.3887,2.9498582,JOG
8060039914000,0.944805,1.58509006812597,10.1884291833986,-1.4978597482006,0.19517145,0.42363504,-0.08552113,22.8845,-115.300186,2.965005,JOG
8060044969000,0.94986,1.67667648356179,10.0108672958878,-1.75146643264082,0.25778514,0.32345316,-0.11911872,22.44976,-115.22492,2.964553,JOG
8060050247000,0.955138,1.77901544325059,9.8104957032977,-2.02207965122305,0.30482176,0.26175576,-0.14049901,22.031282,-115.15825,2.9537458,JOG
8060054992000,0.959883,1.86546961837289,9.62935388820438,-2.26497455908679,0.3707952,0.24740042,-0.15790866,21.60671,-115.20312,2.9455523,JOG
8060059966000,0.964857,1.95609618677297,9.43946992861025,-2.51959189769886,0.42760566,0.25686884,-0.16065755,21.173512,-115.317726,2.9486196,JOG
8060065092000,0.969983,2.10821059080315,9.28595952850394,-2.93890218515486,0.4783075,0.3210097,-0.1469131,20.727833,-115.44807,2.9592893,JOG
8060069986000,0.974877,2.26567037801575,9.14818148251968,-3.37191672844094,0.54641896,0.39553526,-0.13958271,20.274029,-115.59765,2.9730544,JOG
8060074976000,0.979867,2.46354784451801,9.07923795475975,-3.62432232139633,0.6209445,0.46181414,-0.12614368,19.779892,-115.83145,3.0181096,JOG
8060079967000,0.984858,2.66492310442371,9.01690777941619,-3.85926009124285,0.6719518,0.52106804,-0.106595986,19.268278,-116.074844,3.078008,JOG
8060084988000,0.989879,2.95238595032162,9.094786478476,-3.96161836971796,0.7296785,0.5714644,-0.064446285,18.704697,-116.438156,3.176078,JOG
8060089921000,0.994812,3.24224512492825,9.18361416249381,-4.05044615137061,0.7632761,0.5849035,-0.03145956,18.135782,-116.80308,3.282891,JOG
8060094971000,0.999862,3.65366406188098,9.51027705087615,-3.7731304386354,0.79381937,0.5671884,0.0061086523,17.522842,-117.24158,3.4382746,JOG
8060100508000,1.005399,4.12050454807416,9.90080710272581,-3.41851129797681,0.8051204,0.50915617,0.046120327,16.921505,-117.67703,3.6018496,JOG
8060104981000,1.009872,4.36709028601853,10.25418097849,-3.07947201551485,0.8164214,0.40561453,0.09315695,16.28134,-118.1452,3.8213394,JOG
8060109962000,1.014853,4.54487448663614,10.6757840948248,-2.66294876601001,0.81031275,0.30665436,0.1459968,15.661956,-118.60405,4.04669,JOG
8060115078000,1.019969,4.61651995897197,10.9158344707829,-2.26008277928431,0.77213365,0.2049453,0.23151793,15.014465,-118.99179,4.3729644,JOG
8060120043000,1.024934,4.63127287442341,11.0535286221946,-1.88142309265694,0.70616025,0.14935656,0.31215215,14.38762,-119.365585,4.703132,JOG
8060124986000,1.029877,4.49267441575477,11.0651595351987,-1.73172084692568,0.66553766,0.03481932,0.3481932,13.791912,-119.64465,5.054176,JOG
8060130087000,1.034978,4.29242871064873,11.0303343690964,-1.66207006016753,0.5720753,-0.06872234,0.39645153,13.220535,-119.89235,5.4189653,JOG
8060134982000,1.039873,4.10205720089366,11.0210432502234,-1.66149034329759,0.48747048,-0.11209377,0.40775254,12.664557,-120.06763,5.778388,JOG
8060139980000,1.044871,3.90957100008937,11.0370835250223,-1.73099922432976,0.41233405,-0.10140363,0.40194935,12.125051,-120.221306,6.1351433,JOG
8060144969000,1.04986,3.94557162761271,10.5512335021089,-2.03655478920236,0.3820962,-0.058948494,0.38881573,11.637529,-120.33794,6.4502516,JOG
8060149993000,1.054884,4.08537180892305,9.83419300271816,-2.45144630608304,0.37598756,-0.017715093,0.37384954,11.145567,-120.44076,6.761879,JOG
8060154980000,1.059871,3.96143729699801,9.71525528658052,-2.27092469874751,0.39278635,0.17440203,0.35643986,10.64008,-120.534935,7.0612693,JOG
8060159964000,1.064855,3.62931453548708,10.0663562877734,-1.62091270685885,0.6035349,0.24220806,0.37507126,10.157184,-120.68324,7.351781,JOG
8060165071000,1.069962,3.4418688501183,10.2997081108044,-1.41451631821767,0.53969944,-0.012217305,0.37232238,9.6489,-120.90947,7.6416373,JOG
8060169965000,1.074856,3.38180431145505,10.4244583128943,-1.57622876407729,0.3924809,-0.16187929,0.36346483,9.09929,-121.16745,7.957193,JOG
8060174979000,1.07987,3.31540659391819,10.4768771560375,-1.72973936137999,0.33505958,-0.2012801,0.37293324,8.663979,-121.2775,8.199966,JOG
8060179971000,1.084862,3.24472036598324,10.4580276199113,-1.87111171883687,0.31673363,-0.1881465,0.38240165,8.249942,-121.35683,8.425635,JOG
8060185073000,1.089964,3.19020296238002,10.4730844009878,-1.92155760444507,0.27947086,-0.13041973,0.39064834,7.8598323,-121.4225,8.634784,JOG
8060190047000,1.094938,3.15469089215357,10.5219131267356,-1.87716747031032,0.25442538,-0.05222898,0.39645153,7.46061,-121.48694,8.849375,JOG
8060195061000,1.099952,3.12258827517986,10.5500300556496,-1.82665733633094,0.24251351,0.047036625,0.40011674,7.0600505,-121.558716,9.059518,JOG
8060200060000,1.104951,3.09726330521583,10.5399003638383,-1.76587722859712,0.22479841,0.15149458,0.39553526,6.6364846,-121.62153,9.279735,JOG
8060204993000,1.109884,3.03892136111111,10.5600939202128,-1.7504727248818,0.23060162,0.21471913,0.39370266,6.2039065,-121.673386,9.501065,JOG
8060209973000,1.114864,2.94026663888889,10.6164676968085,-1.78805548788416,0.20830505,0.25473082,0.36835176,5.744927,-121.71042,9.725627,JOG
8060214979000,1.11987,2.84475292454329,10.6773102311358,-1.83592484551231,0.19853121,0.28221974,0.35460728,5.2821965,-121.7514,9.954291,JOG
8060220096000,1.124987,2.75230983861199,10.745425975278,-1.8991753245135,0.21319197,0.3268129,0.33750305,4.798812,-121.79055,10.182647,JOG
8060224911000,1.129802,2.67668638812758,10.7871722480803,-1.99905801275842,0.23457226,0.37720928,0.33017266,4.3269205,-121.81984,10.391816,JOG
8060230068000,1.134959,2.61348120513881,10.7968963254578,-2.16922586388069,0.24923302,0.42455134,0.31429017,3.8387141,-121.84898,10.599477,JOG
8060234917000,1.139808,2.58126445187082,10.8145458920835,-2.28501320890114,0.27488935,0.46944994,0.3042109,3.3589454,-121.88347,10.791271,JOG
8060240061000,1.144952,2.59581635986609,10.8485005466719,-2.32866908483655,0.31642818,0.5021312,0.30207285,2.8670187,-121.92526,10.98531,JOG
8060244940000,1.149831,2.6403608381035,10.8835552677074,-2.32659382353281,0.3472769,0.52687126,0.29779682,2.3905692,-121.98253,11.164382,JOG
8060250119000,1.15501,2.75029243716874,10.9265718610388,-2.23578070484726,0.36377025,0.52626044,0.29871312,1.9107296,-122.04648,11.344561,JOG
8060254940000,1.159831,2.86116930790047,10.9457388530694,-2.13679853982928,0.364992,0.4896085,0.321926,1.4388808,-122.12044,11.527324,JOG
8060260052000,1.164943,3.00343345472212,10.9057271937886,-1.99008864277152,0.36193767,0.4382958,0.33444872,0.9675684,-122.19542,11.704792,JOG
8060265210000,1.170101,3.14696793981574,10.8580296070499,-1.84201907416383,0.34391713,0.39095375,0.35277468,0.48520657,-122.26764,11.906128,JOG
8060270142000,1.175033,3.28413507816944,10.753971617865,-1.70012198680152,0.30726522,0.31581733,0.37568212,0.023451619,-122.33508,12.099368,JOG
8060275077000,1.179968,3.41510442765844,10.6487930772684,-1.54888088955862,0.26816985,0.24465153,0.4007276,359.54166,-122.398544,12.326023,JOG
8060280090000,1.184981,3.4818042758149,10.5307858679064,-1.29747360885968,0.23304509,0.16554448,0.41630468,359.08102,-122.45459,12.542599,JOG
8060285067000,1.189958,3.53730577444859,10.4179349894808,-1.03724586027146,0.19517145,0.074830994,0.441961,358.60648,-122.51076,12.788854,JOG
8060290057000,1.194948,3.55352175052596,10.3206393023414,-0.737251648971836,0.15302174,-0.005192355,0.46028697,358.14883,-122.5578,13.025518,JOG
8060294937000,1.199828,3.56938026019681,10.2254884099084,-0.443870536518493,0.111177474,-0.02321288,0.47586402,357.67288,-122.59494,13.285053,JOG
8060300071000,1.204962,3.44784361866834,10.1017163428452,-0.208334338105153,0.057726767,0.059864793,0.4822781,357.19107,-122.62012,13.548,JOG
8060304963000,1.209854,3.30583009100031,9.97929106428347,0.00223729135528379,-0.019547688,0.25717425,0.4999932,356.68674,-122.63277,13.829326,JOG
8060309985000,1.214876,3.14414679932203,9.79545391338091,-0.0480745439041927,-0.07544186,0.51251596,0.5119051,356.1069,-122.61835,14.148839,JOG
8060315103000,1.219994,2.97799743525424,9.60307053050848,-0.122404574613559,-0.13255776,0.7593055,0.516792,355.4775,-122.58795,14.4949465,JOG
8060320084000,1.224975,2.85276441145666,9.41287928591493,-0.29912918532504,-0.17256944,0.8732319,0.52534413,354.82452,-122.53047,14.8445425,JOG
8060324980000,1.229871,2.74457563103933,9.2247246502809,-0.515506618455056,-0.18234327,1.0228939,0.528093,354.09424,-122.46988,15.229902,JOG
8060330101000,1.234992,2.62651823085878,8.93826766139079,-0.367913492665271,-0.18173242,1.0170907,0.52778757,353.42053,-122.41441,15.577185,JOG
8060334992000,1.239883,2.51172566675176,8.62737126886552,-0.0713659411614418,-0.17989981,0.84879726,0.51007247,352.74347,-122.35771,15.915435,JOG
8060340040000,1.244931,2.4083753512,8.355266068,0.326454188368,-0.22143865,0.600786,0.5152648,352.13617,-122.32257,16.221571,JOG
8060345055000,1.249946,2.31110400492152,8.10236050673418,0.754447742787747,-0.3118467,0.3304781,0.52198434,351.57303,-122.27546,16.494888,JOG
8060350065000,1.254956,1.6541434954113,8.04108672753408,1.21944020442363,-0.41233405,0.10903945,0.50885075,351.0384,-122.20763,16.739494,JOG
8060355447000,1.260338,0.769849820263378,8.03630691458778,1.73089656078086,-0.4896085,-0.03726278,0.48288897,350.55124,-122.12468,16.954468,JOG
8060360080000,1.264971,0.3557615264624,8.04712100462297,2.04909769071296,-0.54000485,-0.08124508,0.45081854,350.0397,-122.002884,17.158976,JOG
8060365162000,1.270053,0.0907651707925827,8.0671206115677,2.33159382253955,-0.5729916,-0.056505036,0.4175264,349.5423,-121.86554,17.345055,JOG
8060370043000,1.274934,-0.16375021921615,8.08632920690364,2.60291684879803,-0.5946773,0.022602014,0.3830125,349.10272,-121.57533,17.377377,JOG
8060375045000,1.279936,-0.424575046264639,8.1060139833573,2.88096597343333,-0.6209445,0.14172074,0.31642818,348.6353,-121.269226,17.400953,JOG
8060380064000,1.284955,-0.856031751344035,8.15754140055091,3.06763001157865,-0.65087694,0.2761111,0.25686884,348.15204,-120.96036,17.429865,JOG
8060385059000,1.28995,-1.35129589360752,8.22115316204407,3.21757229192629,-0.691194,0.4175264,0.18478674,347.62265,-120.634026,17.453802,JOG
8060390049000,1.29494,-1.52084689214103,8.20659475585079,3.28727877700562,-0.75747293,0.5705481,0.13194689,347.01068,-120.20775,17.41298,JOG
8060395071000,1.299962,-1.48644077751661,8.14269808175779,3.30693950924885,-0.8213083,0.68294734,0.095294975,346.36462,-119.76927,17.369864,JOG
8060400064000,1.304955,-1.38050917533347,7.9953733442166,3.23497604164842,-0.8891144,0.7693848,0.07727446,345.72772,-119.2538,17.239891,JOG
8060405052000,1.309943,-1.23785808526777,7.80517195699781,3.11610002568186,-0.95081174,0.81061816,0.0580322,345.0695,-118.726105,17.108492,JOG
8060409970000,1.314861,-1.11178409962435,7.64775464476979,2.87315277145059,-1.0308352,0.81031275,0.05131268,344.39236,-118.19676,16.991945,JOG
8060415131000,1.320022,-0.988005080644385,7.50017201704874,2.54466242897322,-1.1102476,0.80878556,0.043982297,343.70294,-117.65831,16.875143,JOG
8060420090000,1.324981,-0.825597653279659,7.52074288821025,2.12589875087914,-1.180497,0.79381937,0.054367006,343.033,-117.152885,16.790083,JOG
8060425782000,1.330673,-0.603638355582084,7.6771232928003,1.56091144190265,-1.2156218,0.7996226,0.054061573,342.3552,-116.64236,16.702202,JOG
8060430064000,1.334955,-0.386605917118023,7.84544098508735,0.940706059821048,-1.4147639,0.82711154,0.049785517,341.73947,-116.12402,16.628626,JOG
8060435064000,1.339955,-0.0703713655628462,8.1055693404346,-0.0283998999147848,-1.5091426,0.9764681,0.039095376,341.08542,-115.62763,16.565023,JOG
8060440040000,1.344931,0.183188844667599,8.43708829983015,-0.722438923703667,-1.6853772,1.237613,0.018020526,340.47113,-115.11374,16.514444,JOG
8060445060000,1.349951,0.384924682205815,8.8357567482266,-1.18354934602358,-1.8329011,1.5088371,-0.028710667,339.80545,-114.58832,16.466219,JOG
8060449923000,1.354814,0.344221461689482,9.20533110851419,-1.50815247328881,-1.9651535,1.6859881,-0.08582657,339.20172,-114.12821,16.427109,JOG
8060455052000,1.359943,0.0708801005870896,9.57889755648303,-1.73138128096828,-2.1197023,1.6526959,-0.21166481,338.568,-113.62026,16.359196,JOG
8060460063000,1.364954,-0.254827489646734,10.0423645138609,-1.74291270291025,-2.2855523,1.5366315,-0.41050145,337.94833,-113.11311,16.264606,JOG
8060465094000,1.369985,-0.679576943165162,10.6718123478492,-1.410277624376,-2.3845124,1.2889256,-0.6963864,337.35773,-112.55612,16.096344,JOG
8060470047000,1.374938,-1.20517902263319,11.347187234914,-0.958844512527104,-2.674979,1.1557571,-1.0167851,336.80533,-111.856735,15.78663,JOG
8060475053000,1.379944,-1.84707344943375,12.0871492063691,-0.374898821663133,-2.9006937,1.0363328,-1.3891076,336.29453,-111.09365,15.368929,JOG
8060479980000,1.384871,-2.36760204772798,12.8223580619451,0.211901239851039,-3.0482175,0.8313876,-1.8112154,335.7991,-110.10925,14.752156,JOG
8060484989000,1.38988,-2.66826166095268,13.584028757704,0.833264258950277,-3.0106494,0.5861252,-2.2015584,335.3316,-109.06504,14.039517,JOG
8060489941000,1.394832,-2.70526243193168,14.2540456986616,1.25503807318218,-2.7302623,0.42302418,-2.4666739,334.83127,-107.8124,13.117557,JOG
8060495238000,1.400129,-2.34045610555334,14.8417889041151,1.40704065185777,-2.3890939,0.36713,-2.595261,334.36954,-106.555786,12.135256,JOG
8060499944000,1.404835,-1.91692176532138,15.4229098639761,1.12569705100149,-2.0457878,0.3277292,-2.5638015,333.894,-105.24374,11.081297,JOG
8060505044000,1.409935,-1.31339681165919,16.1383786233184,0.215542553542601,-1.7595973,0.23854288,-2.4495697,333.46942,-104.01663,10.0357065,JOG
8060509934000,1.414825,-0.619835200738473,16.8114063197046,-0.591174636885807,-1.5525141,0.24923302,-2.2421808,333.0303,-102.90321,9.09775,JOG
8060515058000,1.419949,0.286114855961816,17.4963933823847,-1.33361177160483,-1.5066991,0.34422258,-2.1169536,332.61557,-101.85844,8.193687,JOG
8060519935000,1.424826,1.18476744622889,18.101538043533,-2.09981111652156,-1.5192219,0.4905248,-1.8048013,332.2759,-101.08391,7.4924655,JOG
8060525004000,1.429895,2.29488753884402,18.5038298992972,-3.18446960033568,-1.6942347,0.77579886,-1.5497651,331.8794,-100.3251,6.8413305,JOG
8060530058000,1.434949,3.33673280915583,18.842744350582,-3.82191967457693,-1.9804251,1.2620476,-1.4660766,331.42767,-99.74318,6.384605,JOG
8060535065000,1.439956,4.20916741758779,19.0256734768659,-3.36224974496723,-2.1954496,1.8961257,-1.4630222,330.86002,-99.183815,6.0027804,JOG
8060539974000,1.444865,4.99998706667959,19.1844450751115,-2.58415519121923,-2.268448,2.336865,-1.5250251,330.2437,-98.80193,5.7792563,JOG
8060545065000,1.449956,5.6000984365187,19.2789512649738,-0.660962985539834,-2.31915,2.4831672,-1.5754215,329.53015,-98.38312,5.570978,JOG
8060550057000,1.454948,6.12478432596291,19.3636070570613,1.19275644393723,-2.2828035,2.2434027,-1.6245961,328.7503,-97.99283,5.4617634,JOG
8060555049000,1.45994,6.3634805141023,19.4123205129407,2.90260006782148,-2.1713204,1.4963144,-1.6942347,328.07565,-97.59904,5.3157787,JOG
8060559988000,1.464879,6.5456111187863,19.4554195812137,4.16767188327659,-2.0069978,0.5137377,-1.9190332,327.44434,-97.09175,5.1749935,JOG
8060565082000,1.469973,6.5211848123573,19.4798458876427,3.79639161746445,-1.8832976,-0.2134974,-2.3014348,326.95764,-96.568436,4.9513597,JOG
8060570083000,1.474974,6.46165495378818,19.5005366564855,3.50821482776676,-1.9547688,-0.24190263,-2.7033842,326.50012,-95.91717,4.680015,JOG
8060575003000,1.479894,6.28409862336374,19.5098814363348,3.48017960999603,-2.144748,0.063224554,-3.0060678,326.16498,-95.234245,4.318077,JOG
8060580124000,1.485015,6.08175425854528,19.5185145203191,3.46999838440169,-2.2531765,0.14996742,-3.0903673,325.9199,-94.55299,3.8957815,JOG
8060585063000,1.489954,5.82427943727827,19.5229542896293,3.5277082469451,-2.4000895,0.13622294,-3.1074715,325.62943,-93.81604,3.4149833,JOG
8060590106000,1.494997,5.54077301163307,19.527467154782,3.63244604953379,-2.4859161,-0.17806722,-3.2159002,325.41418,-93.05245,2.8649452,JOG
8060594969000,1.49986,5.04862596775597,19.5316024969363,4.21971408163573,-2.6816983,-0.8197812,-3.3169982,325.31326,-92.346054,2.3195202,JOG
8060599930000,1.504821,4.54656109325992,19.5358211752065,4.8188168386289,-2.9361238,-1.5125023,-3.31822,325.33673,-88.20945,1.7482022,JOG
8060604982000,1.509873,3.79496692894201,19.4997002989668,4.90844004558863,-3.1322114,-2.1493294,-3.2198708,325.5424,-88.34859,1.1904066,JOG
8060609939000,1.51483,2.99807374769431,19.4542633423319,4.86766334047905,-3.2647693,-2.4251351,-3.1343496,325.85666,-87.956604,0.64401335,JOG
8060615130000,1.520021,2.16356244976072,19.4066814900238,4.82496173139618,-3.2980614,-2.8539624,-2.9297097,326.43286,-87.17427,0.118201636,JOG
8060620079000,1.52497,1.36795535797237,19.3613178631556,4.78425083496945,-3.3615913,-3.235448,-2.7043004,327.08377,-86.24468,-0.35356185,JOG
8060624975000,1.529866,0.580868608852186,19.3164400459911,4.74397592106658,-3.4724634,-3.588528,-2.4260514,327.8473,-85.27964,-0.7284952,JOG
8060629985000,1.534876,-0.224544915063686,19.2705172796525,4.70276323343314,-3.6453383,-4.113261,-2.2156084,328.76892,-84.29636,-1.026931,JOG
8060635068000,1.539959,-1.0416940052961,19.2239253791936,4.6609500415687,-3.7950003,-4.8356094,-2.1838431,329.83688,-83.31189,-1.2643362,JOG
8060640071000,1.544962,-1.84598220093504,19.1780667764007,4.61979493653275,-3.9730675,-5.5390205,-2.1728477,331.0417,-82.3041,-1.410334,JOG
8060645074000,1.549965,-2.365624492836,18.7479492954411,4.0570486806789,-4.189008,-5.8783565,-2.0280726,332.33215,-81.27359,-1.4781394,JOG
8060650068000,1.554959,-2.74789730432208,18.1344250118413,3.24530896923229,-4.2687263,-6.168823,-1.858863,333.79968,-80.257034,-1.4885918,JOG
8060655044000,1.559935,-3.10539662507535,17.2684369807113,2.53843107263412,-4.223522,-6.5848217,-1.6807957,335.36404,-79.15052,-1.7423716,JOG
8060660062000,1.564953,-3.45300176270846,16.2545887466345,1.88184351762106,-4.1911464,-7.0197577,-1.4819591,336.99396,-78.047516,-1.8922168,JOG
8060665082000,1.569973,-3.22680788721805,14.7538270676692,0.288096273684211,-4.23238,-7.1746125,-1.2492194,338.59125,-77.01936,-1.9943448,JOG
8060670068000,1.574959,-2.70502886045113,13.0113727717293,-1.77987189389474,-4.254371,-6.977914,-0.9950995,340.18665,-76.03501,-2.006322,JOG
8060675053000,1.579944,-0.58696956372027,9.53016741774938,-4.17238383564075,-4.160298,-6.5521407,-0.7816021,341.69925,-75.127525,-1.9977175,JOG
8060680959000,1.58585,2.89159891888534,4.34996109348598,-7.20420964731984,-3.971235,-5.9186735,-0.67256266,343.07907,-74.26485,-1.9603658,JOG
8060685064000,1.589955,4.78945773017491,1.9322807516858,-8.47642012222341,-3.659083,-5.2174,-0.61300325,344.20862,-73.684204,-1.8765389,JOG
8060690044000,1.594935,6.45273310843438,0.453245301658976,-8.99331462377938,-3.2675183,-4.485889,-0.56382865,345.151,-73.19762,-1.814478,JOG
8060694999000,1.59989,7.77322419653436,-0.709350316575829,-9.39020329265403,-2.8347201,-3.717726,-0.48716503,346.19922,-72.890724,-1.4035513,JOG
8060700116000,1.605007,8.83769837776461,-1.63350741518167,-9.69503058135861,-2.3588562,-2.8814514,-0.41263947,347.0458,-72.71863,-1.0353371,JOG
8060705054000,1.609945,9.51059605558841,-2.37340561919968,-9.87193808387542,-1.8237382,-2.0635028,-0.32620203,347.84192,-72.645645,-0.50173074,JOG
8060709967000,1.614858,9.85839926670609,-2.97162752970629,-9.94149848398384,-1.2944235,-1.6426166,-0.26328292,348.53253,-72.707634,0.019180026,JOG
8060715083000,1.619974,9.92762947811117,-3.51736836743729,-9.86291451008362,-1.0461067,-0.81122905,-0.1441642,348.92566,-72.822914,0.61103046,JOG
8060720049000,1.62494,9.6890186741761,-3.96651832293163,-9.6289826894245,-0.559858,-0.03604105,-0.041233405,349.22714,-73.14621,1.1923902,JOG
8060725041000,1.629932,9.23920366517413,-4.4870589239005,-9.37109179383085,-0.14385876,0.6264423,0.05131268,349.3372,-73.48417,1.7964866,JOG
8060730068000,1.634959,8.53023785199005,-5.09542816457711,-9.08367294378109,0.2049453,1.1624765,0.11942416,349.26807,-73.92056,2.3766866,JOG
8060734956000,1.639847,7.74843947132923,-5.78149895261276,-8.87104867295847,0.48075095,1.5784758,0.17287487,349.04813,-74.38764,2.9189076,JOG
8060740051000,1.644942,6.80804591688853,-6.62494477011723,-8.74016902563084,0.7199047,1.9034561,0.21135938,348.70102,-74.91675,3.4517045,JOG
8060744941000,1.649832,5.99588760837295,-7.38670615853304,-8.57973257824779,0.93951076,2.1826215,0.18387043,348.2463,-75.46304,3.8834498,JOG
8060750453000,1.655344,5.22254026447075,-8.17029704131173,-8.34414337712234,1.1658363,2.4410176,0.12980886,347.70386,-76.05287,4.310698,JOG
8060754912000,1.659803,4.74083012345119,-8.78714293482422,-8.05531199383499,1.4217888,2.7363708,0.10048734,347.06433,-76.6897,4.6202674,JOG
8060760061000,1.664952,4.45272342248413,-9.46767091689332,-7.53870670852221,1.6920967,3.0524936,0.07941248,346.34637,-77.372505,4.916027,JOG
8060764964000,1.669855,4.17538922344283,-9.9917220132382,-6.92045326121881,1.9685133,3.302643,0.08735373,345.55432,-78.08962,5.1301174,JOG
8060770035000,1.674926,3.88336006401005,-10.3186201460241,-6.06180074747801,2.2742512,3.4538321,0.08979719,344.69934,-78.858055,5.343535,JOG
8060774939000,1.67983,3.54259588472659,-10.527998782422,-5.20530049365179,2.5644124,3.4788775,0.06352998,343.78806,-79.59561,5.541106,JOG
8060780168000,1.685059,2.78194400194846,-10.0243947564949,-4.11415855615965,2.8487701,3.395189,0.032375857,342.86243,-80.35348,5.756867,JOG
8060785055000,1.689946,2.00015308134257,-9.34495337584159,-3.1295678090099,3.1031954,3.2461379,-0.005192355,341.91498,-81.00952,5.9573874,JOG
8060790046000,1.694937,0.987406708069307,-8.01986461881188,-2.23040036757426,3.3512068,3.0723467,-0.0580322,340.99887,-81.64541,6.170225,JOG
8060795001000,1.699892,-0.02732157558669,-6.66099622241681,-1.31593032399299,3.5592062,2.8820622,-0.04642576,340.1059,-82.19121,6.31775,JOG
8060799964000,1.704855,-1.07706278008367,-5.14418956024518,-0.32168207489784,3.700927,2.6798658,-0.002443461,339.2675,-82.642654,6.4840136,JOG
8060804984000,1.709875,-2.14403953722905,-3.62984708684447,0.707704154370193,3.7745364,2.5680776,0.04886922,338.4579,-83.05839,6.5065393,JOG
8060809960000,1.714851,-3.22936115512936,-2.23511350434522,1.8549083043652,3.7675114,2.26631,0.07452556,337.76385,-83.313545,6.5547166,JOG
8060815069000,1.71996,-4.3369987840496,-0.838287946327149,2.9671186579894,3.73819,1.9349157,0.112399206,337.10568,-83.546974,6.4449687,JOG
8060820104000,1.724995,-5.39595942163953,0.366736163385082,3.74308107705415,3.6092973,1.6374242,0.10781772,336.53076,-96.37163,6.337431,JOG
8060825051000,1.729942,-6.44211469074867,1.53979185538569,4.46325548558574,3.435506,1.4208726,0.06719518,335.89404,-96.25046,6.0441275,JOG
8060830049000,1.73494,-7.59619061479864,2.53915468288635,4.47161830492706,3.1710014,1.3286319,-0.05222898,335.3315,-96.23889,5.7318645,JOG
8060834999000,1.73989,-8.73918297655281,3.5289197881541,4.47990080907661,2.8215866,1.4440855,-0.30665436,334.84567,-96.03141,5.1732707,JOG
8060839991000,1.744882,-10.113252689415,4.71071618081974,3.64146926850378,2.4254405,1.784032,-0.6945538,334.33734,-95.828285,4.5468693,JOG
8060845063000,1.749954,-11.5822501155989,5.97192801623558,2.51072777085157,2.0344868,2.3542747,-1.1560625,333.74252,-95.60609,3.8358247,JOG
8060850050000,1.754941,-12.1997140071901,7.38594108449813,1.63759265056083,1.7693712,3.0775392,-1.5402967,333.08133,-95.274826,2.7986262,JOG
8060854996000,1.759887,-12.5493688479532,8.8435935251462,0.847463389473684,1.6221527,3.7204747,-1.6804903,332.29617,-95.08401,1.7223147,JOG
8060859988000,1.764879,-11.8927538934309,9.88214704325506,0.736060317330545,1.5528195,4.14075,-1.491733,331.47922,-95.304054,0.37346452,JOG
8060865002000,1.769893,-10.7058816070919,10.6992626884685,0.982564554083088,1.4920384,4.257731,-1.0943651,330.58362,-95.844185,-0.90712714,JOG
8060869994000,1.774885,-8.77038461825329,10.8384700581173,0.719579221534212,1.3839152,4.0897427,-0.5717699,329.69724,-96.70951,-2.1205573,JOG
8060875036000,1.779927,-6.20524140469613,10.4331777914365,0.0423813445856354,1.1737776,3.6297612,-0.0571159,328.8797,-97.60518,-3.1738958,JOG
8060880002000,1.784893,-3.81904624387581,9.38427850055083,-0.637409623260891,0.93431836,3.030808,0.29260445,328.08438,-98.268135,-3.8713307,JOG
8060885042000,1.789933,-1.46490706630946,8.00659891717577,-1.33350008968052,0.68203104,2.3945918,0.4569272,327.44803,-98.83482,-4.4639792,JOG
8060890255000,1.795146,0.104207753970702,6.79353428787587,-0.675782357936584,0.50976706,1.6804903,0.4642576,326.9033,-99.18804,-4.621014,JOG
8060894996000,1.799887,1.18941424664611,5.77396533184271,0.466309989167309,0.46883908,0.6044512,0.36713,326.64975,-99.493416,-4.7949114,JOG
8060899978000,1.804869,2.62243422238532,5.81545885541284,2.29303896972477,0.3213151,-0.8582657,0.3463606,326.6095,-99.657646,-4.5882435,JOG
8060904921000,1.809812,4.23897676804281,6.59718992171254,4.52242002163609,-0.10567969,-1.4385877,0.42424592,326.6274,-99.7453,-4.392422,JOG
8060909886000,1.814777,5.84598591374911,8.61445375696642,2.19320991795448,-0.092240654,-1.840537,0.7165449,326.90894,-99.63002,-3.9699562,JOG
8060914962000,1.819853,7.47845538848627,11.4477068070838,-3.04657131258549,0.35155296,-1.4227052,1.097114,327.12305,-99.520424,-3.493835,JOG
8060919919000,1.82481,9.44713334898402,13.5383233612152,-6.03421791132373,1.1664472,-0.73853606,1.6612481,327.17297,-99.10585,-2.4842973,JOG
8060924923000,1.829814,11.6215544703097,15.3109486529888,-7.98646967557704,2.0491474,-0.055588737,2.3273966,327.10306,-98.920456,-1.3402889,JOG
8060929928000,1.834819,12.8007741806317,16.5236040550961,-7.48547179640331,2.5744915,0.5177083,2.833804,327.0029,-99.56405,0.014814679,JOG
8060934925000,1.839816,13.4110638595198,17.4151993934443,-5.5878517115672,2.543643,0.8197812,2.8732047,326.82397,-100.473465,1.3967394,JOG
8060939919000,1.84481,13.1787795854234,17.2458083623488,-3.63561473177929,2.1053472,0.8894198,2.5189028,326.50348,-101.73553,3.0684237,JOG
8060944918000,1.849809,12.4489137848923,16.450019386348,-1.64849748111537,1.5308284,0.88789266,2.0717494,326.17584,-103.04737,4.6443415,JOG
8060949924000,1.854815,11.8741881103909,15.5421820680147,-0.679907883862229,1.0207558,0.8170323,1.8035797,325.7867,-104.085846,6.200804,JOG
8060955057000,1.859948,11.3938349582043,14.5339155588235,-0.399305406811146,0.88239485,0.5870415,1.7907515,325.46326,-105.10326,7.6100917,JOG
8060960064000,1.864955,10.6300742576099,13.1370877058824,-0.799451073896447,1.0204504,0.27366763,1.9837849,325.1673,-105.90416,8.885741,JOG
8060965134000,1.870025,9.61783091807771,11.3882359411765,-1.74991425271606,1.1982121,-0.105374254,2.2626448,324.96545,-106.7297,10.1128435,JOG
8060970056000,1.874947,9.09908979083785,11.0133263383564,-2.33583072511553,1.2993103,-0.5170974,2.5949554,324.8723,-107.641,11.319231,JOG
8060975082000,1.879973,9.00721457142857,11.8788894761905,-2.61629238095238,1.3228287,-0.97005403,2.9721649,324.9229,-108.647804,12.551373,JOG
8060980003000,1.884894,8.72667920943781,13.1362617197786,-2.67026366608409,1.3002267,-1.4459181,3.3722816,325.2054,-109.80945,13.728655,JOG
8060985066000,1.889957,8.25588215117973,14.8217142149723,-2.51490074992718,1.2159272,-2.0894647,3.7256672,325.69763,-111.02446,14.925972,JOG
8060990041000,1.894932,7.54729411519115,16.1568052605634,-2.54282532665996,1.0381655,-2.96178,3.982536,326.39075,-112.26832,16.074438,JOG
8060995057000,1.899948,6.54208796750503,17.1233496042254,-2.78446143780684,0.7870999,-3.998113,4.100433,327.3413,-113.50611,17.177982,JOG
8060999976000,1.904867,5.36276398238165,17.8444977593948,-3.93234254592484,0.52198434,-4.5500298,4.044844,328.24585,-114.615875,18.07822,JOG
8061005172000,1.910063,3.8813456849878,18.3302083772572,-6.25404097298194,0.40378192,-5.634621,3.937332,329.60522,-115.67899,18.81449,JOG
8061009990000,1.914881,1.95019572768769,18.6807678467523,-8.09011915390383,0.42332962,-6.096435,3.5381315,331.02164,-116.50168,19.284245,JOG
8061015119000,1.92001,-0.904247522063923,18.9109656739151,-9.59100377579905,0.68325275,-5.2571063,2.9407053,332.3339,-117.25366,19.655516,JOG
8061019990000,1.924881,-3.17735524498303,19.0995700382937,-10.3037760722249,1.3735305,-3.4040465,2.127949,333.6115,-117.96931,19.663929,JOG
8061025044000,1.929935,-4.39266360335434,19.2168777144935,-9.18231380581677,2.2342396,-1.2049317,1.352761,334.4783,-118.64073,19.625206,JOG
8061029923000,1.934814,-5.04695413422734,19.318919035935,-7.49503164481823,3.0069842,0.8350528,0.8341365,335.0398,-119.232834,19.27338,JOG
8061035056000,1.939947,-3.62552527997905,19.3807199257203,-3.2616456506527,3.5863898,1.790446,0.59986967,335.2268,-119.8837,18.925457,JOG
8061040683000,1.945574,-1.51852978475153,19.4341580968589,0.884317497593115,3.7727036,1.8072448,0.5888741,335.11176,-120.41979,18.54839,JOG
8061045062000,1.949953,0.777535520285909,19.4586277768161,3.51887913214237,3.644422,1.4489723,0.6065892,334.8138,-120.99218,18.202473,JOG
8061049953000,1.954844,3.19001240029696,19.4117910575726,6.06814986867516,3.3912184,0.9202685,0.6921103,334.34857,-121.373795,18.10509,JOG
8061055048000,1.959939,5.21860927250694,19.1266657989271,7.47040578394482,3.2018502,0.2312125,0.9233228,334.05127,-121.769806,17.99113,JOG
8061060044000,1.964935,7.0498665481438,18.8170587922421,8.57417652909198,3.0219505,-0.4654793,1.1893547,333.62952,-122.04106,18.208523,JOG
8061065130000,1.970021,8.1376654989715,18.3542671672054,8.36425012297972,2.8212812,-0.850019,1.3955216,333.33917,-122.29598,18.42204,JOG
8061069994000,1.974885,9.02163704791586,17.8322310662252,8.09056405414881,2.5992317,-0.98624194,1.5512923,333.01678,-122.59218,18.903353,JOG
8061075119000,1.98001,8.7778571492014,16.6850286655629,7.25406253243085,2.3405302,-0.9993755,1.642922,332.79453,-122.8697,19.380991,JOG
8061080094000,1.984985,8.46372212797302,15.569712127973,6.44498348349308,2.0683897,-0.9034697,1.6401732,332.5495,-123.23799,19.994432,JOG
8061085052000,1.989943,7.3344065058573,14.4403965058573,5.66963280479233,1.8484782,-0.82619524,1.5293012,332.31677,-123.5658,20.588366,JOG
8061089913000,1.994804,6.22718519905928,13.3331751990593,4.90945135074547,1.7125608,-0.6640105,1.3784174,332.1087,-123.96066,21.185087,JOG
8061095054000,1.999945,4.7231621246958,12.7706032020831,3.92392536072228,1.5855007,-0.20097467,1.2461652,331.78162,-124.29301,21.798763,JOG
8061099924000,2.004815,3.22043409880269,12.3801669633992,2.9478330574029,1.4489723,0.12492194,1.2110404,331.43756,-124.58592,22.39365,JOG
8061105040000,2.009931,1.636845816644,11.7528966069763,1.97381317055966,1.361924,0.8399397,1.2263119,331.00403,-124.885284,22.956888,JOG
8061110718000,2.015609,-0.122537906197046,10.9762314983482,0.911842795549942,1.1285735,1.865277,1.3243558,330.39035,-125.13187,23.609486,JOG
8061115120000,2.020011,-1.31640681674252,9.93489208623329,0.366028676777222,0.6930266,2.134974,1.3231341,329.95877,-125.262596,24.027016,JOG
8061120082000,2.024973,-2.62091861187264,8.65462772517604,-0.181963240095928,0.5522222,2.477364,1.2238685,329.20764,-125.401924,24.577883,JOG
8061125043000,2.029934,-3.51909360177593,7.20886235609905,-0.119388394373858,0.3313944,2.4309382,1.0693196,328.64948,-125.401825,24.891663,JOG
8061130065000,2.034956,-4.29512984803126,5.69095495666734,0.14417107856302,0.1591304,2.0088303,0.8576548,328.07016,-125.3465,25.152685,JOG
8061135057000,2.039948,-4.97269673472595,4.49952368754601,0.830119481979509,0.03268129,1.3133603,0.60994893,327.67773,-125.234375,25.195515,JOG
8061139997000,2.044888,-5.61741887179946,3.40773145219337,1.62543361491495,-0.054367006,0.4831944,0.32253686,327.40594,-125.038635,25.098429,JOG
8061145046000,2.049937,-6.15494298305135,2.62349398954358,2.40245686856187,-0.12156218,-0.17379116,0.014049901,327.2736,-124.81244,24.855639,JOG
8061150094000,2.054985,-6.65426332591973,1.94346716404682,3.16808145719064,-0.071776666,-0.9074403,-0.22785273,327.36908,-124.54361,24.440285,JOG
8061155044000,2.059935,-7.02808017497486,1.44615942476372,4.1010235642771,-0.122478485,-1.5436565,-0.41141775,327.50705,-124.2995,23.935081,JOG
8061160086000,2.064977,-7.36791903528052,0.999513991636839,5.1156856106676,-0.19547687,-1.9837849,-0.54092115,327.77505,-124.0291,23.313189,JOG
8061165093000,2.069984,-7.55521096258835,0.771780049001493,5.67997999422598,-0.2770274,-2.1774292,-0.6081163,328.1542,-123.61496,22.585747,JOG
8061170074000,2.074965,-7.69292725720259,0.615068387333002,6.09787771239423,-0.37873647,-2.0665572,-0.6469063,328.55948,-123.16696,21.809458,JOG
8061175050000,2.079941,-7.61405385085714,0.473641495428571,5.81199985428571,-0.5299256,-1.7638733,-0.68752885,328.9237,-122.55584,21.005754,JOG
8061180488000,2.085379,-7.44541815626667,0.324845282133333,5.23169430133333,-0.70646566,-1.4495832,-0.7244862,329.25333,-121.91084,20.201027,JOG
8061185049000,2.08994,-7.13156544515445,0.213311622265294,4.59508332059358,-0.92271197,-1.2528846,-0.80756384,329.50623,-121.162155,19.390522,JOG
8061190041000,2.094932,-6.70686794594185,0.0974850471471835,3.82773249224712,-1.1148291,-1.1924089,-0.9095783,329.7083,-120.36806,18.581873,JOG
8061195061000,2.099952,-6.27990167684157,0.0224344673218971,3.13907143587286,-1.276403,-1.2229522,-1.0311406,329.91095,-119.57732,17.761572,JOG
8061200068000,2.104959,-5.85410028335015,-0.0307907369267407,2.49553021402624,-1.4172074,-1.2724323,-1.1679744,330.0929,-118.72676,16.91083,JOG
8061205054000,2.109945,-5.51094678023045,-0.100255969473003,2.01467424170079,-1.4789047,-1.427592,-1.2342533,330.3468,-117.95362,16.066265,JOG
8061209960000,2.114851,-5.21117359485763,-0.176317759065232,1.6164684570898,-1.5628988,-1.582141,-1.382999,330.59283,-117.10831,15.154544,JOG
8061215113000,2.120004,-4.8829709027027,-0.218949889294947,1.37594667967098,-1.6404786,-1.7006488,-1.5195273,330.8912,-116.343,14.257371,JOG
8061220114000,2.125005,-4.55467552702703,-0.233019697405993,1.2727681456228,-1.7180585,-1.7626517,-1.6395624,331.2054,-115.54439,13.310874,JOG
8061225047000,2.129938,-4.30175449273397,-0.209826898463476,1.3417383058322,-1.8142698,-1.7272215,-1.7266107,331.52936,-114.78412,12.370078,JOG
8061230066000,2.134957,-4.10617492540205,-0.153947033891688,1.56060108321062,-1.9431623,-1.5372424,-1.7718146,331.82333,-113.99788,11.415293,JOG
8061234974000,2.139865,-3.70210069378064,0.0171506208374183,1.88841487550041,-2.116648,-1.1597277,-1.7434094,332.05374,-113.21927,10.529064,JOG
8061239971000,2.144862,-3.03744381433823,0.329930385245098,2.35758454252451,-2.3796256,-0.7440339,-1.6371188,332.22983,-112.402336,9.672533,JOG
8061244975000,2.149866,-2.26085472624093,0.545683391973875,2.83583293303338,-2.6823094,-0.38545597,-1.4920384,332.3139,-111.533905,8.903459,JOG
8061250086000,2.154977,-1.3515334484567,0.664084590488631,3.33311800141268,-2.9819386,-0.099571034,-1.4059063,332.31464,-110.61279,8.179081,JOG
8061254999000,2.15989,-0.34549517539205,0.833978441532696,3.94175576166289,-3.2192597,0.14110987,-1.395827,332.19598,-109.661545,7.639821,JOG
8061260044000,2.164935,0.86011607270934,1.08177208291745,4.73755457914982,-3.3667839,0.3594942,-1.4251486,332.01523,-108.66703,7.136702,JOG
8061264989000,2.16988,1.59133836971492,1.39526030410959,5.05217880059237,-3.4526103,0.5045747,-1.4608842,331.7477,-107.600815,6.813713,JOG
8061270060000,2.174951,1.66775337385228,1.82228539349315,4.67909358712514,-3.4871242,0.5882632,-1.509448,331.43906,-106.510506,6.491136,JOG
8061274932000,2.179823,1.64519599090251,2.28263044060788,4.12044254330611,-3.467882,0.6411031,-1.5769486,331.04248,-105.331055,6.3735285,JOG
8061280071000,2.184962,1.29413125975395,2.93896887873462,2.84846879964851,-3.4455855,0.68019843,-1.6584991,330.6292,-104.1507,6.240477,JOG
8061284929000,2.18982,0.971882415812984,3.55612672786381,1.67319855133016,-3.4800992,0.6881397,-1.8029687,330.19022,-103.21511,6.1551204,JOG
8061290062000,2.194953,0.654704134842168,4.20024246082986,0.497199197959103,-3.4825428,0.6753115,-1.9984456,329.74283,-102.295906,6.0344644,JOG
8061294963000,2.199854,0.428434456803287,5.09223429290815,-0.357374247213147,-3.4153476,0.65026605,-2.2235496,329.34186,-101.455025,5.7624125,JOG
8061300071000,2.204962,0.385368345689132,6.71917676243764,-0.572704842756529,-3.3527339,0.58551437,-2.3313673,328.9582,-100.616165,5.4695797,JOG
8061304962000,2.209853,0.35544365600988,8.56118121119134,-0.69257980467414,-3.2033772,0.46975538,-2.5347853,328.64954,-99.70739,4.922366,JOG
8061309974000,2.214865,0.360003690362911,11.3336839072202,-0.546658610146304,-2.978579,0.2959642,-2.699719,328.38095,-98.83889,4.356521,JOG
8061315114000,2.220005,0.415325447016033,13.937239323683,-0.397144870871278,-2.6493225,0.013133603,-2.785851,328.18173,-98.014595,3.719685,JOG
8061320105000,2.224996,0.721862214037563,15.2684846612002,-0.252634674955566,-2.3167064,-0.3539964,-2.8802297,328.05624,-97.25586,3.0365405,JOG
8061325401000,2.230292,1.14387931158585,16.6555661138712,-0.160833074165342,-2.1927009,-0.83260936,-3.0143147,328.0384,-96.45069,2.2854252,JOG
8061330226000,2.235117,3.67375405274245,17.3534622833863,-1.44184042750397,-2.3307564,-1.4019357,-3.126103,328.1554,-95.714584,1.5187063,JOG
8061335366000,2.240257,6.38265468267003,18.0890767405542,-2.82960147768262,-2.4917192,-1.7574593,-2.9150488,328.3441,-95.0476,0.86476034,JOG
8061340048000,2.244939,9.42761392686146,18.4324265521411,-5.05684920959194,-2.499355,-1.4004086,-2.2934935,328.50388,-94.463165,0.31695315,JOG
8061345379000,2.25027,12.7497095233855,18.8156037504921,-7.51143619951261,-2.384207,-0.27183503,-1.4779885,328.4769,-94.24546,0.35717508,JOG
8061350120000,2.255011,12.3624446111163,18.9773185539413,-7.81784366562002,-2.266921,1.6496416,-0.7959574,328.1293,-94.034485,0.53521454,JOG
8061354974000,2.259865,11.9659493813853,19.1428877705502,-8.13155424155029,-2.0622811,3.8197403,-0.59712076,327.13196,-94.73058,1.4453942,JOG
8061360058000,2.264949,11.2375232236854,19.2432794165209,-4.66630354301685,-1.6691893,4.8915033,-1.2253957,325.9174,-95.46506,2.22934,JOG
8061365818000,2.270709,10.3383845184639,19.3397969448384,0.154501569203426,-1.4624114,4.4651194,-2.110234,324.53564,-96.12501,2.9311237,JOG
8061370094000,2.274985,9.95509348573724,19.387287735235,3.68742061169747,-1.3536774,3.1477885,-2.7650816,323.11417,-96.72525,3.4036248,JOG
8061374959000,2.27985,9.60411569345118,19.4340847742065,7.69324975704701,-1.5384641,1.2098186,-3.0185907,322.0068,-97.15618,3.6701548,JOG
8061380052000,2.284943,9.07337918962397,19.4668013651719,8.55985560878745,-2.0347922,-0.32345316,-3.0335567,321.34094,-96.6989,3.566767,JOG
8061384987000,2.289878,8.47940187512568,19.4905604180575,7.77580636738387,-2.4419339,-1.2363913,-3.0549371,321.04282,-96.1881,3.343001,JOG
8061390051000,2.294942,7.33050447886624,19.5049315927399,7.08530819443063,-2.6386325,-1.9590448,-3.2293391,321.19586,-95.18344,2.9829519,JOG
8061395076000,2.299967,5.93777238040776,19.5145033306813,6.45355350024863,-2.758362,-2.2156084,-3.3921347,321.47797,-94.1495,2.6115253,JOG
8061400123000,2.305014,3.88340082046744,19.5208391460248,6.10815866787855,-2.8576276,-2.52043,-3.412904,321.98358,-93.11036,2.1440818,JOG
8061405050000,2.309941,1.5835362539193,19.5255525705154,5.90079377682781,-2.8875601,-2.6645942,-3.3240232,322.51962,-92.118484,1.6745533,JOG
8061409969000,2.31486,-0.859836351202514,19.2420344493002,5.49618718726078,-2.8774807,-2.9529226,-3.1224377,323.2251,-91.13655,1.0793158,JOG
8061415138000,2.320029,-3.50392939441302,18.7942813281919,4.96831117035133,-2.7705793,-3.449556,-2.8930578,324.03625,-89.23266,0.5404587,JOG
8061420104000,2.324995,-5.49115600032722,18.1200536614622,4.1865177638276,-2.6184738,-4.1001277,-2.6670377,325.03555,-88.53556,-0.16957848,JOG
8061425046000,2.329937,-7.08411493553665,17.2793264062266,3.21746775453441,-2.461787,-4.5759916,-2.298686,326.12592,-87.56396,-0.7408042,JOG
8061430055000,2.334946,-8.12336533312382,16.1531362683847,2.00247359190446,-2.4284947,-4.98069,-1.8823812,327.40717,-86.51912,-1.474013,JOG
8061435416000,2.340307,-8.43530718683218,14.5665369179761,0.378226689195474,-2.5445592,-5.320942,-1.3808609,328.79514,-85.52521,-2.04035,JOG
8061440041000,2.344932,-7.73300102450199,12.5366602296813,-1.39604474296016,-2.7467556,-5.407685,-0.8371908,330.19473,-84.58904,-2.6248913,JOG
8061445045000,2.349936,-6.16741040976096,9.79210428824701,-3.62510193178088,-2.9098566,-5.213124,-0.4465425,331.59485,-83.695015,-3.0843444,JOG
8061450079000,2.35497,-4.07676129195764,6.93467504980333,-5.67754567198185,-2.9523118,-4.831333,-0.23732115,332.9021,-82.95436,-3.4671917,JOG
8061455060000,2.359951,-1.53649944915986,4.01914694776601,-7.53463111763994,-2.8817568,-4.3548584,-0.14844026,334.11023,-82.25363,-3.7682807,JOG
8061460045000,2.364936,1.07431463525988,1.55735605987526,-9.02342302910603,-2.6902506,-3.82646,-0.14569137,334.98035,-82.008385,-3.8826213,JOG
8061465118000,2.370009,3.79181534784081,-0.54449843062073,-10.2114276210276,-2.3857343,-3.2177327,-0.15760323,335.69055,-81.828064,-3.998114,JOG
8061470096000,2.374987,6.12299058500298,-2.06463107006546,-10.5754049886927,-1.9431623,-2.6755898,-0.11209377,336.4733,-81.75728,-3.9193819,JOG
8061475056000,2.379947,8.14420780380877,-3.0917298837929,-10.2173335266812,-1.4737124,-2.259896,-0.052839845,337.11932,-81.781685,-3.857189,JOG
8061480002000,2.384893,9.73004770898192,-3.99016558565213,-9.90314284327565,-1.0225884,-1.8564194,0.046731193,337.64206,-82.10827,-3.5125194,JOG
8061485056000,2.389947,10.8999497594508,-4.77633979093106,-9.62704628773083,-0.5861252,-1.3793337,0.17684549,338.0307,-82.570656,-3.1561255,JOG
8061490001000,2.394892,11.7616512678427,-5.55946788509073,-9.48765773135081,-0.17256944,-1.10139,0.30176744,338.35562,-83.19681,-2.5425699,JOG
8061495062000,2.399953,12.2502423506048,-6.38030050618952,-9.52674528326613,0.20769419,-0.44715336,0.40866885,338.4461,-83.92927,-1.9177809,JOG
8061499947000,2.404838,12.3930113269458,-7.2878013582842,-9.86176151591981,0.36377025,0.27275133,0.44837508,338.42993,-84.68166,-1.1363661,JOG
8061505577000,2.410468,12.0645044784788,-8.50645386329599,-10.6936238920991,0.6133087,1.4935656,0.52198434,338.0947,-85.4986,-0.33432,JOG
8061509935000,2.414826,11.61794896875,-9.56958155357143,-11.4726297633929,1.0195341,1.9538525,0.51893,337.77414,-86.262245,0.5288101,JOG
8061515128000,2.420019,10.79894435,-11.0151746857143,-12.6024622214286,1.2006557,2.8225029,0.4718934,337.0021,-86.77563,1.3812029,JOG
8061519964000,2.424855,9.94226855497916,-12.2698243660028,-12.489253612969,1.6368134,3.5042286,0.43951756,336.1798,-87.11455,2.2137034,JOG
8061525046000,2.429937,8.88727760296434,-13.4375281462714,-10.4514083333025,2.03693,3.8994584,0.43951756,335.20612,-86.85079,3.055134,JOG
8061529929000,2.43482,7.76860448282128,-14.0416687502008,-8.65960434075301,2.257758,4.118148,0.47158796,334.14777,-93.850235,3.8116827,JOG
8061535054000,2.439945,6.1941645273745,-12.7013001257028,-7.41286465513554,2.3558018,4.1453314,0.5311473,333.047,-94.9842,4.602593,JOG
8061539939000,2.44483,4.69345444301205,-11.4236999831325,-6.22450887674699,2.414445,3.9577959,0.59406644,331.93286,-96.15712,5.3431363,JOG
8061545051000,2.449942,3.12300818891566,-10.0867313180723,-4.98093165277108,2.5265386,3.6221254,0.65240407,330.86804,-97.455185,6.1255803,JOG
8061549964000,2.454855,1.62914492488488,-8.66398457729279,-3.81990270669609,2.645352,3.271489,0.60903263,329.8754,-98.81398,6.9197936,JOG
8061555044000,2.459935,0.135662839696853,-6.73645952395434,-2.73246116179969,2.741258,2.9804115,0.5338962,328.9778,-100.23838,7.741323,JOG
8061560000000,2.464891,-1.25751043755638,-4.87068640157874,-1.57104613078055,2.802039,2.7061331,0.48808134,328.1925,-101.2049,8.155433,JOG
8061565130000,2.470021,-2.34626877899588,-3.02076046188468,0.187346885987449,2.8081474,2.389705,0.4370741,327.50864,-102.200264,8.552795,JOG
8061570050000,2.474941,-3.36276433669668,-1.25776382679292,1.95917208649488,2.7785206,2.0048597,0.3903429,326.93164,-102.95846,8.706884,JOG
8061575191000,2.480082,-4.22893866964711,0.505155513898375,4.41503092546828,2.706744,1.4630222,0.3555236,326.49426,-103.730675,8.833526,JOG
8061580071000,2.484962,-5.11788234261236,2.17998250455993,6.86730499039326,2.6099217,0.78893244,0.33169982,326.12173,-104.14718,8.737203,JOG
8061585051000,2.489942,-6.29233238924157,3.89476889276217,9.85478432859551,2.490803,0.012217305,0.28252518,325.93802,-104.54176,8.5842705,JOG
8061590157000,2.495048,-7.56028793780171,5.65671526132566,12.5554531128853,2.349693,-0.81581056,0.19547687,325.88748,-104.5857,8.308274,JOG
8061595059000,2.49995,-9.50400302068325,7.39124118026365,11.0214001541032,2.0787745,-1.2257011,0.121256754,325.9405,-104.56627,7.9955606,JOG
8061599991000,2.504882,-11.4596135447085,9.13638231290382,9.47795886632009,1.861001,-1.6627752,-0.103847094,326.1168,-104.01672,7.450604,JOG
8061605046000,2.509937,-13.3687217400223,10.9214307813547,5.79654428229918,1.3988814,-0.9682214,-0.4071417,326.09268,-103.33556,6.9080734,JOG
8061609973000,2.514864,-15.2183591695948,12.6608569199756,1.96309846193765,1.2012665,0.66706485,-0.7449502,325.92487,-102.64554,6.32027,JOG
8061615058000,2.519949,-15.4496070519444,14.10284745,0.307063390796296,1.1951579,2.6254988,-1.0906999,325.60867,-101.93705,5.2483373,JOG
8061619971000,2.524862,-15.5323815488889,15.4664506,-1.10010560474074,1.2049317,4.309349,-1.2895365,324.91452,-101.2453,4.213584,JOG
8061625049000,2.52994,-14.8118852763228,15.5640257129877,-1.7194591869054,1.1606439,5.349347,-1.2907583,324.0816,-101.080925,2.777095,JOG
8061629934000,2.534825,-13.8767312672368,15.2639765328701,-2.06451600513095,1.0341948,5.765346,-1.2144,322.9438,-101.09607,1.4410691,JOG
8061635060000,2.539951,-11.4676130869219,14.0691924593301,-2.0248054703748,0.84604836,5.7036486,-1.1319333,321.69824,-101.439026,0.1857063,JOG
8061639913000,2.544804,-9.00759681379585,12.8276023325359,-1.93678224786683,0.6239988,5.177388,-0.9468411,320.471,-101.859535,-0.9283008,JOG
8061645046000,2.549937,-5.8941388221182,11.3760101917301,-1.8328872633899,0.43799037,4.20092,-0.6374379,319.37103,-102.32696,-1.8253832,JOG
8061649932000,2.554823,-2.85953127811586,9.97507096021065,-1.7324942106495,0.26816985,3.1893275,-0.31123585,318.4406,-102.76519,-2.6420202,JOG
8061655047000,2.559938,-0.591580089340101,8.93476904580472,-1.58531463436847,0.03176499,2.2791383,0.00030543262,317.68048,-103.02759,-3.0620258,JOG
8061659933000,2.564824,1.39244593604061,8.02658803889718,-1.43627976829899,-0.22602014,1.5549575,0.19120082,317.16898,-103.22595,-3.4608722,JOG
8061665052000,2.569943,4.42430850521068,9.54171170352918,2.87868480574836,-0.23915374,0.6637051,0.32498032,316.87994,-103.24668,-3.4064124,JOG
8061669923000,2.574814,7.5117185925897,11.5072563473262,7.8677938175286,-0.07269296,-1.3778065,0.5403103,317.13663,-103.22467,-3.395941,JOG
8061675043000,2.579934,8.86615636855233,13.1383716666667,4.31740851865709,-0.43127087,-2.9391782,0.97249746,317.4646,-102.92919,-3.0030415,JOG
8061679977000,2.584868,9.62988177631448,14.5856783333333,-1.62267681018657,-0.5439755,-2.7097983,1.3090842,317.86313,-102.75458,-2.5988698,JOG
8061685057000,2.589948,10.8140988678497,15.3870102159713,-5.7742540747593,0.14110987,-1.8701639,1.7128662,318.21976,-101.749214,-1.4879857,JOG
8061689947000,2.594838,12.0650955574854,15.9660930260525,-9.22223004747971,0.6478226,-1.3652838,1.9483547,318.59546,-100.79996,-0.37001437,JOG
8061695048000,2.599939,13.0892152223518,15.6536957932351,-11.1210562496024,0.8029824,-0.32650748,2.345417,318.7496,-100.83713,0.8889507,JOG
8061699991000,2.604882,13.9374966025872,14.8807051449475,-12.0898045829711,0.92485,0.6621779,2.6010642,318.79587,-101.158844,2.1564243,JOG
8061705039000,2.60993,14.5205683890378,14.5189086359845,-11.3823988019065,0.88056225,1.3866642,2.776077,318.70328,-102.04728,3.6095173,JOG
8061709970000,2.614861,15.0082276907954,14.2891463628239,-10.2007625755139,0.86529064,1.7189748,3.046385,318.50092,-103.10861,5.1370826,JOG
8061715051000,2.619942,15.0586945759494,14.1548425288766,-8.39473396463608,1.0961977,1.6759088,3.4352007,318.25125,-104.47584,6.8087587,JOG
8061720065000,2.624956,14.9637221170886,14.0551213479035,-6.42405415407437,1.5683966,1.3988814,3.8896844,318.03647,-105.995026,8.525183,JOG
8061724995000,2.629886,14.1639394736842,13.6700423414586,-4.61743776840115,2.134974,0.9407325,4.3386703,317.91107,-107.611626,10.368696,JOG
8061730040000,2.634931,13.0967892105263,13.1749231000895,-2.81481906299871,2.6551259,0.32742378,4.6712866,317.96826,-109.40625,12.221428,JOG
8061735035000,2.639926,12.1439118979592,12.7190418843537,-1.79464156870748,3.085175,-0.21288654,4.8582115,318.146,-111.21789,14.108129,JOG
8061740081000,2.644972,11.2196327497782,12.2711950816327,-1.04664218935226,3.3692272,-0.59742624,5.0286427,318.50723,-113.168785,15.994375,JOG
8061745058000,2.649949,10.8385429073726,12.1467428369124,-1.1683941382385,3.4523048,-0.7812967,5.1993794,318.96564,-115.0278,17.790323,JOG
8061750063000,2.654954,10.6725245065809,12.1514858235527,-1.64273277292429,3.3670893,-0.874759,5.3863044,319.54623,-116.93489,19.56743,JOG
8061755044000,2.659935,10.5027537874479,12.7705222834661,-1.48053367810011,3.083037,-1.0662653,5.4415874,320.20587,-118.720955,21.213795,JOG
8061759972000,2.664863,10.3327317138794,13.6609004101251,-1.03310757935154,2.4394903,-1.8353447,5.213735,321.06458,-120.383255,22.726297,JOG
8061764961000,2.669852,10.2155242265939,14.844981664847,-1.29227415505201,1.1823297,-3.1093042,4.7708573,322.14035,-121.84675,24.049711,JOG
8061769986000,2.674877,10.1411755501081,16.2625647527037,-2.12002337433309,-0.54641896,-4.4587054,4.2571197,323.4403,-123.02379,25.161142,JOG
8061774980000,2.679871,9.58664472707659,17.2136546625478,-2.25508212208493,-2.0717494,-6.020077,3.7504072,325.05228,-123.780304,25.8857,JOG
8061779971000,2.684862,8.73821779935275,17.8839581500441,-1.9691481383348,-3.005457,-7.6880445,3.311806,327.02948,-124.22972,26.30863,JOG
8061784988000,2.689879,6.11566108342057,18.3594324810661,-4.31260845336976,-2.3854287,-8.172461,2.8322768,329.004,-124.487564,26.405487,JOG
8061789982000,2.694873,2.22754543232097,18.6895559413287,-8.54460228360656,0.15607607,-6.9849386,2.5827382,330.92667,-124.875336,26.440645,JOG
8061795108000,2.699999,-1.51020308487851,18.9451718290202,-10.7417623940636,1.6313156,-3.215289,2.0027218,331.93552,-124.83446,26.316814,JOG
8061799993000,2.704884,-4.83730163554524,19.1115267307388,-10.8434236156657,4.0311,0.8347474,1.2690725,332.44437,-125.32445,26.251585,JOG
8061804974000,2.709865,-7.00321455288052,19.2414783171046,-7.68886529079821,4.907386,3.4315355,0.72387534,332.53287,-125.726776,25.860252,JOG
8061809981000,2.714872,-7.78773856962816,19.3270625187903,-0.818335008210213,4.511545,4.0604215,0.40225476,331.96588,-126.23346,25.605383,JOG
8061815081000,2.719972,-7.22488292272727,19.393988627668,4.87719418214427,3.6172385,3.1731396,0.37965274,331.32913,-126.65591,25.206184,JOG
8061819999000,2.72489,-5.15849580454545,19.4358752142292,8.91223400560277,2.6801713,1.8570304,0.6649268,330.644,-127.0031,24.853329,JOG
8061824937000,2.729828,-3.01340367384927,19.2693955708634,11.4497368031847,2.043955,0.71593404,0.8848383,329.88086,-126.86771,24.586338,JOG
8061830618000,2.735509,-0.435973455984571,18.7528324836317,12.0093459247354,1.7553213,0.020158553,0.89949906,329.37897,-126.636024,24.227598,JOG
8061834935000,2.739826,1.27374170407466,18.1084022961686,12.0033617822319,1.7531832,-0.3472769,0.86590147,328.84338,-126.24768,24.132069,JOG
8061839949000,2.74484,2.91959042393874,17.0158994509012,11.4074508699892,1.7831156,-0.6270532,0.97524637,328.5133,-125.85455,23.99685,JOG
8061844923000,2.749814,3.73409927583619,15.2357576163254,10.0091869015102,1.6978999,-0.82833326,1.1374311,328.19705,-125.56437,24.08028,JOG
8061849951000,2.754842,3.12288375373853,12.2153714452886,7.18064224664134,1.5393804,-0.8179486,1.255328,327.91925,-125.29437,24.169127,JOG
8061854917000,2.759808,2.53047170260417,9.66988101041667,4.74929818020833,1.4187346,-0.65301496,1.2721269,327.67188,-125.21924,24.452255,JOG
8061859963000,2.764854,1.97280461548713,8.8037697913603,3.70305549523897,1.3652838,-0.57543504,1.2760975,327.4611,-125.15631,24.746965,JOG
8061864934000,2.769825,1.42342627817862,7.95053180683211,2.67236338525429,1.2846496,-0.5705481,1.3542882,327.50153,-125.379166,25.030596,JOG
8061870053000,2.774944,0.857691474581291,7.07189063950163,1.61098480729984,1.1023064,-0.4260785,1.3530666,327.46143,-125.548004,25.318634,JOG
8061874947000,2.779838,-0.0137529466388206,6.19787667970516,0.731882651709091,0.8729264,-0.2434298,1.2928963,327.41275,-125.699875,25.622305,JOG
8061880037000,2.784928,-1.72405300113514,5.20619010378378,0.1474103528,0.56382865,-0.06688975,1.1863003,327.3086,-125.78548,25.927465,JOG
8061890048000,2.794939,-3.43461350969437,3.14857880144053,-0.166860531648822,0.13316862,0.3210097,0.9868528,327.34225,-126.066475,26.295698,JOG
8061894984000,2.799875,-3.82038140136565,2.13786595782073,0.024736862423543,-0.076052725,0.4364632,0.8729264,327.41144,-126.05388,26.25419,JOG
8061900428000,2.805319,-4.26161812492787,1.16012540599538,0.696620169590306,-0.19822577,0.33383787,0.65179324,327.4432,-125.98972,26.16636,JOG
8061904993000,2.809884,-4.6373768083006,0.368587920455324,1.26647993503576,-0.27977628,-0.01985312,0.5674938,327.52454,-125.97324,26.071812,JOG
8061909901000,2.814792,-5.07771893933716,-0.303762391191699,1.91989072113428,-0.29993483,-0.4266894,0.3866777,327.6074,-125.87578,25.871693,JOG
8061914928000,2.819819,-5.52628066954458,-0.937317297233162,2.54054893835201,-0.34330627,-0.77824235,0.23335053,327.77197,-125.72917,25.643093,JOG
8061919901000,2.824792,-5.95429909130566,-1.2114414508149,2.84352832308391,-0.3643811,-1.0922271,0.09101892,328.01828,-125.544846,25.31945,JOG
8061924897000,2.829788,-6.31863813720368,-1.42966304053217,3.09809198919207,-0.3894266,-1.325883,-0.0571159,328.31015,-125.265274,24.920336,JOG
8061929900000,2.834791,-6.30473018447025,-1.31839970911466,3.06564011561684,-0.3943135,-1.4639386,-0.17989981,328.64713,-124.95706,24.45695,JOG
8061934878000,2.839769,-6.26679300254712,-1.19859863143148,3.02007012542028,-0.42577308,-1.5140295,-0.2501493,329.01157,-124.57839,23.912756,JOG
8061939894000,2.844785,-5.93887692144676,-0.968567886653082,2.81451086803872,-0.50701815,-1.5519031,-0.2751948,329.40045,-124.16858,23.324661,JOG
8061944887000,2.849778,-5.59868096265678,-0.752445408415051,2.57144918466363,-0.6582073,-1.6145169,-0.27183503,329.80576,-123.725716,22.705547,JOG
8061949905000,2.854796,-5.15117730568225,-0.633719948012163,2.03261811841505,-0.84940815,-1.6994271,-0.24953845,330.2269,-123.25274,22.069536,JOG
8061955214000,2.860105,-4.67867247805752,-0.506798629414427,1.44732951691843,-1.0433578,-1.772731,-0.21044308,330.6662,-122.78148,21.456816,JOG
8061960059000,2.86495,-4.25864748116926,-0.375540849867044,0.734162219719001,-1.1988231,-1.7837266,-0.1591304,331.11642,-122.281334,20.84388,JOG
8061965621000,2.870512,-3.77870428207493,-0.226965718247839,-0.0726954144707012,-1.2791518,-1.7342464,-0.09285152,331.60147,-121.84555,20.282093,JOG
8061970097000,2.874988,-3.4451664351585,-0.156963954755043,-0.443292997790586,-1.317331,-1.6203201,-0.027794369,332.07788,-121.392914,19.734676,JOG
8061974914000,2.879805,-3.08621830991354,-0.0816291704063401,-0.842124221841499,-1.3182472,-1.45783,0.036957346,332.57352,-121.04785,19.248915,JOG
8061980076000,2.884967,-2.59045880104259,0.0962861428208911,-0.771983690616701,-1.3231341,-1.2654073,0.098043874,333.0366,-120.705154,18.792103,JOG
8061984925000,2.889816,-2.10173463936264,0.283554308200059,-0.602985595736205,-1.3564262,-1.1539245,0.12889257,333.48096,-120.362465,18.349873,JOG
8061990044000,2.894935,-1.40944467051013,0.362480496343141,-0.148411239453573,-1.3930782,-0.9282097,0.16462818,333.86563,-120.10388,18.004814,JOG
8061994934000,2.899825,-0.702601687084448,0.40721739101261,0.357115699273978,-1.4886786,-0.6826419,0.16523905,334.21338,-119.82514,17.670923,JOG
8062000070000,2.904961,0.00767073258495143,0.473505686771845,1.01060877961165,-1.611768,-0.40958515,0.13591751,334.4579,-119.59743,17.469711,JOG
8062004959000,2.90985,0.670589540488471,0.54453270102144,1.68299785443366,-1.7589865,-0.12308934,0.10262536,334.63138,-119.34462,17.296711,JOG
8062010058000,2.914949,1.12120790292741,0.561790410828668,2.35350921278333,-1.9327776,0.1142318,0.054367006,334.68198,-119.25363,17.352371,JOG
8062015915000,2.920806,1.53300090434982,0.556643001670184,3.11017884281912,-2.1019874,0.26206118,-0.021685716,334.67014,-119.12227,17.414389,JOG
8062020096000,2.924987,1.70136891401082,0.51744126785929,3.5455089095009,-2.252871,0.29749137,-0.119729586,334.5344,-118.77262,17.577215,JOG
8062024977000,2.929868,1.82785705971137,0.451854823752255,3.99524467997595,-2.375044,0.21685717,-0.23426682,334.37582,-118.38738,17.720245,JOG
8062029966000,2.934857,1.76382126094915,0.418523457998685,4.23277876036826,-2.44285,0.13103059,-0.34208453,334.12506,-117.87459,17.925255,JOG
8062034993000,2.939884,1.53693259666813,0.413246970258658,4.28554352757562,-2.4914138,0.105374254,-0.43463063,333.86493,-117.340004,18.101429,JOG
8062039954000,2.944845,1.128888183577,0.418585820146202,4.27963700081004,-2.496301,0.18875736,-0.49266282,333.55298,-116.75924,18.303165,JOG
8062044997000,2.949888,0.642256244156871,0.428127626494122,4.25101161165662,-2.5057693,0.3213151,-0.5696318,333.21918,-116.16991,18.475065,JOG
8062050129000,2.95502,-0.0022509792165214,0.669003893987718,3.90787898340927,-2.5525005,0.45265114,-0.6747007,332.85767,-115.55945,18.595943,JOG
8062055092000,2.959983,-0.684878304952456,0.993840355071315,3.45122482939778,-2.6239717,0.59589905,-0.7974846,332.44388,-114.94877,18.701159,JOG
8062060122000,2.965013,-1.23274165869515,1.60231221415116,2.41945395270986,-2.7473664,0.78801614,-0.96577793,331.9855,-114.27045,18.688719,JOG
8062065100000,2.969991,-1.71462248051306,2.32148279537484,1.15999270007535,-2.8951957,1.0283916,-1.2235631,331.45505,-113.553375,18.628565,JOG
8062070053000,2.974944,-2.16435935162085,3.06918398152527,-0.090798014424968,-3.008206,1.1325442,-1.5549575,330.9643,-112.928635,18.416113,JOG
8062074979000,2.97987,-2.28056625921766,4.17082541894768,-1.30864621723135,-3.0967813,1.106277,-1.890628,330.42862,-112.242256,18.142542,JOG
8062080225000,2.985116,-2.38832050439295,5.50319133670931,-2.41500292919209,-3.2268956,1.1016954,-2.2174408,330.01743,-111.254196,17.488068,JOG
8062085634000,2.990525,-2.31416682621455,8.71960510724703,-1.34904448047419,-3.3053918,1.0855075,-2.3762658,329.61874,-110.23591,16.787994,JOG
8062089937000,2.994828,-2.25517564906504,11.2783458087859,-0.501046846006979,-3.2989779,0.9654725,-2.7363708,329.34604,-109.17906,15.850168,JOG
8062095056000,2.999947,-2.2628582513153,13.3497801117537,0.804689420742537,-3.1520646,0.38423425,-3.1300735,329.2119,-108.10845,14.848381,JOG
8062100003000,3.004894,-2.28937486352612,15.1131391847015,2.13936220309702,-2.8365529,-0.6273586,-3.5601227,329.22467,-106.99857,13.725763,JOG
8062104976000,3.009867,-2.09756440024572,16.3335987932966,3.65219542692156,-2.5766296,-1.7510452,-4.054007,329.30957,-105.40464,12.290634,JOG
8062110081000,3.014972,-1.78521692712797,17.2946679799489,5.29562403214075,-2.5344799,-2.983466,-4.548808,329.7175,-103.77491,10.720854,JOG
8062115096000,3.019987,0.877516726823949,17.9374383433783,4.00376884311885,-2.7113254,-4.221384,-4.924185,330.35553,-101.87484,8.998499,JOG
8062120265000,3.025156,4.96510546134021,18.4281449175258,1.01536366835309,-2.9642236,-4.1798453,-5.030475,331.0073,-99.98962,7.2741785,JOG
8062125183000,3.030074,8.21599729395949,18.727109587202,-1.62403009911185,-2.8356364,-3.5665367,-4.050342,331.81778,-98.20189,5.8408227,JOG
8062130106000,3.034997,11.135724115881,18.9383785570891,-4.15924901374897,-2.9071076,-1.8600847,-2.5720482,332.3606,-96.474014,4.610833,JOG
8062135132000,3.040023,13.5731560543514,19.1203391444992,-5.35006353165846,-2.629164,0.43157628,-0.9993755,332.5827,-95.899216,4.3750086,JOG
8062139960000,3.044851,15.1371603606459,19.2468766113848,-4.49466946273673,-2.456289,2.6575692,0.364992,332.36804,-95.59952,4.520733,JOG
8062145127000,3.050018,15.2552880564944,19.3387944784162,-3.14938479102849,-2.5928175,3.3615913,1.1429288,331.90286,-96.415306,5.524874,JOG
8062150126000,3.055017,14.1734318008209,19.3942739645582,-1.51735365752776,-2.8774807,2.6343563,1.0894781,331.2328,-97.316345,6.600526,JOG
8062155329000,3.06022,12.6141356913136,19.4383570811441,-0.788883370805085,-2.9330695,1.4465289,0.48258355,330.44696,-98.415596,7.868167,JOG
8062159932000,3.064823,10.8863435666314,19.4663754056144,-0.924304898580508,-2.497828,0.4868596,-0.44440445,329.8043,-99.3647,8.918326,JOG
8062164924000,3.069815,9.74995672738967,19.487415580942,0.498784339451811,-1.6841555,0.46975538,-1.6716328,329.2553,-99.74863,9.4319515,JOG
8062169911000,3.074802,9.15449876192361,19.50159344528,3.0696519744904,-1.3515394,0.408058,-2.8750372,328.9836,-99.860886,9.632311,JOG
8062174879000,3.07977,8.40402056503785,19.5130971286992,4.51898088781831,-1.5066991,0.21594086,-3.4965928,328.78485,-99.58769,9.414552,JOG
8062179909000,3.0848,7.51362500904532,19.5225696112477,5.06363755658244,-1.5894713,-0.3640757,-3.5259142,328.71008,-99.17097,9.020389,JOG
8062184865000,3.089756,6.03329243601161,19.093010261657,5.05156345541325,-1.6380352,-1.0546589,-3.3099732,328.7397,-98.51595,8.439188,JOG
8062189896000,3.094787,3.95062732739644,18.2348743938363,4.51161331851111,-1.4920384,-1.8521434,-3.057075,328.97766,-97.89954,7.8681617,JOG
8062194903000,3.099794,1.61468984768113,17.1389143318571,3.64260740462779,-1.4471397,-2.6676486,-2.855184,329.44702,-97.25754,7.2552867,JOG
8062199872000,3.104763,-0.947476739948249,15.8270471483877,2.4728195977508,-1.6362026,-3.1936035,-2.7864618,330.06833,-83.301094,6.690405,JOG
8062204861000,3.109752,-3.25270167020649,14.7366657656342,0.987693642389381,-1.8048013,-3.7910297,-2.7565293,330.97955,-83.96388,5.9852552,JOG
8062209900000,3.114791,-5.31206912605703,13.8635703252704,-0.824929343244838,-2.0665572,-4.3536367,-2.6758952,332.03336,-84.51014,5.3358183,JOG
8062214894000,3.119785,-6.74142651734265,13.0035618212557,-2.30135621354076,-2.40742,-4.589431,-2.463314,333.19043,-85.1658,4.4999466,JOG
8062219956000,3.124847,-7.49943319422176,12.1378179936503,-3.43644223493928,-2.7088819,-4.6227226,-2.1365013,334.4462,-85.60731,3.7417305,JOG
8062225487000,3.130378,-8.19661170775789,11.1037890490196,-4.67715951845695,-2.899472,-4.6480737,-1.6765196,335.7315,-86.056404,2.9077466,JOG
8062229907000,3.134798,-7.23129746138107,9.25435488235294,-5.67404977570332,-3.0405817,-4.6514335,-1.0998629,337.00684,-86.18684,2.2167358,JOG
8062234890000,3.139781,-6.03394116961764,7.11676744522313,-6.79958031048129,-3.0192015,-4.6141706,-0.5320636,338.16467,-86.385704,1.6153768,JOG
8062239883000,3.144774,-3.49106045522004,4.32748385322065,-7.94781866283624,-2.8386908,-4.3432517,-0.30024028,339.25552,-86.46799,1.0827928,JOG
8062244865000,3.149756,-0.947304313077158,1.64368894251351,-8.97126241728672,-2.5277603,-3.9358048,-0.31978795,340.3558,-86.41087,0.69582635,JOG
8062249890000,3.154781,1.66218274532667,-0.391907160839873,-9.17727512496178,-2.1019874,-3.5775323,-0.3903429,341.38507,-86.393715,0.3534099,JOG
8062254888000,3.159779,4.1457045833431,-2.28385047552236,-9.32849013229838,-1.6606371,-3.2586606,-0.4361578,342.35886,-86.387276,0.24520966,JOG
8062259868000,3.164759,6.08283404672915,-3.53180876667643,-9.22138901337629,-1.187522,-2.9856038,-0.45478916,343.24237,-86.519135,0.11602279,JOG
8062264920000,3.169811,7.95777901873256,-4.75222300847947,-9.08148770914707,-0.74220127,-2.6612344,-0.45081854,344.00748,-86.75736,0.26693672,JOG
8062269885000,3.174776,9.19909036389,-5.64767268120765,-8.73562618513352,-0.34208453,-2.3139575,-0.44623706,344.69116,-87.12089,0.40800646,JOG
8062274882000,3.179773,10.3791481710107,-6.55804149990052,-8.44731143603263,0.007941248,-2.133447,-0.44104472,345.3045,-87.50557,0.79411846,JOG
8062279894000,3.184785,11.02855668076,-7.54170533555511,-8.61921376193792,0.16829337,-1.6719382,-0.44623706,345.74417,-87.84222,1.1728898,JOG
8062284882000,3.189773,11.6463832306053,-8.51794483835351,-8.86015831680387,0.46273044,-1.0680978,-0.50426924,346.06903,-87.940056,1.7026954,JOG
8062289882000,3.194773,12.0220355308475,-9.47330658169492,-9.69957817152542,0.7648033,-0.3827071,-0.57696223,346.24625,-87.72571,2.2275488,JOG
8062295052000,3.199943,12.4020683084084,-10.4428993799454,-10.5571072054032,1.1603385,0.3032946,-0.61422503,346.2383,-92.864265,2.840407,JOG
8062299888000,3.204779,12.6551213178185,-11.1270801011839,-11.2319158829303,1.6588045,0.93401295,-0.58246,346.05896,-93.69541,3.457941,JOG
8062304951000,3.209842,12.8947174218928,-11.8068704093501,-11.853716940707,2.2033908,1.4514158,-0.52534413,345.71774,-94.81977,4.1363163,JOG
8062309904000,3.214795,12.8271092542759,-12.0367387440137,-11.4525747696693,2.6548204,1.8820758,-0.47036624,345.23303,-96.114586,4.8355956,JOG
8062315267000,3.220158,12.7187866065972,-12.2575129666093,-10.9755182429424,2.9361238,2.2198844,-0.3481932,344.64374,-97.65879,5.6228,JOG
8062319917000,3.224808,11.7274807581706,-11.7303183344126,-9.47053630931903,3.019507,2.4764478,-0.11209377,343.97607,-99.323685,6.4767795,JOG
8062325209000,3.2301,10.5356628157895,-11.1095144874596,-7.75642927873836,2.9819386,2.4804184,0.10048734,343.29803,-101.023575,7.378676,JOG
8062329943000,3.234834,8.24428223684211,-10.1533368859016,-6.19725674064222,2.8979447,2.310598,0.14080444,342.61844,-102.75223,8.314553,JOG
8062334861000,3.239752,5.86384081578947,-9.15999479792894,-4.57748265057952,2.8008173,2.1618521,0.07086037,341.93518,-104.25964,9.182665,JOG
8062339914000,3.244805,3.59505691395603,-7.79047864567791,-3.04247528829205,2.6966646,2.060143,-0.032986723,341.30176,-105.76037,10.067121,JOG
8062344894000,3.249785,1.38430349109719,-6.39096737143141,-1.54808186185218,2.5708263,2.0015,-0.14355333,340.70868,-107.23135,10.943274,JOG
8062349921000,3.254812,-0.820428094401508,-3.47745871121583,3.2152564535721,2.4208589,1.9254472,-0.25137106,340.16257,-108.30251,11.462905,JOG
8062354917000,3.259808,-3.00753242948162,-0.356889069557022,8.43725025459001,2.1810944,1.6624697,-0.34422258,339.68597,-109.32711,11.957018,JOG
8062359972000,3.264863,-4.88791212752585,1.98845592447295,11.5968887483095,1.7583756,1.0714576,-0.49510628,339.3095,-109.9192,12.068884,JOG
8062365104000,3.269995,-6.68649277128083,4.09983324408313,14.0992618489459,1.2000448,0.19394971,-0.7293731,339.0751,-110.40987,12.094865,JOG
8062370050000,3.274941,-8.71313487329769,6.46831446615555,12.9367424609099,0.6969972,-0.7458665,-1.0384709,338.72107,-109.83388,11.787075,JOG
8062374982000,3.279873,-10.8191476310905,8.9269177099768,10.7401994176334,0.31856623,-1.0708468,-1.3542882,338.43457,-109.1169,11.385515,JOG
8062379982000,3.284873,-12.0232394158317,11.3695894328657,7.84510274749499,0.16279559,-0.7761043,-1.4926492,338.175,-107.9126,10.69275,JOG
8062384993000,3.289884,-12.9512901726453,13.8027181406814,4.74358496793587,0.04550946,1.2012665,-1.6594155,337.5394,-106.58967,9.985584,JOG
8062389980000,3.294871,-12.9455987916749,14.9444734015857,4.08403042204163,0.18417588,3.8902953,-1.602605,336.81952,-105.32837,8.850076,JOG
8062394991000,3.299882,-12.6697434899901,15.7197227780971,4.12683563555005,0.50885075,6.0979624,-1.3545936,335.7085,-104.13889,7.8174047,JOG
8062400166000,3.305057,-11.6710900258424,15.371277631647,4.20132535321539,0.8436049,7.2708235,-1.0589349,334.33868,-103.27001,6.621662,JOG
8062405053000,3.309944,-10.5220927428685,14.7107209651128,4.28040630050691,0.9263771,7.4776015,-0.8216137,332.65152,-102.54752,5.594824,JOG
8062410493000,3.315384,-8.456580787301,13.3285737152906,2.87141646247686,0.732122,7.0542717,-0.6224717,330.82593,-101.95528,4.760037,JOG
8062415145000,3.320036,-6.49787409948167,11.9884058863384,1.30032725459089,0.32589662,6.250984,-0.42058071,329.08,-101.42632,4.0205684,JOG
8062420062000,3.324953,-4.13650058879501,10.1768536690807,-0.791270319070609,-0.17348573,5.0842314,-0.16035213,327.52762,-100.91805,3.511794,JOG
8062424983000,3.329874,-1.58625138881513,8.11010870665862,-3.16139022926976,-0.5500842,3.8209622,0.052534413,326.25012,-100.37847,3.011478,JOG
8062429954000,3.334845,0.612198313398038,6.31899732792489,-4.1520574433168,-0.7672467,2.946814,0.13225232,325.2216,-100.04947,2.7897935,JOG
8062434997000,3.339888,2.57888186044941,4.70896645591307,-4.1775329726026,-0.86406887,2.2336287,0.14782938,324.521,-99.66926,2.5549622,JOG
8062439980000,3.344871,4.13480387254327,4.07925920662951,-3.25638707967146,-1.0064005,1.3054191,0.13927728,324.11636,-99.61359,2.5817797,JOG
8062445122000,3.350013,5.56970101974186,3.85294966553241,-1.88890086365503,-1.1065824,-0.024740042,0.105374254,324.02988,-99.5429,2.5548575,JOG
8062449982000,3.354873,6.56617871571072,5.21615945885287,-2.58936798379052,-0.9098838,-1.9285016,0.10415252,324.25113,-99.58604,2.7473054,JOG
8062455064000,3.359955,7.42475860681629,7.44576968373511,-4.337993780798,-0.19181168,-4.2907176,0.11942416,324.97958,-99.75316,2.8536682,JOG
8062460064000,3.364955,8.8343626969697,9.97912932323232,-7.07445516666667,1.073901,-5.522833,0.18295415,325.8025,-99.98272,3.2337224,JOG
8062465138000,3.370029,10.8280658509841,12.8887209156514,-10.8645152113402,2.132836,-5.2473326,0.6270532,326.8851,-100.40693,3.6873288,JOG
8062470133000,3.375024,12.00508686882,14.6151401476271,-13.2822570666799,2.9431489,-3.9596286,1.4404203,328.08142,-101.3738,4.3115177,JOG
8062475054000,3.379945,12.6447837143565,15.5630126069553,-14.7951171761617,3.443142,-3.1337388,1.8512272,329.3353,-102.53634,4.9141073,JOG
8062480662000,3.385553,13.08738715366,16.1985934692478,-14.7986886583989,3.520111,-0.5030475,2.7656925,329.82773,-104.335785,6.1843557,JOG
8062485059000,3.38995,13.2911826506352,16.4745661778584,-13.9410497740472,2.9578094,0.22418754,3.0100386,330.6377,-106.025314,7.2608476,JOG
8062490053000,3.394944,13.2152335450223,16.5292299891035,-12.1386438913323,2.6254988,1.2754866,3.451694,330.7341,-108.0313,8.816176,JOG
8062495062000,3.399953,12.9158650407132,16.3961776513125,-9.72944092263497,2.0549507,1.8973475,3.880827,330.81067,-109.829544,10.392421,JOG
8062499991000,3.404882,12.1754576939502,16.0682609066825,-7.61047144543298,1.8478674,2.025629,4.279111,330.77505,-111.57639,12.110691,JOG
8062505049000,3.40994,11.0501831939502,15.5702674066825,-5.64243769543298,1.9617938,1.7794504,4.595539,330.73755,-113.30722,13.877645,JOG
8062509997000,3.414888,10.1367722085131,15.0653734366418,-4.02166721802668,2.2727242,1.2925909,4.7751336,330.7286,-114.8783,15.670361,JOG
8062515123000,3.420014,9.36160447194978,14.526126883876,-2.62058858783837,2.6853635,0.7293731,4.870734,330.8519,-116.538994,17.437649,JOG
8062520103000,3.424994,8.96116209430959,14.2863823135694,-1.49872263774373,3.0137036,0.2012801,4.9791627,331.079,-118.088684,19.088158,JOG
8062525058000,3.429949,8.89979245742141,14.319427313072,-0.61121978617688,3.2204816,-0.2947425,5.1147747,331.48035,-119.71083,20.673021,JOG
8062529963000,3.434854,8.99505125747673,14.9421728516538,0.58161887184591,3.252552,-0.9049969,5.1358495,332.00372,-121.20652,22.096132,JOG
8062534997000,3.439888,9.26717938700733,16.2407494339473,2.15709746375916,3.0100386,-2.0949624,4.7644434,332.8065,-122.61215,23.29125,JOG
8062539974000,3.444865,9.6243909444499,17.2303921083521,2.59058777599372,2.1337523,-4.107458,4.0179663,333.897,-123.707825,24.179989,JOG
8062544962000,3.449853,10.0885329360094,17.8680003792325,1.67168053771715,0.5571091,-6.27267,3.1994066,335.3051,-124.50428,24.754234,JOG
8062549965000,3.454856,10.1862744937073,18.36458866379,-0.418665932425387,-1.0616838,-7.997753,2.658791,336.84418,-124.729965,24.921234,JOG
8062555054000,3.459945,9.75253651672061,18.6625101790723,-4.23906465026969,-2.2110267,-8.77905,2.5014932,338.6515,-124.65329,24.823063,JOG
8062559954000,3.464845,8.77453613879004,18.9286440854093,-7.83270336298932,-2.4541512,-8.5408125,2.5399778,340.6744,-124.47751,24.581589,JOG
8062565128000,3.470019,5.20924390613879,19.1160013460854,-11.243701127113,-1.2235631,-7.502647,2.5298984,342.6361,-124.33443,24.298082,JOG
8062569912000,3.474803,1.98077445482998,19.2504387726043,-12.5094127476816,1.2986995,-6.4348545,2.4642303,344.85376,-124.683205,23.943306,JOG
8062575061000,3.479952,-1.38220367351236,19.3314166459621,-10.7707627702859,2.695443,-2.864958,1.9617938,345.98352,-124.9589,23.90938,JOG
8062579932000,3.484823,-3.63241573907784,19.3953233986118,-7.39288820331185,5.160895,1.1859949,1.3478742,346.83966,-125.914246,23.639645,JOG
8062585080000,3.489971,-3.92573091294001,19.4344323743183,0.0573184787307883,5.945246,3.8573086,0.9578367,347.03284,-126.758316,23.59637,JOG
8062589908000,3.494799,-3.60340501955718,19.4343408194647,5.97358425086131,5.342322,4.3753223,0.77763146,346.36276,-127.32505,23.320126,JOG
8062595044000,3.499935,-1.78434311263747,19.3433873829684,9.62128226849635,4.252538,3.3044755,0.6200282,345.3799,-127.88074,23.12521,JOG
8062599999000,3.50489,0.184250876290388,19.0669600445031,12.114443454176,3.1627548,1.8237382,0.4908302,344.37317,-128.11603,23.241331,JOG
8062605059000,3.50995,2.8282552931772,18.2250145009145,11.6171537285105,2.375655,0.9801333,0.4578435,343.47418,-128.16168,23.279177,JOG
8062609997000,3.514888,5.02875022369737,17.2830786183505,10.9790320766573,2.235767,0.47952923,0.6762278,342.6933,-128.04433,23.481987,JOG
8062615054000,3.519945,6.32350271228517,16.0147497250159,9.93970706238065,2.3005185,0.043982297,1.0412198,342.1459,-127.83058,23.594688,JOG
8062620174000,3.525065,7.36035997251518,14.6842261394482,8.77043684563759,2.154827,-0.03390302,1.3503176,341.63293,-127.76515,23.996418,JOG
8062625047000,3.529938,6.40085396931927,13.0883640626398,6.8265677114094,1.9391917,0.204029,1.4950926,341.18237,-127.74396,24.422367,JOG
8062629991000,3.534882,5.24554687758776,11.5663261188119,4.99463686228623,1.7296649,0.47250426,1.5741998,340.81293,-127.94742,25.057821,JOG
8062635058000,3.539949,3.35770936525653,10.382181039604,3.66004713591359,1.4724907,0.6563747,1.5641204,340.3994,-128.11076,25.718477,JOG
8062640057000,3.544948,1.61356980932527,9.34181037743338,2.4900078958042,1.2687671,0.6411031,1.4358387,340.1152,-128.36668,26.275131,JOG
8062645000000,3.549891,0.302845934275184,8.76026049508599,1.84582956818182,1.1771374,0.66859204,1.312444,339.75372,-128.58798,26.855732,JOG
8062650061000,3.554952,-1.0558083238859,8.13934744865647,1.19388219673419,0.9984592,0.84391034,1.1230757,339.4918,-128.73546,27.198584,JOG
8062655047000,3.559938,-2.53627412719719,7.31028648873501,0.616500511078958,0.7122689,1.0830641,0.8200866,339.1585,-128.78609,27.489328,JOG
8062660069000,3.56496,-3.88989473395682,6.52051512127152,0.201771345885982,0.4343252,1.3304645,0.51893,338.85153,-128.74315,27.590504,JOG
8062665055000,3.569946,-4.56925432356979,5.95517390732265,0.596084996338673,0.10873401,1.3713925,0.2996294,338.49667,-128.58154,27.634007,JOG
8062670140000,3.575031,-5.24269675655282,5.3421656285147,1.17716373238681,-0.21013765,1.2864822,0.13072516,338.16864,-128.28954,27.45935,JOG
8062675041000,3.579932,-5.80190173242653,4.58257904398332,2.56585582962172,-0.3436117,0.9462303,0.062308256,337.88464,-127.94115,27.219742,JOG
8062679971000,3.584862,-6.38697338603696,3.83276105160254,3.87785000871351,-0.49877146,0.39003745,-0.064751714,337.664,-127.455444,26.8395,JOG
8062684991000,3.589882,-7.13808702053388,3.16748892411392,4.62896382248014,-0.6102544,-0.18570304,-0.16401732,337.54428,-126.942566,26.397614,JOG
8062689918000,3.594809,-7.87528560164271,2.51454155914651,5.36616257953754,-0.6374379,-0.5757405,-0.27763826,337.44702,-126.3439,25.904533,JOG
8062694960000,3.599851,-8.56443708794326,1.9775980724924,5.75490110475177,-0.623388,-0.78801614,-0.38423425,337.45877,-125.715836,25.335264,JOG
8062699932000,3.604823,-9.23501531205674,1.4662218275076,6.08777791524823,-0.58276546,-0.8921687,-0.48441613,337.54495,-125.0693,24.70139,JOG
8062704983000,3.609874,-9.24106445336049,1.26563651995927,5.51711833120163,-0.5549711,-0.9324858,-0.5534439,337.6622,-124.35721,23.995754,JOG
8062710629000,3.61552,-9.11739122836495,1.08054989432099,4.75058647416441,-0.59559363,-0.99112886,-0.62949663,337.80972,-123.62077,23.24492,JOG
8062714990000,3.619881,-8.49698179030412,0.958983160823045,3.92477117847034,-0.68477994,-1.1426234,-0.6936375,338.00082,-122.81152,22.403234,JOG
8062720425000,3.625316,-7.72185215735493,0.793636073235011,2.8695737599865,-0.81153446,-1.3655893,-0.7806858,338.26764,-122.01828,21.502136,JOG
8062724981000,3.629872,-7.03629159271255,0.398282159612493,1.50265859955466,-0.95081174,-1.5552629,-0.86345804,338.56628,-121.19208,20.56577,JOG
8062729986000,3.634877,-6.28316810148448,-0.0360344202120686,0.00103208990553311,-1.061073,-1.740966,-0.9636399,338.9544,-120.45414,19.637604,JOG
8062735687000,3.640578,-4.86014906103604,-0.196691223194103,-0.508905110389025,-1.1221595,-1.8759671,-1.056186,339.37628,-119.68489,18.667028,JOG
8062739946000,3.644837,-3.74942967882883,-0.288555237100737,-0.788672768493038,-1.1612549,-1.9740111,-1.1276573,339.83453,-118.885544,17.652292,JOG
8062744961000,3.649852,-3.20599097297676,-0.321709380716886,-0.636091977742929,-1.1872166,-2.0137172,-1.183246,340.35995,-118.257484,16.670593,JOG
8062749942000,3.654833,-2.72954909373658,-0.348425748124708,-0.44462468108653,-1.1945469,-2.072971,-1.2159272,340.91098,-117.62596,15.655282,JOG
8062754980000,3.659871,-2.40039679297406,-0.386806924554418,-0.0415028517813726,-1.2009611,-2.140472,-1.2266175,341.4388,-117.11723,14.813984,JOG
8062759977000,3.664868,-2.11638901909639,-0.428033843888198,0.416574142375802,-1.2082914,-2.2305744,-1.2241739,341.9856,-116.61275,13.95365,JOG
8062764993000,3.669884,-1.88412909487286,-0.485771216087182,0.976517217602491,-1.2379184,-2.25562,-1.1957687,342.507,-116.126854,13.185959,JOG
8062769939000,3.67483,-1.67765174132849,-0.549680876803321,1.57136860790867,-1.3255776,-2.2660046,-1.1667526,343.04916,-115.63321,12.407636,JOG
8062774975000,3.679866,-1.33731509151515,-0.634413206526806,2.07767588904429,-1.3878858,-2.1401663,-1.104139,343.5412,-115.125595,11.723954,JOG
8062779939000,3.68483,-0.962251856037296,-0.723916921391429,2.54650490557647,-1.5506815,-1.7589865,-0.99296147,343.97778,-114.5859,11.085843,JOG
8062784989000,3.68988,-0.46541004425714,-0.717152642318035,3.087585194955,-1.8255708,-1.1930199,-0.84299403,344.3197,-113.97602,10.563812,JOG
8062789981000,3.694872,0.124280326388488,-0.626839734803867,3.67727569318813,-2.1966715,-0.6261369,-0.679893,344.5752,-113.31667,10.114141,JOG
8062794960000,3.699851,0.417440587710605,-0.383290581209118,4.06823514251734,-2.5735753,-0.18417588,-0.56779927,344.694,-112.569374,9.832175,JOG
8062799962000,3.704853,0.607344219484638,-0.0841923772765114,4.39107121242815,-2.924212,0.09101892,-0.54336464,344.7153,-111.74457,9.610933,JOG
8062805681000,3.710572,0.559043500054981,0.481385042212532,4.28626046867002,-3.1810808,0.2312125,-0.591623,344.62817,-110.84733,9.549733,JOG
8062809988000,3.714879,0.457381715512371,0.96232342699782,4.09075700545075,-3.3677,0.19058995,-0.6930266,344.51483,-109.88625,9.489682,JOG
8062815001000,3.719892,0.281750844795573,1.48946682148786,3.29538109865765,-3.4852917,0.032070424,-0.8127562,344.38977,-108.91137,9.47066,JOG
8062819999000,3.72489,0.0708491341039041,1.99465000396557,2.14768348058203,-3.6092973,-0.15790866,-0.94989544,344.27777,-107.895454,9.413637,JOG
8062824977000,3.729868,-0.0790607318604427,2.5566212481232,1.02625942860443,-3.6984837,-0.24220806,-1.1307116,344.25507,-107.23869,9.36752,JOG
8062829987000,3.734878,-0.199125680820982,3.15232808931665,-0.0912681817901828,-3.719253,-0.13469578,-1.3579534,344.21793,-106.560425,9.268703,JOG
8062834958000,3.739849,-0.232245045496822,4.46351356513669,-0.49123908746091,-3.6230419,0.13500121,-1.6151277,344.11624,-105.49206,8.912389,JOG
8062839984000,3.744875,-0.203111767796832,6.31347662810451,-0.379561519564209,-3.4003813,0.41355577,-1.8955148,343.97546,-104.42171,8.493024,JOG
8062844948000,3.749839,-0.162452829610124,8.772376311901,0.198886927672839,-3.1019738,0.36010507,-2.2482896,343.89423,-103.49049,7.928565,JOG
8062849945000,3.754836,-0.113470944861822,11.6756665105425,1.09837247295803,-2.7140744,-0.10293079,-2.6548204,343.84192,-102.59024,7.2699027,JOG
8062854941000,3.759832,-0.0233625405007941,14.0241135684489,2.24107722934886,-2.4126122,-0.7644979,-3.1007519,343.84225,-101.57594,6.4512897,JOG
8062859940000,3.764831,0.118562795593436,15.6765294458444,3.69074324661726,-2.3445008,-1.4862351,-3.5347717,343.98392,-100.56503,5.5101733,JOG
8062864944000,3.769835,1.1051345382467,16.8445820322036,4.40423461410397,-2.484389,-1.8729129,-3.7113118,344.1925,-99.32117,4.474874,JOG
8062869942000,3.774833,2.77024810404135,17.6200494767916,4.52317116715038,-2.6187794,-2.617252,-3.879605,344.70892,-98.104,3.303972,JOG
8062875453000,3.780344,4.77229359358015,18.1623445452934,2.89305460433241,-2.9846876,-2.7947085,-3.0885346,345.19806,-96.70868,2.4119492,JOG
8062880066000,3.784957,6.54706185899961,18.4298649334384,0.478847867546278,-3.6129625,-2.4010057,-2.5525005,345.74615,-95.23849,1.4279621,JOG
8062884991000,3.789882,8.44186647794407,18.7154790482473,-2.09864360842852,-3.6939023,-1.1450669,-1.5228871,346.0844,-94.04743,1.1282545,JOG
8062890059000,3.79495,10.3916877589208,19.0093861211107,-4.75097392319811,-3.6948185,0.3820962,-0.79137594,346.25177,-92.774376,0.908089,JOG
8062894959000,3.79985,11.7328017961684,19.1985596742196,-6.3222160503744,-3.6990945,2.096184,-0.29565877,345.9231,-92.30995,1.3740109,JOG
8062900079000,3.80497,12.548194782651,19.2939272050958,-6.89442188291355,-3.7733147,3.6725218,0.11453723,345.2137,-92.255295,1.9843131,JOG
8062904937000,3.809828,12.9781461189414,19.3651598071167,-6.44538770595698,-3.7720928,5.084842,0.31795537,344.02298,-92.970474,2.8504426,JOG
8062910087000,3.814978,12.9585920451977,19.4140452467043,-4.59751666026365,-3.2097914,4.9473977,0.45265114,342.85126,-93.80936,3.7468843,JOG
8062914941000,3.819832,12.5978162660677,19.4504815632343,-3.29864412854181,-2.7699685,3.8337903,0.2733622,341.5465,-94.67584,4.6481276,JOG
8062919997000,3.824888,11.7230089666305,19.4743833801955,-2.59114984732945,-1.9465221,2.7782152,-0.25289822,340.29715,-95.45838,5.4307976,JOG
8062924912000,3.829803,10.621179738647,19.4938086763222,-1.11627879786956,-1.1472049,1.8090774,-1.1615603,339.37473,-96.00657,5.988688,JOG
8062929974000,3.834865,9.06293257673332,19.5073978428331,1.7284284117735,-0.75869465,1.1615603,-2.5265386,338.66693,-96.24615,6.226634,JOG
8062934916000,3.839807,7.62071453896521,19.5185291031222,4.22773138690455,-1.1337659,0.52381694,-3.59708,338.25464,-96.15754,6.144769,JOG
8062939982000,3.844873,6.40456605978591,19.5228575730598,5.86801704556646,-1.7440202,-0.6261369,-4.020715,338.17383,-95.86178,5.850048,JOG
8062945363000,3.850254,5.0238315412197,19.527523190644,7.42122120025633,-2.2898283,-2.0289888,-4.083023,338.41714,-84.84926,5.1482267,JOG
8062949995000,3.854886,2.89183362767916,19.5322605645626,6.75319508042294,-2.7217102,-3.073263,-3.9602394,338.8992,-85.53131,4.395969,JOG
8062954954000,3.859845,0.596848766150218,19.4613746590738,5.96395693464452,-3.0347786,-4.083023,-3.778507,339.8418,-86.06463,3.5252025,JOG
8062960096000,3.864987,-1.87140149425418,18.8486358694496,4.61988479214791,-3.2705724,-4.766276,-3.5332446,341.00336,-86.099846,2.7443159,JOG
8062965196000,3.870087,-4.31949101740906,18.2409019474186,3.2867910685515,-3.3169982,-5.159368,-3.2910366,342.38885,-85.81782,1.8415436,JOG
8062970041000,3.874932,-6.6451760644062,17.6635547214891,2.02035203113492,-3.3509014,-5.269018,-3.164282,343.89227,-85.10141,1.0211024,JOG
8062974964000,3.879855,-8.79245523147781,16.9377251137084,0.783811739951466,-3.4061847,-5.415931,-2.8393016,345.51093,-84.15376,0.3734479,JOG
8062979972000,3.884863,-9.67604133448891,15.3605721818542,-0.171030797211767,-3.5460727,-5.6908207,-2.4049764,347.18402,-83.09051,-0.16445069,JOG
8062984979000,3.88987,-10.3121353046683,13.7098146666667,-1.18290424217854,-3.7168095,-5.9825087,-1.8527542,348.8259,-82.22917,-0.9954767,JOG
8062989977000,3.894868,-9.23191918837019,11.5493828888889,-2.58979794346164,-3.833485,-6.1312547,-1.1682798,350.47342,-81.313965,-1.628178,JOG
8062994938000,3.899829,-8.15969987005187,9.4049447037037,-3.98627646528347,-3.7904189,-6.031378,-0.573297,352.04422,-80.54365,-2.197497,JOG
8063000076000,3.904967,-5.46957305252034,5.83239942635528,-6.21345997410969,-3.5799758,-5.5677314,-0.32284227,353.52924,-79.80721,-2.6643784,JOG
8063005189000,3.91008,-2.68838152136752,2.2970420965812,-8.40278841880342,-3.2085698,-5.0194798,-0.31398472,354.93726,-79.16065,-3.0295386,JOG
8063010100000,3.914991,-0.351093865274473,0.461193806916909,-9.42224390783329,-2.7580566,-4.6224174,-0.344528,356.24564,-78.68468,-3.253447,JOG
8063015094000,3.919985,2.02569590351573,-1.40568185151996,-10.4589290457309,-2.3060162,-4.3346996,-0.2733622,357.49203,-78.35356,-3.2206173,JOG
8063019990000,3.924881,4.49028160444852,-3.06253144042651,-10.6134892868608,-1.8716911,-3.9840631,-0.16126843,358.60538,-78.154366,-3.2093356,JOG
8063024949000,3.92984,7.02402661316212,-4.69240460208668,-10.5299989518459,-1.4107933,-3.4532213,-0.0421497,359.58115,-78.10451,-3.205069,JOG
8063030087000,3.934978,9.29768906854838,-6.2166345780914,-10.4319615282258,-0.9056077,-2.8298333,0.053450707,0.42005798,-78.3456,-2.9173946,JOG
8063035076000,3.939967,9.79309015869816,-6.89551759073541,-10.2805887733295,-0.41996986,-2.275473,0.13805555,1.1294781,-78.727135,-2.6248791,JOG
8063040087000,3.944978,10.2526945239794,-7.60912637963397,-10.2016771037072,-0.050701816,-1.749518,0.17165314,1.6514862,-79.24567,-1.9732938,JOG
8063044977000,3.949868,10.314227291694,-8.6288072618489,-10.8697438094791,0.22968534,-1.0137309,0.21013765,1.9654777,-79.86268,-1.331027,JOG
8063050511000,3.955402,10.3694269788389,-9.78443119560499,-11.6211770048833,0.48075095,-0.1328632,0.21655174,2.0921936,-80.52591,-0.6528992,JOG
8063054953000,3.959844,10.1155243798155,-10.7461820404232,-12.1289813995298,0.8020661,0.75136423,0.22357668,2.018713,-81.253494,0.010528311,JOG
8063059989000,3.96488,9.82766902441671,-11.8365416204558,-12.7046911994936,1.1994339,1.1572843,0.22327125,1.8376303,-82.09919,0.67239267,JOG
8063065082000,3.969973,9.79289719343625,-12.6073181611287,-13.1748924190778,1.6679676,1.8374827,0.22632557,1.3382094,-82.98913,1.3016654,JOG
8063069947000,3.974838,9.85005858081996,-13.2265648664758,-13.5845481996728,1.9098701,2.483778,0.2910773,0.74054426,-83.82182,1.9518623,JOG
8063074979000,3.97987,9.86054564945652,-13.6390643777174,-13.3643817798913,2.3677137,3.1447344,0.37720928,359.96863,-84.752556,2.5726292,JOG
8063079982000,3.984873,9.85589563674301,-13.9785085082492,-12.9458888898486,2.7650816,3.6975672,0.44135013,359.05237,-85.43129,3.2154431,JOG
8063084990000,3.989881,9.02043396498289,-13.469048377243,-11.5809927588424,3.068987,3.9635992,0.5183192,358.04404,-85.6999,3.9167395,JOG
8063089974000,3.994865,7.84709087310445,-12.6125577219168,-9.83335556270096,3.292869,3.8792996,0.59131753,356.99167,-85.333595,4.6609774,JOG
8063095001000,3.999892,6.03247689831743,-11.1379376076946,-8.40291279504083,3.3985488,3.7143662,0.54153204,355.88818,-95.5927,5.436643,JOG
8063100000000,4.004891,4.04928825673522,-9.49862664931615,-7.07450589353537,3.421151,3.5735617,0.39614612,354.8178,-96.872116,6.238437,JOG
8063104984000,4.009875,2.48415325789673,-7.81256503388383,-5.74448614012908,3.4122932,3.4306192,0.24953845,353.80038,-98.13772,6.924995,JOG
8063110103000,4.014994,1.01846831237661,-6.06304912642369,-4.37651345952923,3.343571,3.2565227,0.13591751,352.8425,-99.48553,7.609424,JOG
8063115000000,4.019891,-0.0335784267029403,-4.3413115005755,-2.91873755241708,3.2513304,3.0130928,0.044898596,351.99048,-100.571014,7.990686,JOG
8063120107000,4.024998,-0.939390830553521,-2.51945163858952,-1.31693368207597,3.1441233,2.6978865,-0.0076358155,351.214,-101.69726,8.367202,JOG
8063124974000,4.029865,-1.44276008556907,-1.03380137193683,0.175363866037394,3.0256155,2.310598,-0.055283304,350.53717,-102.56501,8.501449,JOG
8063130847000,4.035738,-1.90219126180795,0.655884394899256,1.96204067140588,2.9074132,1.8484782,-0.12034045,349.97275,-103.444885,8.610871,JOG
8063134988000,4.039879,-2.31442166705597,2.09205107514323,4.01065819605553,2.7797422,1.2605205,-0.21655174,349.5211,-104.07411,8.559751,JOG
8063139984000,4.044875,-2.87321925784487,3.99512578779198,7.03132825542089,2.552806,0.50426924,-0.34269542,349.2444,-104.664024,8.449102,JOG
8063144964000,4.049855,-4.05647850255673,5.94440300336934,9.94166495094639,2.1536055,-0.441961,-0.5109888,349.10074,-104.83548,8.216551,JOG
8063150088000,4.054979,-5.53966404773561,7.97223400089188,12.8934472399564,1.5647314,-1.3567317,-0.79534656,349.14996,-104.871994,7.86827,JOG
8063154984000,4.059875,-7.32551138505695,10.0318430309795,12.5899841665148,0.8552113,-1.2791518,-1.1139128,349.0812,-104.40353,7.4432898,JOG
8063159993000,4.064884,-9.3098837623508,12.1910497268337,10.9465394817312,0.30665436,-0.67103547,-1.357648,349.11716,-103.79952,6.9310417,JOG
8063165245000,4.070136,-10.8219562087551,14.1978311269653,8.3446027294314,0.16218472,1.4321736,-1.4294246,348.66357,-102.64207,6.2620964,JOG
8063170096000,4.074987,-11.7374894716778,15.8337846446263,5.19776775349989,0.18112154,3.8093557,-1.3408492,347.98303,-101.408775,5.603036,JOG
8063174978000,4.079869,-12.0542494679196,16.5673271552807,3.97791789570007,0.26053402,5.5121427,-1.069625,347.09747,-100.22348,4.545656,JOG
8063179964000,4.084855,-12.0496356473572,16.8210957174606,3.78874532667891,0.30787608,6.447072,-0.8426886,345.78638,-99.12723,3.594593,JOG
8063184990000,4.089881,-11.2373673527919,16.1401963702655,3.34107622436548,0.19303341,6.8074822,-0.6737844,344.36728,-98.38258,2.5402596,JOG
8063189984000,4.094875,-9.8180700177665,14.7535798999414,2.70145890050761,-0.024740042,6.663318,-0.4382958,342.86267,-97.78349,1.6405847,JOG
8063195002000,4.099893,-7.76371705483871,12.8112457641129,1.27207696820276,-0.15577064,5.9018745,-0.039095376,341.46036,-97.349686,0.8690468,JOG
8063200749000,4.10564,-4.75185030537634,10.0107380712366,-1.19025652104455,-0.112704635,4.672203,0.36896262,340.2604,-97.01184,0.18914448,JOG
8063204955000,4.109846,-2.656188419706,7.97201230671434,-2.63666574874851,0.01985312,3.5414913,0.65484756,339.21957,-96.806335,-0.21718349,JOG
8063210001000,4.114892,-0.265879074175606,5.53850463031387,-3.96621547926102,0.08246681,2.795014,0.6658431,338.43735,-96.628075,-0.6006895,JOG
8063214968000,4.119859,2.56044628055965,4.85826796631075,-2.13032225432621,-0.14202617,2.0964894,0.45631635,337.88116,-96.65278,-0.6546785,JOG
8063219990000,4.124881,6.07104246759941,6.53609394385125,4.06302457612297,-0.54611355,0.9963212,0.2321288,337.65775,-96.64021,-0.7464319,JOG
8063224908000,4.129799,8.93416681169301,8.50084402510071,6.96152543169094,-0.57787853,-1.7687603,0.18325958,337.92914,-96.83715,-0.61723894,JOG
8063229976000,4.134867,10.0020327842165,11.5791051357298,-0.423293623695899,0.6270532,-4.7815475,0.38973203,338.5857,-97.28064,-0.5301497,JOG
8063234919000,4.13981,11.0843099071172,14.0843302090806,-6.43270513538796,2.298686,-4.583322,0.7993172,338.79068,-96.811516,0.5057479,JOG
8063239984000,4.144875,12.2885024217482,15.4899843656787,-9.8026130980555,3.504534,-3.1499267,1.4584408,339.5003,-96.753174,1.5823982,JOG
8063244924000,4.149815,13.1638825410658,16.7292815793103,-12.4859287278997,4.186565,-1.4920384,2.3167064,340.20938,-98.04939,2.7706451,JOG
8063250115000,4.155006,12.7067496289446,17.4253708126437,-12.5274862900209,4.257731,0.065973446,2.8747318,340.5821,-99.59362,4.057293,JOG
8063254936000,4.159827,12.3539186271186,17.8284431355932,-12.0916114915254,3.5995235,0.75136423,3.009733,340.8024,-101.54766,5.5275574,JOG
8063259979000,4.16487,12.1757584370887,17.6021315972084,-10.3726066457627,3.1187725,1.8139644,3.0127873,340.5556,-103.59241,7.133087,JOG
8063265100000,4.169991,11.7147253538874,17.2557918242053,-8.41430984509766,2.1835377,2.5289822,3.0515773,340.28357,-105.31483,8.663788,JOG
8063270259000,4.17515,10.5651812064343,16.6218868617388,-5.92126572452126,1.5528195,2.741258,3.235448,339.90573,-106.9908,10.213037,JOG
8063274954000,4.179845,9.56338064131193,15.960156616788,-3.74924759511315,1.2345587,2.5170703,3.424205,339.4491,-108.38702,11.754688,JOG
8063279973000,4.184864,8.69128298394975,14.872430590968,-1.86130019486193,1.221425,1.9242256,3.5952475,339.06934,-109.73871,13.281701,JOG
