timestamp,rel_time,acc_x,acc_y,acc_z,gyro_x,gyro_y,gyro_z,azimuth,pitch,roll,label
58106033000,0,-0.44623046468879,9.79040655467676,0.9288283943174,-0.01282817,-0.01863139,-0.002443461,237.94022,-81.50108,-5.7284184,STD
58111108000,0.005075,-0.45010993,9.78230093971598,0.928135137411825,-0.02321288,-0.028099801,-0.0033597588,237.86578,-81.630714,-5.5971804,STD
58116738000,0.010705,-0.45010993,9.77479418595693,0.913121930362447,-0.015882496,-0.03359759,-0.009468411,237.79993,-81.75555,-5.4734955,STD
58121199000,0.015166,-0.45010993,9.76884611694821,0.901226030425097,-0.017104227,-0.029626964,-0.006414085,237.72675,-81.85244,-5.365123,STD
58125900000,0.019867,-0.45010993,9.76257804422684,0.888690135871079,-0.011911872,-0.024740042,-0.010079277,237.65974,-81.94429,-5.2658978,STD
58130968000,0.024935,-0.450635184523786,9.76349327974476,0.878439927381071,-0.016493361,-0.024740042,0.0027488936,237.59653,-82.03229,-5.1662955,STD
58136001000,0.029968,-0.451831927854802,9.77426394473135,0.872456210725991,-0.024129177,-0.021380283,-0.005192355,237.53552,-82.11147,-5.078684,STD
58140925000,0.034892,-0.453002753239646,9.78480134874367,0.866602083801768,-0.0125227375,-0.018325957,0.0021380284,237.49112,-82.20117,-4.982759,STD
58145938000,0.039905,-0.454194740984209,9.79552921355149,0.860642145078955,-0.018020526,-0.010079277,-0.00061086525,237.44736,-82.27777,-4.8968563,STD
58150988000,0.044955,-0.45539552656371,9.80633625869004,0.854638217181448,-0.015882496,-0.019242255,0.0012217305,237.40228,-82.35677,-4.813915,STD
58155913000,0.04988,-0.456566589727878,9.81687580271129,0.848782901360612,-0.020158553,-0.014660766,0.00061086525,237.35378,-82.42845,-4.7369156,STD
58160913000,0.05488,-0.457755486341245,9.82757584740292,0.842838418293773,-0.008246681,-0.005192355,-0.0018325958,237.3089,-82.500755,-4.663356,STD
58166004000,0.059971,-0.458966020872976,9.83847063290794,0.836785745635118,-0.01863139,-0.010995574,0.00061086525,237.26926,-82.56464,-4.59161,STD
58171067000,0.065034,-0.457771555501427,9.84208428274776,0.83222461025096,-0.025961773,-0.0143553335,-0.002443461,237.22867,-82.62738,-4.5255656,STD
58175996000,0.069963,-0.453125937832398,9.83511596417675,0.82990179535282,-0.022907447,-0.008552114,0.002443461,237.18881,-82.68914,-4.4596086,STD
58181115000,0.075082,-0.448301243807696,9.82787903523275,0.827489442043106,-0.017715093,-0.007941248,0.0015271631,237.1572,-82.75188,-4.396747,STD
58185974000,0.079941,-0.443721601638126,9.82100967837811,0.825199614980809,-0.01160644,-0.008552114,-0.004886922,237.12595,-82.81268,-4.3370275,STD
58191092000,0.085059,-0.43097832164079,9.80985718545141,0.822012898048687,-0.0143553335,-0.0070249503,0.00061086525,237.09512,-82.87195,-4.276889,STD
58196062000,0.090029,-0.403608149626222,9.79161051207591,0.817451205888442,-0.01282817,-0.002443461,0.00030543262,237.06543,-82.92905,-4.222727,STD
58200986000,0.094953,-0.385849190398913,9.77903073643599,0.811807019856353,-0.019547688,-0.013133603,-0.013744468,237.03963,-82.98211,-4.173599,STD
58205959000,0.099926,-0.397405403682423,9.78365307308551,0.802562066605843,-0.008857546,-0.013439035,-0.0067195175,237.01042,-83.04084,-4.1210513,STD
58210923000,0.10489,-0.408940702845773,9.78826704435601,0.793333844620014,-0.0106901415,-0.013744468,-0.0036651916,236.98897,-83.09504,-4.070327,STD
58215969000,0.109936,-0.420666552881685,9.79295723352422,0.783953182222654,-0.011301007,-0.022602014,-0.008246681,236.97116,-83.14975,-4.0214033,STD
58221093000,0.11506,-0.429683598433338,9.79834572748102,0.777948626578834,-0.012217305,-0.027794369,-0.0061086523,236.94626,-83.2042,-3.9763346,STD
58225923000,0.11989,-0.420851488423314,9.8071780173278,0.793404811026779,-0.014049901,-0.030543262,-0.007330383,236.92462,-83.255104,-3.9347348,STD
58231083000,0.12505,-0.411415942325648,9.81661375554919,0.809917008076758,-0.0125227375,-0.018020526,-0.005192355,236.9013,-83.306435,-3.8957322,STD
58236038000,0.130005,-0.402355258040002,9.82567462432574,0.825773197298201,-0.015882496,-0.018325957,0.00030543262,236.88339,-83.354866,-3.8570168,STD
58241042000,0.135009,-0.393204972638312,9.83482509604277,0.841786188390854,-0.019547688,-0.025045475,0.0030543262,236.86484,-83.40182,-3.8199246,STD
58245892000,0.139859,-0.394911049803086,9.8421668149322,0.835973081143035,-0.018325957,-0.01282817,0.0030543262,236.851963769543,-83.4233833564949,-3.80314763464582,STD
58251404000,0.145371,-0.397653675749987,9.85039457821998,0.827745191847041,-0.019242255,0.0030543262,0.0036651916,236.83733,-83.44789,-3.7840807,STD
58256497000,0.150464,-0.400187818338442,9.85799690014028,0.820142753497168,-0.018020526,0.008857546,0.002443461,236.819,-83.49197,-3.7484481,STD
58260962000,0.154929,-0.403740470643751,9.86441392413852,0.815846068139894,-0.020463986,0.020158553,0.007330383,236.79044,-83.53171,-3.707618,STD
58265939000,0.159906,-0.424168973716784,9.86849970581176,0.840360263295046,-0.021991149,0.028405234,0.0106901415,236.7622,-83.570076,-3.6689298,STD
58271012000,0.164979,-0.444991516632093,9.87266429701697,0.865347306096348,-0.02321288,0.03726278,0.009468411,236.733,-83.60919,-3.6314461,STD
58275900000,0.169867,-0.460337487608526,9.89073391748142,0.960128242100117,-0.035430185,0.052839845,0.01985312,236.7002,-83.646355,-3.5914125,STD
58280891000,0.174858,-0.474357190993352,9.91410007352366,1.08163235111459,-0.046120327,0.070554934,0.020158553,236.66563,-83.68037,-3.5561492,STD
58285947000,0.179914,-0.468065663982224,9.91798036548884,1.21745854415782,-0.07238753,0.06719518,0.022602014,236.62881,-83.69974,-3.5237827,STD
58290897000,0.184864,-0.452651012020377,9.91284204443963,1.35619036889226,-0.089186326,0.06291912,0.026572637,236.58844,-83.71806,-3.492488,STD
58295928000,0.189895,-0.470113022916254,9.92999772869177,1.34705517472745,-0.11026118,0.07666359,0.040011674,236.51826,-83.7075,-3.4813104,STD
58300983000,0.19495,-0.49410249733895,9.95158818979187,1.30867204370664,-0.12980886,0.096516706,0.0421497,236.44962,-83.6921,-3.4726355,STD
58306494000,0.200461,-0.520256007436571,9.97512627705649,1.26682645813677,-0.12614368,0.14813483,0.052534413,236.35623,-83.65791,-3.469236,STD
58310901000,0.204868,-0.541170273268583,9.99394905887017,1.23336365726462,-0.13500121,0.19333886,0.056505036,236.26144,-83.61605,-3.467667,STD
58316321000,0.210288,-0.516632408031527,9.93969495566503,1.2070305573202,-0.12980886,0.23884831,0.06627888,236.15399,-83.581436,-3.4631925,STD
58321116000,0.215083,-0.484962892790148,9.87635607635468,1.18667157783744,-0.12095132,0.26450464,0.051618114,236.04266,-83.54284,-3.465596,STD
58325930000,0.219897,-0.453167888333005,9.81276621921182,1.16623192669458,-0.106901415,0.26206118,0.031154128,235.93286,-83.51732,-3.4736512,STD
58330942000,0.224909,-0.420065154153695,9.74656090886699,1.14495159193596,-0.07971791,0.22632557,0.022296581,235.8284,-83.49668,-3.4824457,STD
58336329000,0.230296,-0.388185330848382,9.64231439931857,1.00805759897785,-0.0729984,0.13775012,-0.027488936,235.73627,-83.467514,-3.5116382,STD
58341196000,0.235163,-0.360393832221465,9.53908881166951,0.853219217504259,-0.046731193,0.029932396,-0.042760566,235.66202,-83.45347,-3.5315533,STD
58346202000,0.240169,-0.377213684857143,9.45291695301145,0.612554265897461,0.0033597588,-0.03023783,-0.070249505,235.60953,-83.45005,-3.5569088,STD
58350970000,0.244937,-0.445400171714286,9.39382223285217,0.289804933063216,0.021991149,-0.043676864,-0.08979719,235.57582,-83.44414,-3.5817153,STD
58356392000,0.250359,-0.545813895649827,9.37400940651986,-0.00364712324913644,0.040927973,-0.017715093,-0.09590584,235.56403,-83.48292,-3.5985534,STD
58361220000,0.255187,-0.660607386949482,9.40894621955959,-0.183323889747409,0.07513642,0.057421334,-0.106595986,235.54291,-83.524704,-3.622327,STD
58366675000,0.260642,-0.702442189909825,9.47663096611296,-0.152468026776459,0.08093964,0.12644911,-0.10629055,235.54828,-83.610794,-3.6426144,STD
58371108000,0.265075,-0.69438258774561,9.54513775282392,-0.0154546974114855,0.083383106,0.15699236,-0.10170906,235.54381,-83.69979,-3.664365,STD
58376036000,0.270003,-0.64971046417725,9.6182397252899,0.244235015378244,0.08552113,0.14660765,-0.09896017,235.53946,-83.80385,-3.6877587,STD
58381044000,0.275011,-0.561433909861034,9.68886100561384,0.63706565097552,0.09315695,0.106901415,-0.09896017,235.53584,-83.90574,-3.7093234,STD
58386000000,0.279967,-0.487912449889843,9.7510386508585,0.929454954320956,0.08674286,0.061086524,-0.10354166,235.52649,-83.975494,-3.7348611,STD
58390903000,0.28487,-0.451486808740174,9.79232086615639,0.965880610684733,0.071776666,0.022907447,-0.09987647,235.5269,-84.043495,-3.75615,STD
58395879000,0.289846,-0.414518831917667,9.83421772589988,1.00284860294787,0.073303826,-0.008857546,-0.10415252,235.50945,-84.05126,-3.787002,STD
58400963000,0.29493,-0.37674849546959,9.87702392263136,1.0406189551717,0.065973446,-0.021380283,-0.12186762,235.49814,-84.05149,-3.81916,STD
58405885000,0.299852,-0.324618898181992,9.9303925664751,1.05603194925287,0.040011674,-0.009468411,-0.11026118,235.48862,-84.05229,-3.8429577,STD
58410946000,0.304913,-0.24569554573659,10.0046734064176,1.03746171502874,0.046120327,0.010995574,-0.10170906,235.4808,-84.054535,-3.8714054,STD
58415931000,0.309898,-0.160679362633391,10.0603941669535,1.01997110826162,0.051923547,0.026267206,-0.099265605,235.47015,-84.05106,-3.8921487,STD
58421098000,0.315065,-0.0552316662158839,10.0766167937054,1.00374839681174,0.047036625,0.05009095,-0.08399397,235.45105,-84.050606,-3.9065182,STD
58425997000,0.319964,0.0447467090017212,10.0919979913941,0.98836711881813,0.051923547,0.043676864,-0.07147124,235.44351,-84.06873,-3.906106,STD
58430939000,0.324906,0.16237010951302,10.1254266859148,0.989908073216097,0.046120327,0.061391957,-0.06627888,235.42258,-84.08444,-3.9043977,STD
58436676000,0.330643,0.301722848386879,10.1672323814677,0.994553161278323,0.04795292,0.05131268,-0.037873644,235.4111,-84.109024,-3.8917236,STD
58441021000,0.334988,0.39515587986594,10.1409522057487,0.998787389479664,0.044898596,0.049785517,-0.028405234,235.40448,-84.148705,-3.8510048,STD
58445959000,0.339926,0.491863989954556,10.0657349426267,1.00416005914565,0.03634648,0.040011674,-0.016493361,235.40277,-84.19204,-3.802459,STD
58450950000,0.344917,0.503268123333333,9.9697334057971,0.981275696376812,0.016798794,0.03176499,-0.005497787,235.40903,-84.25075,-3.7319784,STD
58456373000,0.35034,0.482925399932432,9.85784871650999,0.945675894579906,0.019547688,0.030543262,-0.008552114,235.41621,-84.31006,-3.6642694,STD
58460976000,0.354943,0.431745124156337,9.75801012455018,0.884703950807677,0.01160644,0.02565634,-0.01038471,235.43024,-84.37163,-3.5838068,STD
58465953000,0.35992,0.365042523409636,9.64842707187125,0.808472429840064,0.00061086525,0.048258353,-0.021991149,235.43701,-84.428635,-3.509903,STD
58471019000,0.364986,0.275578917244384,9.54592785660341,0.791887316521108,-0.015577064,0.05955936,-0.03726278,235.4502,-84.48069,-3.4379706,STD
58475955000,0.369922,0.179462198437258,9.44981110912084,0.801041278589272,-0.01038471,0.083383106,-0.04642576,235.45349,-84.53236,-3.3694932,STD
58480989000,0.374956,0.0921790017383178,9.4254395478972,0.808741187841121,-0.014660766,0.09101892,-0.052534413,235.45935,-84.57677,-3.3130462,STD
58486114000,0.380081,0.00961260781308412,9.44378776635514,0.815621725457944,-0.018936822,0.11728613,-0.05375614,235.4534,-84.62021,-3.2602556,STD
58491045000,0.385012,-0.0698283460299065,9.46144143761682,0.822241809553271,-0.024129177,0.13530666,-0.06505715,235.44559,-84.641655,-3.2300832,STD
58495981000,0.389948,-0.149349852452336,9.47911300957944,0.828868606368224,-0.026572637,0.15760323,-0.07238753,235.42932,-84.66245,-3.2008035,STD
58501024000,0.394991,-0.233532359760609,9.52494233949946,0.856066489390642,-0.024740042,0.18173242,-0.07696902,235.41351,-84.67888,-3.1747572,STD
58505995000,0.399962,-0.32159625901197,9.61818618302503,0.918229223030468,-0.009773844,0.19486602,-0.09010262,235.39523,-84.69442,-3.1543245,STD
58510956000,0.404923,-0.386805116576074,9.6725340161053,0.974804724967093,-0.0070249503,0.17195857,-0.08399397,235.37076,-84.68807,-3.1535773,STD
58516032000,0.409999,-0.431972944562137,9.69135392969415,1.02750054197058,0.0012217305,0.16737708,-0.083383106,235.33835,-84.6831,-3.158829,STD
58521706000,0.415673,-0.485564898756016,9.71937615245619,1.08996552058476,0.016798794,0.16462818,-0.089491755,235.30545,-84.663086,-3.1766438,STD
58525943000,0.41991,-0.555569599196404,9.80780299264506,1.1710236049033,0.024740042,0.16646078,-0.09315695,235.27304,-84.64393,-3.1932888,STD
58531233000,0.4252,-0.642972210791791,9.91820610442205,1.27222664149641,0.028710667,0.16035213,-0.09590584,235.23521,-84.61033,-3.2257595,STD
58535944000,0.429911,-0.671684194079885,9.93061800753258,1.28742674768323,0.039095376,0.1459968,-0.094989546,235.19989,-84.58045,-3.2572565,STD
58540927000,0.434894,-0.686617408286953,9.91675150327455,1.27996013334004,0.055283304,0.13316862,-0.09590584,235.16655,-84.55244,-3.2891092,STD
58545924000,0.439891,-0.701592578143007,9.90284604034511,1.27247254115202,0.06383542,0.116675265,-0.10170906,235.11996,-84.50242,-3.3453772,STD
58550966000,0.444933,-0.716702605442232,9.88881535311473,1.26491752017703,0.08399397,0.10934488,-0.093462385,235.07495,-84.46169,-3.3962815,STD
58555943000,0.44991,-0.731617838656877,9.87496554543016,1.25745989633876,0.09712757,0.10048734,-0.09468412,235.03612,-84.41932,-3.4495873,STD
58560939000,0.454906,-0.74659001168086,9.86106286526297,1.24997380256823,0.106595986,0.0571159,-0.10415252,235.00993,-84.38118,-3.5004973,STD
58565948000,0.459915,-0.76160114352176,9.84712400918662,1.24246822937035,0.11178834,0.06658431,-0.10293079,234.97159,-84.3472,-3.5481973,STD
58570971000,0.464938,-0.776654231011645,9.83314619443886,1.23494167832763,0.12034045,0.032986723,-0.106595986,234.95862,-84.31406,-3.5964987,STD
58575903000,0.46987,-0.79143460678312,9.81942161105523,1.22755148327634,0.13591751,0.052839845,-0.112704635,234.92809,-84.283875,-3.6450233,STD
58580916000,0.474883,-0.781464575246592,9.79778768905394,1.24762318906752,0.12583824,0.021380283,-0.11484267,234.92203,-84.25053,-3.6900363,STD
58585961000,0.479928,-0.763959933194602,9.77371878252796,1.27606822926045,0.11759156,0.027183503,-0.12064589,234.90016,-84.21965,-3.7375505,STD
58590912000,0.484879,-0.746781443046058,9.7500983353109,1.30398327266881,0.1151481,0.023823744,-0.12064589,234.88837,-84.184906,-3.790428,STD
58595914000,0.489881,-0.729425998141388,9.72623457506453,1.33218586752412,0.10140363,0.025045475,-0.124005646,234.8739,-84.14483,-3.8443599,STD
58600923000,0.49489,-0.703386383344468,9.71198380870403,1.33490478877148,0.09468412,0.021991149,-0.12370021,234.8616,-84.1071,-3.8953454,STD
58605958000,0.499925,-0.661571097269311,9.71508129995182,1.291540784564,0.09987647,-0.017104227,-0.12644911,234.85945,-84.0685,-3.9457142,STD
58610911000,0.504878,-0.620436814860125,9.7181283454633,1.24888300644291,0.09010262,-0.004886922,-0.12675454,234.82413,-84.02453,-4.0073366,STD
58615971000,0.509938,-0.578413905716075,9.72124121650875,1.20530368940421,0.07238753,-0.005192355,-0.1301143,234.80396,-83.97956,-4.0671206,STD
58620981000,0.514948,-0.536806242709812,9.72432332795889,1.16215499802794,0.064751714,-0.012217305,-0.13561209,234.78261,-83.93488,-4.125615,STD
58626274000,0.520241,-0.492848286563674,9.72757953871848,1.11656896540228,0.065973446,-0.003970624,-0.124005646,234.75694,-83.89186,-4.1784678,STD
58630936000,0.524903,-0.455643574645421,9.73306837429991,1.0786414370198,0.05467244,-0.0021380284,-0.12522738,234.73257,-83.84077,-4.246789,STD
58636205000,0.530172,-0.423799948990297,9.75695115484736,1.05077824846573,0.05222898,0.0036651916,-0.12370021,234.70474,-83.79536,-4.308759,STD
58640933000,0.5349,-0.395225900385738,9.77838174631222,1.02577594148458,0.03726278,0.01038471,-0.116675265,234.67737,-83.784676,-4.351582,STD
58646031000,0.539998,-0.35724970554209,9.80040820307894,0.982863306927612,0.03756821,0.048258353,-0.1142318,234.64012,-83.775795,-4.394373,STD
58650968000,0.544935,-0.315952021266514,9.82105692662955,0.931241201583142,0.023823744,0.07086037,-0.110872045,234.60582,-83.762505,-4.4331675,STD
58655971000,0.549938,-0.24897320146079,9.83346837037037,0.911708843531968,0.025961773,0.093767814,-0.09743301,234.55934,-83.76621,-4.463489,STD
58660940000,0.554907,-0.175125975627974,9.84331435185185,0.901862558749224,0.03604105,0.1160644,-0.090713486,234.50778,-83.76765,-4.4937625,STD
58665940000,0.559907,-0.104543085409763,9.8061152722676,0.892451490118631,0.03145956,0.12217305,-0.0852157,234.45526,-83.78097,-4.5160956,STD
58671002000,0.564969,-0.0338345128142746,9.75897625865422,0.883023657862699,0.032986723,0.121256754,-0.09132435,234.4,-83.79563,-4.538545,STD
58675917000,0.569884,0.00638201929495268,9.74554135962145,0.895657999487382,0.051923547,0.12950343,-0.08735373,234.35126,-83.822174,-4.5518136,STD
58680931000,0.574898,0.0395175434514984,9.74080811198738,0.914592596441246,0.05589417,0.13805555,-0.081855945,234.30414,-83.844376,-4.56474,STD
58685999000,0.579966,0.0369879666694264,9.74324490553616,0.883053228438903,0.06627888,0.12461651,-0.089186326,234.26056,-83.87755,-4.576957,STD
58691278000,0.585245,0.0218590006304738,9.74828773281796,0.832623336376559,0.07269296,0.13194689,-0.08857546,234.20984,-83.9123,-4.5850034,STD
58695914000,0.589881,0.0085727936676808,9.75271632673317,0.788335975209476,0.08277224,0.1386664,-0.08674286,234.16174,-83.94974,-4.5900545,STD
58700969000,0.594936,-0.00591421586573566,9.7575451753616,0.740045938389027,0.07971791,0.13775012,-0.07819075,234.11505,-83.98628,-4.5921993,STD
58705922000,0.599889,-0.0179841368588218,9.78062514791458,0.714385581496345,0.08307768,0.15241088,-0.07696902,234.06355,-84.023415,-4.595552,STD
58710907000,0.604874,-0.029388365252353,9.81027626420142,0.696138828641728,0.09101892,0.16432275,-0.07941248,234.01447,-84.06077,-4.5963626,STD
58715935000,0.609902,-0.0408909651245043,9.84018314738904,0.677734681529788,0.08246681,0.19364429,-0.073303826,233.95233,-84.10729,-4.597565,STD
58720975000,0.614942,-0.0524210175023171,9.87016140738617,0.659286610439062,0.07666359,0.19730948,-0.0711658,233.89615,-84.15266,-4.5992627,STD
58725921000,0.619888,-0.0645344906651109,9.89741209451575,0.660654427654609,0.07513642,0.21685717,-0.07391469,233.81944,-84.19866,-4.6007156,STD
58730954000,0.624921,-0.0775135952212548,9.92336992415403,0.67795988834934,0.07727446,0.2406809,-0.0720821,233.74258,-84.244026,-4.5996757,STD
58735985000,0.629952,-0.0913990589032749,9.95982028560548,0.708625362041127,0.07788532,0.25320363,-0.07360926,233.66014,-84.288574,-4.606113,STD
58740958000,0.634925,-0.106944307370254,10.0168195985203,0.765624604616473,0.06872234,0.2733622,-0.070554934,233.57117,-84.33148,-4.609812,STD
58745912000,0.639879,-0.117160463223358,10.0595027320681,0.812785224098297,0.061391957,0.28680122,-0.06963864,233.48187,-84.3685,-4.615576,STD
58750941000,0.644908,-0.121847740837956,10.0876264662774,0.850283420543066,0.06536258,0.2996294,-0.06963864,233.38959,-84.404564,-4.620412,STD
58755921000,0.649888,-0.118373920146108,10.1219046502994,0.895987678562874,0.0711658,0.31245756,-0.07086037,233.29333,-84.430695,-4.628104,STD
58761200000,0.655167,-0.103237401298403,10.1673140603792,0.956533751846307,0.065973446,0.33567044,-0.061086524,233.1929,-84.456894,-4.632555,STD
58765914000,0.659881,-0.087971312850029,10.2053154111175,1.03708999143023,0.053450707,0.36560285,-0.061086524,233.07883,-84.474594,-4.646351,STD
58770946000,0.664913,-0.0693685381764138,10.2425207429068,1.15800804817603,0.04337143,0.39645153,-0.044593163,232.96045,-84.49677,-4.6526194,STD
58775900000,0.669867,-0.0494870695388681,10.2743099314884,1.23221859401364,0.04886922,0.410196,-0.03573562,232.83977,-84.51233,-4.660389,STD
58781027000,0.674994,-0.0258970400211396,10.2979004373979,1.22278258870952,0.036651913,0.44593164,-0.02076942,232.7068,-84.52787,-4.6625476,STD
58785964000,0.679931,-0.00260875766373535,10.3058593176298,1.23855225659548,0.025350908,0.47219884,-0.011301007,232.57455,-84.5332,-4.6629434,STD
58790916000,0.684883,0.0222155447198492,10.2760700722362,1.3179900196608,0.0036651916,0.47983465,0.002443461,232.44017,-84.53882,-4.6586094,STD
58795915000,0.689882,0.0551653478892059,10.2483309459805,1.36105434598052,-0.02443461,0.47952923,0.016493361,232.30487,-84.5507,-4.64207,STD
58800991000,0.694958,0.102997556739742,10.2244148597855,1.3371382597855,-0.04642576,0.46395215,0.028405234,232.17477,-84.561615,-4.6232696,STD
58805897000,0.699864,0.1386721672,10.18129472,1.295550472,-0.07086037,0.45112398,0.036651913,232.04486,-84.562996,-4.602251,STD
58810951000,0.704918,0.153120280899502,10.0946057964179,1.2136777841194,-0.092240654,0.42943826,0.053145275,231.92441,-84.56485,-4.5765357,STD
58815992000,0.709959,0.161260228744508,10.0256746693352,1.12942928066973,-0.12339478,0.40530908,0.063224554,231.81784,-84.567986,-4.544135,STD
58820988000,0.714955,0.156589161404862,9.99297752474861,1.04067904511374,-0.1423316,0.40103304,0.07238753,231.71375,-84.571625,-4.508954,STD
58827077000,0.721044,0.13171041804665,9.96515221487752,0.948860258438401,-0.14905111,0.36193767,0.08277224,231.62267,-84.58702,-4.465044,STD
58830994000,0.724961,0.0979276793768011,9.95839553097983,0.904942694992795,-0.1740966,0.34513888,0.08979719,231.52847,-84.595856,-4.421472,STD
58836053000,0.73002,0.052096542004477,9.95244772517298,0.847686741239316,-0.19242255,0.31490102,0.10781772,231.44667,-84.619736,-4.371247,STD
58840923000,0.73489,-0.0190863769006919,9.98092097201872,0.785994871581197,-0.21655174,0.2947425,0.12156218,231.36876,-84.637215,-4.321861,STD
58845921000,0.739888,-0.0968660217149873,10.0125482191897,0.728205394966475,-0.23762658,0.27030787,0.15302174,231.29562,-84.66349,-4.2629175,STD
58850981000,0.744948,-0.229579275468883,10.0720401334404,0.732781710765889,-0.24953845,0.25167647,0.17959438,231.22827,-84.68714,-4.2031136,STD
58856454000,0.750421,-0.375195385746423,10.1405527386285,0.736750763680316,-0.27672195,0.24281894,0.19914207,231.15733,-84.70895,-4.148606,STD
58860951000,0.754918,-0.519672410480513,10.2467862104588,0.728252121430686,-0.27672195,0.258396,0.22174409,231.08597,-84.7381,-4.0877132,STD
58866416000,0.760383,-0.692434400161406,10.3836049035151,0.726361970803443,-0.28802297,0.30268374,0.23732115,231.00117,-84.74552,-4.0419726,STD
58870904000,0.764871,-0.765661923332138,10.6842228303443,0.930628268364419,-0.28619036,0.36896262,0.25442538,230.90697,-84.75878,-3.9920778,STD
58876038000,0.770005,-0.849429771807747,11.0281115193687,1.16429653299857,-0.3210097,0.42271876,0.28527406,230.79988,-84.74986,-3.957545,STD
58880907000,0.774874,-0.853672200605163,11.2576463368599,1.42894731505501,-0.32345316,0.473726,0.3295618,230.67645,-84.75224,-3.9171898,STD
58886094000,0.780061,-0.827394744460432,11.4626107625899,1.7285102294964,-0.3313944,0.5143485,0.3717115,230.54271,-84.75112,-3.8715765,STD
58891110000,0.785077,-0.831660117662824,11.5928522605183,1.86433880378362,-0.3491095,0.5299256,0.41386122,230.39148,-84.715904,-3.833157,STD
58895959000,0.789926,-0.840811364126515,11.7072426024239,1.96957801389299,-0.36102137,0.54275376,0.45234573,230.23186,-84.68581,-3.787069,STD
58900959000,0.794926,-0.827542464132408,11.7493407218366,2.00719232792312,-0.38148534,0.5665775,0.4868596,230.06073,-84.623474,-3.7372787,STD
58905938000,0.799905,-0.808448932861052,11.7716166296049,2.02628584922584,-0.40042216,0.59620446,0.52320606,229.88663,-84.563675,-3.6797402,STD
58910942000,0.804909,-0.78925953127803,11.7940043866791,2.04547524079018,-0.4382958,0.6218608,0.54825157,229.70537,-84.48243,-3.6231637,STD
58915947000,0.809914,-0.816193537345907,11.7265367629275,2.02540687820594,-0.47403142,0.63163465,0.55863625,229.5231,-84.39801,-3.56455,STD
58920977000,0.814944,-0.855318335369551,11.6352455085281,1.99497649033481,-0.5342017,0.64721173,0.56230146,229.33488,-84.29956,-3.505437,STD
58925928000,0.819895,-0.895945180833827,11.4833860416914,1.89272785089903,-0.56779927,0.6533204,0.5708536,229.13689,-84.20425,-3.4427497,STD
58930948000,0.824915,-0.938691705828888,11.2839022914444,1.73599067524205,-0.6252206,0.66645396,0.56291234,228.9364,-84.08436,-3.3885005,STD
58936052000,0.830019,-0.948260128031945,11.0351374896748,1.48423352775813,-0.68875057,0.6921103,0.5564982,228.73306,-83.95186,-3.3392274,STD
58940945000,0.834912,-0.93222155508842,10.7624821124929,1.17415476718768,-0.7449502,0.72326446,0.5345071,228.52841,-83.801765,-3.301264,STD
58947245000,0.841212,-0.828987668121309,10.4783839707509,0.758660506211681,-0.81581056,0.77518797,0.50640726,228.3047,-83.64905,-3.2684195,STD
58950963000,0.84493,-0.758889426056998,10.3181593278335,0.511647656210743,-0.91721416,0.795652,0.49327368,228.08488,-83.47287,-3.2416494,STD
58955937000,0.849904,-0.626254645760686,10.1614725588323,0.253026350536615,-0.94806284,0.8381071,0.47616947,227.84425,-83.334404,-3.2151256,STD
58960913000,0.85488,-0.474323390126532,10.0332804472452,0.0298773097762279,-1.0024298,0.88056225,0.4615087,227.6019,-83.16284,-3.196457,STD
58965944000,0.859911,-0.356258650112496,9.96788892978345,-0.0745243817324459,-1.0613784,0.904386,0.45875978,227.36479,-83.04278,-3.1592429,STD
58970968000,0.864935,-0.257026878855348,9.93631548945345,-0.115119200372363,-1.0910053,0.91446525,0.4541783,227.12433,-82.9136,-3.1315012,STD
58976180000,0.870147,-0.184950023923101,9.8901122969678,-0.0368363338251537,-1.1184943,0.87964594,0.45112398,226.90245,-82.81558,-3.0750902,STD
58981038000,0.875005,-0.141320020684589,9.83678667333542,0.127988124541002,-1.1142182,0.852157,0.44776422,226.68027,-82.71664,-3.024728,STD
58986004000,0.879971,-0.0927533904805144,9.7844818631138,0.347375708527864,-1.0891727,0.8197812,0.44440445,226.466,-82.63266,-2.951236,STD
58990920000,0.884887,-0.0422978750463757,9.73402628828917,0.595066419178683,-1.0784826,0.79504114,0.43554693,226.26202,-82.54397,-2.883993,STD
58995930000,0.889897,0.0854068958009058,9.68100774495188,0.833160516569164,-1.0512991,0.7706065,0.42760566,226.05956,-82.44406,-2.8158967,STD
59000922000,0.894889,0.27486826238026,9.62687624542366,1.05870979726363,-1.0183123,0.75502944,0.41783184,225.86584,-82.347,-2.754454,STD
59005964000,0.899931,0.532208254060569,9.55705585444994,1.31288475592295,-0.98563105,0.77579886,0.408058,225.66391,-82.219376,-2.7018712,STD
59010893000,0.90486,0.867713190037083,9.46953259456119,1.59490331961269,-0.9737192,0.8045095,0.40775254,225.46758,-82.09553,-2.653112,STD
59016296000,0.910263,1.20418901345101,9.39813086766094,1.86003571504625,-0.9602802,0.8164214,0.41447207,225.26451,-81.94885,-2.5670152,STD
59020936000,0.914903,1.46844156848216,9.35618603851237,2.0529821043232,-0.95630956,0.8564331,0.43401974,225.04822,-81.80392,-2.4843388,STD
59025891000,0.919858,1.73890570845653,9.30983041724387,2.21947082758193,-0.9593639,0.91751957,0.4334089,224.82082,-81.62314,-2.3450706,STD
59030893000,0.92486,1.99147092448051,9.26030735945415,2.31851601236431,-0.9456194,0.999681,0.44043383,224.5777,-81.447975,-2.205823,STD
59036425000,0.930392,2.21455497490527,9.15109027818125,2.36897689586359,-0.93492925,1.0946705,0.45020768,224.3078,-81.24977,-2.021409,STD
59041690000,0.935657,2.36978490500474,8.99188013609094,2.35703613520682,-0.9068295,1.1936307,0.4859433,224.01442,-81.05798,-1.8364122,STD
59046802000,0.940769,2.49842239166122,8.82929312849006,2.33561688084788,-0.8335256,1.3093897,0.50854534,223.69006,-80.87307,-1.618888,STD
59051422000,0.945389,2.37034416232141,8.59379435549538,2.20753852208423,-0.7837401,1.4278975,0.5222898,223.33806,-80.684845,-1.4037153,STD
59056204000,0.950171,2.23777487818657,8.35003783331777,2.0749691039873,-0.7492262,1.5806139,0.5488624,222.94467,-80.51283,-1.1552323,STD
59061481000,0.955448,1.94497322382241,8.02076457596102,2.015557438549,-0.700357,1.7232509,0.5635232,222.52318,-80.35152,-0.9167956,STD
59066381000,0.960348,1.64432607890273,7.70317975553149,1.97744727070926,-0.63041294,1.8597792,0.56077427,222.06299,-80.19955,-0.68845356,STD
59071079000,0.965046,1.32415742565267,7.39230913787363,1.99446511577753,-0.5714644,1.9520199,0.55863625,221.5775,-80.06469,-0.48952392,STD
59075910000,0.969877,0.974058666713961,7.06846786011162,2.0469798953462,-0.5323691,2.0030272,0.53878313,221.07079,-79.93942,-0.30630812,STD
59080889000,0.974856,0.615359962598297,6.81622005011958,2.11876285095188,-0.48655418,2.0109684,0.52381694,220.54198,-79.81379,-0.18617928,STD
59086450000,0.980417,0.217960525398833,6.65827908491342,2.22575504391084,-0.43096542,1.9847012,0.51343226,220.01556,-79.70072,-0.0761088,STD
59090904000,0.984871,-0.0593306283984479,6.58580636613908,2.33487301827836,-0.39064834,1.9370537,0.50823987,219.4837,-79.561485,-0.041387536,STD
59096301000,0.990268,-0.312667623747983,6.60691782310834,2.51432009940774,-0.364992,1.8716911,0.5119051,218.97153,-79.43436,-0.009482009,STD
59100875000,0.994842,-0.458208418791946,6.66899242751678,2.67880643288591,-0.35277468,1.7779233,0.49327368,218.47453,-79.28449,-0.057877325,STD
59105989000,0.999956,-0.50706873246871,6.81113157244694,2.88313127979322,-0.35094208,1.6609426,0.48441613,218.00937,-79.13985,-0.10223603,STD
59110884000,1.004851,-0.529737422901366,6.96115462547294,3.07931971241275,-0.36682457,1.5943583,0.4633413,217.5514,-78.95098,-0.19745433,STD
59116533000,1.0105,-0.420279895854325,7.21290692510875,3.30918052264036,-0.37110063,1.4718798,0.4269948,217.1497,-78.76735,-0.29391629,STD
59120963000,1.01493,-0.336803039085595,7.42400150102041,3.47395863188033,-0.39492437,1.3326025,0.4184427,216.7607,-78.529686,-0.39134553,STD
59126522000,1.020489,-0.241867980212007,7.74572578979592,3.61636122294432,-0.39736784,1.1533136,0.38087448,216.42607,-78.29937,-0.5010879,STD
59130911000,1.024878,-0.176227002556537,7.99215146947491,3.69967297352227,-0.39767328,1.0937542,0.36957347,216.08221,-78.0354,-0.57971025,STD
59135949000,1.029916,-0.143446678311172,8.24034570581384,3.66220977375522,-0.39400807,1.0036516,0.34269542,215.80415,-77.77588,-0.66365296,STD
59140963000,1.03493,-0.121238702730604,8.48474758150979,3.60750021021882,-0.38912117,0.95081174,0.33383787,215.52556,-77.50859,-0.7219939,STD
59145944000,1.039911,-0.171183290383206,8.70949806166893,3.43269407259973,-0.35460728,0.93828905,0.33108896,215.26564,-77.256226,-0.7853597,STD
59150924000,1.044891,-0.238636016133832,8.90252037046169,3.25292544421393,-0.31245756,0.95539325,0.3399465,215.0231,-77.0249,-0.83670557,STD
59155911000,1.049878,-0.372643736527506,8.97561526324292,3.05394435622821,-0.2611449,0.98746365,0.35888332,214.78256,-76.81195,-0.88809484,STD
59162371000,1.056338,-0.56899719232,9.070041768,2.800684272832,-0.20586158,1.0458013,0.38148534,214.55034,-76.649704,-0.94726574,STD
59166578000,1.060545,-0.813958125226667,9.13020747733333,2.658864754656,-0.10842858,1.104139,0.40500367,214.31107,-76.51898,-1.0043317,STD
59171264000,1.065231,-1.08440080953717,9.19045666591865,2.50781236636746,-0.081855945,1.1572843,0.43463063,214.06818,-76.41927,-1.0793583,STD
59176525000,1.070492,-1.33879192664797,9.11979250771389,2.47954670308555,-0.028099801,1.1969905,0.46303585,213.81506,-76.35686,-1.1511316,STD
59181141000,1.075108,-1.56199462510519,9.0577917941094,2.45474641764376,0.0076358155,1.2104294,0.4877759,213.53154,-76.316086,-1.2473562,STD
59185995000,1.079962,-1.73271590037707,8.86461291251885,2.69895495286576,0.05009095,1.1859949,0.5036584,213.25105,-76.291916,-1.3376362,STD
59191201000,1.085168,-1.90661332980769,8.63901663461539,2.99975039903846,0.06566802,1.135904,0.5216789,212.97719,-76.26965,-1.4191494,STD
59195960000,1.089927,-1.90097199764784,8.51079034425293,3.22047268336349,0.08307768,1.0714576,0.5311473,212.70724,-76.246155,-1.5397912,STD
59200960000,1.094927,-1.84169264330064,8.40135171936006,3.43479036739358,0.07849618,0.9746355,0.5384777,212.46336,-76.21954,-1.6489345,STD
59205959000,1.099926,-1.73934890651356,8.29516829548604,3.62762459057612,0.08277224,0.8533788,0.5403103,212.18874,-76.136696,-1.774181,STD
59210986000,1.104953,-1.61067631765987,8.19032334824787,3.80871940423678,0.08827003,0.78801614,0.52442783,211.93019,-76.05274,-1.8990669,STD
59215982000,1.109949,-1.50728075471794,8.09910886353157,3.91144712528818,0.10262536,0.65026605,0.5195409,211.7216,-75.937004,-2.0055447,STD
59221434000,1.115401,-1.41140914500663,8.00856367373253,3.97003529723554,0.10873401,0.4260785,0.48899764,211.56102,-75.820694,-2.1126797,STD
59225941000,1.119908,-1.28786234148714,7.8893358489725,3.96257517081306,0.14508049,0.37323865,0.47891834,211.34694,-75.69833,-2.1787336,STD
59230931000,1.124898,-1.13130395232801,7.73752169996029,3.92936583655316,0.16646078,0.26816985,0.45081854,211.21542,-75.5743,-2.239602,JOG
59236721000,1.130688,-0.985211428456225,7.64564251769637,3.87613151842595,0.17928895,0.14782938,0.3811799,211.10431,-75.45305,-2.2957711,JOG
59240925000,1.134892,-0.891465155332971,7.60814390794784,3.83238322739832,0.2434298,0.11056661,0.36651915,210.99916,-75.356155,-2.3433053,JOG
59246260000,1.140227,-0.775459751064431,7.56257014389601,3.77092894348154,0.25625798,0.06658431,0.3323107,210.9149,-75.25384,-2.3626504,JOG
59250982000,1.144949,-0.694524186232103,7.53701165169555,3.67295438236624,0.28893927,0.04062254,0.31031954,210.83752,-75.1769,-2.3818994,JOG
59255953000,1.14992,-0.609320735833647,7.51010541181236,3.56981343715147,0.32375857,0.016187929,0.27885997,210.77148,-75.1264,-2.3793404,JOG
59260892000,1.154859,-0.520127385322308,7.49507775937033,3.50125845226661,0.35155296,0.005497787,0.25625798,210.71095,-75.08337,-2.380208,JOG
59265909000,1.159876,-0.42917490860815,7.48071685304374,3.43424078943908,0.38240165,0.005497787,0.22479841,210.65817,-75.0498,-2.3916576,JOG
59271023000,1.16499,-0.385042710749291,7.48857019019846,3.41487051470231,0.42210788,0.005192355,0.18967366,210.60959,-75.04842,-2.385657,JOG
59275888000,1.169855,-0.347301788523694,7.49800541336574,3.4007176799514,0.441961,-0.0061086523,0.1459968,210.56795,-75.04808,-2.3903928,JOG
59280939000,1.174906,-0.378022210675815,7.54519974220044,3.41085211506984,0.47861293,-0.021991149,0.105374254,210.52892,-75.08381,-2.3842492,JOG
59285941000,1.179908,-0.413236513749571,7.59449987583435,3.4225902071061,0.5119051,-0.06047566,0.06414085,210.50339,-75.12106,-2.388108,JOG
59290921000,1.184888,-0.448295935842196,7.64358317561382,3.43427667218819,0.5540548,-0.11209377,0.016798794,210.48352,-75.17789,-2.3926525,JOG
59295981000,1.189948,-0.483918561502573,7.69345496213673,3.44615087164911,0.59315014,-0.18051068,-0.03756821,210.48306,-75.23934,-2.406388,JOG
59300934000,1.194901,-0.617719999094397,7.76648981780919,3.39759776486623,0.6444628,-0.24740042,-0.08032878,210.48904,-75.312775,-2.4198527,JOG
59305938000,1.199905,-0.767704110561333,7.84390081371025,3.33953949268046,0.6966918,-0.3191771,-0.12950343,210.51976,-75.39262,-2.4441962,JOG
59311176000,1.205143,-0.901102395645643,7.94734042517092,3.23836985090034,0.7480045,-0.39950588,-0.16615535,210.56902,-75.47944,-2.482237,JOG
59315897000,1.209864,-1.01864953588926,8.04311940036591,3.14259064840636,0.80664754,-0.43890667,-0.17470746,210.62755,-75.579506,-2.5223725,JOG
59321310000,1.215277,-1.13769316166505,8.08406689545014,2.99558436302033,0.850019,-0.5726862,-0.22296582,210.71199,-75.70159,-2.5891418,JOG
59326313000,1.22028,-1.24437208707648,8.10725795566312,2.8517996928364,0.93859446,-0.6169739,-0.23671028,210.77945,-75.849976,-2.650166,JOG
59330894000,1.224861,-1.33243877416805,8.10472501180833,2.66123735626037,0.9795224,-0.71837753,-0.24984388,210.87935,-76.00817,-2.7183573,JOG
59335933000,1.2299,-1.42662735696301,8.09530620762174,2.4351847772226,1.0341948,-0.8164214,-0.2593123,210.98938,-76.1882,-2.783723,JOG
59340897000,1.234864,-1.46547362620524,8.07280354990998,2.28707912214443,1.094976,-0.89858276,-0.27122417,211.10632,-76.39803,-2.8556085,JOG
59346246000,1.240213,-1.48084459135827,8.04206178010602,2.16411129391878,1.0986412,-1.0164797,-0.27977628,211.25836,-76.599045,-2.9171362,JOG
59350933000,1.2449,-1.49422190805668,7.96622257526509,2.03091421155485,1.0855075,-1.1786644,-0.28680122,211.43898,-76.83323,-2.978113,JOG
59355898000,1.249865,-1.50835791400258,7.86727043523932,1.88013000052522,1.0534371,-1.4165965,-0.3032946,211.67139,-77.05337,-3.028661,JOG
59360894000,1.254861,-1.54741692002746,7.77149802275402,1.48012196708513,1.0143417,-1.6994271,-0.31887165,211.95235,-77.27837,-3.062171,JOG
59365903000,1.25987,-1.59916982352884,7.67740192389172,0.953183420439388,1.022283,-1.9349157,-0.33658674,212.28244,-77.499435,-3.086354,JOG
59370929000,1.264896,-1.71825245479,7.6453154589,0.333291996842,1.070236,-2.0427334,-0.3484986,212.6526,-77.73317,-3.1007462,JOG
59375914000,1.269881,-1.87579575274,7.6500895934,-0.335073343748,1.1301007,-2.0222695,-0.3268129,213.04376,-77.96876,-3.101035,JOG
59380899000,1.274866,-2.20766968438198,7.97519480444899,-0.42252224464073,1.16492,-1.87444,-0.32803464,213.4796,-78.27889,-3.1343374,JOG
59385951000,1.279918,-2.64898003471705,8.49756191800074,-0.161338537395756,1.1502593,-1.6374242,-0.32528573,213.87585,-78.58673,-3.1646514,JOG
59391234000,1.285201,-2.67541217927994,8.82270447465099,0.230100908276267,1.0937542,-1.4706581,-0.35705075,214.3,-78.969734,-3.242415,JOG
59395881000,1.289848,-2.33752190080823,8.92516154886113,0.672628201322557,1.0329732,-1.4608842,-0.40866885,214.69777,-79.33555,-3.3294582,JOG
59400902000,1.294869,-1.97243752632868,9.03586457653686,1.15077098987117,0.97494096,-1.6062702,-0.47891834,215.04915,-79.60888,-3.513691,JOG
59405912000,1.299879,-1.6081529782023,9.14632507616948,1.62786626384619,0.93859446,-1.7024814,-0.5448918,215.381,-79.851555,-3.711078,JOG
59411232000,1.305199,-1.14590573140253,9.14592761086316,1.65170501525971,0.9239337,-2.115121,-0.6056729,215.83943,-80.06346,-3.9012485,JOG
59415910000,1.309877,-0.652425994549425,9.00979519001045,1.11568390799544,0.93615097,-2.2568417,-0.6377433,216.24382,-80.25336,-4.106366,JOG
59420922000,1.314889,-0.212500553032258,8.76487390669975,0.499125110620347,0.9370673,-2.538145,-0.68600166,216.72751,-80.36458,-4.1336126,JOG
59425889000,1.319856,0.00940475442580642,8.28329232079405,-0.213804693111662,0.9465357,-2.8102856,-0.7098254,217.23991,-80.4795,-4.1538124,JOG
59431180000,1.325147,0.137588746322143,7.70818106593627,-1.00943817364559,0.9764681,-3.0995302,-0.7467828,217.89302,-80.74073,-4.079264,JOG
59435934000,1.329901,0.0369133963132978,7.06751971685596,-1.7965364366469,0.98349303,-3.2381966,-0.77396625,218.56946,-80.995285,-4.002419,JOG
59440887000,1.334854,-0.119582646007249,6.4342864608143,-2.58981212097319,0.9275989,-3.1710014,-0.8222246,219.35835,-81.33958,-3.9251072,JOG
59445883000,1.33985,-0.409412762609831,5.88313409124131,-3.32151437392254,0.77763146,-2.908024,-0.88056225,220.12022,-81.653984,-3.8596697,JOG
59450916000,1.344883,-0.687232752417735,5.39765542167213,-4.04590533321404,0.5589417,-2.595872,-0.9443977,220.92865,-82.00564,-3.8681138,JOG
59455917000,1.349884,-0.925296246837658,5.10245676754151,-4.73152821424595,0.376293,-2.1368067,-0.98837996,221.61234,-82.31579,-3.9013114,JOG
59460898000,1.354865,-1.18661013933873,4.94457627533256,-5.16863347161172,0.21594086,-1.5430456,-1.0247264,222.19818,-82.61173,-4.0305767,JOG
59465900000,1.359867,-1.51907876862348,5.18007486162522,-4.8961939532967,0.09865474,-0.86834496,-1.0375546,222.62292,-82.854774,-4.180204,JOG
59470993000,1.36496,-1.87003938049809,5.41603911472183,-4.52961251030327,0.027488936,-0.30665436,-1.0228939,222.9139,-83.10714,-4.377321,JOG
59476139000,1.370106,-2.27585827356899,5.63874464137377,-3.79220972745531,0.012217305,0.040011674,-1.0180069,223.06807,-83.31191,-4.5901814,JOG
59480956000,1.374923,-2.65303818316174,5.88584871635155,-3.17689580257394,0.013744468,0.16401732,-1.058324,223.09987,-83.37644,-4.892551,JOG
59485976000,1.379943,-3.03551881494759,6.29532805835829,-2.83041332578622,0.087964594,0.13805555,-1.1582005,223.07172,-83.40188,-5.2113137,JOG
59490996000,1.384963,-3.39438633676838,6.76666328564282,-2.48184449274637,0.22082779,0.058337633,-1.2864822,222.99405,-83.222916,-5.6569314,JOG
59495960000,1.389927,-3.45146195681841,8.01281477038519,-2.11085271409705,0.42302418,-0.112399206,-1.4175128,222.94743,-83.00406,-6.124127,JOG
59501000000,1.394967,-3.47218237803538,9.33090503977216,-1.74065708230239,0.7134906,-0.2968805,-1.50731,222.89328,-82.64967,-6.691201,JOG
59505941000,1.399908,-3.03715213919257,11.2696271374038,-1.45694172202458,1.0341948,-0.37751472,-1.5567901,222.85501,-82.26079,-7.273855,JOG
59511017000,1.404984,-2.5573729778626,13.208901648855,-1.13752000748092,1.20371,-0.54153204,-1.5668694,222.87892,-81.84281,-7.833469,JOG
59515907000,1.409874,-1.70834517251908,14.4601004584924,-0.500749141808206,1.5531249,-0.7266242,-1.4740179,222.92789,-81.45055,-8.362134,JOG
59520927000,1.414894,-0.836746075826972,15.7445622221692,0.152950192686069,1.9398025,-1.0989466,-1.2663237,223.08295,-81.24316,-8.6607275,JOG
59526275000,1.420242,0.434660984865315,16.7850781291308,0.308774237369064,2.302351,-1.6655241,-1.0430524,223.3451,-81.052124,-8.916373,JOG
59530925000,1.424892,1.76201013510136,17.4776083151902,0.0944197133201889,2.6239717,-2.008525,-0.8338311,223.64624,-80.88958,-9.109435,JOG
59536074000,1.430041,3.48648698565883,18.1267609280658,-0.462763816084951,2.9184086,-2.014939,-0.6563747,224.01643,-98.94964,-8.940081,JOG
59540903000,1.43487,5.46138472156885,18.5703215054807,-1.43437122507924,3.206737,-1.8396207,-0.4886922,224.4235,-98.79244,-8.731571,JOG
59545933000,1.4399,7.28357514230546,18.8646385760765,-1.83048762654953,3.4251215,-1.5137241,-0.32650748,224.94879,-98.4857,-8.2917795,JOG
59550916000,1.444883,8.95137648669627,19.0581399445839,-1.86273790274184,3.545462,-1.0916162,-0.17806722,225.38199,-98.269066,-7.842703,JOG
59555940000,1.449907,10.1906754179425,19.1991837338859,-1.52253949889615,3.5763106,-0.7021896,-0.08155051,225.84102,-98.043175,-7.175486,JOG
59561125000,1.455092,11.1106744140419,19.3008678786933,-0.868855926092638,3.5659258,-0.4071417,-0.03756821,226.19017,-98.01277,-6.5265746,JOG
59565910000,1.459877,11.5220226427308,19.3665512854616,-0.340210411430845,3.61113,-0.20891592,-0.03359759,226.5346,-98.124695,-5.7555985,JOG
59571074000,1.465041,11.5438897258578,19.4102854517156,0.15835944006544,3.6841283,-0.06383542,-0.08857546,226.77986,-98.45958,-5.0350266,JOG
59575946000,1.469913,11.3822122960196,19.4473308075979,0.571698864191655,3.755905,0.15332718,-0.19822577,226.94804,-98.90484,-4.289697,JOG
59580928000,1.474895,10.6795966520115,19.4727878653292,0.826269632895102,3.7464366,0.44043383,-0.32559118,227.022,-99.49067,-3.599515,JOG
59586040000,1.480007,9.83645375025683,19.4939230182932,1.20320405314049,3.6709948,0.70280045,-0.44318274,227.01724,-100.13299,-2.9753187,JOG
59591479000,1.485446,8.73338646696404,19.5080045241056,1.799329873227,3.5592062,0.8127562,-0.559858,226.94676,-100.82813,-2.4096391,JOG
59595932000,1.489899,7.7940944000101,19.5160362161043,2.29989466146696,3.474907,0.9120218,-0.6579019,226.78409,-101.531265,-1.9567939,JOG
59600961000,1.494928,6.53871612491412,19.5063049131138,2.93244957753081,3.3353243,1.0021244,-0.7461719,226.57591,-102.204094,-1.5445477,JOG
59605949000,1.499916,5.03752262188928,19.436368941928,3.79325336538908,3.1874948,1.01312,-0.7770206,226.36069,-102.79626,-1.2791187,JOG
59610929000,1.504896,2.36485947055362,19.09016929036,5.72274077305459,3.1111367,0.9755518,-0.8576548,226.12051,-103.36876,-1.0569668,JOG
59615961000,1.509928,-0.0949508634863876,18.7369922104835,7.55481629325477,2.9455922,0.8604037,-0.9654725,225.91147,-103.80442,-0.9970957,JOG
59621055000,1.515022,-0.684683274534742,18.3529225150345,8.48153862094677,2.7598891,0.7742717,-1.0396926,225.69975,-104.20714,-0.95262307,JOG
59625880000,1.519847,-1.24327355394352,17.9891344740959,9.3593233149228,2.5583036,0.5305365,-1.1081096,225.6248,-104.35389,-1.2596157,JOG
59630887000,1.524854,-1.8229339744616,17.6116242728566,10.2702182294799,2.3417518,-0.018020526,-1.169807,225.6516,-104.45623,-1.606483,JOG
59635958000,1.529925,-2.21772769498284,17.1926544986877,10.8493606231577,2.1090124,-0.6010914,-1.2095132,225.73949,-104.52111,-1.9819663,JOG
59640884000,1.534851,-1.71292393526146,16.6164159317585,9.82546621189178,1.820073,-1.0079277,-1.1899655,225.92915,-104.52245,-2.3761094,JOG
59645895000,1.539862,-1.14452730904315,15.964428793621,8.76647961726079,1.4126259,-1.138042,-1.0913107,226.24036,-104.30312,-2.908119,JOG
59650943000,1.54491,-0.323443037167967,15.0096803705935,7.62078076192357,0.9202685,-0.98746365,-0.93401295,226.59076,-104.00609,-3.4140801,JOG
59655901000,1.549868,0.474882601734732,13.9533035584069,6.63392519977925,0.38881573,-0.64599,-0.73548174,226.89691,-103.70585,-3.8068705,JOG
59660894000,1.554861,1.23576746075055,12.2600046710817,6.37443248675497,-0.061086524,-0.2452624,-0.52564955,227.154,-103.298805,-4.1298385,JOG
59666446000,1.560413,2.11137230406266,10.355350175248,6.1313505318329,-0.39950588,-0.0030543262,-0.37415496,227.31802,-102.889244,-4.2991614,JOG
59670950000,1.564917,3.08441980384334,8.6164778418799,6.33857366841776,-0.64751714,0.06811147,-0.26939157,227.4267,-102.37574,-4.4049263,JOG
59675920000,1.569887,4.1601419615917,6.73335954922392,6.53369509465151,-0.8585711,0.0030543262,-0.17104226,227.47612,-101.809364,-4.370504,JOG
59680911000,1.574878,5.26589542110727,5.29682530728621,6.30214836932279,-1.0549643,-0.15760323,-0.040317107,227.53992,-101.16716,-4.2964296,JOG
59686034000,1.580001,6.3758477856714,3.85745997898739,6.0042627554933,-1.2629639,-0.3539964,0.1133155,227.608,-100.4241,-4.0739036,JOG
59690896000,1.584863,7.11663507554533,2.93031121721033,4.96995627264359,-1.5076154,-0.49877146,0.3277292,227.71544,-99.59302,-3.7979474,JOG
59696035000,1.590002,7.8468811244639,1.97899254672438,3.85893218538265,-1.7318029,-0.52748215,0.5684101,227.81593,-98.69167,-3.3320355,JOG
59700942000,1.594909,7.89310698555971,1.42428008975015,2.57847095305922,-1.9117028,-0.4877759,0.8164214,227.94455,-97.70885,-2.7996252,JOG
59706207000,1.600174,7.90537771607193,0.856097625798938,1.2445593402497,-2.0662518,-0.18295415,0.9960158,227.97209,-96.76583,-2.096721,JOG
59710901000,1.604868,7.4823546372496,0.663433657532843,0.519975228068574,-2.2504275,-0.042760566,1.0506883,228.03688,-95.77893,-1.3562317,JOG
59715892000,1.609859,7.03256593115625,0.458579404099506,-0.25045496023479,-2.3536637,0.2556471,1.07665,227.95078,-94.99432,-0.5358139,JOG
59720927000,1.614894,6.43297769284844,0.626162047887038,-0.596227255774076,-2.5045476,0.54611355,1.0122037,227.8261,-94.25369,0.28309375,JOG
59725883000,1.61985,5.82064979613978,0.847950146586753,-0.871051653173507,-2.5760188,0.81122905,0.91446525,227.62369,-93.6839,1.1105319,JOG
59730906000,1.624873,4.9247882750268,1.35231847266881,-0.654035354549839,-2.5625796,1.1068878,0.8347474,227.33362,-93.42986,1.8708649,JOG
59736290000,1.630257,3.93003204837442,1.92798752475884,-0.359292775643087,-2.4712553,1.4559973,0.77946407,226.95341,-93.44017,2.6171763,JOG
59740911000,1.634878,2.62619544889034,2.54047303792428,0.105357375691906,-2.3490822,1.8460348,0.73884153,226.48904,-93.64416,3.2567775,JOG
59745882000,1.639849,1.03103199572454,3.25001011817885,0.69577500810705,-2.2797492,2.1468859,0.6957755,225.95222,-94.018845,3.8814826,JOG
59750912000,1.644879,-0.407833115101458,3.68601207064342,1.16610879207913,-2.302962,2.2898283,0.59956425,225.36436,-94.32599,4.3075256,JOG
59755957000,1.649924,-1.81190898391965,4.06043219601305,1.60950119228306,-2.4055874,2.264172,0.4896085,224.74022,-85.27999,4.7134285,JOG
59760903000,1.65487,-2.71498527963092,4.6803219264808,1.76031476050203,-2.5546384,1.9785925,0.35918877,224.17319,-85.107376,4.794462,JOG
59765919000,1.659886,-3.55858042962595,5.347572352912,1.86993444142276,-2.690556,1.5864171,0.23365596,223.64632,-84.86668,4.8370156,JOG
59770910000,1.664877,-3.91888554890809,6.51005076531107,1.68624853521304,-2.8527408,0.9221011,0.19028452,223.3146,-84.84421,4.5246353,JOG
59775897000,1.669864,-4.19238002494419,7.76163529467145,1.44983811335533,-2.930626,0.4025602,0.21502456,223.05345,-84.71096,4.191211,JOG
59780902000,1.674869,-4.13716230537305,9.08017694636529,1.07853679154296,-2.9565878,0.54061574,0.29718593,222.81464,-84.67434,3.6042402,JOG
59785956000,1.679923,-3.98882031399291,10.4291612346519,0.665960924499569,-3.0182853,0.872621,0.37232238,222.65894,-84.467804,3.0255365,JOG
59790905000,1.684872,-3.82215390875386,11.7959948438723,0.504714490978373,-3.1450398,1.2110404,0.40622538,222.47105,-84.2876,2.3208976,JOG
59795901000,1.689868,-3.64476503748713,13.195396053759,0.445584850072091,-3.2476652,1.5210545,0.39858958,222.18645,-83.96111,1.6294606,JOG
59800921000,1.694888,-3.59738078914848,14.6191773614597,0.86828294869666,-3.245527,1.6019942,0.37568212,221.8691,-83.63075,0.9687667,JOG
59806217000,1.700184,-3.59248421328442,16.1273230343696,1.48035534074146,-3.2775974,1.5879441,0.29016098,221.48846,-83.18302,0.3000294,JOG
59810962000,1.704929,-3.65413902240727,16.9908101486563,1.96737404345193,-3.3893857,1.5201381,0.24404067,221.09473,-82.64528,-0.2713473,JOG
59815913000,1.70988,-3.74387168099924,17.7041856277441,2.45193077464042,-3.4119878,1.2702943,0.11453723,220.76047,-82.086174,-0.8633069,JOG
59821100000,1.715067,-4.00110500691259,18.2599074046084,2.84372857832153,-3.411377,0.8741482,-0.03604105,220.4715,-81.34819,-1.3655251,JOG
59825930000,1.719897,-4.34823268073142,18.6510378538209,3.13218673581017,-3.4376442,0.37384954,-0.18387043,220.28734,-80.58967,-1.8683912,JOG
59830938000,1.724905,-4.44514112236818,18.8977908007918,3.16854778457801,-3.4153476,-0.18967366,-0.26236662,220.22556,-79.76865,-2.338799,JOG
59836004000,1.729971,-4.41894916393738,19.0724027934137,3.08124146919201,-3.3331861,-0.7144069,-0.15668693,220.28813,-78.97321,-2.7531593,JOG
59840968000,1.734935,-3.44095554790878,19.2076314668393,2.70031614513045,-3.2485814,-0.9089675,0.22204952,220.3927,-78.17943,-3.1260188,JOG
59845960000,1.739927,-1.37479148917945,19.3028468327026,1.98144338894642,-3.3011158,-0.6591236,0.6627888,220.49997,-77.402504,-3.4252932,JOG
59850932000,1.744899,0.327556379191022,19.3762401706733,1.56608538979551,-3.4489453,-0.53878313,0.960891,220.67134,-76.6908,-3.6246195,JOG
59855984000,1.749951,1.62096113945436,19.4245015109227,1.51299786512718,-3.5338554,-0.5681047,1.1945469,220.78273,-76.026344,-3.7108555,JOG
59860948000,1.754915,2.14378086089881,19.4609652487814,1.17448542834373,-3.503923,-0.5476407,1.3735305,220.86203,-75.52056,-3.419277,JOG
59865989000,1.759956,1.75316238060051,19.4844964677325,0.477960880542016,-3.4245105,-0.32925636,1.4208726,220.88129,-75.00805,-3.1199994,JOG
59870915000,1.764882,1.23778408854426,19.5021527615827,-0.180151664222267,-3.407101,-0.004886922,1.3778065,220.88017,-74.50007,-2.6216636,JOG
59875962000,1.769929,0.501087275779348,19.5119100232159,-0.819272806066418,-3.4605515,0.37384954,1.317331,220.79782,-73.98006,-2.1531434,JOG
59880914000,1.774881,-0.0719074037770567,19.5137956234014,-1.27159306115671,-3.4871242,0.80573124,1.2754866,220.60461,-73.57431,-1.8191966,JOG
59885982000,1.779949,-0.440160229224279,19.5045314567666,-1.48003801964115,-3.4843755,1.287704,1.2195925,220.29916,-73.15356,-1.5530627,JOG
59900924000,1.794891,-1.45260154380992,19.3209691428719,-1.95838537161117,-3.238502,1.6120734,1.0861185,218.95845,-72.43886,-1.544744,JOG
59905954000,1.799921,-1.48239510333986,18.5959901252448,-1.54127455303577,-3.1563408,1.5231925,1.0167851,218.4759,-72.243515,-1.6246144,JOG
59910934000,1.804901,-1.50768936566524,17.773956332618,-1.26426180643777,-2.9721649,1.455081,0.94714653,217.99493,-72.05645,-1.7177818,JOG
59915943000,1.80991,-1.52239512630288,16.6808278181075,-1.33288868941345,-2.7727172,1.4437801,0.9049969,217.53561,-71.89025,-1.8168596,JOG
59921007000,1.814974,-1.58405801501795,15.5312310825688,-1.50362928869166,-2.577546,1.4831808,0.8741482,217.08461,-71.68109,-1.9144604,JOG
59925939000,1.819906,-1.73478102686478,14.3254475779817,-1.86630652518947,-2.3866506,1.5485435,0.89888823,216.63715,-71.527374,-2.0081985,JOG
59930955000,1.824922,-1.89089902473951,13.0136148612682,-2.28060016522775,-2.186592,1.6465873,0.9120218,216.1715,-71.34699,-2.0725296,JOG
59935989000,1.829956,-2.05355936918726,11.5161834471569,-2.79250171551057,-1.9602666,1.7892243,0.9419542,215.68068,-71.233475,-2.1369817,JOG
59940953000,1.83492,-2.09893241594808,9.59384765322207,-3.26386635605007,-1.7446312,2.0195205,0.9315695,215.1295,-71.111115,-2.192555,JOG
59945947000,1.839914,-1.88607419812703,6.65817811979601,-3.66297530609179,-1.536326,2.300824,0.9101892,214.53177,-71.0571,-2.2633681,JOG
59950959000,1.844926,-1.67676779381554,3.93050780551761,-3.89343655149234,-1.3322971,2.4862216,0.8689558,213.88602,-71.02868,-2.3480296,JOG
59955948000,1.849915,-1.49262481887604,2.44023414907233,-3.16971182979295,-1.1071932,2.5167649,0.79473567,213.21765,-71.06968,-2.4608617,JOG
59960912000,1.854879,-1.30940458885005,0.957428290063637,-2.44961371022676,-0.8552113,2.3817637,0.70463306,212.53818,-71.0952,-2.566817,JOG
59965955000,1.859922,-1.32365815235263,-0.550361552340388,-1.59180371607486,-0.57940567,2.038152,0.5699373,211.92291,-71.19321,-2.691077,JOG
59971002000,1.864969,-1.35747596561133,-2.05948255486094,-0.720994353730978,-0.26267207,1.5448782,0.4025602,211.40106,-71.37446,-2.8241537,JOG
59975943000,1.86991,-1.66467812860036,-3.62001350734699,-0.12339404639964,0.059864793,0.93615097,0.21166481,211.03073,-71.47489,-2.9709933,JOG
59980922000,1.874889,-2.13142139747975,-5.24020257110711,0.332619477479748,0.39828414,0.29901853,0.01160644,210.82278,-71.6613,-3.120913,JOG
59986070000,1.880037,-2.02458937752788,-5.06871026088039,0.491017352052588,0.7357872,-0.25625798,-0.15027285,210.69437,-71.7262,-3.2691653,JOG
59990981000,1.884948,-1.82528848223148,-4.59999432678366,0.590391763914544,1.0317514,-0.6780604,-0.2773328,210.71852,-71.86329,-3.420795,JOG
59995926000,1.889893,-1.62460778028877,-4.12803336280315,0.690454168039441,1.3057245,-0.8323039,-0.35979962,210.79913,-71.941154,-3.6693792,JOG
60000949000,1.894916,-1.4207616395692,-3.648627918501,0.792094907355793,1.421178,-1.0054842,-0.38362336,211.0071,-72.046005,-3.9027114,JOG
60005913000,1.89988,-1.21930986920648,-3.17485355546778,0.892541777745275,1.6172657,-1.1172725,-0.43982297,211.25151,-72.233955,-4.1647606,JOG
60010904000,1.904871,-1.01676237003639,-2.69850225693861,0.9935349949318,1.7537941,-1.1731668,-0.4783075,211.52946,-72.42761,-4.4236913,JOG
60015931000,1.909898,-0.812753899123137,-2.21871504441484,1.09525667451438,1.8875736,-1.14018,-0.4868596,211.81683,-72.66288,-4.6934776,JOG
60021070000,1.915037,-0.604200182786712,-1.72823832168564,1.19924468155136,2.0399845,-1.087951,-0.45173484,212.11482,-72.93047,-4.964489,JOG
60025898000,1.919865,-0.408267639009273,-1.26744407818758,1.29693958288907,2.2137756,-1.0332786,-0.37232238,212.4012,-73.231834,-5.234489,JOG
60030923000,1.92489,-0.204340333192863,-0.787847749774621,1.39862079233854,2.3732114,-0.9755518,-0.2751948,212.66933,-73.563156,-5.500284,JOG
60035955000,1.929922,-0.000128949537504419,-0.307583326973824,1.5004436472539,2.453235,-0.9505063,-0.17806722,212.92656,-73.915016,-5.7517495,JOG
60040906000,1.934873,0.200795247695739,0.164950289339124,1.60062746177814,2.460565,-0.95203346,-0.101098195,213.1709,-74.285255,-5.9901614,JOG
60045899000,1.939866,0.403423911962672,0.641492471979106,1.70166114909778,2.3393085,-0.9251554,-0.03848451,213.396,-74.63922,-6.2151036,JOG
60050927000,1.944894,0.607472965424346,1.12137512655828,1.80340306374692,2.1352794,-0.86162543,0.004276057,213.60898,-74.96803,-6.431856,JOG
60055915000,1.949882,0.809898716949173,1.59744009892124,1.90433557573377,1.813048,-0.7486154,0.05222898,213.79765,-75.231995,-6.639773,JOG
60060924000,1.954891,1.01317670199084,2.07550935444771,2.00569302411832,1.3906348,-0.5448918,0.13927728,213.93927,-75.419,-6.839537,JOG
60065898000,1.959865,1.21503429783777,2.55023813803498,2.10634224517338,0.8732319,-0.29260445,0.26633725,214.03128,-75.50457,-7.0292854,JOG
60070901000,1.964868,1.22770800240604,3.83243464025651,3.72576532953868,0.2773328,-0.065973446,0.4428773,214.06569,-75.47798,-7.1963167,JOG
60075882000,1.969849,1.19450912732154,5.30267147778882,5.70347098335653,-0.26908615,0.03023783,0.63316184,214.05772,-75.35064,-7.335983,JOG
60080879000,1.974846,1.20994851932997,5.93716299248938,6.99413262950885,-0.58001655,-0.0421497,0.7663304,214.1325,-75.36424,-6.99799,JOG
60085903000,1.97987,1.23847733237474,6.3508311788319,8.10675757948414,-0.5381723,-0.19211712,0.81306165,214.19322,-75.333374,-6.633584,JOG
60090880000,1.984847,1.17750882936475,5.91267712508202,8.37331862019087,-0.22449298,-0.27030787,0.7806858,214.27309,-75.02454,-6.233883,JOG
60095864000,1.989831,1.08972476879411,5.21989478298041,8.3899262555423,0.15241088,-0.5626069,0.77182823,214.43996,-74.73496,-5.797007,JOG
60100923000,1.99489,1.0006197201531,4.51668734544189,8.40678380514962,0.31429017,-1.0641272,0.75808376,214.68703,-74.29193,-5.351789,JOG
60105883000,1.99985,0.913258375764987,3.82724103388011,8.42331146793916,0.5687156,-1.6261233,0.7309003,215.02122,-73.96149,-4.8931284,JOG
60110897000,2.004864,-0.00223475028387787,2.35090175207106,5.57675875834672,0.6966918,-2.1713204,0.66798115,215.48016,-73.628044,-4.416938,JOG
60115899000,2.009866,-1.19960065029459,0.610444925545438,1.75374056243528,0.7651087,-2.5928175,0.589485,216.04997,-73.33772,-3.9239247,JOG
60120916000,2.014883,-2.49724819113311,-0.107719909091196,-2.03746266920809,0.850019,-2.9147434,0.49174652,216.71593,-72.985794,-3.4749289,JOG
60125933000,2.0199,-3.88866358399326,0.170563174764111,-5.78669487624263,1.1007792,-3.1364875,0.4034765,217.46318,-72.68976,-3.0178592,JOG
60130912000,2.024879,-4.82372076472326,1.35747962517879,-8.65957320616449,1.4049901,-3.0720413,0.3903429,218.14073,-72.98259,-2.772872,JOG
60136435000,2.030402,-5.54737707764303,3.31464127259017,-11.249934352783,1.4492778,-2.4813347,0.42332962,218.72902,-73.273926,-2.562737,JOG
60141087000,2.035054,-6.21566670647944,5.00830740375513,-13.0049465827285,1.2455542,-1.1838568,0.59040123,219.02446,-74.13931,-2.5180564,JOG
60145925000,2.039892,-7.64360925102556,7.33297861707163,-9.50575608898706,1.1291844,0.65301496,0.7305948,219.02133,-75.01907,-2.5314116,JOG
60150892000,2.044859,-8.95070749354181,9.68683333446635,-5.85547829598912,1.0806206,2.3857343,0.5714644,218.76682,-76.42899,-2.7841458,JOG
60156330000,2.050297,-9.23836188970088,12.02789510707,-1.44330639597213,0.893085,2.2064452,0.03604105,218.56944,-77.6806,-3.070745,JOG
60161536000,2.055503,-9.51374416009518,14.2690807613868,2.78063014530931,0.6377433,-0.01863139,-0.68630713,218.43967,-78.22244,-3.8073838,JOG
60166397000,2.060364,-8.61832426198663,15.5353875706781,1.52894319065903,0.8622363,-2.593123,-1.4269812,218.48663,-78.677444,-4.653985,JOG
60170952000,2.064919,-7.6642153417383,16.6394878118434,-0.162620925673352,1.3316863,-4.0350704,-1.9865338,218.86032,-78.93745,-5.5744843,JOG
60175905000,2.069872,-6.3230488184568,17.4262169595415,-2.82003971615451,1.325883,-3.6829066,-2.1679606,219.3988,-78.338776,-6.525246,JOG
60180948000,2.074915,-4.82034625899239,18.0403237788267,-5.89522968545419,0.89369583,-2.3588562,-2.187203,220.07619,-77.68845,-7.4975176,JOG
60186005000,2.079972,-3.20275850861759,17.4669217755835,-8.61519734928187,0.5513059,-0.68416905,-2.2492058,220.62743,-77.44952,-8.30336,JOG
60190932000,2.084899,-1.56145141247756,16.2068216229803,-11.0506853197935,0.54092115,0.129198,-2.3240368,221.03802,-77.13864,-9.106745,JOG
60195896000,2.089863,0.0295859746047429,14.8523133229249,-11.2407176183794,0.8875872,1.346347,-2.35794,220.9257,-77.32704,-9.686951,JOG
60200917000,2.094884,1.62608883498024,13.4648760711462,-10.969882298419,1.1139128,1.8811595,-2.384207,220.76575,-77.376526,-10.277294,JOG
60205991000,2.099958,3.14159363973941,13.4345971453699,-10.5737253904141,1.5131133,2.078469,-2.2446244,220.38206,-77.78272,-10.616296,JOG
60210943000,2.10491,4.59808813876221,13.7214827047929,-10.1588450330386,1.7052304,2.05434,-1.8457294,219.88994,-78.100815,-10.890977,JOG
60215916000,2.109883,5.15969359802103,14.5454558115852,-9.17775943805401,1.8594738,1.9068159,-1.3228287,219.41718,-78.597694,-10.836122,JOG
60220992000,2.114959,5.25990378911565,15.6678079637188,-7.88003990929705,2.123673,1.740966,-0.9786061,218.95871,-79.048134,-10.714986,JOG
60225907000,2.119874,4.96143426904425,16.6110063371388,-6.68996857733886,2.4352143,1.5992452,-0.7666359,218.61945,-79.805435,-10.130498,JOG
60230899000,2.124866,4.50741343251162,17.5142179047282,-5.50661669210952,2.7177396,1.498147,-0.6160576,218.34552,-80.513115,-9.486882,JOG
60235953000,2.12992,4.14121182967044,18.0904269231702,-4.34405693572584,3.0225613,1.3817772,-0.50762904,218.1525,-98.869576,-8.808941,JOG
60240900000,2.134867,3.81553454638091,18.5358389599676,-3.21855452361504,3.3808336,1.135904,-0.42394048,218.05087,-98.39917,-8.126907,JOG
60245887000,2.139854,3.74566941617443,18.8139092296333,-2.25075937461843,3.7296379,0.8512407,-0.37690386,218.00435,-98.145836,-7.525226,JOG
60250902000,2.144869,3.75994919377602,19.0376254471754,-1.33209303611497,3.9892554,0.6768387,-0.34605515,218.01147,-98.08497,-6.9358683,JOG
60255920000,2.149887,3.7530799340239,19.1774587272908,-0.405961253685259,4.1297545,0.6441574,-0.31215215,218.06259,-98.15478,-6.3853064,JOG
60260913000,2.15488,3.73879199705179,19.2869998757968,0.517992650348606,4.1572433,0.5699373,-0.2602286,218.18404,-98.3818,-5.8532987,JOG
60265925000,2.159892,3.27272743472544,19.357204511891,1.64641541414346,4.128533,0.32986724,-0.23732115,218.36784,-98.68349,-5.361546,JOG
60271056000,2.165023,2.6266670737819,19.4142095052204,2.8767804537703,4.0668354,0.0580322,-0.2843578,218.58115,-99.0792,-4.9060183,JOG
60275942000,2.169909,2.01743128259222,19.4504984859422,3.76698102336989,4.0002513,-0.01282817,-0.40744713,218.78995,-99.485634,-4.50962,JOG
60280935000,2.174902,1.39766960704885,19.4791029498505,4.54406685216351,3.8792996,0.019242255,-0.57818395,219.03476,-99.920555,-4.1673703,JOG
60285954000,2.179921,0.642654081163212,19.4984172123164,5.38768328818676,3.6447275,0.14202617,-0.784351,219.21587,-100.30419,-3.9771333,JOG
60290932000,2.184899,-0.17284891155162,19.5128082306299,6.25595408271282,3.2916474,0.2574797,-0.95356065,219.37299,-100.64948,-3.8345003,JOG
60295927000,2.189894,-0.658850979848619,19.4763998091025,7.20856897021528,3.0906727,0.56505036,-0.98929626,219.36989,-101.020004,-3.8161688,JOG
60300942000,2.194909,-0.984606459598938,19.415025831908,8.20472011589502,2.6823094,0.80664754,-0.9984592,219.34032,-101.25265,-3.8367097,JOG
60305979000,2.199946,-1.13460609654904,18.893934393839,9.4842435238838,2.313652,0.82894415,-0.91996306,219.23082,-101.45324,-3.9555569,JOG
60310945000,2.204912,-1.18560461218561,18.1289564172353,10.8982929015403,1.9856175,0.5720753,-0.8005389,219.13306,-101.5517,-4.0656962,JOG
60315948000,2.209915,-1.23512090280797,17.0591156156401,11.960437486413,1.6859881,0.19639318,-0.6985244,219.02402,-101.54688,-4.2292514,JOG
60321215000,2.215182,-1.28588686322464,15.7138185392512,12.813305048913,1.423316,-0.1704314,-0.61483586,218.99142,-101.46038,-4.374107,JOG
60325936000,2.219903,-1.36194158744951,14.4024016440745,13.0065010179293,1.1615603,-0.44318274,-0.5323691,219.01375,-101.24496,-4.547934,JOG
60330959000,2.224926,-1.46145785130529,12.9428289824648,12.8643349267067,0.9092729,-0.5412266,-0.47036624,219.09743,-100.96813,-4.708655,JOG
60336119000,2.230086,-1.5291595586514,11.3553592971227,12.3604412084557,0.6059783,-0.5271767,-0.45814893,219.22247,-100.60071,-4.8964615,JOG
60340969000,2.234936,-1.57007048104326,9.80529018379331,11.6513188068115,0.16310102,-0.47158796,-0.49021935,219.36983,-100.15042,-5.076755,JOG
60345942000,2.239909,-1.2563264771179,8.47009574480349,10.7471428829694,-0.39614612,-0.4810564,-0.5360342,219.53285,-99.66713,-5.2850404,JOG
60350949000,2.244916,-0.623958644401747,7.35193543466376,9.67923680419214,-0.9975429,-0.53786683,-0.5467244,219.6997,-99.10102,-5.486827,JOG
60355942000,2.249909,0.5737937301951,6.0838184982078,8.0653593396098,-1.4886786,-0.5928447,-0.48563787,219.86967,-98.562965,-5.699562,JOG
60360918000,2.254885,3.57380251259074,4.33246218550363,4.70859297481851,-1.8576412,-0.6392705,-0.3408628,220.06099,-97.974556,-5.888196,JOG
60365949000,2.259916,5.49629607137243,3.1667919475194,2.74171489710188,-2.1007655,-0.75655663,-0.15943582,220.27863,-97.41709,-5.977074,JOG
60370951000,2.264918,6.17867742248747,2.67735968741527,2.36522857341586,-2.3096814,-0.9034697,0.028099801,220.52386,-96.865295,-6.018758,JOG
60375962000,2.269929,6.40870040424248,2.21824539456117,2.17184211030461,-2.4987442,-1.0888673,0.21594086,220.76808,-96.208,-5.6916356,JOG
60380936000,2.274903,6.06868967543983,1.80161236347642,2.21015316143561,-2.6019804,-1.2437216,0.41630468,221.04874,-95.53958,-5.298219,JOG
60386055000,2.280022,5.42686624650311,1.38638128500549,2.1361837472446,-2.5937338,-1.2916746,0.59650993,221.34473,-94.82823,-4.7643356,JOG
60391026000,2.284993,4.47247392713292,0.998523241999268,1.93571779703405,-2.5537221,-1.2718215,0.6646214,221.6655,-85.80558,-4.193822,JOG
60395901000,2.289868,3.50993489913856,0.677452468545926,1.68756756463934,-2.5375342,-1.1560625,0.7104363,221.9739,-86.26635,-3.6156476,JOG
60400958000,2.294925,2.43427315692787,0.516605847296316,1.28042453196679,-2.5076017,-0.9398162,0.6921103,222.24554,-86.49353,-3.0260103,JOG
60405937000,2.299904,1.57609378376461,0.453404854033051,1.03334245164853,-2.5076017,-0.6780604,0.6585127,222.47397,-86.35267,-2.5664682,JOG
60410938000,2.304905,1.10893321999194,0.576951452809351,1.08739409012495,-2.4990497,-0.4016439,0.6239988,222.63377,-86.00232,-2.1077409,JOG
60415995000,2.309962,0.636541504135429,0.701881496802902,1.14205098590085,-2.4529295,-0.22204952,0.5992588,222.74797,-85.481895,-1.7998526,JOG
60421349000,2.315316,0.439776962927392,1.13312646438878,1.09217276712455,-2.3970351,-0.15149458,0.600786,222.81184,-84.89267,-1.4940375,JOG
60425940000,2.319907,0.313148045366972,1.53142598862768,0.980988508499044,-2.393981,-0.13255776,0.6017023,222.83731,-84.25017,-1.1954329,JOG
60430925000,2.324892,0.212776442385321,1.91010067087156,0.474568144795872,-2.4492643,-0.111177474,0.6053675,222.83733,-83.55285,-0.9884337,JOG
60436119000,2.330086,0.102559105844182,2.31506640486168,-0.0455054175907242,-2.5619688,-0.04642576,0.61361414,222.80112,-82.85814,-0.8109498,JOG
60440921000,2.334888,-0.0751806579170057,2.82957633344182,-0.42437176741904,-2.6731462,0.049785517,0.64751714,222.74585,-82.14221,-0.62926596,JOG
60445987000,2.339954,-0.255174704639383,3.39645710857038,-0.872259225010094,-2.7134633,0.11942416,0.6969972,222.54225,-81.716774,-0.5690341,JOG
60450930000,2.344897,-0.337705900105524,4.24783152739035,-1.90607104261791,-2.7406468,0.14660765,0.73914695,222.32489,-81.271034,-0.51032263,JOG
60456856000,2.350823,-0.462723725220152,5.27933694388695,-3.10993513905386,-2.7837129,0.29871312,0.77732605,221.9756,-81.030235,-0.5563618,JOG
60460897000,2.354864,-0.83918168801966,6.10358177452386,-3.53394552590621,-2.8243356,0.59956425,0.84116143,221.58508,-80.78388,-0.5939894,JOG
60465882000,2.359849,-1.30358231770428,7.12037476653697,-4.05700708949416,-2.8958068,0.86284715,0.87689704,221.29726,-80.4979,-0.510449,JOG
60470915000,2.364882,-1.52684668582268,7.93284143630192,-4.12102699920128,-3.0616567,1.1520919,0.8744536,220.92032,-80.17998,-0.43977624,JOG
60475860000,2.369827,-1.72542961124201,8.71298874910144,-4.14466781190096,-3.2974505,1.5180001,0.8414669,220.45264,-79.82815,-0.38971135,JOG
60480907000,2.374874,-1.78201425466156,10.2045565328618,-3.40508381432361,-3.5054502,2.0234911,0.86315256,219.87967,-79.51592,-0.40503863,JOG
60485893000,2.37986,-1.82423351213282,11.7432129148246,-2.60291841220159,-3.6468656,2.3215933,0.88453287,219.26855,-79.16114,-0.44370714,JOG
60491049000,2.385016,-2.33225350696292,13.6795034447803,-0.156987571060057,-3.6813793,2.89825,0.8668178,218.43578,-78.82327,-0.5775774,JOG
60495859000,2.389826,-2.86140968179162,15.5269088962112,2.31704979089077,-3.7308595,3.0595186,0.84604836,217.64267,-78.44482,-0.7064353,JOG
60500921000,2.394888,-3.98057864001912,16.5584080978967,4.12270442440727,-3.7669005,2.6349673,0.79290307,216.85783,-78.003204,-0.8896883,JOG
60505925000,2.399892,-5.15343902724665,17.4701235028681,5.81327248035373,-3.7394116,1.7131716,0.7819075,216.17973,-77.565155,-1.048571,JOG
60510908000,2.404875,-6.36834827187917,18.0347984504264,6.63898506778999,-3.5170567,0.41416663,0.7892379,215.6988,-76.882065,-1.3433633,JOG
60515888000,2.409855,-7.59336881682934,18.5199061191822,7.266195729251,-3.1829133,-1.0192287,0.84329945,215.51773,-76.250565,-1.5465205,JOG
60520997000,2.414964,-7.12532643907575,18.7941791444867,6.41746346171395,-2.767525,-2.1135938,0.9987647,215.55075,-75.39481,-1.788772,JOG
60525941000,2.419908,-6.40520885896461,19.0249868707224,5.36498404761626,-2.345417,-2.6942213,1.1850786,215.82425,-74.67157,-1.9143184,JOG
60530937000,2.424904,-5.62693945203167,19.1607566074018,3.99547161114079,-2.043955,-2.9483411,1.3338243,216.2481,-73.967926,-2.0950332,JOG
60535947000,2.429914,-4.83520849256963,19.2751684921786,2.55388071606257,-1.8497,-2.8689287,1.4807373,216.70987,-73.39034,-2.1674795,JOG
60540940000,2.434907,-4.19690167332078,18.9563724720653,1.11059701667294,-1.7302758,-2.477364,1.5946637,217.1734,-73.03533,-2.0408323,JOG
60545943000,2.43991,-3.61541179798075,18.4701262016112,-0.338114982879264,-1.7033978,-1.8988746,1.6508633,217.54198,-72.7231,-1.8987081,JOG
60550920000,2.444887,-3.23050052721501,17.8360932567581,-1.02854260547186,-1.749518,-1.2498302,1.6453656,217.82857,-72.57546,-1.6020178,JOG
60555945000,2.449912,-2.88791894063492,17.1601899089947,-1.54704446780952,-1.8258762,-0.6753115,1.5864171,217.97223,-72.4238,-1.3500983,JOG
60560942000,2.454909,-2.45513646577455,16.5826672161974,-1.58452366983385,-1.8994855,-0.24587326,1.4853189,218.055,-72.3329,-1.0311787,JOG
60565921000,2.459888,-1.99021497209233,16.0418391312307,-1.44694479982091,-1.9321668,0.0983493,1.3787229,218.01003,-72.22643,-0.7789062,JOG
60571051000,2.465018,-1.44106261617904,15.8328032668088,-1.68338585662662,-1.8826867,0.4361578,1.289842,217.88126,-72.13719,-0.5277471,JOG
60576011000,2.469978,-0.884230969598915,15.7591730711102,-2.0515390935962,-1.7595973,0.86437434,1.2006557,217.64488,-72.05747,-0.35024744,JOG
60581005000,2.474972,-0.350214187707169,15.63154293077,-2.052581204025,-1.6056592,1.2260065,1.110553,217.34892,-71.963615,-0.16262533,JOG
60586032000,2.479999,0.174115756895539,15.4765233717208,-1.87020555745809,-1.4370605,1.3292428,1.01312,217.01874,-71.90906,-0.022358622,JOG
60591008000,2.484975,0.518415209810461,15.1739370914552,-1.5474185716261,-1.2586879,1.42973,0.9627236,216.62833,-71.93503,0.16524982,JOG
60596008000,2.489975,0.726714474440186,14.7523793493527,-1.11098198436561,-1.1667526,1.4669929,0.85062987,216.24568,-71.98159,0.3006424,JOG
60600981000,2.494948,0.728452453187021,14.2685383089585,-0.874919333525683,-0.95142263,1.4978416,0.76174897,215.85953,-72.07786,0.49492168,JOG
60606021000,2.499988,0.605170668076814,13.7388829877968,-0.756203542399016,-0.7333437,1.5244142,0.6988298,215.4774,-72.19679,0.6575139,JOG
60611005000,2.504972,0.385409185927593,13.1331184651258,-0.756775376989159,-0.53878313,1.5222762,0.68386364,215.09143,-72.28917,0.83674335,JOG
60616030000,2.509997,0.0704264551799959,12.4440937335856,-0.869972289829208,-0.32559118,1.5305228,0.6921103,214.70482,-72.44422,0.9977839,JOG
60621031000,2.514998,-0.3471031580713,11.6559693280593,-1.17520251000401,-0.11362094,1.6899587,0.72387534,214.26443,-72.60034,1.134519,JOG
60626013000,2.51998,-0.844000010354496,10.7911777434408,-1.62909865563789,0.10903945,1.8490891,0.7464773,213.82797,-72.814735,1.26794,JOG
60630937000,2.524904,-1.29723363007519,9.79047082379024,-1.95005163506844,0.29657507,1.9669861,0.713796,213.34363,-73.05364,1.3494952,JOG
60636052000,2.530019,-1.73637368646617,8.62887424339695,-2.17670451332177,0.44226643,2.0015,0.63071835,212.84668,-73.33947,1.416529,JOG
60641010000,2.534977,-2.14537631299772,7.58694419786689,-2.1698657081058,0.5458081,1.9159788,0.50946164,212.34082,-73.68644,1.4020675,JOG
60646011000,2.539978,-2.54040320739477,6.62434998259386,-1.92467660614334,0.6637051,1.6334536,0.3839288,211.89128,-74.07758,1.3779272,JOG
60650991000,2.544958,-2.81158552119205,5.49676984966887,-1.58714955761589,0.79443026,1.2113458,0.23518312,211.48979,-74.49091,1.2710818,JOG
60655982000,2.549949,-2.87795729139073,4.08254195794702,-1.09191451721854,0.9584476,0.7840455,0.02107485,211.18506,-74.94961,1.1346062,JOG
60660973000,2.55494,-2.75706466771654,2.51779529771654,-0.305100467716535,1.1398746,0.35918877,-0.08552113,210.95844,-75.37633,0.9533812,JOG
60666024000,2.559991,-2.44283415252953,0.780005464154528,0.789945196220472,1.3347405,-0.39278635,-0.160963,210.95546,-75.85332,0.77586913,JOG
60671006000,2.564973,-2.72554524776005,-1.01702885205826,1.57004114963469,1.4932601,-1.3326025,-0.20922135,211.0981,-76.2474,0.6047672,JOG
60676068000,2.570035,-3.68559398731013,-2.93712604404249,2.02210281144972,1.7018706,-2.1114557,-0.20677789,211.40715,-76.70573,0.4647345,JOG
60680980000,2.574947,-4.22374022740385,-4.35908136850962,2.04246114230769,1.9633209,-2.3854287,-0.29657507,211.80045,-77.04924,0.32250953,JOG
60686008000,2.579975,-4.14965970594231,-5.11377416085577,1.39888874538462,2.2696698,-2.6829202,-0.31215215,212.41164,-77.459625,0.2507182,JOG
60690973000,2.58494,-3.98660864033375,-5.70600500525475,0.731861532451624,2.4104743,-2.6844473,-0.23793201,212.9363,-77.782425,-0.02339852,JOG
60696006000,2.589973,-3.61439090502397,-5.95415048973904,-0.0168524795845908,2.644741,-2.6465738,-0.20769419,213.54105,-78.20854,-0.30614248,JOG
60701092000,2.595059,-3.18172672110072,-6.11907278384624,-0.802971135353429,2.845105,-2.5250115,-0.27977628,214.14668,-78.732475,-0.59251744,JOG
60706021000,2.599988,-2.06620130143892,-5.22169431208907,-1.92841243362042,3.0106494,-2.3970351,-0.36774087,214.74309,-79.30322,-0.88694245,JOG
60711056000,2.605023,-0.959830853981168,-4.21163154975775,-2.89504624778316,3.1853569,-2.271197,-0.40561453,215.35062,-80.057655,-1.1252692,JOG
60716011000,2.609978,-0.0401807476871744,-2.74105907316025,-2.91239816948533,3.3512068,-2.084883,-0.38240165,215.90994,-80.845825,-1.3916358,JOG
60721392000,2.615359,0.967049683415842,-1.09834196356646,-2.88389096199705,3.4486396,-1.8338175,-0.32925636,216.48929,-81.890656,-1.4730518,JOG
60726013000,2.61998,2.01118179059406,1.27426200827891,-1.86306523871919,3.38175,-1.4471397,-0.2666427,216.97739,-82.93362,-1.5673513,JOG
60731042000,2.625009,3.15771252135643,3.84897568322061,-0.660915902362642,3.130379,-0.9275989,-0.18325958,217.39168,-84.018196,-1.4458449,JOG
60736023000,2.62999,4.42175353191884,6.30634162633188,1.67711796284629,2.6575692,-0.4111123,-0.004581489,217.69368,-85.033264,-1.2920072,JOG
60740948000,2.634915,5.6715832803669,8.73608008644492,3.98886596247568,1.9349157,0.05375614,0.23884831,217.80562,-85.42136,-0.505087,JOG
60746543000,2.64051,6.56167527640177,10.7854968668845,5.64163672264966,0.89461213,0.49510628,0.50671273,217.7928,-85.46344,0.30370063,JOG
60751327000,2.645294,7.20044200321682,12.3097041714999,6.90580560250624,-0.24373524,0.9062186,0.75991637,217.67041,-85.13463,1.1400117,JOG
60756013000,2.64998,6.94188473117918,11.870157011523,7.40137350100826,-1.0152581,1.2583824,0.9660834,217.42796,-84.443665,1.97192,JOG
60760965000,2.654932,6.66865049918379,11.405659031112,7.9250722277223,-1.2837334,1.4013249,1.0235047,217.10612,-83.39414,2.854288,JOG
60766003000,2.65997,6.16921405928509,9.94499656282089,9.07251647670251,-1.1624765,1.2660183,1.0436633,216.75195,-82.24719,3.732791,JOG
60771000000,2.664967,5.65464068700959,8.41054822144725,10.2639159032258,-0.9083566,0.8032878,1.061073,216.44333,-81.09526,4.587151,JOG
60776009000,2.669976,4.88356220261878,7.246751003367,11.1907123411897,-0.7504479,0.017104227,1.0219775,216.22987,-79.98649,5.332308,JOG
60781001000,2.674968,4.07425236468388,6.14680498316498,12.071563627385,-0.689056,-0.4428773,0.9896017,216.04813,-78.94635,6.062298,JOG
60786033000,2.68,3.13047426622517,5.7117089205298,12.1024837748344,-0.677755,-1.4208726,0.9957104,216.1661,-77.862404,6.7182927,JOG
60790950000,2.684917,2.16081958098096,5.53629402969785,11.8149980190397,-0.68111473,-2.3942864,1.0589349,216.40224,-76.808044,7.3987813,JOG
60796008000,2.689975,0.794942653548949,6.42962337368064,7.06970323345889,-0.7959574,-3.051272,1.1942415,216.74963,-75.66942,7.988895,JOG
60800992000,2.694959,-0.651725531829186,7.60359692417934,1.17672591281205,-0.90041536,-2.7278187,1.3203852,217.07928,-74.5412,8.592592,JOG
60806015000,2.699982,-2.73595913261066,9.22733287082204,-3.23355484758808,-0.82650065,-1.1435398,1.4660766,217.20328,-73.51466,9.050553,JOG
60811008000,2.704975,-5.04449831665161,11.0079319903643,-7.03952448515808,-0.6597345,0.6429357,1.529912,217.16438,-72.492775,9.475404,JOG
60816583000,2.71055,-7.03357845742654,12.6728473593421,-7.44673784575268,-0.6722572,1.3518448,1.4056009,217.16304,-72.28729,9.75087,JOG
60821047000,2.715014,-8.47847286881958,13.9248030436265,-6.80789763072911,-1.047023,1.3833044,1.0735956,216.86511,-72.06363,9.898168,JOG
60826007000,2.719974,-9.42468142896825,14.7426620439484,-6.12135828180556,-1.3836098,1.3518448,0.69058317,216.54602,-72.547424,9.614367,JOG
60831017000,2.724984,-10.1529465599206,15.370969225496,-5.43593252763889,-1.2525792,1.2247849,0.22968534,216.27023,-73.10202,9.231151,JOG
60835990000,2.729957,-9.95389825767587,14.4008642184221,-4.15604397664205,-0.9297369,0.77121735,-0.35705075,216.06607,-73.747734,8.444938,JOG
60840994000,2.734961,-9.39980152584532,12.8130758620288,-2.6380995871745,-0.6945538,0.1469131,-0.9068295,215.95796,-74.41961,7.5895143,JOG
60845966000,2.739933,-7.99478955964772,10.3134009919936,-2.97588736244996,-0.40225476,-0.46822822,-1.3658947,215.93521,-75.17109,6.5238905,JOG
60850986000,2.744953,-6.13277550040032,7.31108328182546,-4.27496700176141,0.18020524,-1.2492194,-1.7464638,216.14465,-76.03721,5.418712,JOG
60855966000,2.749933,-4.44412748576793,5.29523699718363,-5.7595267194893,0.95172805,-2.0470095,-1.990199,216.46254,-76.732124,4.3528647,JOG
60861003000,2.75497,-2.8183691558205,3.75552156942358,-7.36264181458881,1.6316211,-2.5076017,-2.1245892,216.90584,-77.50295,3.264326,JOG
60866020000,2.759987,-1.50152896148227,3.06733992397537,-8.53480751624549,1.9776763,-2.6163359,-2.1789563,217.57584,-78.412445,2.4886856,JOG
60871030000,2.764997,-0.446971869806753,3.1080957792525,-9.33973545848376,1.9859229,-2.3356433,-2.204002,218.25217,-79.37827,1.6864291,JOG
60876004000,2.769971,-0.416995080511795,4.71988381207517,-9.54645684886046,1.861001,-1.7736472,-2.264172,218.91687,-80.532814,1.2258426,JOG
60881124000,2.775091,-0.936539731131547,7.22938241263495,-9.43862721271491,1.7510452,-1.2473868,-2.3130412,219.49239,-81.66594,0.7514141,JOG
60885950000,2.779917,-1.48646918486782,9.89203335298288,-9.27086920054695,1.7458528,-0.9624182,-2.2962425,219.9668,-82.83971,0.51027304,JOG
60890951000,2.784918,-2.08798919134002,12.8074654061582,-9.06227689790337,1.8017471,-0.33444872,-2.2058344,220.18208,-83.96759,0.2506431,JOG
60895946000,2.789913,-2.07913754635801,14.7231959279465,-8.58257329283397,2.0344868,0.34055737,-2.1025982,220.3753,-85.211426,-0.22891949,JOG
60900943000,2.79491,-1.76395961831318,16.1391442368033,-7.96633016720731,2.3478606,0.9978484,-2.0415115,220.37334,-86.409164,-0.7023556,JOG
60905940000,2.799907,-0.749018132332933,17.1157533507403,-7.02071157262905,2.568383,1.4538593,-1.953547,220.19951,-87.423355,-1.2531081,JOG
60910951000,2.804918,0.681637607202881,17.8358820753301,-5.87810732292917,2.6355782,1.6823229,-1.8118263,219.88315,-87.98862,-1.76241,JOG
60915929000,2.809896,2.06230993560209,18.3147879331747,-5.00377817005236,2.6505444,1.785559,-1.5931365,219.45453,-92.17406,-2.1611245,JOG
60921061000,2.815028,3.46119640680628,18.6656799449786,-4.25988859015707,2.7027733,1.7666223,-1.3723087,218.98462,-92.887474,-2.5054114,JOG
60926014000,2.819981,4.47437563721763,18.9168928167977,-3.78318463449099,2.7864618,1.740966,-1.1979067,218.50673,-93.55174,-2.5686939,JOG
60931003000,2.82497,5.21608881256842,19.0975662073838,-3.50266491587223,2.9254336,1.6572775,-1.0143417,218.04863,-94.31357,-2.5692153,JOG
60936144000,2.830111,5.66355911593506,18.9727250783724,-3.16141738705151,3.0955596,1.4975362,-0.806953,217.64572,-94.906456,-2.2851007,JOG
60941022000,2.834989,5.83678824762477,18.6075389713369,-2.79623181777911,3.35365,1.3093897,-0.6078109,217.27814,-95.608536,-1.9727721,JOG
60946007000,2.839974,5.76158454102266,18.0643139145845,-2.21814374831493,3.6383133,1.1377366,-0.464563,216.96518,-96.29385,-1.5106493,JOG
60950989000,2.844956,5.47049090309897,17.3758551654077,-1.46499643580283,3.8649445,1.0363328,-0.37934732,216.69319,-97.072914,-1.0392172,JOG
60955922000,2.849889,4.98547753804265,16.958651312262,-0.511535007425743,3.968486,1.0195341,-0.3576616,216.45227,-97.84505,-0.520611,JOG
60961009000,2.854976,4.24804046681264,16.8473397711348,0.722164484405941,4.004527,1.0372492,-0.3820962,216.23848,-98.67753,-0.018410774,JOG
60965990000,2.859957,3.39411811678832,17.0428736581856,2.28283507486966,3.9715405,0.95294976,-0.44348818,216.04759,-99.39861,0.46035457,JOG
60971056000,2.865023,2.29630852116788,17.7713734385819,4.4835133987487,3.8728857,0.657291,-0.52320606,215.91821,-100.10914,0.89649713,JOG
60975932000,2.869899,1.4028969555523,18.3706551699385,6.20337430940522,3.7342193,0.48288897,-0.5830709,215.74458,-100.611565,1.2454243,JOG
60981008000,2.874975,0.681244018558453,18.8644182487548,7.48525740462936,3.551876,0.23396139,-0.5882632,215.67696,-101.07004,1.5526237,JOG
60986000000,2.879967,0.137570386927585,18.8463038290454,8.38010474918049,3.4272594,0.2312125,-0.573297,215.50583,-101.337944,1.6646384,JOG
60991051000,2.885018,-0.165147833923711,18.0774956698123,8.74048384036952,3.1172454,0.52381694,-0.5332854,215.31802,-101.50546,1.7799841,JOG
60995983000,2.88995,-0.321585536666025,17.1006776238815,9.05594739411142,2.6893342,0.8142834,-0.5335908,215.07451,-101.56911,1.7314668,JOG
61001000000,2.894967,-0.261486534998557,15.7507614037333,9.3194588867507,2.2339342,0.8509353,-0.552833,214.82199,-101.54505,1.6924407,JOG
61005947000,2.899914,-0.0983848200462777,14.356232678672,9.43054610583501,1.8677205,0.6713409,-0.57787853,214.53384,-101.46244,1.5875779,JOG
61011045000,2.905012,0.314200212692153,12.76974482334,9.19478258229376,1.582141,0.39828414,-0.6188065,214.264,-101.27812,1.4716834,JOG
61015969000,2.909936,0.605336790420028,11.3282982831711,8.97564039026426,1.2950343,0.1591304,-0.6407976,214.02979,-101.04349,1.3219908,JOG
61021046000,2.915013,0.672960481529903,10.0389394089013,8.7682615340751,0.95569867,-0.029321533,-0.63255095,213.86319,-100.71479,1.1601766,JOG
61026037000,2.920004,0.734098941884182,8.84144715764075,8.6590112013941,0.6423248,-0.1881465,-0.6273586,213.7598,-100.391975,1.0123925,JOG
61031020000,2.924987,0.769921859804826,7.97658004343164,8.99676936160858,0.38453966,-0.27916542,-0.6017023,213.69676,-99.98681,0.86907935,JOG
61036173000,2.93014,0.861068795674694,7.1617050268922,9.31824703631498,0.16829337,-0.37048978,-0.5357288,213.68768,-99.56433,0.73439175,JOG
61041050000,2.935017,1.05299940674216,6.54574174458142,9.56820353994648,-0.03023783,-0.5119051,-0.41722095,213.7263,-99.07019,0.6180041,JOG
61046010000,2.939977,1.29315159232661,5.8636907114609,9.48606035002459,-0.23732115,-0.6988298,-0.25870144,213.81133,-98.49926,0.52549815,JOG
61051074000,2.945041,1.70822627549434,4.95720596647319,8.13110363014265,-0.50610185,-0.8741482,-0.099265605,213.94156,-97.85021,0.4648831,JOG
61056025000,2.949992,2.16891880965892,4.09255368844954,6.64216815538787,-0.86345804,-0.9486737,0.0012217305,214.10033,-97.10162,0.4542994,JOG
61061023000,2.95499,2.88166679891337,3.31719924963276,4.39797533751887,-1.2886202,-0.8875872,0.08155051,214.27695,-96.254486,0.48549905,JOG
61066053000,2.96002,3.56869944338785,2.5872981926913,2.37432509225722,-1.6902641,-0.71868294,0.17256944,214.45425,-95.48841,0.61333877,JOG
61071688000,2.965655,4.20063716118514,1.99894235900464,1.1758223406168,-2.017077,-0.54336464,0.28191432,214.61375,-94.63187,0.7752928,JOG
61076026000,2.969993,4.53518216513022,1.61184955240295,0.487827958476659,-2.2244658,-0.49021935,0.3903429,214.76868,-94.02565,1.0802891,JOG
61081007000,2.974974,4.38047289257002,1.40088214893366,0.530021434275184,-2.3478606,-0.47616947,0.44501534,214.88463,-93.42332,1.40989,JOG
61086003000,2.97997,4.14475804816222,1.1937010169977,0.578175803702067,-2.3872614,-0.5363397,0.5338962,215.0105,-93.102905,1.8741658,JOG
61091016000,2.984983,3.52121548065029,1.00706242060081,0.654527939459268,-2.4489589,-0.5369505,0.5934556,215.11574,-92.955475,2.3532312,JOG
61096042000,2.990009,2.89605590667963,0.819939822258349,0.731078075967485,-2.4920247,-0.43676865,0.6010914,215.21188,-93.029686,2.8250418,JOG
61101040000,2.995007,2.19732878032395,0.717883631035199,0.796644930339529,-2.499355,-0.22479841,0.57360244,215.27606,-93.333374,3.309846,JOG
61106372000,3.000339,1.45142372598317,0.635410097732481,0.86411135158199,-2.5283713,-0.005497787,0.52442783,215.3091,-86.19082,3.7956257,JOG
61111034000,3.005001,0.908106766737653,0.848209274300781,0.900332481883176,-2.5757134,0.2125811,0.473726,215.28201,-85.70006,4.165772,JOG
61116255000,3.010222,0.30709689952895,1.0938142281158,0.939100343743867,-2.6190848,0.41813725,0.43493605,215.19356,-85.21872,4.4150443,JOG
61121053000,3.01502,-0.134812122045142,1.42750062581943,0.948118912212954,-2.6865854,0.6035349,0.41080686,215.04692,-84.6565,4.6521635,JOG
61126321000,3.020288,-0.613265145974959,1.79289482829273,0.95212869760264,-2.734233,0.70432764,0.4147775,214.85008,-84.117966,4.7805953,JOG
61131008000,3.024975,-0.870307113403863,2.09350316811608,0.808359442152771,-2.770274,0.7110472,0.41263947,214.62578,-83.523186,4.895233,JOG
61136023000,3.02999,-1.14533708282054,2.41514831943123,0.654529099485587,-2.785851,0.62858033,0.40622538,214.35468,-82.991905,4.905309,JOG
61141686000,3.035653,-1.44131235046306,3.119385929545,0.363649663201127,-2.8023443,0.48899764,0.37323865,214.0975,-82.42787,4.901394,JOG
61145980000,3.039947,-1.6648508410006,3.67409262145158,0.135971564743306,-2.8102856,0.34483343,0.32742378,213.8647,-81.842384,4.887669,JOG
61151012000,3.044979,-2.05132135813794,4.85762658612773,-0.0244319891209654,-2.8313603,0.17898351,0.2929099,213.59293,-81.43299,4.7749834,JOG
61155987000,3.049954,-2.44395818807024,6.07293137814186,-0.174007933862455,-2.8976393,0.040927973,0.2828306,213.35579,-81.00562,4.6528826,JOG
61161015000,3.054982,-2.77798117498571,7.4809755524109,-0.625581599282447,-3.0030136,0.06658431,0.30726522,212.98143,-80.8888,4.403145,JOG
61166002000,3.059969,-3.10111125951973,8.90092709433962,-1.11255229789022,-3.118467,0.26053402,0.36346483,212.60748,-80.731865,4.156776,JOG
61171021000,3.064988,-3.42586841708964,10.8979796660868,-1.73202312939009,-3.2446108,0.6786713,0.42913285,212.16666,-80.60312,3.8181925,JOG
61175947000,3.069914,-3.74449038438395,13.0076430093123,-2.37409446332378,-3.3622024,0.9966267,0.46273044,211.70627,-80.417725,3.4838138,JOG
61181006000,3.074973,-4.43838332566325,14.5108015476753,-2.39556007483583,-3.4083226,1.756543,0.45998153,211.09813,-80.10804,3.117519,JOG
61185989000,3.079956,-5.19884759007092,15.8520597021277,-2.28274396879433,-3.506672,2.4700336,0.35613444,210.42024,-79.73993,2.7179062,JOG
61191009000,3.084976,-6.56281343784085,16.9347854515303,-1.39834916763495,-3.6096027,2.8292224,0.16707164,209.67856,-79.425735,2.2408364,JOG
61196007000,3.089974,-8.41135141179744,17.7924645019477,0.11457527573734,-3.6157115,2.6371052,-0.056505036,208.90552,-79.08903,1.7259243,JOG
61200993000,3.09496,-8.88580839621898,18.2873630781804,2.44088631452836,-3.5176675,1.6218473,-0.17989981,208.24565,-78.731415,1.0737464,JOG
61206018000,3.099985,-8.90950050925561,18.6664378763293,5.05649749868058,-3.40985,0.19975294,0.050701816,207.75258,-78.32943,0.5198118,JOG
61211408000,3.105375,-7.53015474729098,18.9232528778209,6.19095202111542,-3.2830954,-1.3176364,0.56107974,207.43103,-77.80847,-0.20611763,JOG
61215999000,3.109966,-5.94350943751864,19.0980896957948,6.66738266957948,-3.0405817,-2.598926,0.86620694,207.44205,-77.312805,-0.80001944,JOG
61221017000,3.114984,-4.38390345666799,19.1266308341907,6.00581378729719,-2.6261096,-3.4959817,1.0855075,207.7255,-76.4952,-1.1564851,JOG
61226015000,3.119982,-2.90174017813613,19.0887482884844,4.86459529907004,-2.207056,-3.8875463,1.2779301,208.2056,-75.78295,-1.3385948,JOG
61231002000,3.124969,-1.99758877220306,18.6195249669788,3.27127577650074,-1.9184223,-3.7586539,1.412015,208.85034,-75.12786,-1.1472565,JOG
61236083000,3.13005,-1.34047824263184,17.9432285914243,1.43904053192706,-1.7922786,-3.2852333,1.4547756,209.48975,-74.57035,-0.91152805,JOG
61241012000,3.134979,-0.938296669490009,17.4594545256984,-0.229101698061437,-1.7941113,-2.5219572,1.45783,210.01875,-74.28149,-0.45366594,JOG
61246011000,3.139978,-0.647975383596779,17.0549087485834,-1.86632339788249,-1.8750509,-1.6325374,1.4059063,210.37291,-74.00441,-0.05378091,JOG
61251037000,3.145004,-0.322742793253247,16.9095852917277,-2.89141278346518,-2.0088303,-0.80664754,1.3310753,210.56845,-73.88682,0.40240395,JOG
61256011000,3.149978,0.0168760924133216,16.9049328844614,-3.5753029037699,-2.1090124,-0.0067195175,1.2760975,210.5296,-73.74669,0.76907676,JOG
61261006000,3.154973,0.450932967250249,16.8801645244267,-3.73537479928215,-2.1496348,0.66645396,1.2275337,210.44823,-73.62943,1.1359793,JOG
61265995000,3.159962,0.946345089205384,16.8420556276172,-3.54483160849452,-2.1282544,1.0671816,1.1679744,210.22928,-73.49806,1.4329299,JOG
61271037000,3.165004,1.32654015369477,16.5161339285163,-3.13709337295003,-2.0073032,1.2748758,1.0793989,209.93579,-73.42735,1.7302269,JOG
61276014000,3.169981,1.62081768998649,16.0011479039167,-2.58992105190044,-1.8197676,1.3536774,1.0189233,209.57376,-73.377815,1.9882773,JOG
61281105000,3.175072,1.73995651590779,15.3670009190322,-2.10540500470566,-1.717753,1.4932601,0.890947,209.16495,-73.30686,2.245879,JOG
61286022000,3.179989,1.69958671876548,14.6627720481997,-1.70170675225757,-1.50731,1.5894713,0.77763146,208.75435,-73.31579,2.4794304,JOG
61291007000,3.184974,1.55902798272577,13.94130395029,-1.40888254762842,-1.2938126,1.7088956,0.68630713,208.30182,-73.26797,2.7041292,JOG
61296008000,3.189975,1.28126883802817,13.2072259295775,-1.27496300809859,-1.1050552,1.7568485,0.65484756,207.85158,-73.27158,2.9050047,JOG
61300990000,3.194957,0.925586949331248,12.4412493973406,-1.56646896413766,-0.893085,1.9437732,0.66248333,207.3186,-73.2611,3.06213,JOG
61306008000,3.199975,0.483926501857646,11.6331046184982,-2.30883432739539,-0.72387534,2.2855523,0.6600399,206.73866,-73.292244,3.1867225,JOG
61310990000,3.204957,-0.180374617287192,10.2453697617343,-2.75969354276054,-0.5910121,2.5842655,0.6618725,206.10497,-73.31778,3.2706757,JOG
61315996000,3.209963,-1.13386497809467,8.10955159805092,-2.85027521111774,-0.41538838,2.7980683,0.6569856,205.40756,-73.40266,3.3290114,JOG
61320984000,3.214951,-1.7860914704382,6.33078079211813,-2.64016559743983,-0.26450464,2.892447,0.63285637,204.67107,-73.565216,3.3215096,JOG
61326009000,3.219976,-2.04449721691437,5.00645117278742,-2.02645192546745,-0.11178834,2.7898216,0.61850107,203.93462,-73.77739,3.3145387,JOG
61330945000,3.224912,-2.3328879728488,3.61337661585305,-1.3058064277275,0.081855945,2.5540276,0.5717699,203.16081,-73.99879,3.162927,JOG
61336057000,3.230024,-2.70131101251609,1.98455909867314,-0.321729105949104,0.2706133,2.1762075,0.46822822,202.46342,-74.26896,3.01051,JOG
61340938000,3.234905,-3.09973284663992,0.454509268655968,0.683538100425276,0.46883908,1.6169603,0.2929099,201.85242,-74.484314,2.8104017,JOG
61346033000,3.24,-3.61850375361083,-1.08712134355567,1.87769003458776,0.71776664,0.9120218,0.110872045,201.39717,-74.77314,2.6175175,JOG
61350955000,3.244922,-4.08002416388295,-2.43659075140968,2.72495070727202,0.9801333,0.018936822,-0.0571159,201.09682,-74.91066,2.382791,JOG
61356054000,3.250021,-4.47406150929419,-3.53799606747035,2.952827723916,1.2858714,-0.895223,-0.18845193,201.00961,-75.13065,2.1581557,JOG
61360972000,3.254939,-4.76434551778716,-4.3898769033263,2.90260982197769,1.5961909,-1.6820174,-0.32834008,201.08125,-75.31076,1.8078728,JOG
61366051000,3.260018,-4.81811355429605,-4.69293360094463,2.11075192013868,1.9398025,-2.2174408,-0.4447099,201.3468,-75.57905,1.4703414,JOG
61371020000,3.264987,-4.63600457226789,-4.84136648065571,1.26542571731833,2.2687535,-2.3942864,-0.56321776,201.7104,-75.855484,1.0463833,JOG
61376013000,3.26998,-3.87672107700355,-4.62698055751915,0.242626162966561,2.4040601,-2.568383,-0.6169739,202.22983,-76.15902,0.6392677,JOG
61381019000,3.274986,-3.05152097699404,-4.33994223574553,-0.758886724743539,2.6945267,-2.5485299,-0.6930266,202.77031,-76.679276,0.18354286,JOG
61386069000,3.280036,-1.8448528232167,-3.62844070791252,-1.62903393731809,2.9400945,-2.4397957,-0.72143185,203.33812,-77.20593,-0.27743307,JOG
61391010000,3.284977,-0.685436953889445,-2.87147111405968,-2.38913911952734,3.1493158,-2.2840252,-0.66950834,203.9498,-77.96734,-0.5938964,JOG
61396686000,3.290653,0.490340966775486,-1.5541643899259,-2.59054538045263,3.3099732,-2.1636846,-0.5503896,204.53937,-78.77398,-0.9158701,JOG
61401027000,3.294994,1.32960866108453,-0.538103514094896,-2.61586570867225,3.4150422,-2.0824397,-0.36682457,205.16035,-79.79716,-0.9893294,JOG
61406052000,3.300019,1.9388269984051,0.689927193889553,-1.86753456408493,3.424205,-2.0402899,-0.2012801,205.75342,-80.84174,-1.049138,JOG
61411010000,3.304977,2.51608982028072,1.93260490512691,-1.07799608746848,3.3166928,-2.057394,-0.036651913,206.36734,-81.93122,-0.8307833,JOG
61416028000,3.309995,2.94018829604135,3.39877408159355,0.0650502861573373,3.0854805,-2.0018053,0.09101892,206.94565,-82.989685,-0.5863239,JOG
61420985000,3.314952,3.35913132998823,4.84712015727013,1.1942015165406,2.7021625,-1.7116444,0.2556471,207.38272,-83.65065,-0.0061155795,JOG
61426043000,3.32001,3.87952792751678,6.76338937807606,2.92156889261745,2.122146,-1.3451253,0.45204028,207.78682,-84.12718,0.6124935,JOG
61430966000,3.324933,4.41648350234899,8.77217812761847,4.79132519371568,1.3747523,-0.95386606,0.6588182,208.10658,-84.36178,1.2677317,JOG
61436049000,3.330016,4.95433769311297,9.95349830083868,6.00062706364085,0.5681047,-0.48930305,0.86345804,208.30647,-84.15672,2.0104253,JOG
61440945000,3.334912,5.46786249106068,10.8463837773064,6.96753392501233,-0.08735373,-0.089186326,1.0262536,208.41257,-83.70888,2.7766604,JOG
61446045000,3.340012,5.78181116761282,10.521124000866,7.66056769344751,-0.453262,0.08735373,1.102001,208.4476,-82.955284,3.5344815,JOG
61451045000,3.345012,6.01678518858847,9.7885578505725,8.23648489733474,-0.514654,0.06169739,1.1175779,208.41548,-82.10692,4.291214,JOG
61456051000,3.350018,5.92667241343463,8.73020321491403,8.81860467373051,-0.36560285,-0.20922135,1.1749994,208.39441,-81.11437,5.1051598,JOG
61461048000,3.355015,5.68749153790484,7.52473190993603,9.40220572231108,-0.16493362,-0.66828656,1.2217305,208.42273,-80.14999,5.8995605,JOG
61466702000,3.360669,4.93097486562344,6.14804284077544,9.22057148729194,-0.015577064,-1.1695015,1.2406673,208.53262,-79.17264,6.7068443,JOG
61471142000,3.365109,4.18930457358716,5.06308505148012,8.82218847124489,0.07666359,-1.4156802,1.2409728,208.68523,-78.244675,7.509934,JOG
61476116000,3.370083,3.17558708574374,3.96319495183241,7.06277084678976,0.18845193,-1.9434677,1.2538009,209.02058,-77.33469,8.289586,JOG
61481043000,3.37501,2.09204530039366,2.92387928357859,4.74974075255413,0.26542094,-2.435825,1.2977833,209.39952,-76.44411,9.07933,JOG
61486105000,3.380072,0.741582447665873,2.09786191132388,2.30885995319325,0.49235737,-2.6786442,1.349096,209.8331,-75.7083,9.768368,JOG
61491056000,3.385023,-0.770036363171514,1.48438027786979,-0.13034313375427,0.67011917,-2.7119362,1.3445144,210.33498,-74.982666,10.465661,JOG
61496043000,3.39001,-2.71249224222154,2.22351474238519,-2.8417374936995,0.49754974,-2.4297166,1.2605205,210.8782,-74.564156,11.027351,JOG
61501033000,3.395,-4.92178924866523,3.82183353567556,-5.71577870010228,-0.022296581,-1.4511104,1.181108,211.22652,-74.10695,11.55019,JOG
61506052000,3.400019,-6.91836137702253,5.82728430252124,-6.73950634749723,-0.58093286,-0.006414085,1.176221,211.40779,-73.96575,11.85504,JOG
61511036000,3.405003,-8.78298385267824,8.02692138039342,-6.77917918081825,-0.98929626,1.4022411,1.1334605,211.32527,-73.77749,12.074444,JOG
61516096000,3.410063,-10.0487570798992,10.1794669695718,-4.8649668471335,-1.2357804,2.2452352,0.95325524,211.0983,-74.14626,11.823708,JOG
61521148000,3.415115,-10.6727266730479,12.2463666604534,-0.960281188211587,-1.317331,1.8994855,0.47769663,210.82498,-74.537415,11.4667015,JOG
61526062000,3.420029,-10.8354392041047,14.0410232949205,1.43901027166752,-0.895223,0.50488013,-0.2770274,210.59221,-75.40713,10.541163,JOG
61531058000,3.425025,-10.5801310436121,15.66124788353,2.55352846146742,-0.17989981,-1.2406673,-0.9822713,210.56302,-76.36452,9.552878,JOG
61536281000,3.430248,-9.33002223593864,16.1572986665449,1.60714586827977,0.18845193,-2.4785857,-1.4101825,210.54453,-77.07307,8.275928,JOG
61541009000,3.434976,-7.54812744850256,15.8141499930606,-0.646062008053324,0.18845193,-2.738509,-1.6453656,210.75542,-77.81294,6.9640684,JOG
61545987000,3.439954,-5.89393595105659,14.9408050265928,-2.9421899442501,0.23182335,-2.545781,-1.8023579,211.14766,-78.46687,5.682566,JOG
61550989000,3.444956,-4.63522146752671,13.132350632133,-5.11081874263554,0.4636467,-2.2583687,-1.9840903,211.58563,-79.05259,4.419263,JOG
61557233000,3.4512,-3.07645256281132,10.9275699502344,-7.71214820782741,0.8561276,-1.9874501,-2.182927,212.22778,-79.87049,3.4738486,JOG
61560975000,3.454942,-2.25679103654487,10.089693652002,-8.30109023312814,1.2211196,-1.461495,-2.3393085,212.70308,-80.67115,2.489911,JOG
61566041000,3.460008,-1.14711565117185,8.95535871698198,-9.0984126008923,1.4495832,-1.0913107,-2.4162774,213.31299,-81.78665,1.7739263,JOG
61571327000,3.465294,0.0107493482521038,7.77176328340204,-9.93036010108997,1.5558738,-0.043982297,-2.4107797,213.55606,-82.91374,0.9934,JOG
61575941000,3.469908,0.716745723862857,7.59233473938286,-10.3569219620571,1.5851953,0.12522738,-2.39337,213.91747,-84.005684,0.2209657,JOG
61580920000,3.474887,0.71129625104,9.54869730368,-10.0626499744,1.5757269,0.29535335,-2.3264804,213.95247,-84.994286,-0.56242895,JOG
61585973000,3.47994,0.810030405547286,11.6850285424233,-10.1014623143793,1.604743,0.655153,-2.205529,213.95853,-86.11342,-0.9785421,JOG
61590948000,3.484915,0.999152633640965,13.9213984218517,-10.4371541050908,1.7559321,1.1863003,-2.0528126,213.84048,-87.1187,-1.3646879,JOG
61595946000,3.489913,1.30396524509395,15.5920812129436,-10.2771132463466,2.0066924,1.7079792,-1.8976529,213.60593,-87.83331,-1.7219671,JOG
61600918000,3.494885,1.71579364736057,16.7092252077741,-9.64753665026345,2.359467,2.0971005,-1.7073684,213.237,-87.98169,-2.0178025,JOG
61605941000,3.499908,2.70081474136609,17.5539943858477,-8.19691102093366,2.7849348,2.0497584,-1.3833044,212.84369,-92.54553,-2.1781769,JOG
61610948000,3.504915,4.25598441415233,18.1100848461916,-5.93013312334152,3.2217033,1.4932601,-0.89919364,212.4756,-93.533424,-2.2368987,JOG
61615902000,3.509869,5.11958193982752,18.5330954782438,-4.29478691924735,3.425427,1.1420126,-0.56413406,212.06392,-94.608696,-2.1813252,JOG
61620978000,3.514945,5.19580625793806,18.8141722626421,-3.34675039827519,3.4959817,0.9691377,-0.453262,211.75992,-95.79666,-2.0613124,JOG
61625882000,3.519849,5.1435521273566,18.8826283774569,-2.67313902366627,3.6435058,0.8491027,-0.3576616,211.56909,-96.65732,-1.6145098,JOG
61630946000,3.524913,4.91011310256719,18.6637784665062,-2.32298068961091,3.8585303,0.7476991,-0.23976462,211.42572,-97.59247,-1.1593741,JOG
61635904000,3.529871,4.1340259682376,18.1240566278841,-1.14793808767796,4.0698895,0.6606508,-0.1695151,211.31207,-98.43026,-0.6891074,JOG
61640948000,3.534915,2.59261606728522,17.1280689326461,1.19026216756014,4.189314,0.5128214,-0.18295415,211.24644,-99.31321,-0.24153666,JOG
61645869000,3.539836,1.37951550944929,16.7626327434628,3.00945276923534,4.235434,0.22876903,-0.30176744,211.23703,-100.18948,0.14084716,JOG
61650922000,3.544889,0.612612099950475,17.3857418168582,4.11666952259311,4.2702537,-0.16829337,-0.49357912,211.29742,-101.08596,0.46527928,JOG
61655878000,3.549845,0.0567373638041206,17.9326662478352,4.78521496407883,4.2497897,-0.473726,-0.7266242,211.3842,-101.547516,0.6371938,JOG
61660950000,3.554917,-0.160821156653727,18.3774529328158,4.72236482198666,4.1325035,-0.5726862,-0.90316427,211.50874,-101.9893,0.7503782,JOG
61665902000,3.559869,-0.172824566804905,18.7337925391287,4.82071037121922,3.9770381,-0.5421429,-0.9654725,211.60748,-102.38009,0.668566,JOG
61670958000,3.564925,0.179551515978467,18.9558376839797,5.21170298340146,3.875329,-0.22021692,-0.98868537,211.63635,-102.751175,0.56316406,JOG
61675894000,3.569861,0.386086862241797,19.0090020553673,5.86871106386603,3.6581664,0.28893927,-0.9254609,211.59647,-103.043945,0.45895776,JOG
61681096000,3.575063,0.337864478337044,18.7486004390669,7.09355965331526,3.3121114,0.70005155,-0.86132,211.48695,-103.27315,0.3663926,JOG
61686324000,3.580291,0.242712316707079,18.1724111333594,8.38057862088385,2.855795,0.90102625,-0.7693848,211.27444,-103.491135,0.28811228,JOG
61691046000,3.585013,0.0791219544520923,17.1289700919046,9.63624521556511,2.463925,0.8228355,-0.68386364,211.03087,-103.628685,0.23485419,JOG
61696009000,3.589976,-0.0550075953584401,15.8962133210667,10.7179554850889,2.1612413,0.5216789,-0.63132924,210.77042,-103.66325,0.13132843,JOG
61701040000,3.595007,-0.0826395516084878,14.2567175618429,11.1324349634869,1.8936822,0.13133603,-0.61300325,210.5647,-103.599464,0.032239344,JOG
61706038000,3.600005,-0.0749275398754212,12.603671853671,11.4197846419892,1.6328428,-0.21319197,-0.6197228,210.41841,-103.40995,-0.12671037,JOG
61711046000,3.605013,0.10138037603186,10.8307984314306,11.1112457150005,1.3536774,-0.5161811,-0.627664,210.37761,-103.1434,-0.30016595,JOG
61716018000,3.609985,0.274182925716419,9.21724388892,10.7287459551013,1.073901,-0.8170323,-0.6429357,210.43298,-102.82341,-0.5148657,JOG
61721947000,3.615914,0.470289794748436,7.94519915952581,9.93371813758984,0.7806858,-1.0384709,-0.71593404,210.55486,-102.422386,-0.7575463,JOG
61726033000,3.62,0.647664809751225,7.10435799114398,9.4036059060609,0.4474588,-1.0732902,-0.77732605,210.71487,-102.006256,-0.9927769,JOG
61731046000,3.625013,1.4131452198444,6.53716460758813,8.98397528873307,0.09315695,-0.99021256,-0.7672467,210.91156,-101.4992,-1.2303227,JOG
61736391000,3.630358,2.24260569418133,5.93809966901218,8.54818846278755,-0.27152961,-0.90377516,-0.66889745,211.12679,-100.99064,-1.4403387,JOG
61741033000,3.635,3.15698212214705,5.50096359686062,8.33964603698692,-0.54336464,-0.8371908,-0.48441613,211.33565,-100.40128,-1.615225,JOG
61745945000,3.639912,4.12454287487596,5.03840168682003,8.11897382769508,-0.7275405,-0.8341365,-0.28130344,211.54195,-99.77281,-1.6540523,JOG
61750990000,3.644957,5.14000322157207,4.54845648761459,7.64334134503608,-0.89827734,-0.9334021,-0.0711658,211.77098,-99.055626,-1.6347355,JOG
61755976000,3.649943,6.15051040530525,4.05950138773162,7.09384903783889,-1.1129965,-1.0549643,0.1255328,212.01575,-98.25822,-1.5566106,JOG
61761008000,3.654975,6.70223951499405,3.58463184036227,5.84585416774312,-1.3616186,-1.1016954,0.35338554,212.2683,-97.40327,-1.2605377,JOG
61766008000,3.659975,7.06144649514226,3.12029120364102,4.32579571014546,-1.6310102,-1.1594223,0.46670106,212.55951,-96.47635,-0.93895227,JOG
61771015000,3.664982,6.9239026366567,2.61689109743809,2.74224627869342,-1.724778,-1.1050552,0.66981375,212.83282,-95.59274,-0.371237,JOG
61776014000,3.669981,6.34642459217549,2.08029647369769,1.10691040958582,-1.8787161,-0.95814216,0.8026769,213.092,-94.66234,0.21729273,JOG
61781007000,3.674974,5.55588285407324,1.65278468783632,0.0179726063714499,-2.0134118,-0.7715228,0.82436264,213.32382,-94.03306,0.90937537,JOG
61786011000,3.679978,4.65151877896114,1.28118958323991,-0.78789639598281,-2.1707096,-0.4859433,0.7620544,213.48312,-93.546104,1.627209,JOG
61791686000,3.685653,3.5791531728098,0.933629504509183,-1.20754197739075,-2.3338106,-0.10293079,0.68416905,213.57005,-93.41708,2.2886107,JOG
61796010000,3.689977,2.73556532750686,0.710712489537682,-1.24688024515516,-2.4645357,0.31795537,0.600786,213.56352,-93.49351,2.9397964,JOG
61800987000,3.694954,1.78688044986269,0.575307229917615,-1.07320349101608,-2.584571,0.68019843,0.50732356,213.47372,-93.67339,3.4278083,JOG
61806015000,3.699982,0.842349509183994,0.513912721510396,-0.761508288038447,-2.7128525,0.9502009,0.40775254,213.29146,-93.9592,3.8944314,JOG
61811008000,3.704975,-0.0221750751772065,0.557464656775539,-0.471879006205698,-2.856406,1.151481,0.32406402,213.02513,-94.18711,4.186217,JOG
61815992000,3.709959,-0.832456818999305,0.675926885267547,-0.197046622250174,-2.9620855,1.3075571,0.25473082,212.69682,-85.51313,4.4511657,JOG
61821023000,3.71499,-1.61400627837838,0.973469447490347,0.212205762957529,-3.0246992,1.3906348,0.20677789,212.25798,-85.49724,4.395388,JOG
61826116000,3.720083,-2.3769405019404,1.41288094280764,0.728876421533116,-3.0634892,1.3881912,0.17562376,211.81244,-85.460236,4.3153815,JOG
61831014000,3.724981,-2.88475852115604,2.04464735472665,0.963030800118641,-3.0912836,1.2916746,0.14508049,211.39418,-85.453674,4.0932727,JOG
61836011000,3.729978,-3.22087207932802,2.85767888986333,0.990283255267654,-3.1227431,1.1102476,0.08857546,211.0046,-85.38636,3.845752,JOG
61840981000,3.734948,-3.37063242517013,3.93101191802927,0.844915041045959,-3.1370986,0.8698721,0.056505036,210.66621,-85.09367,3.537775,JOG
61846015000,3.739982,-3.28074772014543,5.36467240472639,0.47189364659271,-3.1676416,0.6563747,0.079107046,210.37032,-84.66634,3.2205737,JOG
61850984000,3.744951,-3.20771923947478,6.94213891288037,0.0709019049604002,-3.1975741,0.49266282,0.15668693,210.11662,-84.25184,2.7937837,JOG
61856000000,3.749967,-3.17267754501876,8.93451361025427,-0.414676925177157,-3.2330043,0.5180137,0.2929099,209.86224,-83.73609,2.3832772,JOG
61861596000,3.755563,-3.31655932202031,11.1916728514164,-0.78751447434527,-3.287066,0.79504114,0.40622538,209.57759,-83.41907,1.9028817,JOG
61866013000,3.75998,-3.61423966505434,13.0078998919473,-0.911861955923748,-3.2895093,1.0118983,0.42913285,209.2934,-83.05201,1.4417713,JOG
61871118000,3.765085,-4.0491513788706,14.9832400825172,-0.930951798270473,-3.3035593,1.41904,0.37110063,208.89822,-82.58885,1.0538645,JOG
61875916000,3.769883,-4.94918369397791,16.1705171300271,-0.275077245759533,-3.3432655,1.5170839,0.17287487,208.53275,-82.10216,0.64000124,JOG
61880900000,3.774867,-5.50881845847292,17.2688937329366,0.37900719918996,-3.3481524,1.1154399,-0.089491755,208.20268,-81.62844,0.16348335,JOG
61885920000,3.779887,-4.44629518350918,17.7905397322366,0.919884424651232,-3.2082644,0.17104226,-0.35888332,208.00853,-81.1606,-0.33375135,JOG
61895911000,3.789878,-2.33161987670383,18.8287399670984,1.99635939667983,-2.9633074,-1.5787812,0.09682214,208.00893,-79.99636,-1.4254631,JOG
61900907000,3.794874,-1.24961596513384,19.2378098748897,2.17792124185116,-2.8344147,-2.1044307,0.66828656,208.26958,-79.25708,-1.9966011,JOG
61905974000,3.799941,-0.0458708237131092,19.1759575985881,0.817165787694872,-2.6786442,-2.5149322,0.99021256,208.67007,-78.577805,-2.4213946,JOG
61910926000,3.804893,0.951709944371445,19.101804989998,-0.466568361894489,-2.5170703,-2.7186558,1.2052372,209.2345,-78.11864,-2.140765,JOG
61915911000,3.809878,0.975116689738184,18.9520017805452,-1.50582754333203,-2.381458,-2.5674667,1.3594806,209.78531,-77.71371,-1.7863001,JOG
61921041000,3.815008,0.953431636052683,18.828097871437,-2.5027913061726,-2.3151793,-2.053118,1.4428637,210.31197,-77.58853,-1.2425301,JOG
61925941000,3.819908,0.649014565480637,18.8972835211323,-3.00554064959701,-2.3875668,-1.4758505,1.4416419,210.76337,-77.4413,-0.7091498,JOG
61930909000,3.824876,0.361071627904697,18.9506898656731,-3.44257229061673,-2.5164595,-0.8142834,1.382388,211.10066,-77.25003,-0.1403349,JOG
61935971000,3.829938,0.323046096331013,18.7985876599667,-2.99101905975096,-2.669481,-0.089186326,1.3176364,211.25702,-77.01144,0.3695175,JOG
61941080000,3.835047,0.313135432790698,18.6430442271992,-2.56590423473205,-2.8264735,0.44257188,1.2617421,211.30023,-76.72239,0.81029993,JOG
61945941000,3.839908,0.670872249302326,18.4688823138524,-2.5564901635996,-2.9019153,0.6078109,1.1588113,211.25156,-76.40716,1.1837006,JOG
61950964000,3.844931,1.02793498168189,18.2894676349285,-2.54382208498809,-2.824641,0.6957755,1.0384709,211.07454,-76.024124,1.4907614,JOG
61955947000,3.849914,1.21271735623511,18.1188993272438,-2.49170402120731,-2.6887233,0.77121735,0.93676186,210.86235,-75.64196,1.7525482,JOG
61961053000,3.85502,1.37866567674893,17.9339961575431,-2.44015577112637,-2.5240953,0.89369583,0.8249735,210.64192,-75.27086,2.0179152,JOG
61965926000,3.859893,1.24443844414548,17.6309030628131,-2.41417636946558,-2.3402247,0.9370673,0.7666359,210.42796,-74.949234,2.2595441,JOG
61971025000,3.864992,1.10398602078308,17.3137531161626,-2.38699209508258,-2.2467623,0.9682214,0.6603453,210.20914,-74.62759,2.474345,JOG
61975984000,3.869951,0.854539560499848,16.6755239597684,-2.30994571654983,-2.1044307,1.0201449,0.5766568,209.97768,-74.37673,2.6657088,JOG
61980948000,3.874915,0.593732826130245,16.0041877179722,-2.22783985540994,-2.007914,1.0219775,0.5213735,209.7595,-74.14632,2.8291893,JOG
61986014000,3.879981,0.0845846792488443,15.2697942864022,-2.43430735263868,-1.8875736,1.0525209,0.50823987,209.52039,-73.93463,2.9615018,JOG
61990924000,3.884891,-0.427115973428351,14.5543192430663,-2.65619523640216,-1.711339,1.0940597,0.5207626,209.2822,-73.77117,3.07925,JOG
61995977000,3.889944,-0.888588278898771,13.58146292855,-3.12945774170081,-1.525636,1.1939361,0.5644395,209.00479,-73.607155,3.1661394,JOG
62000936000,3.894903,-1.3299491701389,12.5848416923154,-3.63726008503048,-1.320996,1.3582588,0.64476824,208.697,-73.499374,3.2544696,JOG
62005987000,3.899954,-1.73400946533177,11.427306018708,-4.01561859543993,-1.1233811,1.5858061,0.6918049,208.31834,-73.438774,3.2711575,JOG
62010954000,3.904921,-2.12334129689175,10.2639451323687,-4.36323624169346,-0.9468411,1.8112154,0.71837753,207.89368,-73.43003,3.289182,JOG
62015966000,3.909933,-2.41460535993999,8.96362523968492,-4.24367489084771,-0.77304995,1.9886718,0.7473936,207.40387,-73.49405,3.260044,JOG
62021061000,3.915028,-2.68456362916354,7.60925799685859,-4.00116994743999,-0.57940567,2.0683897,0.7623598,206.8817,-73.616196,3.2233925,JOG
62026008000,3.919975,-2.97945426152983,6.06986869710118,-3.41222321449411,-0.3539964,1.9620992,0.72265357,206.34822,-73.80077,3.1353242,JOG
62030999000,3.924966,-3.29232592887601,4.41164913085843,-2.65239209570787,-0.115453534,1.7058412,0.6407976,205.84007,-74.04884,3.0447276,JOG
62036005000,3.929972,-3.48166516929117,2.66927475508913,-1.88431387622029,0.14477506,1.3729197,0.48380527,205.36362,-74.303734,2.8956516,JOG
62041012000,3.934979,-3.56307620526316,0.857880272631579,-1.11090956578947,0.3912592,1.0564915,0.32406402,204.96289,-74.62947,2.740458,JOG
62046006000,3.939973,-3.62574102649007,-0.674948634930765,-0.413843751137869,0.61453044,0.64568454,0.13408493,204.65405,-74.87484,2.504026,JOG
62050988000,3.944955,-3.67840285607064,-2.05851945099739,0.242035859000602,0.8350528,0.13347405,-0.065973446,204.47528,-75.19541,2.2488117,JOG
62056017000,3.949984,-3.68720308160828,-3.21784511728702,0.714815988843551,1.0720685,-0.1563815,-0.2406809,204.40079,-75.3273,1.9611455,JOG
62060997000,3.954964,-3.67296369148089,-4.24308194989053,1.08504041961584,1.3286319,-0.73639804,-0.31215215,204.55313,-75.52142,1.7045645,JOG
62065992000,3.959959,-3.68582844412276,-5.01840752653928,1.15057914254005,1.4688255,-1.3084733,-0.45020768,204.67238,-75.78736,1.3430748,JOG
62071087000,3.965054,-3.71408194499131,-5.66823853821656,1.04698287434858,1.738828,-1.820073,-0.59223384,204.94206,-76.15499,0.99109274,JOG
62076012000,3.969979,-3.6159760190243,-6.02181641729139,0.497627758730458,2.0112739,-2.1951442,-0.70157874,205.32298,-76.48157,0.6255289,JOG
62081041000,3.975008,-3.42546993989452,-6.18510745051799,-0.386864927434545,2.282498,-2.3890939,-0.8081747,205.80705,-76.87275,0.23629022,JOG
62086005000,3.979972,-2.99797163866824,-6.25155499756791,-1.25722989374326,2.5644124,-2.4541512,-0.8885035,206.36372,-77.3232,-0.17375857,JOG
62091012000,3.984979,-2.27849392360498,-6.20453034561145,-2.13188905846818,2.8179214,-2.5002716,-0.91813046,206.97493,-77.82468,-0.5974867,JOG
62096006000,3.989973,-1.4213779240817,-5.87978946052715,-3.02567559426651,2.9959886,-2.4538457,-0.915687,207.60902,-78.49689,-0.99963,JOG
62100982000,3.994949,-0.370513706486401,-5.16420084416675,-3.94643274272813,3.1187725,-2.3194554,-0.8668178,208.23088,-79.206245,-1.411352,JOG
62106014000,3.999981,0.639783483157734,-4.17877879985707,-4.55753527622256,3.2146783,-2.1270328,-0.7626653,208.87021,-80.102325,-1.6836284,JOG
62111013000,4.00498,1.59287373049923,-2.94709297598775,-4.85568150539051,3.257439,-1.8903224,-0.5842926,209.45213,-81.00952,-1.941841,JOG
62116575000,4.010542,2.40465791139681,-1.58329571804737,-4.46427038908652,3.2421672,-1.582141,-0.3454443,210.01308,-82.12177,-1.9783933,JOG
62121013000,4.01498,2.91821357600773,-0.498666064127598,-3.76172628039633,3.150232,-1.3185526,-0.12461651,210.51302,-83.23164,-1.9852647,JOG
62126001000,4.019968,3.45926657385326,1.26464739505942,-2.12878850819173,2.955977,-0.98868537,0.059253927,210.95374,-84.43372,-1.7621336,JOG
62131002000,4.024969,3.96261769050192,3.62145900297613,0.420895965769571,2.5689938,-0.56291234,0.34666604,211.28653,-85.5923,-1.4582715,JOG
62136013000,4.02998,4.57676359324877,6.27556126871931,3.46187646556874,1.7767016,-0.20799962,0.75594574,211.5737,-86.50841,-0.93877125,JOG
62141013000,4.03498,5.3261761341653,9.28790604163257,7.10118042424304,0.44868052,0.27947086,1.1407908,211.7043,-87.15004,-0.35197037,JOG
62146006000,4.039973,6.06674395550096,11.4494196824663,9.2455513194605,-0.86926126,1.0564915,1.4123205,211.67831,-86.85092,0.47429553,JOG
62151038000,4.045005,6.80492201846821,12.7400704786127,9.84445045780347,-1.6245961,1.7003434,1.5974126,211.54185,-86.13667,1.3625693,JOG
62155965000,4.049932,7.29313341425497,12.8349224983857,10.4478920025438,-1.6698002,1.7547104,1.6197093,211.27261,-84.68444,2.303909,JOG
62161002000,4.054969,7.44887793720771,11.2208412034048,11.0897490128168,-1.4086553,1.2687671,1.5066991,210.9473,-83.15833,3.2059233,JOG
62165993000,4.05996,7.32544873783494,9.50331785610932,11.5705632947481,-0.6826419,0.24678956,1.4016303,210.7543,-81.70907,4.1846843,JOG
62171031000,4.064998,6.71782453947839,7.56409149008574,11.7860327409789,-0.17745635,-0.93492925,1.2867876,210.72864,-80.35874,5.098088,JOG
62175978000,4.069945,5.98588805137829,5.74584650212044,11.8649077385496,0.09682214,-1.9294178,1.1930199,210.87723,-79.13377,6.000243,JOG
62181002000,4.074969,4.2872110644402,4.50627144529262,11.0079178454198,0.26328292,-2.5393667,1.1304061,211.23631,-78.05199,6.887482,JOG
62186746000,4.080713,1.68231851668617,4.36534059769598,7.72769621614616,0.34300083,-2.8365529,1.105666,211.72954,-77.033394,7.689265,JOG
62191010000,4.084977,-1.20273869069391,6.09269962352624,1.99065890544505,0.2519819,-2.8344147,1.1206323,212.29352,-76.033714,8.49326,JOG
62196327000,4.090294,-4.62798643563305,8.30592663874147,-4.61215080492798,-0.082161374,-2.123673,1.0812315,212.7222,-75.20922,9.02065,JOG
62201028000,4.094995,-5.9164825989765,10.8615861731425,-4.88520976209249,-0.623388,-0.5748242,1.1007792,212.89432,-74.309814,9.515282,JOG
62205949000,4.099916,-7.26527851895375,13.5368468769901,-5.17104748347233,-1.1551461,1.0549643,1.1933253,213.07361,-74.52009,9.453656,JOG
62211008000,4.104975,-7.45900735871003,15.0086542207828,-3.13521385008269,-1.6578883,1.8142698,1.235475,213.06046,-74.61874,9.343551,JOG
62215992000,4.109959,-7.52040315011025,16.3198926926681,-0.876727483967291,-2.3930645,1.9361374,1.2577715,212.75906,-74.53073,9.193593,JOG
62221037000,4.115004,-7.00593784563416,17.2381246277884,0.119749749713193,-2.7317894,1.690875,1.1090258,212.35727,-74.67003,8.699983,JOG
62226035000,4.120002,-6.28903245570427,18.0007889534735,0.643446656214149,-2.014939,0.68294734,0.52015173,212.15083,-74.9261,8.148204,JOG
62231002000,4.124969,-5.10438665876259,15.3396998858513,-1.46964241697842,-1.0100657,-0.7678576,-0.20097467,212.05904,-74.941696,7.499907,JOG
62235964000,4.129931,-3.84174171683453,12.1078767002398,-4.02228155971223,-0.6435465,-1.2568552,-0.7892379,212.00064,-74.99296,6.763357,JOG
62241008000,4.134975,-2.62151477583408,8.91389165193868,-6.52826486474301,-0.65576386,-1.0537425,-1.2550226,212.18889,-75.157814,6.037307,JOG
62245943000,4.13991,-1.4471973847911,5.81710276104599,-8.95266260144274,-0.4370741,-0.7993172,-1.6077974,212.52074,-75.48439,5.2452693,JOG
62250983000,4.14495,-0.640200378923384,4.2978068214184,-10.2232921523782,0.025045475,-0.5992588,-1.9098701,212.94966,-76.07949,4.618374,JOG
62256285000,4.150252,0.0780810364758378,3.24689837292319,-11.1585039438906,0.44501534,-0.0027488936,-2.0922134,213.19672,-76.71523,3.8936584,JOG
62261005000,4.154972,0.280904293540098,3.44388520255947,-11.326266124059,0.73426,0.13194689,-2.117259,213.62508,-77.542984,3.4488518,JOG
62265997000,4.159964,0.30009827549734,4.15886120834086,-11.2063032984041,0.8622363,0.3555236,-2.0415115,213.84654,-78.423195,2.9480228,JOG
62271029000,4.164996,-0.259519816970344,5.8210518146789,-10.8007413746533,1.1319333,0.47800204,-1.8805487,214.09215,-79.32479,2.685377,JOG
62275995000,4.169962,-1.09156390968637,7.91638261926605,-10.2629570556859,1.4080443,0.3417791,-1.8274034,214.3387,-80.23436,2.42775,JOG
62281009000,4.174976,-1.64581849735683,10.3959404207048,-10.0288572731278,1.7440202,0.1554652,-1.8686367,214.55002,-81.20608,2.19176,JOG
62286040000,4.180007,-2.12780445787445,12.9783239549835,-9.87409122797357,1.9715676,0.05681047,-1.8585575,214.76479,-82.18529,1.9988726,JOG
62291014000,4.184981,-2.3554546411212,14.8674136760278,-9.51258324324613,2.1255057,0.08246681,-1.7675385,214.93327,-83.42106,1.5595623,JOG
62296008000,4.189975,-2.43205892161239,16.3586436731447,-9.02231589076348,2.3142629,0.28221974,-1.6526959,215.063,-84.701256,1.136659,JOG
62300990000,4.194957,-1.32181077005374,17.2462665703957,-7.8085910197362,2.6105325,0.5900958,-1.5121969,215.1127,-86.06017,0.64271367,JOG
62306020000,4.199987,0.212518118075232,17.933419121446,-6.33074065236932,2.908024,0.9007208,-1.3078625,215.08571,-87.413666,0.20967875,JOG
62311011000,4.204978,1.76636881372733,18.3677200428451,-4.77804180146575,3.119078,1.0467176,-1.0216721,214.98734,-88.68757,-0.16641438,JOG
62316003000,4.20997,3.33404607164333,18.6956301373673,-3.18790499943625,3.1395419,1.0451905,-0.75136423,214.83298,-89.522095,-0.47677827,JOG
62321026000,4.214993,4.20788520758274,18.9179575974026,-2.10052830645161,3.0085113,0.9969321,-0.5888741,214.68292,-91.14096,-0.5076706,JOG
62326027000,4.219994,4.5489792820486,19.0584077597403,-1.40329211290323,2.8927524,0.96577793,-0.4981606,214.5276,-92.10953,-0.48342946,JOG
62331006000,4.224973,4.31637173143497,18.6786764776398,-1.02405584232098,2.8249464,1.0430524,-0.4175264,214.42108,-92.747154,-0.15389799,JOG
62336018000,4.229985,3.78758097792923,18.0288913367566,-0.804473248426851,2.7782152,1.1939361,-0.33078352,214.30515,-93.38886,0.18424127,JOG
62341013000,4.23498,3.11174748500159,17.2530512877074,-0.376637459401754,2.7476718,1.2791518,-0.25442538,214.2172,-93.90633,0.5874561,JOG
