timestamp,rel_time,acc_x,acc_y,acc_z,gyro_x,gyro_y,gyro_z,azimuth,pitch,roll,label
2118044670000,0,-2.43933789800163,-9.39230955538075,-1.05206150823592,0.008552114,-0.07147124,-0.007941248,238.6644,95.257805,-3.2170253,STD
2118049616000,0.004946,-2.43438576671877,-9.39348863308507,-1.04380795691861,0.014049901,-0.06566802,0.010995574,238.4397,95.33153,-3.283162,STD
2118054610000,0.00994,-2.42938557593297,-9.39467915351681,-1.03547430643769,0.015577064,-0.051923547,0.009468411,238.22003,95.40616,-3.3478312,STD
2118059595000,0.014925,-2.42439439630397,-9.39586752843715,-1.02715567454994,0.026572637,-0.03970624,0.014966198,238.00397,95.48206,-3.418979,STD
2118064618000,0.019948,-2.41936516956846,-9.39706496218337,-1.01877363082434,0.040011674,-0.028710667,0.024129177,237.79337,95.557526,-3.4896479,STD
2118069642000,0.024972,-2.41433494159332,-9.39826263431974,-1.01038991836616,0.040317107,-0.027794369,0.027183503,237.58511,95.63336,-3.559246,STD
2118074602000,0.029932,-2.40936879295543,-9.39944504948622,-1.0021130047928,0.042455133,-0.024129177,0.03604105,237.38284,95.70853,-3.6318913,STD
2118079643000,0.034973,-2.40432154390632,-9.40064677425522,-0.993700923880835,0.030543262,-0.02443461,0.03848451,237.18134,95.78609,-3.702727,STD
2118084611000,0.039941,-2.39934738535128,-9.40183109654293,-0.98541066044687,0.036651913,-0.027794369,0.048563786,236.98206,95.862175,-3.7772908,STD
2118089803000,0.045133,-2.39414894911582,-9.40306881822527,-0.976746600916043,0.03268129,-0.02565634,0.03390302,236.7854,95.9388,-3.8444455,STD
2118094614000,0.049944,-2.389331985185,-9.40421571325872,-0.968718328496396,0.025045475,-0.046731193,0.03726278,236.5834,96.01989,-3.919237,STD
2118099620000,0.05495,-2.38431977952346,-9.40540909437231,-0.96036465322457,0.0106901415,-0.06169739,0.03848451,236.38504,96.1,-3.988217,STD
2118104613000,0.059943,-2.3793205899773,-9.40659937641389,-0.952032671476223,0.0061086523,-0.06505715,0.03726278,236.18567,96.1796,-4.056857,STD
2118109597000,0.064927,-2.37433041158794,-9.40778751294408,-0.943715708321053,-0.0070249503,-0.079107046,0.0421497,235.98083,96.265274,-4.127437,STD
2118114622000,0.069952,-2.36929918237315,-9.40898542347061,-0.935330327130297,-0.016798794,-0.086132,0.03848451,235.7785,96.34907,-4.194424,STD
2118119614000,0.074944,-2.36430099406663,-9.41017546712203,-0.927000014114525,-0.015271631,-0.093462385,0.032986723,235.57387,96.43347,-4.261927,STD
2118124599000,0.079929,-2.35930981443763,-9.41136384204238,-0.91868138222678,-0.022296581,-0.09162979,0.0290161,235.37149,96.52103,-4.328137,STD
2118129625000,0.084955,-2.35427758398319,-9.41256199095906,-0.910294332303449,-0.03268129,-0.093462385,0.018325957,235.16742,96.60631,-4.390553,STD
2118135439000,0.090769,-2.3484563766887,-9.41394799131751,-0.900592321110801,-0.029932396,-0.09285152,0.021991149,234.96655,96.69191,-4.4553127,STD
2118139613000,0.094943,-2.34427720241158,-9.41494303182253,-0.893627031341604,-0.025350908,-0.08582657,0.018936822,234.76825,96.77566,-4.514592,STD
2118144619000,0.099949,-2.33926499675004,-9.41613641293612,-0.885273356069779,-0.028099801,-0.077579886,0.02076942,234.57242,96.86166,-4.575837,STD
2118149619000,0.104949,-2.33425879852637,-9.41732836370878,-0.876929693193405,-0.02687807,-0.07574729,0.01740966,234.37822,96.94389,-4.634301,STD
2118154614000,0.109944,-2.32925760650092,-9.41851912253067,-0.868594373979907,-0.0290161,-0.06872234,0.017104227,234.1896,97.02798,-4.6934066,STD
2118159610000,0.11494,-2.32425541323582,-9.41971011974271,-0.860257386033834,-0.024740042,-0.060170226,0.015577064,234.00348,97.10917,-4.7507296,STD
2118164624000,0.119954,-2.31923519765712,-9.42090540797754,-0.851890360901406,-0.01863139,-0.055283304,0.016187929,233.81992,97.190384,-4.80811,STD
2118169612000,0.124942,-2.31424101430918,-9.42209449806834,-0.843566722815935,-0.019242255,-0.041233405,0.019547688,233.64304,97.27195,-4.8649983,STD
2118174596000,0.129926,-2.30925083591983,-9.42328263459853,-0.835249759660766,-0.015271631,-0.04062254,0.012217305,233.46497,97.3489,-4.918852,STD
2118179641000,0.134971,-2.2972665067465,-9.43942054178844,-0.806413761159655,-0.032986723,-0.03359759,0.02565634,233.29486,97.43479,-4.978621,STD
2118184632000,0.139962,-2.2831776281001,-9.4601956668715,-0.771310955523249,-0.025045475,-0.027488936,0.020158553,233.12544,97.50895,-5.0305567,STD
2118189603000,0.144933,-2.26914520659113,-9.48088754160359,-0.736348814305341,-0.02107485,-0.03176499,0.020158553,233.03192,97.5713,-5.059895,STD
2118194603000,0.149933,-2.25503092223288,-9.50170012934458,-0.70118270968061,-0.018325957,-0.031154128,0.019242255,232.94177,97.63045,-5.086987,STD
2118199619000,0.154949,-2.24087147216469,-9.52257931736635,-0.66590407352108,-0.023823744,-0.025350908,0.015882496,232.85223,97.689545,-5.1132317,STD
2118204613000,0.159943,-2.22677412494767,-9.54336693000205,-0.630780168221899,-0.02076942,-0.01740966,0.017104227,232.764,97.74644,-5.140328,STD
2118209606000,0.164936,-2.21267960058752,-9.5641503801202,-0.595663296143643,-0.025961773,-0.01863139,0.01740966,232.67511,97.80496,-5.166224,STD
2118214625000,0.169955,-2.19851168194871,-9.58504205569461,-0.560363560321338,-0.026572637,-0.004581489,0.010079277,232.59305,97.86013,-5.1895094,STD
2118219614000,0.174944,-2.18442844901605,-9.60580885574257,-0.525274821126782,-0.025961773,0.004276057,0.00580322,232.50963,97.916275,-5.2138505,STD
2118224592000,0.179922,-2.17037626750898,-9.6265298680975,-0.4902634473624,-0.03390302,0.013133603,0.0076358155,232.43054,97.97366,-5.2373705,STD
2118229730000,0.18506,-2.15587242890244,-9.64791688326014,-0.454126758250026,-0.028405234,0.019547688,0.004581489,232.35336,98.02581,-5.25807,STD
2118234636000,0.189966,-2.14202349309013,-9.6683381943516,-0.41962177639224,-0.034513887,0.016187929,0.0067195175,232.27643,98.082954,-5.280769,STD
2118239605000,0.194935,-2.1279967172949,-9.6890217440486,-0.384673701616183,-0.03176499,0.01740966,-0.0027488936,232.20245,98.133736,-5.2989407,STD
2118244609000,0.199939,-2.11387114150917,-9.70985098185978,-0.349479464107752,-0.022296581,0.03726278,-0.010995574,232.13327,98.18449,-5.317564,STD
2118249619000,0.204949,-2.09972862858221,-9.73070519477626,-0.314243027273772,-0.028099801,0.04428773,-0.006414085,232.06116,98.2381,-5.3375354,STD
2118254619000,0.209949,-2.08561434422396,-9.75151778251725,-0.279076922649041,-0.008552114,0.051923547,-0.020463986,231.99434,98.27872,-5.349297,STD
2118259604000,0.214934,-2.07154240271878,-9.77226793249502,-0.244016316338184,-0.004276057,0.050396383,-0.014049901,231.92792,98.32809,-5.368288,STD
2118264623000,0.219953,-2.05737448407997,-9.79315960806942,-0.20871658051588,0.004886922,0.04886922,-0.004886922,231.86362,98.369675,-5.3839397,STD
2118269611000,0.224941,-2.04329407400419,-9.81392224559984,-0.173634874542248,0.03573562,0.03756821,-0.0143553335,231.79596,98.402954,-5.396544,STD
2118275501000,0.230831,-2.02666744703017,-9.83843947395872,-0.132209203294315,0.044898596,0.028405234,-0.01740966,231.72926,98.44149,-5.41353,STD
2118279668000,0.234998,-2.01490460244601,-9.85578468458207,-0.102901771700064,0.05375614,0.017104227,-0.025961773,231.65868,98.47041,-5.4267163,STD
2118284632000,0.239962,-2.00089194093514,-9.87644742169132,-0.0679888630286317,0.06841691,-0.00061086525,-0.025350908,231.5843,98.497086,-5.442179,STD
2118289606000,0.244936,-1.98685105085555,-9.89715178397606,-0.0330056221479494,0.06994407,0.0015271631,-0.039095376,231.51215,98.52051,-5.4509363,STD
2118294622000,0.249952,-1.97269160078736,-9.91803097199782,0.00227301401158064,0.07269296,0.0021380284,-0.036651913,231.43568,98.54364,-5.4651723,STD
2118299626000,0.254956,-1.95856602500162,-9.93886020980901,0.0374672515200111,0.08246681,0.009162978,-0.057421334,231.36107,98.558266,-5.468776,STD
2118304616000,0.259946,-1.94447996921209,-9.95963117237451,0.0725630239354925,0.093462385,0.024740042,-0.064751714,231.29025,98.575096,-5.47675,STD
2118309603000,0.264933,-1.93040238199318,-9.98038964738738,0.107637696688199,0.10873401,0.050396383,-0.06811147,231.22443,98.58604,-5.4796524,STD
2118314625000,0.269955,-1.91622599478375,-10.0012938105144,0.142958532173279,0.11759156,0.094989546,-0.076358154,231.16867,98.594055,-5.4782434,STD
2118319715000,0.275045,-1.90185765330705,-10.0224810248348,0.178757626681255,0.122478485,0.1432479,-0.08002335,231.1219,98.60015,-5.476503,STD
2118324608000,0.279938,-1.88804541463407,-10.0428482231981,0.213171176667016,0.13836098,0.18936823,-0.093462385,231.08707,98.5989,-5.4685464,STD
2118329639000,0.284969,-1.8738436217128,-10.0637898489831,0.248555311140421,0.14294247,0.23579398,-0.10445796,231.06633,98.5991,-5.4589405,STD
2118335404000,0.290734,-1.85756985184774,-10.0877867626484,0.289101829772735,0.14874569,0.28313604,-0.121256754,231.05852,98.59229,-5.442667,STD
2118339609000,0.294939,-1.84569973870246,-10.1052901489386,0.318676523762134,0.16187929,0.3210097,-0.14446963,231.06065,98.57996,-5.4206367,STD
2118345333000,0.300663,-1.82954170596914,-10.1291163993845,0.358934680336526,0.1731803,0.34697145,-0.16157386,231.07239,98.56509,-5.39491,STD
2118349619000,0.304949,-1.81744294141724,-10.1469569495961,0.389079065220845,0.18936823,0.3567453,-0.17562376,231.08939,98.54293,-5.3633866,STD
2118354601000,0.309931,-1.80337946848269,-10.1676946120212,0.424118571868927,0.20952678,0.37018433,-0.18967366,231.11398,98.51472,-5.3267736,STD
2118359603000,0.314933,-1.7892595384107,-10.1885155247973,0.459298742935508,0.20677789,0.39278635,-0.20219639,231.14331,98.486336,-5.286779,STD
2118364621000,0.319951,-1.77509444262876,-10.2094030378541,0.494591445536887,0.21319197,0.42302418,-0.20280726,231.17833,98.4517,-5.2463937,STD
2118369618000,0.324948,-1.76098862684112,-10.2302031380425,0.529736450498843,0.21868975,0.43493605,-0.20219639,231.21385,98.41653,-5.203608,STD
2118374599000,0.329929,-1.74692797676344,-10.2509366379501,0.564768923926,0.22479841,0.40011674,-0.1957823,231.24442,98.38132,-5.163778,STD
2118379622000,0.334952,-1.7382784014687,-10.265464434992,0.58888368429374,0.24984388,0.3753767,-0.18325958,231.28102,98.342384,-5.126038,STD
2118384613000,0.339943,-1.73180497733246,-10.2774522481942,0.608543712966493,0.26175576,0.30879238,-0.17440203,231.29549,98.30616,-5.0924397,STD
2118389603000,0.344933,-1.72533285021569,-10.2894376595104,0.628199802543138,0.26175576,0.23396139,-0.17470746,231.41414,98.12147,-4.9866705,STD
2118394604000,0.349934,-1.71884645588483,-10.301449491573,0.647899222176966,0.27580565,0.16249016,-0.16432275,231.51546,97.937904,-4.890513,STD
2118399626000,0.354956,-1.71233282414526,-10.3135117632424,0.667681362829053,0.28496864,0.102319926,-0.16218472,231.5987,97.75757,-4.795886,STD
2118404612000,0.359942,-1.70586588510634,-10.3254875670144,0.687321696021268,0.28008172,0.034513887,-0.16798794,231.65996,97.5814,-4.706187,STD
2118409591000,0.364921,-1.69940802520365,-10.3374465575843,0.70693445554073,0.2910773,-0.02107485,-0.17684549,231.7082,97.40327,-4.61936,STD
2118414730000,0.37006,-1.692742642187,-10.3497898499197,0.7271774704374,0.30024028,-0.054061573,-0.183565,231.74437,97.22986,-4.5345345,STD
2118419617000,0.374947,-1.68640410807484,-10.3615278669743,0.746427833114968,0.3005457,-0.07238753,-0.19639318,231.76952,97.05724,-4.4483404,STD
2118424617000,0.379947,-1.67991901076344,-10.3735372971509,0.766123313652689,0.2846632,-0.059253927,-0.2144137,231.79517,96.88801,-4.3605328,STD
2118429645000,0.384975,-1.6733975969071,-10.3856139801364,0.785929088881421,0.28099802,-0.006414085,-0.21563543,231.82832,96.72069,-4.2751184,STD
2118434628000,0.389958,-1.66693454892656,-10.3975825782504,0.805557604785313,0.26450464,0.058643065,-0.22968534,231.86917,96.55787,-4.18219,STD
2118439618000,0.394948,-1.66046242180979,-10.4095679895666,0.825213694361958,0.24770586,0.13897185,-0.23335053,231.93074,96.40113,-4.092034,STD
2118444630000,0.39996,-1.65396176026485,-10.4216062423756,0.84495644405297,0.22021692,0.21991149,-0.2443461,232.01129,96.24971,-3.9961076,STD
2118449616000,0.404946,-1.64749482122592,-10.4335820461477,0.864596777245185,0.20341812,0.2919936,-0.2501493,232.11276,96.10283,-3.9008203,STD
2118454617000,0.409947,-1.64100842689506,-10.4455938782103,0.884296196879013,0.1881465,0.36835176,-0.25503623,232.2384,95.96242,-3.8026025,STD
2118459600000,0.41493,-1.63454537891453,-10.4575624763242,0.903924712782905,0.18295415,0.43585235,-0.27000242,232.38156,95.82289,-3.7003288,STD
2118464596000,0.419926,-1.62806546968098,-10.4695622989567,0.923604436936196,0.1740966,0.48258355,-0.29352075,232.53976,95.68721,-3.5948734,STD
2118469616000,0.424946,-1.62155443198034,-10.4816197668539,0.943378699396067,0.16829337,0.5204572,-0.3173445,232.71365,95.55121,-3.4857013,STD
2118474602000,0.429932,-1.61508749294141,-10.493595570626,0.963019032588283,0.16523905,0.52687126,-0.34697145,232.89032,95.41326,-3.3699086,STD
2118479631000,0.434961,-1.60856478206561,-10.5056746554976,0.982828746913122,0.17715092,0.5103779,-0.3643811,233.07,95.27315,-3.252657,STD
2118484607000,0.439937,-1.60211081322131,-10.5176264404093,1.00242968914426,0.17715092,0.49632803,-0.39950588,233.25021,95.13014,-3.1240523,STD
2118489615000,0.444945,-1.59561533975421,-10.5296550856742,1.02215668245084,0.19792034,0.4437936,-0.4392121,233.41336,94.97823,-2.992744,STD
2118494626000,0.449956,-1.58911597522873,-10.5416909365971,1.04189549304575,0.22968534,0.40591997,-0.47800204,233.5752,94.820435,-2.8542974,STD
2118499613000,0.454943,-1.58264773917035,-10.5536691422552,1.06153976533407,0.2565634,0.35888332,-0.5216789,233.71802,94.65439,-2.7072356,STD
2118504614000,0.459944,-1.57616134483949,-10.5656809743178,1.0812391849679,0.29626966,0.31215215,-0.55833083,233.8493,94.47608,-2.5549567,STD
2118509610000,0.46494,-1.56968143560594,-10.5776807969502,1.10091890912119,0.34972036,0.28619036,-0.5867361,233.97246,94.28622,-2.3964589,STD
2118514624000,0.469954,-1.56317818002207,-10.5897238535313,1.12066953700441,0.39370266,0.27672195,-0.62980205,234.08643,94.085266,-2.2274623,STD
2118519614000,0.474944,-1.5567060529053,-10.6017092648475,1.14032562658106,0.4297437,0.2556471,-0.65393126,234.19016,93.876686,-2.0601556,STD
2118524600000,0.47993,-1.55023911386637,-10.6136850686196,1.15996595977327,0.48166725,0.2678644,-0.67103547,234.30089,93.653206,-1.8860993,STD
2118529637000,0.484967,-1.54370602683487,-10.6257833685795,1.17980718686697,0.50671273,0.28344148,-0.6951646,234.40701,93.4284,-1.7074873,STD
2118535418000,0.490748,-1.53620795732344,-10.6396686717496,1.20257910146469,0.52106804,0.2874121,-0.713796,234.51419,93.19769,-1.5295941,STD
2118539608000,0.494938,-1.53077344577648,-10.6497325742376,1.2190839141553,0.535118,0.301462,-0.72204274,234.62952,92.965126,-1.3515327,STD
2118544601000,0.499931,-1.52429742760132,-10.6617251912119,1.23875182102026,0.53786683,0.34697145,-0.7348709,234.75568,92.73546,-1.1705402,STD
2118549615000,0.504945,-1.51779417201746,-10.6737682477929,1.25850244890349,0.5500842,0.40622538,-0.7492262,234.89063,92.50578,-0.99059063,STD
2118554620000,0.50995,-1.51130258960875,-10.6857896873997,1.27821762492175,0.5519168,0.43279803,-0.7611381,235.02986,92.28482,-0.8116431,STD
2118559643000,0.514973,-1.50478766084972,-10.6978543609551,1.29800370466994,0.552833,0.43860126,-0.7693848,235.18051,92.06869,-0.6332943,STD
2118564650000,0.51998,-1.49829348440209,-10.7098806043339,1.31772675888042,0.54428095,0.43188173,-0.7666359,235.33556,91.86483,-0.45861274,STD
2118569642000,0.524972,-1.49181876324639,-10.7218708194222,1.33739072664928,0.5360342,0.42577308,-0.7684685,235.49265,91.67207,-0.28422406,STD
2118574567000,0.529897,-1.48543094239466,-10.7337001081461,1.35679077497893,0.52106804,0.41172317,-0.75533485,235.64594,91.49924,-0.118954666,STD
2118579689000,0.535019,-1.45438360245687,-10.7053715743873,1.36860245154395,0.51343226,0.3921755,-0.7495316,235.79602,91.34446,0.045012653,STD
2118584663000,0.539993,-1.41990509140179,-10.6706552989318,1.37858932884241,0.5149594,0.36193767,-0.7467828,235.93922,91.21362,0.20230888,STD
2118589644000,0.544974,-1.38537805811563,-10.6358901666351,1.38859026085359,0.5369505,0.32436943,-0.75686204,236.13394,91.044014,0.38883367,STD
2118594661000,0.549991,-1.35060148192678,-10.6008737705835,1.3986634742445,0.54000485,0.23671028,-0.77213365,236.30606,90.94296,0.57156825,STD
2118600109000,0.555439,-1.31283732265294,-10.5628491890231,1.40960205637598,0.58032197,0.09987647,-0.7819075,236.45386,90.91268,0.75129104,STD
2118604656000,0.559986,-1.28131866769367,-10.5311131808815,1.41873159619827,0.6059783,-0.07269296,-0.79045963,236.56708,90.976166,0.9307601,STD
2118609648000,0.564978,-1.24671538518724,-10.4962712735486,1.42875461418659,0.6261369,-0.18936823,-0.82802784,236.65843,91.11913,1.117237,STD
2118614647000,0.569977,-1.21206358044974,-10.4613805093745,1.43879168688764,0.6658431,-0.32803464,-0.86834496,236.69609,88.685974,1.3028429,STD
2118619641000,0.574971,-1.17744643444872,-10.4265246429441,1.44881872050816,0.6936375,-0.4914411,-0.9059132,236.69571,88.452,1.4944594,STD
2118624642000,0.579972,-1.14278076621662,-10.3916199196725,1.45885980884141,0.7012733,-0.6236934,-0.95203346,236.66765,88.18887,1.6960076,STD
2118629743000,0.585073,-1.10742192325483,-10.3560172415265,1.469101678785,0.7119634,-0.6994407,-1.0042624,236.61282,87.90524,1.9058458,STD
2118634719000,0.590049,-1.07292954870516,-10.3212870069735,1.47909257171567,0.70402217,-0.71929383,-1.0454959,236.54044,87.613525,2.1211743,STD
2118639643000,0.594973,-1.03879762501493,-10.2869197089552,1.48897905820896,0.6966918,-0.68386364,-1.0751228,236.4668,87.3132,2.3430457,STD
2118644623000,0.599953,-1.00427752347606,-10.2521615562073,1.49897798240403,0.6957755,-0.59956425,-1.0900891,236.40607,87.01143,2.566894,STD
2118649650000,0.60498,-0.969431629814247,-10.2170753646683,1.50907127395597,0.6826419,-0.4654793,-1.099252,236.37408,86.71264,2.7913504,STD
2118654646000,0.609976,-0.934800620318634,-10.1822055391404,1.51910232320871,0.6933321,-0.30115658,-1.0910053,236.37872,86.41718,3.0086005,STD
2118659650000,0.61498,-0.900114156844646,-10.1472798772226,1.52914943499027,0.7110472,-0.122783914,-1.0754282,236.42892,86.128235,3.2195394,STD
2118664650000,0.61998,-0.865455420359846,-10.1123821334997,1.53918851550741,0.71837753,0.05375614,-1.0302242,236.52774,85.853905,3.4128046,STD
2118670067000,0.625397,-0.827906145252214,-10.0745739179504,1.55006485533969,0.7247916,0.21533,-0.9801333,236.6748,85.5868,3.5935445,STD
2118674647000,0.629977,-0.796158742632137,-10.0426075847002,1.5592606530934,0.74036866,0.29657507,-0.91813046,236.84961,85.334595,3.7525446,STD
2118679731000,0.635061,-0.760917739374392,-10.0071235588828,1.56946839016323,0.7706065,0.45204028,-0.870483,237.09164,85.090485,3.8945224,STD
2118684751000,0.640081,-0.726120367943653,-9.97208622418509,1.57954762700245,0.77518797,0.5681047,-0.7877107,237.3439,84.87296,4.0049148,STD
2118689644000,0.644974,-0.692203328419628,-9.93793529217791,1.58937187119653,0.7858781,0.6389651,-0.6924158,237.62576,84.664314,4.093847,STD
2118694669000,0.649999,-0.657371298252403,-9.90286305973643,1.59946114711626,0.7828238,0.6719518,-0.61117065,237.92725,84.473404,4.160066,STD
2118699652000,0.654982,-0.622830401471652,-9.86808396834223,1.60946609475965,0.7819075,0.6600399,-0.5308419,238.23239,84.300514,4.1978955,STD
2118704646000,0.659976,-0.588213255470633,-9.83322810191185,1.61949312838017,0.7672467,0.6087272,-0.46883908,238.53209,84.14347,4.217639,STD
2118709644000,0.664974,-0.553568382480427,-9.79834431728648,1.62952819326511,0.7470882,0.5271767,-0.41722095,238.81581,84.001076,4.2186403,STD
2118714653000,0.669983,-0.518847260269955,-9.76338375762492,1.63958534412719,0.7076874,0.4373795,-0.3857614,239.07916,83.87277,4.2097707,STD
2118719650000,0.67498,-0.484209319027045,-9.72850695254829,1.64961840119603,0.6747007,0.3371976,-0.3652974,239.31306,83.75419,4.1924477,STD
2118724644000,0.679974,-0.449592173026027,-9.6936510861179,1.65964543481655,0.64843345,0.24312437,-0.35888332,239.5206,83.64484,4.173371,STD
2118729727000,0.685057,-0.414358101515579,-9.65817403984925,1.66985116407028,0.6249151,0.17134771,-0.35338554,239.70366,83.54496,4.1518593,STD
2118735549000,0.690879,-0.374001468752678,-9.61753910705835,1.68154066942445,0.6072,0.12736541,-0.3585779,239.86647,83.44839,4.1343966,STD
2118739680000,0.69501,-0.345366420668936,-9.58870659119453,1.68983495774772,0.5858198,0.11575896,-0.3555236,240.01648,83.36024,4.115118,STD
2118744668000,0.699998,-0.3107908651517,-9.55389260205661,1.69984994447162,0.57360244,0.13530666,-0.35430184,240.16199,83.27287,4.099154,STD
2118749657000,0.704987,-0.276208377887166,-9.51907163336994,1.70986693901163,0.56077427,0.17989981,-0.364992,240.31055,83.18916,4.08632,STD
2118754646000,0.709976,-0.241625890622633,-9.48425066468327,1.71988393355164,0.550695,0.23182335,-0.36377025,240.46533,83.11013,4.0699697,STD
2118759649000,0.714979,-0.206946358895942,-9.44933198231418,1.7299290375171,0.5503896,0.2751948,-0.3735441,240.62976,83.02836,4.0597177,STD
2118764656000,0.719986,-0.172239100180063,-9.41438538175011,1.73998217274697,0.5448918,0.3100141,-0.37873647,240.80493,82.9513,4.0475645,STD
2118769641000,0.724971,-0.137684339904717,-9.37959233125842,1.74999113602256,0.5516113,0.34055737,-0.38881573,240.9901,82.86928,4.0393834,STD
2118774575000,0.729905,-0.103483098741517,-9.34515523775271,1.75989770067688,0.55833083,0.36071593,-0.39400807,241.18053,82.78872,4.031469,STD
2118779665000,0.734995,-0.0694766238704036,-9.24879627281617,1.76708586010014,0.5519168,0.3866777,-0.39584067,241.37973,82.70891,4.0252104,STD
2118784637000,0.739967,-0.036607365553996,-9.1380411570108,1.77327861937043,0.5476407,0.39522982,-0.39614612,241.578,82.62678,4.0206776,STD
2118789640000,0.74497,-0.00353317018855201,-9.0265954924142,1.77950998997164,0.54336464,0.41508293,-0.3998113,241.92252,82.455795,4.1504807,STD
2118794660000,0.74999,0.0296534100102345,-8.9147711397708,1.78576253452852,0.53878313,0.42760566,-0.40530908,242.26367,82.28636,4.278369,STD
2118799622000,0.754952,0.0624565596011465,-8.80423878164001,1.79194283853076,0.5317582,0.42149702,-0.40622538,242.60132,82.1195,4.4035225,STD
2118804609000,0.759939,0.0954249810057975,-8.69314952932276,1.79815428070311,0.5225952,0.42088616,-0.40653083,242.94043,81.95428,4.527054,STD
2118809711000,0.765041,0.129153652753648,-8.57949856374773,1.80450895845793,0.5122105,0.41599923,-0.40103304,243.27261,81.7927,4.647113,STD
2118814632000,0.769962,0.161685756570028,-8.46987951208276,1.8106381958612,0.49510628,0.4034765,-0.39614612,243.59875,81.635635,4.765293,STD
2118819626000,0.774956,0.194700454082526,-8.35863432939329,1.81685835672117,0.49235737,0.40011674,-0.37201694,243.92162,81.48261,4.8739347,STD
2118824651000,0.779981,0.22792008864406,-8.24669859791259,1.82311712891208,0.48258355,0.38637227,-0.35521814,244.23433,81.335754,4.981781,STD
2118829613000,0.784943,0.260723238234972,-8.1361662397818,1.82929743291432,0.46914452,0.37659842,-0.32711834,244.54239,81.19714,5.077474,STD
2118834711000,0.790041,0.294425466492624,-8.02260437727661,1.83564712856192,0.46639562,0.40317106,-0.30268374,244.85284,81.06136,5.166712,JOG
2118839651000,0.794981,0.327083176887446,-7.91256208602992,1.84180003097447,0.44990227,0.42455134,-0.2733622,245.1543,80.93819,5.24543,JOG
2118844651000,0.799981,0.360137539635241,-7.8011832487357,1.84802766499527,0.44501534,0.4447099,-0.24801129,245.45862,80.81702,5.316011,JOG
2118849650000,0.80498,0.393185291510487,-7.68982668720894,1.85425405348927,0.41447207,0.47342056,-0.22602014,245.76675,80.71046,5.3770137,JOG
2118854645000,0.809975,0.426206599895535,-7.57855922875201,1.86047545987605,0.3924809,0.4981606,-0.21197024,246.07504,80.60628,5.431625,JOG
2118859660000,0.81499,0.459360125731573,-7.4668462549459,1.86672177679891,0.3717115,0.537256,-0.19333886,246.39066,80.513405,5.4764676,JOG
2118864650000,0.81998,0.492348379753873,-7.35569017532627,1.87293695555167,0.34391713,0.56107974,-0.19058995,246.70496,80.42686,5.5210395,JOG
2118869645000,0.824975,0.52536968813892,-7.24442271686934,1.87915836193844,0.3213151,0.5644395,-0.19547687,247.01996,80.34539,5.56157,JOG
2118874634000,0.829964,0.558351331288671,-7.13328891301716,1.8853722951644,0.27947086,0.57910025,-0.19456059,247.3403,80.275764,5.598167,JOG
2118879667000,0.834997,0.591623852830601,-7.0211749753968,1.89164103156973,0.2770274,0.58551437,-0.20005837,247.65546,80.1997,5.637948,JOG
2118884664000,0.839994,0.624658382960748,-6.90986296540495,1.89786492901012,0.24281894,0.5870415,-0.20861048,247.96912,80.1396,5.6778126,JOG
2118889648000,0.844978,0.65760697174775,-6.79884054039007,1.90407263460205,0.1994475,0.57696223,-0.22357668,248.2775,80.07941,5.7210274,JOG
2118894641000,0.849971,0.690615058387699,-6.68761763346806,1.91029154993522,0.15668693,0.5684101,-0.22602014,248.58228,80.02675,5.762709,JOG
2118899648000,0.854978,0.723715697243341,-6.57608286580162,1.91652790264365,0.10140363,0.5342017,-0.23548855,248.8735,79.98231,5.8116407,JOG
2118904657000,0.859987,0.756829557844082,-6.46450354660027,1.92276674640569,0.035430185,0.51068336,-0.23060162,249.16063,79.95094,5.8566484,JOG
2118909646000,0.864976,0.789811200993832,-6.35336974274809,1.92898067963164,-0.027794369,0.47800204,-0.21471913,249.4312,79.93046,5.902386,JOG
2118914653000,0.869983,0.822911839849475,-6.24183497508166,1.93521703234007,-0.08979719,0.453262,-0.19914207,249.69305,79.923805,5.946874,JOG
2118919643000,0.874973,0.855900093871774,-6.13067889546203,1.94143221109283,-0.13927728,0.42088616,-0.17073683,249.93825,79.931465,5.98435,JOG
2118925250000,0.88058,0.892967256257152,-6.00577866732028,1.94841587988375,-0.1704314,0.38453966,-0.14844026,250.17088,79.94821,6.019884,JOG
2118929710000,0.88504,0.922451747828185,-5.90642874445384,1.9539709294303,-0.18753563,0.34300083,-0.14385876,250.38852,79.972084,6.053637,JOG
2118935567000,0.890897,0.961171628350953,-5.77595957444738,1.96126597992227,-0.16065755,0.25411993,-0.15088372,250.57814,79.99201,6.0875196,JOG
2118939641000,0.894971,0.988104323117856,-5.68520809782005,1.96634025612241,-0.12034045,0.112399206,-0.18051068,250.73807,80.006805,6.129981,JOG
2118944660000,0.89999,1.02128429244409,-5.57340602094411,1.97259155515249,-0.07971791,-0.0711658,-0.23060162,250.8588,80.00828,6.1848154,JOG
2118949661000,0.904991,1.05434526606444,-5.46200490788243,1.97882043470009,-0.06658431,-0.27183503,-0.30695978,250.93414,79.99525,6.260586,JOG
2118954645000,0.909975,1.08729385485144,-5.35098248286755,1.98502814029203,-0.089491755,-0.4633413,-0.39492437,250.96075,79.96909,6.358705,JOG
2118959646000,0.914976,1.12035482847179,-5.23958136980587,1.99125701983963,-0.16584991,-0.627664,-0.47708577,250.94014,79.93849,6.48057,JOG
2118964654000,0.919984,1.15346207819998,-5.12802432637197,1.99749461807486,-0.29626966,-0.7516697,-0.516792,250.87839,79.91594,6.6170354,JOG
2118969644000,0.924974,1.18645033222228,-5.01686824675234,2.00370979682762,-0.505491,-0.786489,-0.47983465,250.79611,79.925064,6.7527475,JOG
2118974566000,0.929896,1.21898904691121,-4.9072269193199,2.00984027975769,-0.75686204,-0.79351395,-0.44073927,250.68863,79.961365,6.8969812,JOG
2118979687000,0.935017,0.797529845989926,-4.89933260220845,1.49944184426579,-0.8933904,-0.7098254,-0.35063666,250.59442,80.03067,7.008638,JOG
2118984551000,0.939881,0.287677111700891,-4.91738047326618,0.890325772045719,-1.1252137,-0.61636305,-0.24404067,250.49893,80.17522,7.099085,JOG
2118989641000,0.944971,-0.0156993863054007,-5.37126449903134,0.601185941959243,-1.321607,-0.535118,-0.1469131,250.56564,80.17811,7.3152275,JOG
2118995431000,0.950761,-0.263989242523988,-6.0705297779311,0.418768909920497,-1.4798211,-0.4175264,0.015577064,250.66052,80.24378,7.4715004,JOG
2118999645000,0.954975,-0.435728956978448,-6.89066555207559,0.404554251753902,-1.5873333,-0.39095375,0.06291912,250.60342,80.47146,7.5640597,JOG
2119004645000,0.959975,-0.633996002312347,-8.0548491172099,0.460475734926213,-1.5925257,-0.33567044,0.15699236,250.57578,80.73513,7.5889125,JOG
2119009651000,0.964981,-0.782040141564356,-9.27287885861386,0.919024529544554,-1.5818355,-0.22602014,0.22357668,250.49582,81.06372,7.5624905,JOG
2119014649000,0.969979,-0.905256652069307,-10.5145221015842,1.57301993066337,-1.5564847,-0.041233405,0.2733622,250.44833,81.38296,7.5098734,JOG
2119019653000,0.974983,-0.85849908309306,-11.4839186919878,2.12706363436836,-1.491122,0.08246681,0.2724459,250.38309,81.71543,7.4126496,JOG
2119024621000,0.979951,-0.722198874276869,-12.3017200826171,2.62390004157656,-1.4309518,0.020158553,0.24098633,250.31683,82.021996,7.311561,JOG
2119029617000,0.984947,-0.637278786799637,-12.7717322638259,2.83149056551828,-1.366811,-0.23701571,0.18081611,250.32425,82.260056,7.203016,JOG
2119034624000,0.989954,-0.608296563970988,-12.8635091060743,2.72522237479601,-1.287704,-0.5119051,0.08735373,250.30992,82.45597,7.117124,JOG
2119039611000,0.994941,-0.751921885152812,-12.5932155857641,2.52321161703335,-1.2483032,-0.6963864,-0.007941248,250.34743,82.55704,7.084383,JOG
2119044611000,0.999941,-1.07130767908014,-11.9544445554007,2.22289359811847,-1.2574661,-0.75747293,-0.06291912,250.34152,82.63328,7.0696354,JOG
2119049578000,1.004908,-1.40012202672431,-11.229125257418,2.03248854325015,-1.2702943,-0.74128497,-0.071776666,250.29114,82.69173,7.071591,JOG
2119054614000,1.009944,-1.74603501045392,-10.3951427771664,1.95667205309491,-1.2864822,-0.72082096,-0.042455133,250.22505,82.73945,7.078022,JOG
2119059611000,1.014941,-2.01428436951439,-9.63458309172662,1.9326088263789,-1.2770138,-0.72021013,0.008246681,250.09564,82.84264,7.031832,JOG
2119065198000,1.020528,-2.21209682733813,-8.87541094724221,1.97537907545963,-1.2479976,-0.7458665,0.0720821,249.96585,82.94677,6.973326,JOG
2119069586000,1.024916,-2.31630055999404,-8.36760170002979,1.96453198409294,-1.215011,-0.77488256,0.10170906,249.81104,83.09007,6.866484,JOG
2119074613000,1.029943,-2.37844483215172,-7.88478937257472,1.90238781176646,-1.2113458,-0.87872964,0.16707164,249.62807,83.250305,6.731806,JOG
2119079578000,1.034908,-2.4038310926793,-7.51450874419361,1.84080921961167,-1.1914927,-0.990518,0.22327125,249.43579,83.41829,6.577556,JOG
2119084626000,1.039956,-2.38137490241546,-7.28096422475845,1.77793183997585,-1.2095132,-1.0937542,0.27030787,249.21674,96.407425,6.407349,JOG
2119089583000,1.044913,-2.31713263668997,-7.08242108689346,1.68644435698633,-1.2327261,-1.212873,0.30451632,248.94388,96.231514,6.224198,JOG
2119094618000,1.049948,-2.14102144040488,-6.96165900513409,1.51536495570281,-1.2672399,-1.3142766,0.3313944,248.64696,96.05696,6.029239,JOG
2119099574000,1.054904,-1.94965201587457,-6.89580290151886,1.30868159407153,-1.3072516,-1.4095715,0.36560285,248.31061,95.891426,5.8261137,JOG
2119104613000,1.059943,-1.72266903877511,-6.92417585389515,1.02968171866732,-1.3344351,-1.5170839,0.3915646,247.94223,95.738144,5.6165323,JOG
2119109571000,1.064901,-1.49266008264583,-6.99024086295254,0.71923743299175,-1.3558154,-1.6417004,0.4251622,247.52216,95.64048,5.4337454,JOG
2119114612000,1.069942,-1.24431844441425,-7.14018309123556,0.325639317132971,-1.3631458,-1.7699821,0.44257188,247.07104,95.56346,5.2460237,JOG
2119119565000,1.074895,-0.987094639896876,-7.32308438985093,-0.082435443548397,-1.3790283,-1.8842138,0.45845437,246.55746,95.5579,5.08227,JOG
2119124594000,1.079924,-0.687128576771493,-7.61321537929344,-0.55943064401021,-1.3900238,-1.9556851,0.47494772,246.02124,95.57688,4.910387,JOG
2119129635000,1.084965,-0.402615251108807,-7.91630790242495,-0.992276512155413,-1.402852,-2.0066924,0.4792238,245.41537,95.7034,4.7750196,JOG
2119135391000,1.090721,-0.119366917204543,-8.29397248600018,-1.36994090893176,-1.3973542,-2.0295997,0.47983465,244.80023,95.85808,4.6321917,JOG
2119139582000,1.094912,0.0849994908812222,-8.57140710815459,-1.63488024311008,-1.3756685,-2.037541,0.47891834,244.13168,96.143295,4.5395374,JOG
2119144624000,1.099954,0.309723068357952,-8.93291861017807,-1.84006265790166,-1.3417655,-2.0332649,0.4700608,243.46448,96.45274,4.443922,JOG
2119149622000,1.104952,0.527221245926587,-9.28518508373016,-2.02123729436508,-1.2892311,-2.0186043,0.45845437,242.78967,96.87489,4.40798,JOG
2119154612000,1.109942,0.702634527811508,-9.58860282579365,-2.02597819039683,-1.2357804,-2.0005836,0.46609017,242.12271,97.29909,4.362438,JOG
2119159624000,1.114954,0.860553767905605,-9.88449348141593,-2.0289241679056,-1.1652255,-1.9996674,0.4783075,241.45415,97.7722,4.3633738,JOG
2119164643000,1.119973,0.846375018879056,-10.0971747168142,-2.01474541887906,-1.0910053,-2.0137172,0.49602258,240.79247,98.22878,4.3521523,JOG
2119169671000,1.125001,0.821011050291607,-10.3023117568253,-1.99807512822247,-1.0299188,-2.0259347,0.5161811,240.17877,98.67458,4.3557196,JOG
2119174587000,1.129917,0.653878726362945,-10.4017956242921,-1.95032302973544,-0.99082345,-2.0427334,0.5213735,239.56523,99.1019,4.350193,JOG
2119179649000,1.134979,0.481782749201251,-10.5042340573916,-1.90115274443411,-0.93431836,-2.0583105,0.5491679,238.96423,99.48371,4.3120017,JOG
2119184684000,1.140014,0.160688917014306,-10.4900603621273,-1.73483688296385,-0.91324353,-2.0592268,0.5580254,238.36761,99.8615,4.2716737,JOG
2119189543000,1.144873,-0.210279787484984,-10.429079036584,-1.5264845866987,-0.8940013,-2.110234,0.5635232,237.75871,100.21743,4.2161655,JOG
2119194622000,1.149952,-0.706935279467901,-10.2998971254097,-1.29453424492963,-0.8863655,-2.1948388,0.5717699,237.13574,100.533775,4.1015778,JOG
2119199595000,1.154925,-1.21192861688837,-10.1621712949682,-1.06499184933488,-0.89552844,-2.2879958,0.5833763,236.50204,100.84617,3.9783196,JOG
2119204589000,1.159919,-1.65417265502941,-10.0537890263184,-0.873143952357691,-0.91507614,-2.4080307,0.6010914,235.83475,101.09913,3.7649784,JOG
2119209605000,1.164935,-2.08038304011564,-9.95322300179444,-0.691166512660752,-0.9379836,-2.4394903,0.61391956,235.17215,101.356606,3.549038,JOG
2119214622000,1.169952,-2.282530318003,-9.93489334508238,-0.699903491712431,-0.99021256,-2.4077253,0.63591075,234.47794,101.56899,3.2168546,JOG
2119219607000,1.174937,-2.42077001750374,-9.93965983135297,-0.761873039640539,-1.0461067,-2.3429737,0.6444628,233.78915,101.79598,2.8870273,JOG
2119224606000,1.179936,-2.43035333433562,-9.85903987113402,-0.875164420332188,-1.0855075,-2.3301454,0.68783426,233.07819,101.99973,2.4622865,JOG
2119229682000,1.185012,-2.4025115518614,-9.75231304639175,-1.0050930615693,-1.1032226,-2.3536637,0.7486154,232.3808,102.22249,2.0349667,JOG
2119234636000,1.189966,-2.33619528405618,-9.63779974052221,-1.20193971203382,-1.1215485,-2.3823745,0.8188649,231.67444,102.47648,1.567333,JOG
2119239597000,1.194927,-2.25251679449606,-9.51855793003391,-1.42996353273744,-1.1606439,-2.435825,0.90102625,230.96324,102.75047,1.0803983,JOG
2119244634000,1.199964,-2.16755639298137,-9.39748939557924,-1.66148056254678,-1.1954633,-2.4810293,1.0219775,230.24538,103.066414,0.56848764,JOG
2119250108000,1.205438,-2.07522499772797,-9.265917198318,-1.91308354471402,-1.2012665,-2.5039365,1.1725558,229.53096,103.39537,0.027834725,JOG
2119254599000,1.209929,-1.95854777732811,-9.20753216113995,-2.21604317571777,-1.2095132,-2.4697282,1.3451253,228.8384,103.744705,-0.55232316,JOG
2119259610000,1.21494,-1.57723589424727,-9.44648768714906,-3.14644428935269,-1.1988231,-2.3726006,1.5326608,228.17323,104.10535,-1.1692711,JOG
2119264570000,1.2199,-1.12894012651815,-9.73209271148649,-4.03023095696911,-1.1414018,-2.2828035,1.709201,227.5052,104.57386,-1.7889701,JOG
2119269613000,1.224943,-0.452984845267954,-10.1749601121622,-4.81340661779923,-1.0995574,-2.0619757,1.8017471,226.91595,105.05529,-2.41322,JOG
2119274601000,1.229931,0.25160907383702,-10.6631566558387,-5.62662198571829,-1.0024298,-1.788308,1.9908098,226.38719,105.657005,-3.0128887,JOG
2119279654000,1.234984,1.13244198514179,-11.3904080182022,-6.62941631998507,-0.88025683,-1.475545,2.1700988,225.94931,106.24238,-3.6054697,JOG
2119284814000,1.240144,2.01510227276772,-12.1614821962186,-7.59563705227201,-0.8213083,-1.1294898,2.339614,225.65738,106.90883,-4.0200505,JOG
2119289604000,1.244934,2.64554496453765,-13.1964285157293,-7.84344116491897,-0.7993172,-0.659429,2.521041,225.5117,107.5476,-4.4433994,JOG
2119294979000,1.250309,3.3529832668891,-14.3577722458691,-8.12150945416269,-0.7189884,-0.14630222,2.6322184,225.568,108.18954,-4.686113,JOG
2119299627000,1.254957,3.9980815217599,-15.4537576747691,-8.002842588791,-0.72601336,0.27366763,2.6300802,225.73807,108.82938,-4.911367,JOG
2119304613000,1.259943,4.71780276249867,-16.7056675985564,-7.57709185404946,-0.8454375,0.5830709,2.5509732,226.02231,109.45651,-5.1056247,JOG
2119309601000,1.264931,5.17135309868334,-17.5158957782376,-6.86206870469294,-1.0149527,0.68875057,2.3835962,226.45639,109.974525,-5.0870223,JOG
2119314621000,1.269951,5.47428382547729,-18.0765433339603,-5.9758831427631,-1.1701124,0.6017023,2.1346686,226.89178,110.491844,-5.028086,JOG
2119320413000,1.275743,5.78997160736561,-18.5461414784675,-4.85554048648649,-1.3347405,0.36774087,1.815186,227.36127,110.8618,-4.80302,JOG
2119324597000,1.279927,6.00021568125928,-18.7920878592219,-3.9947296036036,-1.5128077,0.014049901,1.461495,227.72379,111.25704,-4.552512,JOG
2119329606000,1.284936,5.99982034351663,-18.9656144494229,-3.03341610801086,-1.707063,-0.35369098,1.0937542,227.99562,111.53043,-4.195985,JOG
2119335529000,1.290859,5.68624887673359,-19.0206269471438,-1.98267665477645,-1.8270979,-0.6478226,0.7452556,228.14238,111.822464,-3.8141968,JOG
2119339567000,1.294897,5.26079339930636,-18.8861393194605,-1.10080315292871,-1.856114,-0.86834496,0.4578435,228.18951,112.00061,-3.3858933,JOG
2119344613000,1.299943,4.48331738635838,-18.518351060501,0.193438581290944,-1.8078557,-1.0873401,0.21013765,228.12083,112.193146,-2.9395578,JOG
2119349547000,1.304877,3.68825936186384,-18.0917044190776,1.33434370343741,-1.6963727,-1.2718215,0.020158553,227.98323,112.29036,-2.5488067,JOG
2119354613000,1.309943,2.8034531726153,-17.5219078467488,2.2608424003151,-1.5335772,-1.3518448,-0.09101892,227.79851,112.369865,-2.1490593,JOG
2119359568000,1.314898,1.96925184676053,-16.9089463392511,3.04436438292011,-1.3246613,-1.3051136,-0.11209377,227.5498,112.305695,-1.8745912,JOG
2119364623000,1.319953,1.21352831523314,-16.1137078299153,3.46915009779614,-1.0836749,-1.2458596,-0.05589417,227.2864,112.19822,-1.6089991,JOG
2119369539000,1.324869,0.542933975317855,-15.304740195985,3.76231494374937,-0.8344419,-1.1004738,-0.015271631,227.00316,111.97008,-1.4665164,JOG
2119374588000,1.329918,0.0183671195275271,-14.3830711743891,3.75741245331035,-0.74464476,-0.9618073,0.057726767,226.75085,111.730064,-1.3439151,JOG
2119379660000,1.33499,-0.349026932923521,-13.398989778836,3.68337713601732,-0.5876524,-0.84421575,0.10445796,226.4892,111.400795,-1.3216715,JOG
2119384658000,1.339988,-0.390468387226551,-12.3123029343915,3.4715653578355,-0.4886922,-0.75686204,0.19303341,226.27522,111.070816,-1.3165221,JOG
2119389708000,1.345038,-0.402227818253328,-11.2693712365873,3.25356668563937,-0.40133846,-0.7147123,0.29138273,226.05765,110.74569,-1.3960494,JOG
2119394633000,1.349963,-0.330879835951997,-10.4036822919524,3.03000963138362,-0.33505958,-0.6563747,0.37415496,225.88034,110.40337,-1.4806849,JOG
2119399591000,1.354921,-0.208628579832074,-9.4823707289486,2.86231365383898,-0.24007004,-0.56291234,0.41783184,225.73157,110.10048,-1.5809181,JOG
2119404612000,1.359942,0.0605298189756507,-8.40573717119134,2.85782768380446,-0.14630222,-0.4831944,0.42913285,225.603,109.781235,-1.6862788,JOG
2119409609000,1.364939,0.32054385229751,-7.40945732921525,2.87163562360542,-0.01740966,-0.4615087,0.4147775,225.50471,109.48709,-1.7865272,JOG
2119414737000,1.370067,0.526909505395525,-6.96577133774556,3.02640985804181,0.13652839,-0.50976706,0.3915646,225.41188,109.15923,-1.8825048,JOG
2119419616000,1.374946,0.721418648081264,-6.55480796357837,3.1310791870743,0.28038713,-0.6065892,0.3491095,225.34642,108.848495,-1.9209355,JOG
2119424601000,1.379931,0.913523443792325,-6.17528390032388,3.08422429680047,0.41386122,-0.72173727,0.301462,225.26369,108.495766,-1.9535768,JOG
2119429671000,1.385001,1.11468556458777,-5.8134337103742,3.03353142759355,0.54825157,-0.79412484,0.24220806,225.19492,108.10906,-1.931602,JOG
2119434695000,1.390025,1.33912910905588,-5.55971483236994,2.97010170809249,0.6835582,-0.84513205,0.18967366,225.10266,107.68416,-1.9022974,JOG
2119439610000,1.39494,1.54789819181495,-5.32824918801898,2.88906012514828,0.81031275,-0.90408057,0.12308934,225.0249,107.25901,-1.8101985,JOG
2119444606000,1.399936,1.71816770937129,-5.15797957168841,2.7329798204824,0.95294976,-0.95142263,0.03145956,224.93803,106.79193,-1.6958538,JOG
2119449613000,1.404943,1.87245154025128,-4.97863551564449,2.5531544558027,1.1038336,-0.9966267,-0.056505036,224.85696,106.29768,-1.5417528,JOG
2119454614000,1.409944,1.95268279967427,-4.7602280923127,2.26788768840391,1.2360858,-1.0002918,-0.15668693,224.77466,105.77033,-1.3560132,JOG
2119459948000,1.415278,2.026934152156,-4.51645132523872,1.95370322823399,1.3735305,-0.97249746,-0.24801129,224.68251,105.20954,-1.1347804,JOG
2119464611000,1.419941,1.99551427791738,-4.2112295960398,1.59461871687607,1.4947872,-0.93828905,-0.28252518,224.59624,104.62169,-0.89866936,JOG
2119469758000,1.425088,1.96105085934528,-3.87205294573884,1.21360458191295,1.5488489,-0.8268061,-0.40317106,224.52776,104.06031,-0.5998296,JOG
2119474591000,1.429921,1.93142456050658,-3.52500231321324,1.04854388773775,1.5882497,-0.6963864,-0.441961,224.48534,103.47935,-0.30889672,JOG
2119479617000,1.434947,1.90061517131492,-3.16409263411668,0.87689169470556,1.5619824,-0.5674938,-0.52748215,224.45271,102.97237,0.023082623,JOG
2119484666000,1.439996,1.82757408698666,-2.93658855747388,0.822308600465501,1.5008959,-0.4474588,-0.59986967,224.45921,102.47799,0.37043953,JOG
2119489543000,1.444873,1.75027013071273,-2.73849704655012,0.788488126532533,1.4440855,-0.38453966,-0.6630942,224.48782,102.00651,0.74320346,JOG
2119494604000,1.449934,1.64006658585576,-2.77332743560351,0.723550820021487,1.3952162,-0.34208453,-0.71959925,224.51006,101.58564,1.1216825,JOG
2119499581000,1.454911,1.52874424510463,-2.8312151439275,0.656757392322496,1.3567317,-0.31856623,-0.766025,224.54692,101.19866,1.5170702,JOG
2119504612000,1.459942,1.38880618157867,-3.09755844928579,0.542721487398159,1.3582588,-0.30207285,-0.8136725,224.58014,100.84233,1.9162458,JOG
2119509576000,1.464906,1.24293396517829,-3.41948338230875,0.41696955895884,1.3753631,-0.27366763,-0.84116143,224.62727,100.51695,2.323753,JOG
2119514624000,1.469954,0.940256357073737,-3.97871191596671,0.443613551823108,1.4321736,-0.22021692,-0.88056225,224.70352,100.24398,2.739996,JOG
2119519548000,1.474878,0.625394955602864,-4.55367625573834,0.48924563781885,1.5100589,-0.14935656,-0.9309586,224.79692,99.99118,3.166674,JOG
2119524588000,1.479918,0.229915497497703,-5.39899827179864,0.89436783205034,1.609019,-0.115453534,-0.98624194,224.94424,99.8118,3.5947363,JOG
2119529686000,1.485016,-0.187179690626493,-6.31391660666912,1.38770622333272,1.6588045,-0.14905111,-1.0421361,225.09642,99.65982,4.031855,JOG
2119535423000,1.490753,-0.665085067472889,-7.99668509992332,2.03943603727681,1.6438384,-0.2910773,-1.1267409,225.1519,99.43238,4.4018397,JOG
2119539571000,1.494901,-1.01320289361814,-9.41091396174827,2.53985541008873,1.5766432,-0.45937067,-1.2064588,225.19604,99.245995,4.779737,JOG
2119544603000,1.499933,-1.38366059030647,-10.9783121531382,1.74249404782728,1.4721853,-0.38973203,-1.2742649,225.2373,98.92778,5.0774884,JOG
2119549602000,1.504932,-1.73991817012631,-12.5017819992167,0.63153287121316,1.2651019,-0.02107485,-1.352761,225.32303,98.70317,5.40066,JOG
2119554617000,1.509947,-2.09132870789946,-13.3450220969479,-0.882544862603232,1.0375546,0.38881573,-1.3839152,225.4597,98.38039,5.6370797,JOG
2119559631000,1.514961,-2.44095183728306,-13.991585048474,-2.51092675963495,1.0506883,0.5103779,-1.3762794,225.62839,98.10641,5.8829956,JOG
2119564619000,1.519949,-2.89443545047174,-14.6731837271824,-3.09774646713676,1.2366967,0.44073927,-1.359786,225.76364,97.939896,6.033912,JOG
2119569624000,1.524954,-3.3799906864932,-15.3681947585659,-3.38812753040024,1.3267993,0.052534413,-1.3329079,225.84709,97.81012,6.174531,JOG
2119574585000,1.529915,-3.68809207427161,-16.2788502385185,-3.43939779950617,1.4871514,-0.41172317,-1.3112222,225.76575,97.76946,6.224979,JOG
2119579735000,1.535065,-3.95113505106173,-17.2969236014815,-3.41504198716049,1.6633861,-0.7089091,-1.3246613,225.6244,97.71855,6.2776656,JOG
2119584676000,1.540006,-4.06977978807102,-17.9062687901456,-3.70910700658288,1.8148806,-0.6994407,-1.2904528,225.39578,97.58558,6.2241945,JOG
2119589635000,1.544965,-4.14556884884301,-18.3988979077399,-4.1070001320766,1.9410243,-0.39278635,-1.2825116,225.17413,97.4476,6.1930885,JOG
2119594655000,1.549985,-4.38332936494982,-18.7050555466768,-3.90271925421322,2.0210476,0.37323865,-1.344209,225.09157,97.26134,6.144666,JOG
2119599661000,1.554991,-4.67836808458625,-18.9410873565613,-3.48058719039955,2.1642957,1.2311989,-1.4471397,225.1324,97.07512,6.1280665,JOG
2119604641000,1.559971,-4.68601677277778,-19.0863319966667,-2.66968390077778,2.2635612,1.6536123,-1.4333953,225.21875,96.91373,6.108755,JOG
2119609649000,1.564979,-4.52130339984849,-19.1783775190909,-1.61842523039394,2.3280075,1.7336355,-1.3109168,225.4598,96.75991,6.109842,JOG
2119614623000,1.569953,-4.02550445817509,-18.993959646712,-0.789349599695183,2.349693,1.6371188,-1.1682798,225.80983,96.545685,6.071642,JOG
2119619650000,1.57498,-3.33747801912852,-18.65235123326,-0.0724548721107336,2.2452352,1.4385877,-1.0845913,226.15913,96.35772,6.0273623,JOG
2119624629000,1.579959,-2.53588163688119,-18.4887071658416,0.59094111610396,1.9486601,1.1902709,-1.149343,226.54169,96.19412,6.0132403,JOG
2119629647000,1.584977,-1.66039838094059,-18.4220944579208,1.23327933290198,1.5280794,0.8368854,-1.3191634,226.83794,96.1006,6.0117803,JOG
2119634648000,1.589978,-0.881551330961766,-18.5557365634608,1.43368608600709,1.1585059,0.45753807,-1.5253305,227.12315,96.15436,6.1277347,JOG
2119639647000,1.594977,-0.159754696304691,-18.8104890123177,1.36763938470635,0.9602802,0.2660318,-1.7394388,227.35988,96.298325,6.295364,JOG
2119645518000,1.600848,0.357217416055882,-19.0332032010528,1.15480121073092,0.82802784,0.17256944,-1.9211712,227.55931,83.37944,6.6180506,JOG
2119649663000,1.604993,0.598334222899372,-19.1617989096983,0.953870510386718,0.7425067,0.03023783,-1.9874501,227.69156,83.01905,6.9631543,JOG
2119654640000,1.60997,0.574648142556555,-19.2672727883039,0.588013847934407,0.61361414,0.058337633,-1.9941696,227.83122,82.54165,7.4211173,JOG
2119659643000,1.614973,0.356927397787217,-19.3430012960585,0.143106232160328,0.49938235,0.14996742,-2.0109684,227.95398,82.051445,7.889964,JOG
2119664622000,1.619952,0.35181126023977,-19.3961896685822,-0.213994599817497,0.39767328,0.42271876,-2.03693,228.11671,81.543,8.383079,JOG
2119669652000,1.624982,0.494993676369761,-19.4343719186565,-0.514677650267314,0.32620203,0.68569624,-2.0503693,228.30884,81.04767,8.864915,JOG
2119674617000,1.629947,0.68124293947472,-19.461200310545,-0.828990080326579,0.21655174,0.9660834,-2.0210476,228.51292,80.60112,9.309077,JOG
2119679658000,1.634988,0.904438297127681,-19.4801955482982,-1.16140877407043,0.15974127,1.2684617,-2.008525,228.80371,80.15655,9.749591,JOG
2119684696000,1.640026,1.02127863484931,-19.283211339854,-1.27142826260861,0.11026118,1.5265522,-1.9672915,229.11423,79.72581,10.184028,JOG
2119689607000,1.644937,1.04930010690631,-18.9165970580905,-1.19903944963507,0.10751228,1.7198911,-1.8918496,229.49573,79.317276,10.593695,JOG
2119694593000,1.649923,1.07774951836552,-18.5443839021399,-1.12554512638399,0.15057829,1.844813,-1.8209893,229.8758,78.902245,11.014042,JOG
2119699618000,1.654948,1.10642145831389,-18.1692593316121,-1.05147593778859,0.18997909,1.924531,-1.7415768,230.29973,78.5189,11.400267,JOG
2119704642000,1.659972,0.908990834539571,-17.4420840197117,-0.832486243483377,0.22174409,1.8860464,-1.6261233,230.71342,78.169205,11.750163,JOG
2119709623000,1.664953,0.497322443934491,-16.3848449103658,-0.476954460478572,0.2574797,1.8063285,-1.4715744,231.13716,77.858376,12.058451,JOG
2119715296000,1.670626,-0.373632224553766,-14.4502633404441,-0.204312435618633,0.28008172,1.8020525,-1.3295482,231.56982,77.55016,12.360405,JOG
2119719647000,1.674977,-1.31330918955159,-12.4729507274706,-0.0845852582899434,0.31306845,1.8823812,-1.1636983,232.00174,77.2971,12.604586,JOG
2119724597000,1.679927,-2.31591753110128,-10.4370999707307,-0.019087063967151,0.31978795,1.9312505,-0.98746365,232.47318,77.106224,12.778721,JOG
2119729624000,1.684954,-3.00019332154138,-9.44363287681617,-0.308003520581175,0.28527406,1.9449949,-0.8344419,232.95236,76.959305,12.907458,JOG
2119734550000,1.68988,-3.59680050867824,-8.48776147129506,-0.580438855941255,0.21044308,1.9727893,-0.698219,233.45984,76.921745,12.920051,JOG
2119739652000,1.694982,-3.99824548651535,-7.54938383691075,-0.831341959229742,0.15393804,2.038152,-0.57910025,233.97462,76.92537,12.889578,JOG
2119744568000,1.699898,-4.25867604717528,-6.64532129907009,-1.07106255157484,0.118202426,2.090381,-0.464563,234.44363,77.01746,12.777386,JOG
2119749629000,1.704959,-4.24898348069193,-5.71482449205079,-1.31337939572043,0.08277224,2.1105394,-0.35705075,234.91197,77.14531,12.63106,JOG
2119754570000,1.7099,-4.14186590231068,-4.84977658887379,-1.49671073833981,0.060170226,2.1361957,-0.21991149,235.32986,77.33063,12.433348,JOG
2119759603000,1.714933,-3.81897217479612,-4.06360078186408,-1.56690501205825,0.044593163,2.1444426,-0.09162979,235.7349,77.54511,12.207985,JOG
2119764592000,1.719922,-3.49597923835561,-3.31694993394311,-1.61475219200925,0.04886922,2.1679606,-0.029932396,236.07343,77.740036,12.01143,JOG
2119769613000,1.724943,-3.16249086808724,-2.65963971607197,-1.60025271081516,0.06383542,2.2015584,0.08155051,236.4001,77.98303,11.76685,JOG
2119774594000,1.729924,-2.88405191951466,-2.0305929528817,-1.53877688806876,0.07513642,2.2296581,0.18784106,236.77063,78.20869,11.539932,JOG
2119779606000,1.734936,-2.74654232770475,-1.4603323396697,-1.34869003107516,0.09193522,2.2192733,0.27122417,237.12723,78.45691,11.289619,JOG
2119785293000,1.740623,-2.59403227788588,-0.80606815299519,-1.1275486007324,0.08032878,2.1841488,0.37934732,237.54268,78.713104,11.029989,JOG
2119789583000,1.744913,-2.56259461577394,-0.14138665784871,-0.831136584400962,-0.01740966,2.0983222,0.42394048,237.93286,78.97917,10.766066,JOG
2119794646000,1.749976,-2.52294928577006,0.647052310934999,-0.474183707831349,-0.055588737,1.9669861,0.50854534,238.37424,79.26353,10.471577,JOG
2119799621000,1.754951,-2.45319829025961,1.47011462120242,-0.0370771682549288,-0.15302174,1.7498235,0.5687156,238.76093,79.564476,10.172746,JOG
2119804746000,1.760076,-2.3787938052442,2.31583710432346,0.417095239855885,-0.29168814,1.4660766,0.63713247,239.16264,79.88359,9.848829,JOG
2119809635000,1.764965,-2.25696170626501,3.07963062157726,0.927852827614091,-0.4251622,1.1264355,0.6872234,239.48222,80.22326,9.513593,JOG
2119814887000,1.770217,-2.12602701672432,3.84578587001963,1.47321045581939,-0.5934556,0.71959925,0.6939429,239.77303,80.54232,9.19547,JOG
2119819630000,1.77496,-2.00713024472282,3.91372680658128,1.92756577945218,-0.7666359,0.24862215,0.679893,239.94437,80.882,8.870209,JOG
2119824624000,1.779954,-1.88194144451715,3.98526318380854,2.40596562896139,-0.9462303,-0.2171626,0.623388,240.06665,81.16779,8.592882,JOG
2119829662000,1.784992,-1.93578489697212,4.35214336211652,2.81985417295893,-1.1129965,-0.7147123,0.52778757,240.04115,81.451836,8.332766,JOG
2119834669000,1.789999,-2.0124529395723,4.75465067332867,3.22236138410113,-1.2727377,-1.1603385,0.4364632,239.8936,81.733986,8.087931,JOG
2119839637000,1.794967,-1.98700621215612,4.80640534094746,3.34994105758268,-1.4071281,-1.5519031,0.32589662,239.67088,81.946785,7.9039707,JOG
2119844585000,1.799915,-1.94935718532128,4.8158176467971,3.44406372295163,-1.5302174,-1.8664987,0.2275473,239.33914,82.14538,7.741955,JOG
2119849622000,1.804952,-1.75652523909848,4.43792334796668,3.36752144977952,-1.63437,-2.0861049,0.16279559,238.9614,82.31523,7.5994625,JOG
2119854546000,1.809876,-1.54396419286624,4.00818036738854,3.26586181477707,-1.6945401,-2.154827,0.12644911,238.53314,82.46835,7.4737854,JOG
2119859603000,1.814933,-1.14504267795699,3.34115867458287,3.14410430670189,-1.7104226,-2.2321017,0.10476339,238.04694,82.59915,7.3660865,JOG
2119864559000,1.819889,-0.713884000537634,2.63722613064516,3.02091614596774,-1.6951511,-2.2476788,0.063224554,237.55539,82.71338,7.269801,JOG
2119869612000,1.824942,0.0114530669042574,1.49093971445194,2.90439955239838,-1.63437,-2.175291,-0.0033597588,237.0582,82.785255,7.2099543,JOG
2119874625000,1.829955,0.876180067260643,0.13604658612984,2.79341853099595,-1.5063937,-2.0616703,-0.050396383,236.56625,82.84737,7.1524005,JOG
2119879697000,1.835027,1.85914844889766,-1.32339559553142,2.58861490309312,-1.3014483,-1.8371773,-0.15332718,236.12201,97.195244,7.194158,JOG
2119884661000,1.839991,2.89159059245366,-2.80948664075244,2.32789715102556,-1.0354166,-1.5632042,-0.27458394,235.72516,97.25704,7.2529106,JOG
2119889613000,1.844943,3.43994266862406,-3.67809655810785,1.9412026497985,-0.7800749,-1.3344351,-0.35338554,235.37656,97.49658,7.489185,JOG
2119894615000,1.849945,3.8536144039148,-4.37674200510459,1.51374186626367,-0.5702427,-1.2461652,-0.4392121,235.07292,97.76953,7.7616043,JOG
2119899621000,1.854951,3.95414359274047,-4.61342700403307,1.11409987638637,-0.39767328,-1.3185526,-0.52626044,234.79489,98.23479,8.226422,JOG
2119904613000,1.859943,3.91076121016334,-4.63752832768703,0.728478466392418,-0.2773328,-1.4767667,-0.6072,234.52936,98.7136,8.706717,JOG
2119909594000,1.864924,3.64599824181587,-4.44152130718895,0.382386415224939,-0.19303341,-1.6526959,-0.6759224,234.21193,99.26468,9.256877,JOG
2119914691000,1.870021,3.27778254016177,-4.1442869472871,0.0452250210560756,-0.16401732,-1.7171422,-0.73792523,233.89212,99.823715,9.815622,JOG
2119919614000,1.874944,2.80794746207555,-3.82766783440153,-0.282731228858234,-0.1908954,-1.6728544,-0.7867944,233.53764,100.36721,10.354948,JOG
2119924642000,1.879972,2.21524224437606,-3.47511065269525,-0.619960010496604,-0.20158553,-1.5418239,-0.8063421,233.19781,100.90716,10.89086,JOG
2119929701000,1.885031,1.69104898692229,-3.52649361180246,-1.1516855861948,-0.1826487,-1.4181237,-0.82436264,232.8215,101.383644,11.3575115,JOG
2119937079000,1.892409,0.989551980006847,-3.95585803937864,-2.09507812797843,-0.053450707,-1.185384,-0.9425651,232.52014,101.882645,11.848265,JOG
2119939608000,1.894938,0.531673556635554,-4.70107883621929,-1.80173632086686,0.54702985,-1.087951,-0.999681,232.1712,102.25597,12.216365,JOG
2119944609000,1.899939,-0.727197199463577,-7.14688503300075,-0.219155894249544,0.8359691,-0.6973027,-1.1282681,231.97783,102.67749,12.631024,JOG
2119949613000,1.904943,-1.87847975876289,-9.75095066762887,0.536846168555876,1.5677856,0.48747048,-0.8848383,231.97227,102.84666,12.804096,JOG
2119954612000,1.909942,-2.87545300463918,-12.5740627363918,0.122263243995464,2.0650299,1.1563679,-0.24281894,231.93073,102.927574,12.889159,JOG
2119959587000,1.914917,-3.32736949516649,-14.6861925749439,-1.79819342693878,1.4727961,1.2315043,0.070554934,232.19826,102.73114,12.712095,JOG
2119964641000,1.919971,-3.17140446659506,-16.0378910684504,-5.4657372395102,1.0995574,0.16829337,0.43676865,232.32687,102.35174,12.34943,JOG
2119969561000,1.924891,-2.69641299336592,-16.3627307304469,-7.2751161402933,0.5900958,-0.14294247,0.21685717,232.5848,101.80251,11.802302,JOG
2119974648000,1.929978,-1.74870169622905,-15.2983774768555,-6.65788892320431,0.005497787,-0.08552113,-0.23243423,232.63483,101.25997,11.259703,JOG
2119979580000,1.93491,-1.14362106447915,-13.610896774659,-5.48859120081044,-0.46211955,-0.75716746,-0.5271767,231.99527,100.80862,10.752055,JOG
2119984618000,1.939948,-0.967185554279502,-10.9643648685511,-3.49057845880609,-0.754724,-2.0237966,-0.6453791,231.21292,100.57574,10.349616,JOG
2119989538000,1.944868,-1.3505960310559,-8.86856260353559,-1.82201094993024,-1.0146471,-3.1532865,-0.4810564,230.3768,100.6198,10.124568,JOG
2119994602000,1.949932,-2.64353902732919,-7.50147204988055,-0.561507400529384,-1.2996159,-4.043928,-0.18325958,229.2582,100.76652,9.864235,JOG
2119999561000,1.954891,-4.11320842934021,-6.31459611164762,-0.366439040213785,-1.3988814,-4.364632,0.059253927,228.19415,100.94273,9.685252,JOG
2120005287000,1.960617,-6.36691390814596,-5.35955070423885,-2.98397125596388,-1.3161092,-4.0320163,0.33505958,227.081,101.07921,9.384877,JOG
2120009561000,1.964891,-7.78957290566988,-4.76274605616133,-4.67244014738779,-1.0629056,-3.3053918,0.7620544,226.05925,100.87865,8.807148,JOG
2120014589000,1.969919,-7.66367264261851,-4.86533149806324,-4.81932382007456,-0.75900006,-2.4755313,1.2483032,225.17604,100.61663,8.140897,JOG
2120019564000,1.974894,-7.53909949053406,-4.96683558984167,-4.9646591962911,-0.56382865,-1.7916678,1.6615535,224.10031,100.41736,7.019859,JOG
2120024675000,1.980005,-7.41112092162882,-5.07111446684259,-5.11396755967656,-0.4728097,-1.2641857,2.0042489,223.2472,100.272705,5.810158,JOG
2120030081000,1.985411,-7.31603069960219,-5.16295148414149,-5.26669293579185,-0.47250426,-0.92087936,2.2849414,222.53629,100.24389,4.5491414,JOG
2120034673000,1.990003,-7.58080805601548,-5.08257247629287,-5.35179991147188,-0.5158757,-0.68325275,2.5173757,221.97353,100.35912,3.2380803,JOG
2120039657000,1.994987,-7.82718115848223,-5.09950449989962,-5.41686375567155,-0.5885687,-0.5137377,2.6908615,221.50667,100.699684,1.9286889,JOG
2120044652000,1.999982,-7.84638869341498,-5.69493537522586,-5.33043029973901,-0.62888575,-0.49938235,2.777299,221.08711,101.20729,0.6029136,JOG
2120049600000,2.00493,-7.76239171610562,-6.38035139311008,-5.25020113954708,-0.6469063,-0.64751714,2.8066204,220.66516,101.887085,-0.7831977,JOG
2120054607000,2.009937,-7.08737881400717,-7.62136898032701,-5.19988947967124,-0.6954701,-0.7703011,2.7947085,220.27669,102.71567,-2.1580527,JOG
2120059590000,2.01492,-6.41560144409373,-8.85643801110431,-5.14981897814112,-0.7675522,-1.0210613,2.7925704,219.81381,103.63925,-3.4924436,JOG
2120064810000,2.02014,-4.84901708498511,-11.0544826176095,-6.1315271378137,-1.0393872,-1.1896601,2.8194485,219.35226,104.69504,-4.807878,JOG
2120069753000,2.025083,-3.2324797998221,-13.261799070172,-7.21159798794228,-1.4737124,-1.187522,2.9003882,218.88382,105.860405,-6.117244,JOG
2120075379000,2.030709,-0.814895519806286,-15.0084235208539,-8.21803700909271,-1.9834795,-0.5900958,3.2045991,218.5352,107.04241,-7.182061,JOG
2120080180000,2.03551,1.19426393147819,-16.442329750148,-8.96017704815473,-2.5192082,-0.32895094,3.3808336,218.19019,108.239136,-7.9442906,JOG
2120084605000,2.039935,2.44041117540951,-17.1281287732386,-8.33292172695875,-2.5625796,-0.081855945,3.76293,218.05934,109.45799,-8.784193,JOG
2120089560000,2.04489,3.83581447341622,-17.89606869627,-7.63053751983422,-2.6254988,-0.24373524,4.070806,218.11208,110.635254,-9.3558445,JOG
2120094609000,2.049939,4.48379453463424,-18.3152796701314,-6.87959636068837,-2.7073548,-0.552833,4.2189407,218.22801,111.81061,-9.971719,JOG
2120099552000,2.054882,5.05474884145911,-18.6959168440871,-6.14153331902334,-2.7641652,-0.77671516,4.0903535,218.338,112.95641,-10.591666,JOG
2120104611000,2.059941,6.22367646590184,-18.916631236233,-5.5792493655826,-2.8615983,-0.6704246,3.6994,218.51154,113.85816,-10.941356,JOG
2120109574000,2.064904,7.447006553751,-19.111035867518,-5.05293301879489,-3.0045407,-0.2938262,3.1661146,218.67053,114.72701,-11.2167,JOG
2120114589000,2.069919,8.26062828084806,-19.2241436063604,-3.9602905054417,-3.1429017,0.16798794,2.7134633,218.85158,115.42996,-11.2996235,JOG
2120119544000,2.074874,9.00799605843513,-19.3247508668349,-2.8057028187683,-3.1719177,0.5015204,2.3741279,219.0514,116.07744,-11.261448,JOG
2120124621000,2.079951,8.5061252899981,-19.2364643843234,-1.52523694856709,-3.0231721,0.59528816,2.039679,219.40694,116.5639,-10.99781,JOG
2120129691000,2.085021,7.85646045511482,-19.1258832484342,-0.235121611691023,-2.6762006,0.48624873,1.6255124,219.73851,116.96016,-10.634289,JOG
2120134977000,2.090307,6.52193095321273,-18.784323889582,0.88603685102932,-2.1679606,0.32711834,1.1963795,220.0476,117.120705,-10.121356,JOG
2120139542000,2.094872,5.24920534601788,-18.4479600899355,1.81330833772094,-1.5589281,0.19639318,0.77854776,220.28015,117.1364,-9.543831,JOG
2120144804000,2.100134,3.9629959575133,-17.9147159281915,2.50668461788564,-0.9963212,0.15790866,0.4474588,220.3185,116.91231,-8.988518,JOG
2120149606000,2.104936,2.81417387918883,-17.4080118803191,3.08764784647606,-0.5494733,0.14172074,0.25320363,220.30763,116.55341,-8.399688,JOG
2120154608000,2.109938,1.71374723174156,-16.6423034795287,3.44444762882964,-0.2556471,0.12186762,0.14080444,220.21162,116.07624,-7.9504137,JOG
2120159611000,2.114941,0.642001803954464,-15.8050019191132,3.72673768220491,-0.1459968,0.055588737,0.08735373,220.10463,115.539925,-7.4857016,JOG
2120164589000,2.119919,-0.100307956058351,-14.6206563523866,3.82503760895108,-0.01985312,-0.031154128,0.0290161,219.99309,114.96741,-7.1912766,JOG
2120169609000,2.124939,-0.749139713009824,-13.3182221596705,3.86797507327578,0.017104227,-0.16554448,0.054061573,219.8704,114.40632,-6.919644,JOG
2120174626000,2.129956,-1.04537701018361,-11.8183187271471,3.73589058700888,-0.024129177,-0.32345316,0.14263703,219.7036,113.89543,-6.8198686,JOG
2120179723000,2.135053,-1.22848592509773,-10.2281624031589,3.54314428663376,-0.16310102,-0.43463063,0.2687807,219.5318,113.41492,-6.7430124,JOG
2120184685000,2.140015,-1.21275104193742,-9.0794238944645,3.40713620830325,-0.364992,-0.47586402,0.41355577,219.32999,113.04734,-6.8041434,JOG
2120189601000,2.144931,-1.13181658537906,-8.0758362274884,3.28978122305312,-0.5381723,-0.4392121,0.5476407,219.13803,112.7233,-6.8943195,JOG
2120194588000,2.149918,-0.946951444394571,-7.10308903601582,3.27432009000748,-0.6053675,-0.37965274,0.62949663,218.97891,112.53594,-7.0535493,JOG
2120199625000,2.154955,-0.601544646735065,-6.19059673155926,3.41866919465641,-0.5290093,-0.3753767,0.68386364,218.82794,112.36561,-7.2384953,JOG
2120204612000,2.159942,-0.268484339630157,-5.47249830440967,3.58610542446657,-0.3454443,-0.40622538,0.71685034,218.71365,112.25558,-7.4356546,JOG
2120209601000,2.164931,0.0567719186059744,-4.91907718228002,3.7754337671205,-0.077579886,-0.5002986,0.7150178,218.58578,112.10289,-7.639709,JOG
2120214794000,2.170124,0.453052652969393,-4.49884183940793,3.81078300650276,0.22021692,-0.6417139,0.67256266,218.47093,111.9161,-7.799356,JOG
2120219709000,2.175039,0.868723579201204,-4.21070609274461,3.73048290544907,0.4999932,-0.74067414,0.602924,218.34103,111.66003,-7.950501,JOG
2120224628000,2.179958,1.25229769255175,-4.02333887349584,3.58847706515767,0.7330383,-0.7877107,0.51251596,218.26076,111.37194,-8.002665,JOG
2120229630000,2.18496,1.61835995173148,-3.90749651135616,3.39849531835945,0.9092729,-0.8014552,0.38545597,218.16035,111.0174,-8.02523,JOG
2120234621000,2.189951,1.95105979502865,-3.77678130626502,3.32171826968213,1.0048733,-0.7770206,0.27275133,218.05904,110.58765,-8.017325,JOG
2120239612000,2.194942,2.25139734768065,-3.63102916370357,3.35705221605988,1.0210613,-0.7654142,0.13103059,217.9426,110.117455,-7.963351,JOG
2120244585000,2.199915,2.5379377050931,-3.45446847617744,3.40476991418401,1.024421,-0.7449502,0.010079277,217.8328,109.59782,-7.8501754,JOG
2120249619000,2.204949,2.80195556675794,-3.21157224193866,3.47869478312158,1.0277808,-0.73884153,-0.09682214,217.71637,109.059616,-7.697395,JOG
2120254612000,2.209942,2.96969353876894,-2.95498909193182,3.40864302973485,1.0549643,-0.7458665,-0.14752395,217.59239,108.468,-7.494138,JOG
2120259598000,2.214928,3.04656373007576,-2.68368241772727,3.20064136893939,1.0827587,-0.713796,-0.23854288,217.47318,107.85682,-7.242054,JOG
2120264633000,2.219963,3.10506257892157,-2.36394059192198,2.8410362377451,1.1322387,-0.6169739,-0.32345316,217.36899,107.20032,-6.94829,JOG
2120269614000,2.224944,3.13429177058824,-1.97908931397059,2.26132352941176,1.1716396,-0.44929138,-0.3903429,217.29198,106.52843,-6.6221633,JOG
2120274626000,2.229956,3.13838381753545,-1.61143984379462,1.58771564095452,1.1924089,-0.20677789,-0.4560109,217.25632,105.86159,-6.2532206,JOG
2120279711000,2.235041,3.10980795758435,-1.26376668213203,0.787590985443521,1.1844677,0.10842858,-0.53023106,217.28659,105.18166,-5.8427386,JOG
2120284606000,2.239936,3.10412400622598,-0.980108182625865,0.0245852021387394,1.1297953,0.51007247,-0.62949663,217.40088,104.575836,-5.3863173,JOG
2120289611000,2.244941,3.13175576102998,-0.768264551202921,-0.744499188109147,1.031446,0.93462384,-0.7272351,217.60838,103.97765,-4.8847966,JOG
2120294608000,2.249938,3.15545531298047,-0.605311101059651,-1.42209949188196,0.93401295,1.3451253,-0.8216137,217.91211,103.5073,-4.3416305,JOG
2120299621000,2.254951,3.17058086383113,-0.549850700558706,-1.9010756373451,0.8402451,1.690875,-0.9092729,218.31204,103.06462,-3.748217,JOG
2120304541000,2.259871,3.14432672591865,-0.522423521621318,-2.09733774002805,0.77579886,1.8933768,-0.9837985,218.77795,102.77377,-3.1119792,JOG
2120309611000,2.264941,3.05352835901823,-0.53604329087798,-1.87488178378682,0.7648033,1.924531,-1.0366384,219.2865,102.51375,-2.4439814,JOG
2120314639000,2.269969,2.9246113742716,-0.563035924135497,-1.54002949804517,0.81214535,1.7672331,-1.0684034,219.78911,102.35699,-1.7551751,JOG
2120319614000,2.274944,2.69404969139026,-0.625479722653493,-0.905984847551164,0.9117164,1.4822645,-1.0916162,220.2576,102.22103,-1.057433,JOG
2120324623000,2.279953,2.36306205760897,-1.01801627411528,-0.205729500270225,1.028697,1.1404854,-1.1102476,220.65752,102.06135,-0.37880674,JOG
2120330475000,2.285805,1.68789596621769,-2.43867825604451,0.792953652508157,1.153619,0.74128497,-1.1597277,220.95563,101.90637,0.29601148,JOG
2120336124000,2.291454,1.03820274882257,-3.90213573792729,1.72622589110146,1.2873985,0.27214047,-1.2641857,221.1357,101.638535,0.9308078,JOG
2120339604000,2.294934,0.643989587498644,-5.07392537873033,2.21085492072708,1.4575244,-0.28802297,-1.4062119,221.17453,101.36444,1.5633614,JOG
2120344722000,2.300052,0.072791289036964,-6.81278759704288,2.92409974442583,1.7397442,-0.93401295,-1.5683966,221.26306,101.11801,2.157943,JOG
2120349628000,2.304958,-0.367175425190734,-8.67454157525875,3.61415289636274,2.1209242,-1.2724323,-1.7800614,221.28464,100.845634,2.7773168,JOG
2120354863000,2.310193,-0.771238156416576,-10.6708025259119,4.12088125786385,2.5079072,-2.1432207,-1.9834795,220.8677,100.19546,3.2359765,JOG
2120359600000,2.31493,-0.33298511971831,-12.5958391784038,1.75759140187793,2.8145616,-2.232407,-2.0653355,220.5953,99.5461,3.7406058,JOG
2120364615000,2.319945,0.130987643431744,-14.6338503272842,-0.744392686737089,2.830444,-1.6221527,-2.140472,220.28073,98.74688,4.1899443,JOG
2120369614000,2.324944,-0.2811159365242,-15.9119115124902,-2.45855356129977,2.4404066,0.22204952,-2.0888536,220.32338,98.091736,4.661596,JOG
2120374592000,2.329922,-0.899827393618267,-17.0051236416862,-3.97974627740047,1.9581286,2.1951442,-2.0650299,220.60226,97.61027,5.1699104,JOG
2120379672000,2.335002,-2.22545605732656,-17.7270378936016,-3.1281755435238,2.1847596,3.1548135,-2.2067506,221.04411,97.61562,5.754161,JOG
2120384581000,2.339911,-3.72217396216945,-18.3023230079851,-1.55832809819558,2.4120014,3.0934217,-2.3341162,221.7612,97.77623,6.339079,JOG
2120389611000,2.344941,-4.97287818955696,-18.6122510981013,-0.273454216139241,2.3270912,2.3032675,-2.317928,222.39888,98.04917,6.8035808,JOG
2120394599000,2.349929,-6.15282909542897,-18.8599993931083,0.931691263642757,2.2018638,1.0604621,-2.1239784,222.88536,98.288574,7.23373,JOG
2120400232000,2.355562,-7.43858650916525,-19.0714963227485,-0.11574961536746,2.2256875,-0.24587326,-1.8267925,223.12273,98.17212,7.3952317,JOG
2120404616000,2.359946,-8.41507906957307,-19.2008033711767,-2.17574758953908,2.1609359,-0.84604836,-1.6417004,223.21289,98.10773,7.5323215,JOG
2120409591000,2.364921,-9.40414791117691,-19.2936153323464,-4.3828176073279,1.9016235,-0.59864795,-1.6664404,223.227,97.84246,7.475227,JOG
2120414623000,2.369953,-10.344950334567,-19.3604969814952,-6.54978476239822,1.7498235,-0.024740042,-1.6853772,223.17264,97.58723,7.3797565,JOG
2120419602000,2.374932,-11.0036279118212,-19.4101917690363,-7.52800089408434,1.8646661,0.9584476,-1.5683966,223.10242,97.30151,7.146295,JOG
2120424611000,2.379941,-11.4013989384164,-19.4441480175953,-7.37762381524927,2.083356,1.9404135,-1.4242324,223.20464,97.05062,6.9432335,JOG
2120429671000,2.385001,-10.9278206021223,-19.4709829347552,-6.04688320174406,2.2058344,2.5002716,-1.5705346,223.25366,96.882576,6.7509656,JOG
2120434622000,2.389952,-9.72227603004833,-19.4909091752469,-3.74538884845556,2.119397,2.3536637,-2.0039434,223.38644,96.79595,6.646653,JOG
2120439609000,2.394939,-7.27949155894109,-19.4074981515439,-2.87977891788217,1.9281962,1.9199494,-2.3457224,223.6067,96.70823,6.5536404,JOG
2120444601000,2.399931,-4.10531067559197,-19.2625996541012,-2.87525075118394,1.700038,1.933083,-2.4107797,223.91556,96.70009,6.539667,JOG
2120449616000,2.404946,-1.70370361640427,-18.7464462412392,-2.93996779837481,1.4590516,1.9620992,-2.2589796,224.27873,96.77526,6.6720667,JOG
2120454569000,2.409899,-0.0655589866175724,-17.8912383031996,-3.06844976711529,1.3625349,1.7250835,-2.105958,224.56844,96.89009,6.826502,JOG
2120459585000,2.414915,1.50178654900484,-17.0816335293168,-3.14769397891339,1.3683381,1.9547688,-1.8490891,224.98175,97.289375,7.2536016,JOG
2120464613000,2.419943,2.53787435036041,-16.5998521380312,-2.9301155146638,1.6111571,2.322204,-1.6639969,225.37202,97.65924,7.645112,JOG
2120469583000,2.424913,3.41128986255735,-16.2105949016557,-2.45311063978855,1.8188512,2.5925121,-1.4978416,225.73802,98.19688,8.192975,JOG
2120474611000,2.429941,3.9203796267704,-16.0328942685019,-1.31966601173349,1.9776763,2.6273315,-1.3500122,226.15413,81.32339,8.676564,JOG
2120479699000,2.435029,4.19794057441156,-15.8127502424065,-0.14127354703975,1.9446895,2.3958135,-1.2779301,226.58575,80.775215,9.217308,JOG
2120484628000,2.439958,3.93054740312531,-15.5084755963473,1.07121526925676,1.7122552,1.9443841,-1.237613,226.97304,80.26511,9.710062,JOG
2120489621000,2.444951,3.52879197233503,-15.197213642132,1.9637072034264,1.4340062,1.396438,-1.2070698,227.36127,79.71039,10.22559,JOG
2120494610000,2.44994,2.71891030906454,-14.8767255641769,1.80779416997825,1.0711522,0.9868528,-1.2250903,227.66797,79.167046,10.730268,JOG
2120499823000,2.455153,1.8804738904958,-14.5182132254132,1.58000968290436,0.7049385,0.84329945,-1.2226468,228.00502,78.65077,11.18614,JOG
2120504613000,2.459943,1.2010594166766,-13.9133685527861,0.614744006032692,0.408058,0.94134337,-1.1652255,228.3022,78.16484,11.619465,JOG
2120509616000,2.464946,0.491432984000722,-13.281627864445,-0.393444758349138,0.19058995,1.1838568,-1.1010846,228.59477,77.795876,11.944553,JOG
2120514622000,2.469952,0.0427606415141129,-12.720073803125,-0.947310286955645,0.06963864,1.3927728,-1.0115929,228.90831,77.46769,12.237097,JOG
2120519604000,2.474934,-0.346820378231855,-12.176584309375,-1.39941664215726,0.0076358155,1.5189165,-0.9462303,229.26947,77.16579,12.509272,JOG
2120524639000,2.479969,-1.47002070631002,-10.4929939100957,-1.56831036966657,-0.04917465,1.6325374,-0.8927795,229.54271,76.9767,12.699608,JOG
2120529655000,2.484985,-2.73263288993777,-8.59238319959134,-1.67984856258939,-0.09437868,1.8020525,-0.81000733,229.86653,76.82101,12.85555,JOG
2120536285000,2.491615,-3.74389993303588,-6.73505330270524,-1.84227859911704,-0.103847094,1.9798143,-0.7104363,230.17952,76.72869,12.958196,JOG
2120539587000,2.494917,-4.14787097393387,-5.90928910548563,-1.92544911209844,-0.1563815,2.1673498,-0.62796944,230.5398,76.6614,13.03712,JOG
2120544606000,2.499936,-4.69830409215367,-4.60293513722939,-2.14346919934953,-0.21380283,2.399784,-0.5491679,230.9347,76.71623,12.986057,JOG
2120549620000,2.50495,-5.19610337868686,-3.25594882949487,-2.43629225211912,-0.24037547,2.53112,-0.5155703,231.3444,76.78319,12.922837,JOG
2120554610000,2.50994,-5.70044539827783,-1.85265060181845,-2.36823823755576,-0.24801129,2.8194485,-0.43799037,231.87868,76.94619,12.761453,JOG
2120559591000,2.514921,-6.21017806670817,-0.407583095201162,-2.04656232238821,-0.23609942,3.0363057,-0.35124752,232.41925,77.122696,12.586398,JOG
2120564637000,2.519967,-6.61404901259992,0.946727655986677,-1.59956279581271,-0.27550024,3.1138856,-0.27152961,233.0481,77.39295,12.329492,JOG
2120569662000,2.524992,-6.95752622139322,2.23820211981424,-1.09121642733156,-0.3753767,3.0326405,-0.16890424,233.68768,77.7019,12.036265,JOG
2120574622000,2.529952,-7.03127772104881,3.48821267732407,-0.619679632438595,-0.5112942,2.8142562,-0.057421334,234.36133,78.06784,11.681428,JOG
2120579634000,2.534964,-6.89696640580371,4.73183796740595,-0.167000093336097,-0.66553766,2.4810293,0.044593163,234.97394,78.4742,11.295738,JOG
2120584614000,2.539944,-6.58949447082416,5.5445230040008,0.332899895339068,-0.8396343,2.10046,0.16676621,235.56807,78.92992,10.855459,JOG
2120589614000,2.544944,-6.17760924377876,6.10966753290658,0.864519019163833,-1.010982,1.6804903,0.29077184,236.04964,79.43145,10.381642,JOG
2120594601000,2.549931,-5.62708665190177,6.54739228556454,1.25094783779575,-1.1771374,1.1960741,0.37995818,236.45201,79.91819,9.922146,JOG
2120599616000,2.554946,-4.98940264221823,6.91178312678447,1.55300874245782,-1.3558154,0.6609562,0.43982297,236.71278,80.44751,9.431427,JOG
2120604609000,2.559939,-4.29272157904077,6.97569924049575,1.59353404049575,-1.5485435,0.09468412,0.47250426,236.87209,80.92521,8.987538,JOG
2120609593000,2.564923,-3.55998110676151,6.85902083748411,1.47685563748411,-1.7220291,-0.462425,0.44440445,236.87376,81.4115,8.538662,JOG
2120614587000,2.569917,-2.82577044894397,6.74210832852743,1.35994312852743,-1.9159788,-1.0024298,0.4092797,236.74646,81.80838,8.172509,JOG
2120619690000,2.57502,-2.07553476875917,6.62264406476973,1.24047886476973,-2.1197023,-1.498147,0.398895,236.46573,82.19916,7.799912,JOG
2120624645000,2.579975,-1.42676805823426,6.27503835453279,1.17075533480401,-2.3130412,-1.9291124,0.38973203,236.04465,97.43487,7.4246526,JOG
2120629649000,2.584979,-0.839200827712242,5.72753247591492,1.13959644099015,-2.4248295,-2.2745566,0.40469822,235.4998,97.09638,7.0323896,JOG
2120634668000,2.589998,-0.289391968012087,5.05919969911504,1.18094862695877,-2.4446826,-2.5830436,0.44165558,234.85953,97.020424,6.837917,JOG
2120639598000,2.594928,0.189572402859918,4.21846454867257,1.33380953921865,-2.3988678,-2.806315,0.50243664,234.1428,96.99233,6.6189427,JOG
2120644596000,2.599926,0.673483759491194,3.22903692187867,1.55954261401174,-2.271808,-2.8848112,0.5647449,233.39221,97.08756,6.4632454,JOG
2120649616000,2.604946,1.15800266555773,2.10946876101761,1.85119483925636,-2.0677788,-2.9492574,0.59040123,232.58203,97.2137,6.2875757,JOG
2120655110000,2.61044,2.02048379880917,0.226138314139898,2.22435012090463,-1.9300288,-2.8576276,0.6218608,231.8151,97.39246,6.145192,JOG
2120659592000,2.614922,2.96545673936756,-1.78837213803663,2.56797657950565,-1.5760323,-2.4636195,0.589485,231.11708,97.54287,6.0128956,JOG
2120664610000,2.61994,4.11638449885275,-4.10268724771548,3.24259930372107,-1.0525209,-1.7999145,0.47769663,230.54646,97.67296,5.967721,JOG
2120669613000,2.624943,5.36391354309657,-6.47347054668795,4.22723926456504,-0.40103304,-1.0925325,0.26175576,230.09969,97.74904,5.97207,JOG
2120674662000,2.629992,6.28514459100634,-8.30903620146593,5.20129802263273,0.102319926,-0.68386364,-0.057726767,229.74734,97.824745,6.2061086,JOG
2120679762000,2.635092,6.85115911953249,-9.56200779813788,6.16400611989897,0.29779682,-0.76144356,-0.4361578,229.46,97.92137,6.5257134,JOG
2120684653000,2.639983,6.94941414370378,-10.3463507884824,6.23156904889064,0.34116822,-1.3582588,-0.7644979,229.21312,98.091255,7.100538,JOG
2120689700000,2.64503,6.54905232100385,-10.6847521135983,5.3355214040923,0.38973203,-2.096184,-1.0735956,228.91568,98.41312,7.761743,JOG
2120694602000,2.649932,5.97209596909367,-10.3402023132347,3.81611604986727,0.51068336,-2.4966063,-1.2910637,228.63237,98.87624,8.534264,JOG
2120699651000,2.654981,5.12861782182404,-9.09332141562382,1.39111655596796,0.5103779,-2.352442,-1.3701707,228.31973,99.47788,9.322905,JOG
2120704568000,2.659898,4.23268674653118,-7.85445687364101,-0.663539718435279,0.33933565,-1.8851302,-1.3344351,227.95068,100.08537,10.01621,JOG
2120709627000,2.664957,3.14623263987386,-6.52549084787266,-2.09921126716388,0.105374254,-1.4785993,-1.2385293,227.63284,100.71088,10.688157,JOG
2120714558000,2.669888,2.05878807451117,-5.58277362597557,-3.24376171069407,-0.055588737,-1.1856894,-1.2299771,227.25333,101.2826,11.260107,JOG
2120719647000,2.674977,0.873164948655347,-5.3940418127892,-3.85835014960778,-0.15302174,-0.87781334,-1.319469,227.00125,101.84345,11.819446,JOG
2120725278000,2.680608,-0.571595770976982,-6.47659135549872,-3.06384351815857,-0.16920967,-0.5552765,-1.4676038,226.69371,102.309525,12.263095,JOG
2120729636000,2.684966,-1.84867540951662,-8.85920246547315,-0.685044424187066,-0.06536258,0.062308256,-1.5662584,226.55905,102.783035,12.712799,JOG
2120736461000,2.691791,-3.92054603746994,-12.122181348248,1.43901143944521,0.3915646,1.3048081,-1.3005321,226.61989,102.99581,12.899887,JOG
2120739643000,2.694973,-4.94644538255754,-13.2527644762109,1.09355552163346,1.2024882,1.8377881,-0.16829337,226.65678,102.969246,12.859102,JOG
2120744567000,2.699897,-6.53397787005325,-15.0022903473892,0.558978230839918,1.7229455,1.3255776,0.8145888,226.93301,102.45618,12.398216,JOG
2120749655000,2.704985,-7.16037157571214,-16.275359952024,-3.39223595704648,1.8887954,0.54061574,0.90041536,227.27989,101.91242,11.897887,JOG
2120754599000,2.709929,-7.50009076868708,-17.3705740192761,-8.13309415520454,1.4495832,1.1881329,0.23182335,227.89066,78.63675,11.363225,JOG
2120759620000,2.71495,-4.80803934359075,-14.7046021959387,-7.04387320765401,0.6178902,1.5525141,-0.31520647,228.0681,79.55582,10.438835,JOG
2120764560000,2.71989,-1.90287207657913,-11.76248519506,-5.47351217084838,0.16401732,0.5552765,-0.41538838,228.0345,80.3458,9.637199,JOG
2120769643000,2.724973,-1.44644240917005,-8.06167045792223,-3.703289513639,0.09162979,-1.0201449,-0.41141775,227.64055,98.91228,8.91212,JOG
2120774643000,2.729973,-1.38159659760108,-4.31913805320178,-1.93855576436448,0.01863139,-2.4648414,-0.41325033,227.01216,98.310844,8.273986,JOG
2120779655000,2.734985,-2.65100661935817,-2.13701242327851,-1.89905965932308,-0.19120082,-3.4342844,-0.29749137,226.25162,98.19791,8.0895195,JOG
2120784556000,2.739886,-4.19115995385409,-0.354696619817976,-2.24777357223197,-0.5006041,-3.8902953,-0.058337633,225.233,98.09114,7.8535705,JOG
2120789618000,2.744948,-5.4317439931731,0.317199820213972,-2.99969975409146,-0.66706485,-4.0088034,0.2593123,224.17801,98.002266,7.653713,JOG
2120794953000,2.750283,-6.67882905606472,0.823678823037314,-3.85975848181053,-0.70157874,-3.6752708,0.7067711,223.13765,97.83719,7.3302865,JOG
2120799619000,2.754949,-7.31829158370547,0.173548145596635,-4.895420132911,-0.7357872,-2.9773571,1.1838568,222.0544,97.49748,6.7330084,JOG
2120804545000,2.759875,-7.86211374727386,-0.830808182859072,-6.07125193332641,-0.795652,-2.1365013,1.6389514,221.12141,97.117676,6.006574,JOG
2120809627000,2.764957,-7.84228627874913,-2.10224642951344,-6.66447114242182,-0.84421575,-1.2925909,2.0335703,220.3048,96.687546,4.9700027,JOG
2120814594000,2.769924,-7.67594810350684,-3.40443760895194,-7.08744575646918,-0.9242391,-0.49480084,2.3612995,219.73969,96.39819,3.8262541,JOG
2120819631000,2.774961,-7.75176616463566,-4.92014890728674,-6.63333953427008,-1.031446,0.13316862,2.5894578,219.31584,96.464325,2.5010054,JOG
2120824645000,2.779975,-7.88790293583686,-6.47736388326287,-5.96220846428749,-1.1398746,0.46486846,2.7415633,219.07161,96.89085,1.118031,JOG
2120829585000,2.784915,-8.02203050857996,-8.01159642840089,-5.30098240012435,-1.2232577,0.49663344,2.8570168,218.94557,97.692474,-0.27888796,JOG
2120834626000,2.789956,-8.15890036570505,-9.57719688589903,-4.62623734153196,-1.3286319,0.25717425,2.9455922,218.87297,98.764496,-1.6960744,JOG
2120839639000,2.794969,-7.01374287802853,-11.1747794021102,-4.55925894685424,-1.5525141,-0.12186762,2.9965994,218.79565,100.01738,-3.1196625,JOG
2120844639000,2.799969,-5.52146000385893,-12.779333915592,-4.6574971258304,-1.9547688,-0.2959642,3.0622675,218.74002,101.446236,-4.549339,JOG
2120849650000,2.80498,-4.07341612726188,-14.3660987265858,-5.75340812244979,-2.243097,-0.5458081,3.1041117,218.46867,102.651634,-5.8774824,JOG
2120854662000,2.809992,-2.64175133314774,-15.9457024326904,-7.19938960636309,-2.8619037,-0.6774496,3.2247577,218.18425,104.075935,-7.206182,JOG
2120859629000,2.814959,-1.44168429783584,-16.9389781956717,-8.03566766658023,-3.3927455,-0.72051555,3.431841,217.89575,105.360245,-8.2505,JOG
2120864770000,2.8201,-0.282882081579735,-17.7491581631595,-8.67399108467139,-3.5876117,-0.7058548,3.689626,217.59924,106.7105,-9.321431,JOG
2120869645000,2.824975,0.598137350290841,-18.2306243683328,-8.26243997712708,-3.3918293,-0.7443393,3.873802,217.43341,108.082695,-10.199606,JOG
2120874689000,2.830019,1.43156408920438,-18.6259072771369,-7.47187515409642,-3.005457,-0.7498371,3.8426478,217.29663,109.41379,-11.06681,JOG
2120879699000,2.835029,2.60012659597557,-18.8806086851537,-6.77966587726499,-2.765387,-0.64965516,3.5775323,217.3,110.64238,-11.743846,JOG
2120884712000,2.840042,3.9122028888177,-19.0776598838723,-6.12603069876865,-2.7940977,-0.5119051,3.218649,217.30948,111.786354,-12.3711605,JOG
2120889646000,2.844976,4.8988051850578,-19.2020595430636,-5.53524199956647,-3.0234776,-0.2764165,2.8393016,217.34062,112.67339,-12.769738,JOG
2120894652000,2.849982,5.77172817124278,-19.2990510342004,-4.95791202817919,-3.2174273,0.046731193,2.4404066,217.39816,113.47993,-13.046476,JOG
2120899655000,2.854985,6.47589716699527,-18.8579732480636,-3.77931286692486,-3.3105843,0.3726278,2.08977,217.54959,114.11119,-13.066641,JOG
2120904641000,2.859971,7.0763143364752,-18.0942425350568,-2.24224542865909,-3.2501085,0.5021312,1.8304577,217.70175,114.7005,-13.005951,JOG
2120909612000,2.864942,6.88626676921096,-17.7797385714549,-0.886542455177488,-3.066849,0.46028697,1.65911,217.91544,115.15119,-12.782624,JOG
2120914671000,2.870001,6.22239774956778,-17.7262729342468,0.387729481662682,-2.7650816,0.28160888,1.4584408,218.09116,115.5218,-12.504187,JOG
2120919649000,2.874979,5.18191141382337,-17.6002221177155,1.50042485868852,-2.3716843,0.018325957,1.1178834,218.16605,115.66701,-12.135489,JOG
2120924695000,2.880025,3.66905342277102,-17.3855597807509,2.4612941052459,-1.9590448,-0.17470746,0.75625116,218.18724,115.711365,-11.737775,JOG
2120929687000,2.885017,2.31294262466042,-17.0582623170078,3.39640993363306,-1.5567901,-0.33933565,0.42088616,217.91893,115.4795,-11.392265,JOG
2120935547000,2.890877,0.842031603309738,-16.5751161356419,4.48080422290032,-1.2819008,-0.625526,0.12003502,217.5523,115.153534,-11.011696,JOG
2120939631000,2.894961,-0.0896865756873977,-15.9508846204992,4.88620527125614,-1.1166617,-1.0824533,-0.08032878,217.03815,114.756836,-10.80517,JOG
2120944764000,2.900094,-1.17582343199264,-14.9049754884411,5.0772849241919,-1.0980303,-1.3261884,-0.1994475,216.51083,114.32292,-10.553102,JOG
2120949644000,2.904974,-1.96633076290711,-13.8620089514249,4.94013674483716,-1.1291844,-1.7318029,-0.22296582,215.8198,113.908035,-10.51211,JOG
2120954644000,2.909974,-2.56000771516469,-12.7499720343264,4.51481596393412,-1.2391402,-1.9055941,-0.20433442,215.14029,113.514885,-10.447422,JOG
2120959628000,2.914958,-3.03540155976382,-11.51927511562,4.18203284118089,-1.3402383,-1.8106046,-0.07880162,214.47192,113.267715,-10.569285,JOG
2120964701000,2.920031,-3.30661176424047,-10.0432657513688,4.00991855879764,-1.3875804,-1.5580118,0.124311075,213.82243,113.055,-10.712132,JOG
2120969641000,2.924971,-3.42397828689935,-8.8062821642278,3.9194431311845,-1.3613132,-1.3384057,0.37232238,213.22763,113.01644,-10.994665,JOG
2120974686000,2.930016,-3.39531611253708,-7.74577916887483,3.90511201906269,-1.212262,-1.2669345,0.6151413,212.68604,112.988594,-11.314624,JOG
2120980218000,2.935548,-3.03499506636266,-6.82849173158772,3.89223051881926,-0.9309586,-1.2528846,0.8002335,212.20609,113.04032,-11.728238,JOG
2120984657000,2.939987,-2.51386817658135,-6.26567467843483,3.88389249485143,-0.5311473,-1.2449434,0.91446525,211.7605,113.05515,-12.176489,JOG
2120989599000,2.944929,-1.72895188104089,-5.82714886096654,3.90053731598513,-0.11575896,-1.1963795,0.98440933,211.37436,113.092125,-12.68233,JOG
2120994660000,2.94999,-0.647876334963803,-5.63274477043631,3.95269443130503,0.26419923,-1.1163563,0.9932669,211.00218,113.0607,-13.191883,JOG
2120999574000,2.954904,0.405013399554385,-5.55637710901357,4.00401979735669,0.58184916,-1.0161743,0.95905846,210.68181,112.950516,-13.631201,JOG
2121004645000,2.959975,1.49689162876241,-5.66458138185133,4.05812177970427,0.8164214,-0.9147707,0.89919364,210.38162,112.78299,-14.049614,JOG
2121009556000,2.964886,2.39720755138425,-5.75124115542902,4.08555621454938,0.97585726,-0.82924956,0.81306165,210.24515,112.53014,-14.296975,JOG
2121014791000,2.970121,3.11088452448459,-5.81522595063813,4.07571239990183,1.0656544,-0.75686204,0.6942484,210.13248,112.23659,-14.497893,JOG
2121019542000,2.974872,3.65465171801181,-5.73170105541339,4.00943557341535,1.1453724,-0.6722572,0.5729916,210.0901,111.79238,-14.507162,JOG
2121024713000,2.980043,4.05920866929134,-5.38563442519685,3.83396517007874,1.2076806,-0.57726765,0.4447099,210.06923,111.31712,-14.466547,JOG
2121029604000,2.984934,4.34240530642202,-5.01508405688073,3.60808388348624,1.2525792,-0.45051312,0.3210097,210.05882,110.71134,-14.283161,JOG
2121034676000,2.990006,4.44091280386287,-4.54600071240946,3.25627149758571,1.3118331,-0.33567044,0.21533,210.06859,110.07246,-14.058464,JOG
2121039569000,2.994899,4.52932782155689,-4.10064055096806,2.80567748436128,1.3723087,-0.26083946,0.103847094,210.08751,109.37237,-13.741422,JOG
2121044655000,2.999985,4.60224339760479,-3.65828580248503,2.0181887047006,1.3961325,-0.099571034,0.039095376,210.16325,108.6572,-13.390821,JOG
2121050212000,3.005542,4.67845456771418,-3.194099828844,1.1023932649682,1.3967434,0.2764165,-0.16554448,210.30348,107.914116,-12.948828,JOG
2121054641000,3.009971,4.73399332468201,-2.85293361088664,0.289148445396558,1.3084733,0.4382958,-0.25045475,210.43526,107.194305,-12.523351,JOG
2121059617000,3.014947,4.79438254694698,-2.46847607442909,-0.569154964759385,1.2409728,0.7779369,-0.42394048,210.71878,106.477585,-11.983419,JOG
2121064700000,3.02003,4.84209290115652,-2.0677088499755,-1.060571941921,1.0699304,1.0833695,-0.6114761,211.03477,105.77436,-11.406887,JOG
2121069615000,3.024945,4.88170448890877,-1.67642087084079,-1.48370258282648,0.890947,1.2776246,-0.8042041,211.41968,105.14246,-10.763127,JOG
2121074708000,3.030038,4.85262002713178,-1.23045881989664,-1.3625172748062,0.7666359,1.3292428,-0.95539325,211.84187,104.50575,-10.066748,JOG
2121079728000,3.035058,4.81509208719984,-0.796002674464985,-1.21691743072943,0.7315111,1.2370021,-1.0916162,212.27173,103.91799,-9.316509,JOG
2121084659000,3.039989,4.69647639420275,-0.416432818537124,-0.83260295500854,0.786489,1.0210613,-1.1829406,212.67206,103.32959,-8.536156,JOG
2121089592000,3.044922,4.57269716749306,-0.051321961715589,-0.443667142850059,0.9618073,0.72784597,-1.2296717,213.00772,102.72441,-7.750054,JOG
2121094650000,3.04998,4.38535690297501,0.150429183823879,0.00787113573978582,1.1795808,0.39370266,-1.2608259,213.26411,102.101105,-6.9510903,JOG
2121099657000,3.054987,4.18481292884559,0.308680249890759,0.443999650575731,1.3891076,0.046731193,-1.2730432,213.41837,101.4233,-6.18288,JOG
2121104639000,3.059969,3.79977645286881,-0.0434872347072138,0.744515891024506,1.5906931,-0.3036,-1.2907583,213.4755,100.70498,-5.415314,JOG
2121109834000,3.065164,3.35829738244254,-0.468121552369536,1.03463260048671,1.7647897,-0.6404922,-1.3723087,213.42616,99.90235,-4.670271,JOG
2121114709000,3.070039,2.48304888987832,-1.52851873984137,1.03884056691302,1.9172006,-0.9306532,-1.5149459,213.29097,99.05859,-3.909451,JOG
2121119953000,3.075283,1.54155081910771,-2.66917983750338,1.04336704402884,2.1120665,-1.1133019,-1.666135,213.08578,98.1394,-3.193865,JOG
2121124734000,3.080064,0.656670805851911,-3.83622787022293,1.07986506082803,2.3185391,-1.187522,-1.7971655,212.83154,97.182465,-2.4440598,JOG
2121129657000,3.084987,-0.258296426224124,-5.05618431031051,1.12209428829618,2.5308146,-1.2843442,-1.9349157,212.52173,96.18821,-1.6493665,JOG
2121136357000,3.091687,-0.964776102341207,-7.03871878404199,2.54004361406824,2.6853635,-1.4333953,-2.0247128,212.34734,95.34255,-1.1202207,JOG
2121139541000,3.094871,-1.25929737259843,-8.00551673385827,3.31796384251969,2.656653,-1.328021,-2.0583105,212.23358,94.5237,-0.56633425,JOG
2121144652000,3.099982,-0.864266791943372,-9.93086784011484,1.86855529119751,2.5201247,-0.37873647,-2.0592268,212.58229,93.890656,-0.32220557,JOG
2121149551000,3.104881,-0.381211142599743,-11.8212872282942,0.154636841247401,2.0925188,1.3460416,-1.9507982,213.19327,93.373215,-0.08235332,JOG
2121154649000,3.109979,-0.451438788073581,-14.4602872048088,-0.712603753836037,1.7574593,2.7464502,-1.8716911,213.88237,92.57284,0.17724541,JOG
2121159561000,3.114891,-0.60133855674102,-17.099431855253,-1.41667845313615,2.0683897,3.0946434,-1.9199494,214.77094,91.77182,0.45402446,JOG
2121164672000,3.120002,-2.94888211775821,-18.0338245492394,0.504051321056846,2.375655,2.6184738,-2.0140228,215.9073,91.52999,0.719581,JOG
2121169573000,3.124903,-5.71562187480084,-18.503559305044,2.9701605057546,2.3554964,1.8771889,-2.0986276,217.04521,91.40842,1.0108008,JOG
2121174734000,3.130064,-7.12169089136273,-18.7846842460718,3.30311821104657,2.325564,0.7632761,-2.1368067,217.86357,91.43297,1.2882155,JOG
2121179721000,3.135051,-8.13591609189601,-19.0075415506142,3.10755016372726,2.3328943,-0.64751714,-2.0693061,218.3737,91.58789,1.5660378,JOG
2121184681000,3.140011,-8.85708613552127,-19.1535635590641,0.154931189222487,2.3408356,-1.7162259,-1.8988746,218.51196,88.34919,1.5602592,JOG
2121189668000,3.144998,-9.47515609100321,-19.2722328872554,-3.84027589432654,2.356718,-1.8872682,-1.8133535,218.51399,87.94171,1.5841433,JOG
2121194642000,3.149972,-10.0272296365964,-19.3416548205633,-5.39697676013394,2.2519548,-0.958753,-1.8777997,218.46303,87.503334,1.4954057,JOG
2121199625000,3.154955,-10.5630007758519,-19.3980519375616,-6.30402767641324,2.0265455,0.43982297,-1.8909334,218.50958,87.021774,1.3888108,JOG
2121204638000,3.159968,-10.184295787733,-19.4338636303869,-5.21637458067749,1.8845193,1.6667458,-1.7437148,218.7101,87.157265,1.103463,JOG
2121209641000,3.164971,-9.50243472158749,-19.4626742517539,-3.46850472975546,1.8903224,2.4251351,-1.6065756,219.17502,87.24713,0.8557247,JOG
2121214619000,3.169949,-7.80589954964293,-19.4803829411823,-1.70358394083515,1.8762726,2.6682594,-1.6829338,219.77148,87.46678,0.6069982,JOG
2121219644000,3.174974,-5.76296765740924,-19.4947028454672,0.0863679598293987,1.8075503,2.4425447,-1.9639318,220.44113,87.63864,0.42115152,JOG
2121224730000,3.18006,-3.52804817771052,-18.9940560213426,0.503557203220799,1.7293595,1.9865338,-2.2537873,221.13441,87.50173,0.39814684,JOG
2121229732000,3.185062,-1.27416315608459,-18.3295081975165,0.447790968897943,1.6719382,1.6924021,-2.286163,221.80342,87.36576,0.4009149,JOG
2121234666000,3.189996,-0.0647691735310622,-17.8397563835671,0.0169618666533066,1.5909985,1.3796391,-2.1273382,222.43163,86.954605,0.6702224,JOG
2121239645000,3.194975,0.704464320087174,-17.4193062751503,-0.585046977865731,1.5690074,1.2394456,-1.9327776,223.02452,86.53569,0.93610036,JOG
2121244655000,3.199985,1.36725000409924,-17.1217027976856,-1.28192093651074,1.541213,1.0555751,-1.8335121,223.58505,86.09442,1.4021626,JOG
2121249655000,3.204985,1.97771629320388,-16.8822122612533,-2.01917630573698,1.45783,1.1307116,-1.6899587,224.17647,85.67915,1.7876856,JOG
2121254643000,3.209973,2.51110207554558,-16.7378951719356,-1.83846952571895,1.4556919,1.5158621,-1.5479325,224.74484,85.27082,2.2140515,JOG
2121259630000,3.21496,3.00301653123598,-16.6453559605344,-1.15660791429227,1.5066991,1.8377881,-1.4257594,225.31598,84.87593,2.593183,JOG
2121264712000,3.220042,2.99183825840507,-16.3349124940141,-0.56847021865044,1.4749341,1.8414533,-1.3652838,225.8099,84.525276,3.0114934,JOG
2121269641000,3.224971,2.75364607686752,-15.937925849906,-0.0453815688878994,1.3329079,1.6600263,-1.3448198,226.3419,84.192184,3.394672,JOG
2121274701000,3.230031,2.30604273420841,-15.3378910870613,-0.0906423066488079,1.1252137,1.461495,-1.3393221,226.91829,83.78485,3.805772,JOG
2121279729000,3.235059,1.75998258365926,-14.6456420273239,-0.426017826455934,0.8863655,1.3051136,-1.2702943,227.45288,83.42913,4.186842,JOG
2121284652000,3.239982,1.28950634950916,-13.8278283867801,-0.845551181433246,0.65240407,1.3408492,-1.241889,228.01875,83.070915,4.5586576,JOG
2121289643000,3.244973,0.898489971291448,-12.8111854223386,-1.3929740891623,0.43890667,1.5393804,-1.1951579,228.58356,82.77357,4.8970704,JOG
2121294654000,3.249984,0.413602932605769,-11.9760591865385,-1.71099779831731,0.29352075,1.7595973,-1.1007792,229.1392,82.58782,5.1520357,JOG
2121299654000,3.254984,-0.134300903932692,-11.2716111096154,-1.86754178870192,0.17989981,1.921782,-1.0149527,229.7289,82.44064,5.388278,JOG
2121305354000,3.260684,-0.889689392923729,-10.1283251101695,-1.92207730105932,0.07941248,2.090381,-0.9266826,230.30042,82.36912,5.5769486,JOG
2121309636000,3.264966,-1.53095475769774,-9.07747772760291,-1.89311690644673,0.0021380284,2.2452352,-0.8359691,230.90468,82.32521,5.7350855,JOG
2121314665000,3.269995,-2.3396941151119,-8.02142857833234,-1.80406058449198,-0.048258353,2.3753495,-0.7284568,231.5192,82.35544,5.819193,JOG
2121319645000,3.274975,-3.1898278043573,-7.13351105010893,-1.66709460588235,-0.10293079,2.4636195,-0.6383542,232.15253,82.40781,5.8811426,JOG
2121324666000,3.279996,-3.97401934131666,-6.12014082565931,-1.66390700929869,-0.15332718,2.5298984,-0.5729916,232.794,82.515045,5.863006,JOG
2121329706000,3.285036,-4.69062404692323,-4.98865949649346,-1.79119866313733,-0.20738874,2.620001,-0.4605924,233.44952,82.65705,5.8067546,JOG
2121335574000,3.290904,-5.39887021328235,-3.63387391985309,-1.8827782411451,-0.23915374,2.758973,-0.3203988,234.12624,82.87077,5.6440616,JOG
2121339653000,3.294983,-5.81946050847253,-2.67084012046689,-1.91422426101831,-0.23640485,2.8188376,-0.24770586,234.78726,83.09306,5.4738183,JOG
2121344602000,3.299932,-6.26994922769917,-1.44260299112145,-1.76595011475643,-0.2302962,2.8619037,-0.11056661,235.43477,83.41532,5.1933117,JOG
2121349652000,3.304982,-6.6603057878549,-0.119983342939892,-1.39855578135979,-0.21319197,2.7687466,0.03573562,236.03952,83.74854,4.897581,JOG
2121354604000,3.309934,-6.94556281600832,1.13926741369171,-0.932736099310959,-0.20708331,2.552806,0.1908954,236.63223,84.167175,4.4962053,JOG
2121359634000,3.314964,-7.06001814795565,2.35058513173943,-0.269849614151074,-0.24007004,2.2198844,0.32925636,237.15298,84.61784,4.0623384,JOG
2121364598000,3.319928,-7.02198120038105,3.40812130411946,0.350153114601442,-0.34330627,1.8206838,0.47219884,237.63713,85.11087,3.5371404,JOG
2121369647000,3.324977,-6.68335849783728,4.20985986580845,0.912863998208033,-0.5152648,1.3906348,0.5873469,238.0116,85.641396,2.9813597,JOG
2121375415000,3.330745,-6.06186248281341,4.84084872290254,1.42605539815927,-0.7440339,0.97035944,0.67256266,238.32831,86.14083,2.3842602,JOG
2121379673000,3.335003,-5.4179155559194,5.08183506347607,1.70259707002519,-0.9831876,0.52656585,0.69974613,238.51077,86.66293,1.7695682,JOG
2121384545000,3.339875,-4.65606412681275,5.1941702498008,1.97473376043825,-1.2113458,0.05497787,0.68539083,238.60605,87.09978,1.1856295,JOG
2121389649000,3.344979,-3.80407165717131,4.96048076294821,2.16460627151394,-1.4040737,-0.45020768,0.6169739,238.56012,87.52162,0.6062229,JOG
2121394586000,3.349916,-2.98255890737745,4.76381197410987,2.3129918921294,-1.5803084,-0.93615097,0.5186246,238.41624,87.83664,0.13988411,JOG
2121399657000,3.354987,-2.14434041264424,4.6249071361081,2.38962906137686,-1.7397442,-1.4379768,0.4175264,238.11911,88.10861,-0.30998963,JOG
2121404589000,3.359919,-1.41286395921,4.49192489364677,2.45675846567334,-1.8750509,-1.9019289,0.34330627,237.71442,88.311195,-0.6267131,JOG
2121409672000,3.365002,-0.864093604497073,4.36005007222756,2.50780683522678,-1.9911152,-2.2770002,0.30176744,237.18845,88.4545,-0.9293511,JOG
2121414794000,3.370124,-0.318202045520091,4.21618339423613,2.56340470492718,-2.022575,-2.5854871,0.29718593,236.56744,88.567184,-1.1058711,JOG
2121419651000,3.374981,0.051761840528871,3.85102398977378,2.70274190551596,-1.9978348,-2.8096747,0.3472769,235.86115,88.58565,-1.292371,JOG
2121424709000,3.380039,0.451708420458197,3.42784898880294,2.82996036298721,-1.8939877,-2.881146,0.39828414,235.12704,88.584526,-1.3898134,JOG
2121429630000,3.38496,0.984539014757513,2.59588544109888,2.77854682088664,-1.7241671,-2.820365,0.3915646,234.36586,91.49037,-1.4903427,JOG
2121434809000,3.390139,1.64082937118559,1.57789751015508,2.75701853286643,-1.4856243,-2.5925121,0.29718593,233.64311,91.53623,-1.5222013,JOG
2121439650000,3.39498,3.14059538829415,-0.694943715666167,3.03919095397699,-1.217149,-2.4657576,0.22357668,232.90863,91.59808,-1.5604931,JOG
2121445143000,3.400473,4.84235426703352,-3.27389782709688,3.35936717978989,-1.067487,-2.1285598,-0.06841691,232.31137,91.4852,-1.4141734,JOG
2121449652000,3.404982,5.20334750146613,-4.0591843251365,3.32231048619818,-0.68508536,-2.0494528,-0.19333886,231.67802,91.35786,-1.2926801,JOG
2121454612000,3.409942,5.19374170166835,-4.40019219894843,3.16381391188069,-0.61361414,-2.0888536,-0.45204028,231.10857,91.12965,-1.047126,JOG
2121459620000,3.41495,4.62378549672935,-4.39014017863573,2.40227852884577,-0.5207626,-2.3289237,-0.70096785,230.55476,90.47399,-0.40618786,JOG
2121464681000,3.420011,3.78026961888378,-4.21077181876375,1.34545992672534,-0.49266282,-2.5109615,-0.8341365,230.01515,90.28218,0.27325642,JOG
2121469647000,3.424977,2.89149207338058,-3.82191529923146,0.385388313075157,-0.5348125,-2.493552,-0.89980453,229.46837,88.99819,0.9994917,JOG
2121474649000,3.429979,1.96871388721429,-3.33422948545763,-0.546952385058389,-0.659429,-2.3515258,-0.91751957,228.91588,88.24746,1.7430086,JOG
2121479715000,3.435045,1.03328101858256,-2.99773741828544,-1.6087580349245,-0.8405506,-2.2440135,-0.8881981,228.31622,87.67123,2.3285468,JOG
2121484649000,3.439979,0.121845164856308,-2.73995757212859,-2.69511596488066,-1.0149527,-2.251344,-0.8035932,227.73093,92.89762,2.8934634,JOG
2121489641000,3.444971,-0.782427940009891,-3.10125606102868,-3.26647741909001,-1.1282681,-2.2626448,-0.72784597,227.11693,93.31521,3.2640014,JOG
2121494690000,3.45002,-1.68636197127102,-3.83779479218595,-3.52952697306627,-1.135904,-2.1111503,-0.732122,226.549,93.76349,3.6218498,JOG
2121499650000,3.45498,-2.02728969595804,-6.21932760647948,-1.20802517349583,-0.94897914,-1.7776178,-0.8686504,225.93555,94.1515,3.7975867,JOG
2121504646000,3.459976,-2.02236881836882,-9.67378608912887,2.77296751950015,-0.45845437,-1.1881329,-1.0088439,225.43553,94.555626,3.9678617,JOG
2121509636000,3.464966,-4.20113921028262,-12.2797771046302,1.0977468339547,0.21777347,0.08582657,-0.91599244,225.22736,94.79862,3.9148479,JOG
2121514678000,3.470008,-7.53055872507517,-14.4768066235719,-3.51407966047304,1.320996,1.3271047,-0.19150625,225.1821,94.80016,3.7231414,JOG
2121519643000,3.474973,-9.34606081767221,-15.8768321796675,-7.30610105178147,1.640784,1.813048,0.84574294,225.50766,94.236664,3.450602,JOG
2121524658000,3.479988,-10.4549182953444,-16.9126791193349,-10.7650073035629,0.9950995,1.9071213,1.8115209,226.07791,93.543976,3.014788,JOG
2121529703000,3.485033,-8.8662875362061,-16.4648882571587,-9.98380857863034,0.122478485,2.4862216,1.6279559,226.62979,93.05347,2.0169704,JOG
2121536363000,3.491693,-4.05504064546381,-14.3784381987768,-4.67606877879715,-0.46792278,2.3286183,0.8362745,226.98299,92.980515,1.0269806,JOG
2121539653000,3.494983,-2.56298405046451,-12.3271205064816,-2.36904255876634,-0.5366451,1.6566665,0.6432411,227.14679,93.89586,-0.15199068,JOG
2121544665000,3.499995,-1.13188195097224,-8.23085004844982,0.845751860721616,-0.49571714,-0.20066923,0.59773165,226.94165,95.11349,-1.0735806,JOG
2121549649000,3.504979,-1.24656685660541,-5.2463086415416,1.95622133808065,-0.46639562,-2.0234911,0.59498274,226.7867,95.62594,-1.3318992,JOG
2121554646000,3.509976,-2.59990217292496,-3.13080616805513,1.38948169831547,-0.60994893,-3.4300084,0.4569272,226.21262,96.14268,-1.5760239,JOG
2121559612000,3.514942,-3.88553671978868,-1.95916003192456,-0.100015101451565,-0.80481493,-4.399757,0.3200934,225.40327,96.174324,-1.7213863,JOG
2121564708000,3.520038,-5.1626082586847,-1.41941669123136,-2.28790362211909,-0.88239485,-4.927239,0.35979962,224.3267,96.22252,-1.9065042,JOG
2121569642000,3.524972,-6.12270381971202,-1.5125505898709,-3.98983365486594,-0.77824235,-4.8569894,0.57848936,223.0875,96.48796,-2.325307,JOG
2121574659000,3.529989,-6.89088070355511,-2.07079083469712,-5.40690513372393,-0.65576386,-4.384791,0.9034697,221.82428,96.807884,-2.7988777,JOG
2121579699000,3.535029,-7.37726682291893,-2.70454611019058,-6.37764814661795,-0.6450737,-3.7513235,1.2822062,220.5108,97.58406,-3.6079435,JOG
2121584655000,3.539985,-7.63503769591192,-3.3841240175274,-6.98223825527797,-0.7629707,-3.0268373,1.6636915,219.37746,98.43833,-4.5029473,JOG
2121589642000,3.544972,-7.78398104195723,-3.9860658419187,-7.33693175761896,-0.9877691,-2.3182335,1.9813415,218.37585,99.64141,-5.6026077,JOG
2121594660000,3.54999,-7.83489803351955,-4.51838023128492,-7.46653874189944,-1.2379184,-1.7666223,2.228742,217.5694,100.94199,-6.7718434,JOG
2121599647000,3.554977,-7.74964201362913,-5.32812085499381,-7.56374074928407,-1.3869696,-1.4306464,2.5030203,216.92307,102.41962,-8.041819,JOG
2121604645000,3.559975,-7.50003737007248,-6.47884095550645,-7.62296903717518,-1.4437801,-1.2336423,2.8081474,216.43596,103.974106,-9.363323,JOG
2121609558000,3.564888,-7.11559982209864,-7.7676806210703,-7.88054038203568,-1.5259414,-0.99265605,3.0897565,216.0845,105.590416,-10.701488,JOG
2121614634000,3.569964,-6.03930337101784,-9.8692642506191,-9.1200663456873,-1.6520851,-0.4746423,3.3573153,215.9145,107.262276,-12.073807,JOG
2121619549000,3.574879,-4.97182216253424,-11.9052962812215,-10.2019456070813,-1.8497,0.30024028,3.6129625,215.91727,108.89,-13.32876,JOG
2121624602000,3.579932,-3.80339334538906,-14.0015951288424,-10.9825349130567,-2.0610592,1.1456778,3.7980547,216.12271,110.54591,-14.5623865,JOG
2121630507000,3.585837,-2.56745734826529,-15.8456844327901,-11.4517114850734,-2.2504275,1.8072448,3.9635992,216.57181,112.122604,-15.513348,JOG
2121634620000,3.58995,-1.83649371062692,-16.5226203840568,-11.3341212995804,-2.3231206,2.044566,4.024991,217.16618,113.67815,-16.412039,JOG
2121639542000,3.594872,-0.961754341685493,-17.3327051766984,-11.1934018993868,-2.320677,2.3160956,4.0262127,218.02258,115.03413,-16.971445,JOG
2121644617000,3.599947,0.269499990349033,-17.9075008192365,-9.30488211323748,-2.2925773,2.2660046,3.8380663,218.84854,116.32323,-17.472698,JOG
2121649615000,3.604945,1.55570551545166,-18.4153377618245,-7.05520946187407,-2.36863,1.8240436,3.4125986,219.61685,117.541435,-17.896347,JOG
2121654615000,3.609945,2.96763872882883,-18.7297898964494,-4.62154072648649,-2.7855456,1.0210613,2.8502972,220.22705,118.538055,-18.057922,JOG
2121659600000,3.61493,4.40465704414414,-18.9979665175411,-2.15229777243243,-3.3487632,0.15088372,2.2773056,220.63882,119.48264,-18.163467,JOG
2121664637000,3.619967,5.56571991443737,-19.1352255883034,-0.334051442308435,-3.7265835,-0.6230826,1.783421,220.58583,119.9933,-18.003458,JOG
2121669545000,3.624875,6.6725260163482,-19.2576996554719,1.38059070824165,-3.825849,-1.3313808,1.4138476,220.2707,120.498276,-17.855576,JOG
2121674596000,3.629926,7.48463417586436,-18.8930561578647,2.24009684888868,-3.637397,-1.8069394,1.1731668,219.70332,120.6833,-17.561495,JOG
2121679595000,3.634925,8.22585192659574,-18.4383209452888,2.91765142294833,-3.16642,-1.9110919,1.0161743,219.0483,120.806366,-17.277325,JOG
2121684622000,3.639952,7.97640584135353,-18.085381090601,2.83689119744842,-2.6019804,-1.4697418,0.90285885,218.43065,120.68182,-16.876738,JOG
2121689548000,3.644878,7.39335524111432,-17.7750484913785,2.49834586976976,-2.0427334,-0.84574294,0.6246097,217.83607,120.43245,-16.417847,JOG
2121694590000,3.64992,5.9800734140254,-17.5752753804528,2.79150435516289,-1.4908166,-0.50915617,0.19883664,217.38438,120.03,-15.876582,JOG
2121700206000,3.655536,4.06454269508559,-17.4020363036996,3.38546721413584,-1.0693196,-0.59589905,-0.063224554,216.99644,119.53715,-15.303701,JOG
2121704610000,3.65994,2.63656385689001,-16.7414571163085,3.88019268166877,-0.8350528,-0.9786061,-0.1563815,216.61183,119.01438,-14.749567,JOG
2121709588000,3.664918,1.06955134100295,-15.6616249719764,4.4577774560472,-0.7641924,-1.3805555,-0.13072516,216.20486,118.43445,-14.18831,JOG
2121714679000,3.670009,-0.186424266496548,-14.470514107075,4.38411988475933,-0.799928,-1.5656476,-0.015271631,215.67256,117.88871,-13.879038,JOG
2121719614000,3.674944,-1.23636544317022,-13.2739590830581,3.99157438911238,-0.8558222,-1.450805,0.15027285,215.15448,117.36631,-13.605649,JOG
2121724618000,3.679948,-1.91627456992772,-12.0026090837707,3.55828968201802,-0.904386,-1.1606439,0.35124752,214.65602,116.99808,-13.591722,JOG
2121729757000,3.685087,-2.41822200599069,-10.6673316053075,3.0953284738489,-0.9306532,-0.83291477,0.58032197,214.2373,116.677,-13.605469,JOG
2121736374000,3.691704,-2.56665360471558,-9.13957057073364,2.85458244063338,-0.9016371,-0.5876524,0.8011498,213.90147,116.542946,-13.8012905,JOG
2121739618000,3.694948,-2.56048514177504,-8.42095162662563,2.79289839091631,-0.81306165,-0.49877146,0.89766645,213.62769,116.4182,-13.998779,JOG
2121744606000,3.699936,-1.92546251126462,-7.48492335780557,2.91982016297902,-0.7309003,-0.38728857,1.0558805,213.47313,116.46706,-14.331473,JOG
2121749621000,3.704951,-0.922867666216216,-6.64216262162162,3.17652317432432,-0.5177083,-0.40042216,1.1688906,213.31339,116.4722,-14.67544,JOG
2121754609000,3.709939,-0.0914175832370638,-6.3182494211793,3.29374731859206,-0.25350907,-0.49938235,1.2070698,213.18858,116.53067,-15.067018,JOG
2121759591000,3.714921,0.650189517537104,-6.27040383594063,3.33680849518652,0.04428773,-0.6640105,1.1594223,213.04214,116.538055,-15.467769,JOG
2121764654000,3.719984,1.30511434029415,-6.19718089310039,3.28913364521765,0.30818152,-0.8527679,1.0690142,212.93228,116.467926,-15.763917,JOG
2121770181000,3.725511,1.96342130594216,-6.10313678679301,3.18464044835653,0.5326745,-0.9828822,0.9428705,212.78403,116.32768,-16.039486,JOG
2121774629000,3.729959,2.33222542353276,-6.05250522089269,3.3300703868471,0.70249504,-1.0088439,0.8155051,212.69455,116.10294,-16.178505,JOG
2121779623000,3.734953,2.67287057418803,-6.00708590541311,3.59804449045584,0.8258898,-0.9798279,0.68600166,212.57733,115.82054,-16.280396,JOG
2121784577000,3.739907,2.95690247218075,-5.8957483582207,3.91735541248739,0.91507614,-0.91996306,0.5662721,212.46161,115.43929,-16.286795,JOG
2121789567000,3.744897,3.19309607395602,-5.72221846574541,4.28851708870284,0.9599747,-0.86437434,0.42149702,212.34273,115.01529,-16.241432,JOG
2121794583000,3.749913,3.40542599018592,-5.4742937565986,4.40557638476074,0.9798279,-0.7968737,0.27183503,212.21217,114.48852,-16.121765,JOG
2121799574000,3.754904,3.59481098862136,-5.16350804533171,4.29874393595449,1.0103711,-0.7504479,0.11728613,212.0817,113.92301,-15.951807,JOG
2121804570000,3.7599,3.69085446045959,-4.81672490893423,3.89403636485737,1.0509937,-0.68966687,-0.00580322,211.94618,113.27727,-15.721911,JOG
2121809578000,3.764908,3.71460674572108,-4.44143870259509,3.2574745246038,1.1343768,-0.6160576,-0.116675265,211.81981,112.58918,-15.442461,JOG
2121814570000,3.7699,3.70731926029106,-3.9900584963766,2.31870213947134,1.2308935,-0.47861293,-0.22724187,211.71693,111.86265,-15.1004,JOG
2121819589000,3.774919,3.67400951725572,-3.47137776477576,1.1195505951886,1.3283265,-0.21930063,-0.3390302,211.66624,111.09598,-14.707711,JOG
2121824595000,3.779925,3.66584186910168,-2.94232029136229,0.0428404052813426,1.3753631,0.17654006,-0.45753807,211.69957,110.35955,-14.266214,JOG
2121829589000,3.784919,3.6800057010464,-2.4040943323692,-0.925022085162882,1.3603969,0.410196,-0.57940567,211.7572,109.59064,-13.783042,JOG
2121834626000,3.789956,3.69613979575972,-1.86355191413428,-1.56196694628975,1.3228287,0.904386,-0.6462954,212.02216,108.93016,-13.245753,JOG
2121839887000,3.795217,3.71488018809745,-1.30133970371025,-1.8805538606379,1.1835514,1.3341297,-0.840856,212.32019,108.241234,-12.626643,JOG
2121844592000,3.799922,3.72017614776519,-0.800885372001442,-1.94804476467559,1.029308,1.642922,-0.890947,212.74437,107.69126,-12.010392,JOG
2121849615000,3.804945,3.7053138615448,-0.270796787395778,-1.63098250345005,0.9211848,1.8032742,-0.9596693,213.23238,107.122635,-11.314214,JOG
2121854544000,3.809874,3.6782251628162,0.161736307119265,-1.22687310823314,0.89461213,1.785559,-1.0015136,213.7539,106.62881,-10.613137,JOG
2121859523000,3.814853,3.63236300334712,0.469013002076176,-0.681112989129557,0.93859446,1.6111571,-1.0186177,214.26959,106.14567,-9.895705,JOG
2121864547000,3.819877,3.54632739131556,0.661769302858985,-0.144454977964316,1.0662653,1.3127494,-1.0125091,214.72726,105.64203,-9.197459,JOG
2121869531000,3.824861,3.37703273920894,0.605337770012898,0.358298549249785,1.25319,0.9492846,-0.999681,215.11409,105.122955,-8.507017,JOG
2121874489000,3.829819,2.95716992114851,0.0256468823366337,0.653346809116832,1.4602734,0.54244834,-0.9896017,215.39038,104.519066,-7.8533216,JOG
2121879567000,3.834897,2.21566723879208,-1.21661095487129,0.701496339756436,1.6749926,0.098043874,-1.026559,215.55197,103.868416,-7.209861,JOG
2121884480000,3.83981,1.54148482955993,-2.51543372131726,0.70579365622366,1.9080375,-0.31520647,-1.1722504,215.59142,103.09375,-6.584309,JOG
2121889529000,3.844859,0.90644201735764,-3.97982350194061,0.653663278037832,2.2067506,-0.6188065,-1.3634512,215.53552,102.23937,-5.9490075,JOG
2121894488000,3.849818,0.357758280657148,-5.49678534578525,1.3801146521592,2.528066,-0.8060367,-1.527774,215.42358,101.35921,-5.418857,JOG
2121899533000,3.854863,-0.0816407255720712,-7.16461123469587,3.35032295669177,2.8130345,-1.0742066,-1.6569719,215.20421,100.39676,-4.862254,JOG
2121904518000,3.859848,-0.173202687831383,-9.1197038958036,3.97553292456942,2.9856038,-1.4428637,-1.783421,215.28188,99.715744,-4.483354,JOG
2121909549000,3.864879,0.376964775460082,-11.6688137907508,2.1278872834047,2.837469,-1.0564915,-1.8270979,215.50769,99.04983,-4.073996,JOG
2121914569000,3.869899,0.777661266442745,-13.9578775543613,-0.0567621361099628,2.3209825,0.4654793,-1.7434094,215.83057,97.9729,-3.6436684,JOG
2121919568000,3.874898,0.747974733874535,-15.5015755739975,-3.21837632795577,1.9251418,2.026851,-1.6551393,216.30386,96.92779,-3.1991622,JOG
2121924538000,3.879868,0.142917394220875,-16.7654610916024,-4.81560471812753,2.3420575,2.4904976,-1.7327193,216.97885,96.096985,-2.6199286,JOG
2121929615000,3.884945,-1.73779087787578,-17.4623511771408,-3.05551176685042,2.5576928,2.474615,-1.9394971,217.95818,95.429886,-2.007687,JOG
2121935347000,3.890677,-3.97737371014524,-18.1618046008693,-0.833920240549136,2.4425447,1.1111639,-2.2385156,218.46933,95.115715,-1.3634462,JOG
2121939567000,3.894897,-5.86676510164317,-18.4959831485211,1.28682521349518,1.7608191,0.5888741,-2.3945918,219.20348,94.95391,-0.70262706,JOG
2121944549000,3.899879,-7.77713018344141,-18.8343776898788,3.08202816993704,1.6142114,-0.5693264,-2.606562,219.30467,94.418434,-0.2775441,JOG
2121949573000,3.904903,-8.76282944629264,-19.0107176819848,2.81073481389907,1.5512923,-1.6114625,-2.6535985,219.29413,94.09191,0.13333222,JOG
2121954587000,3.909917,-9.69707492286365,-19.17526180909,1.99417497097732,1.7449366,-2.064419,-2.6502388,219.07216,93.365135,0.33297014,JOG
2121959587000,3.914917,-10.3087236009506,-19.2653499366274,-2.34900509635607,2.1453588,-1.6847663,-2.5897632,218.80618,92.64677,0.53881425,JOG
2121964662000,3.919992,-10.8753031448027,-19.3513452862007,-6.29655772701783,2.6328292,-0.15699236,-2.533869,218.70477,91.929924,0.63672847,JOG
2121969613000,3.924943,-11.0652279867815,-19.3988264966954,-7.0657540311436,2.8185322,1.8664987,-2.48164,218.8714,91.27972,0.7395575,JOG
2121974613000,3.929943,-11.1441901236824,-19.4437472354705,-7.52639059713761,2.4483478,2.9272664,-2.2064452,219.0341,91.17254,0.68269867,JOG
2121979665000,3.934995,-10.4049620006769,-19.4671405212262,-5.69703408770912,2.032654,2.9773571,-1.9410243,219.49774,91.03357,0.6485847,JOG
2121984738000,3.940068,-9.63245115424215,-19.482060995149,-3.91771868958519,1.6493362,2.545781,-1.9297233,220.09213,91.06136,0.6297355,JOG
2121989649000,3.944979,-8.53825740609841,-19.3982506791407,-2.85611825807346,1.4074335,2.07572,-2.2128594,220.69092,91.15754,0.6509823,JOG
2121994802000,3.950132,-7.29805795202387,-19.2315173893585,-1.82163914449528,1.3726143,1.7046194,-2.590374,221.25804,91.146484,0.80301225,JOG
2121999619000,3.954949,-4.98574929811039,-18.0891266757832,-1.84916661079065,1.4016303,1.4095715,-2.6429086,221.71169,91.19494,0.9504933,JOG
2122004915000,3.960245,-2.53741015304708,-16.8335091634652,-1.95695821661017,1.3891076,1.2855659,-2.3435845,222.15833,91.32089,1.224864,JOG
2122009586000,3.964916,-1.34957769435217,-15.7299198787194,-2.85415083364407,1.3142766,1.5054774,-1.9547688,222.62044,91.50891,1.4839834,JOG
2122014653000,3.969983,-0.0610426765386065,-14.5327700380414,-3.82740602322034,1.3600914,1.9422461,-1.6658295,223.09818,91.93486,1.9342704,JOG
2122019612000,3.974942,0.61015006893919,-14.2410178759544,-3.33330510170664,1.6303993,2.129171,-1.4682146,223.57016,87.700005,2.2892053,JOG
2122025120000,3.98045,1.28769564494566,-14.0183280457199,-2.61785488764035,1.7699821,2.2073615,-1.3093897,224.13681,87.39128,2.5656223,JOG
2122029624000,3.984954,1.58340571265772,-13.9497435844353,-1.96557600108004,1.6832392,2.3603833,-1.2513574,224.68005,86.968636,2.9794106,JOG
2122034553000,3.989883,1.81211220820632,-13.9163903693348,-1.22704443299687,1.6142114,2.3020456,-1.1432343,225.18695,86.603485,3.3250437,JOG
2122039609000,3.994939,1.65132178195122,-13.7765865707317,-0.82846385297561,1.4480561,2.1413882,-1.073901,225.728,86.1576,3.735787,JOG
2122044617000,3.999947,1.30974843030244,-13.5894231974634,-0.59918854483122,1.2431108,2.0082195,-1.0158689,226.26167,85.75095,4.1107635,JOG
2122049615000,4.004945,0.794055490595287,-13.1321556215378,-0.704362453389831,1.0115929,1.9364429,-0.9450085,226.79749,85.32128,4.4991875,JOG
2122054597000,4.009927,0.182620489954527,-12.5256516990492,-0.99528718779661,0.8005389,1.9550742,-0.8762862,227.32358,84.92752,4.863248,JOG
2122059635000,4.014965,-0.333703031507656,-11.5736497940715,-1.59274477862191,0.6386596,2.0735822,-0.79045963,227.88028,84.60833,5.147821,JOG
2122064653000,4.019983,-0.805399316607774,-10.4840310883392,-2.31444001060071,0.5357288,2.1746802,-0.69027776,228.43663,84.32835,5.403372,JOG
2122069613000,4.024943,-1.34666871088892,-9.56749606121203,-2.44489392756831,0.46395215,2.2837198,-0.6038403,228.96004,84.12899,5.590309,JOG
2122074641000,4.029971,-1.93224706979596,-8.71730500964738,-2.29053647661426,0.4016439,2.450486,-0.5198463,229.52533,83.96575,5.745557,JOG
2122079745000,4.035075,-2.52667665290286,-7.85426301935582,-2.1338458581438,0.36713,2.5864034,-0.46853364,230.02466,83.871284,5.864905,JOG
2122084670000,4.04,-3.10025927374955,-7.02148837159212,-1.98265046316593,0.35460728,2.6697865,-0.42852196,230.55045,83.79718,5.962556,JOG
2122089606000,4.044936,-3.93407692008513,-5.96843652663829,-1.7597061782921,0.26053402,2.7262917,-0.38087448,231.08244,83.73649,6.0504136,JOG
2122095335000,4.050665,-5.00443396100027,-4.65968201299991,-1.47265584493216,0.07666359,2.7553077,-0.33261612,231.62404,83.69025,6.1271,JOG
2122099615000,4.054945,-5.57651826470588,-3.48004288235294,-1.26244841029412,-0.08277224,2.7666087,-0.269697,232.16339,83.74172,6.0945663,JOG
2122104610000,4.05994,-6.038500398705,-1.92085297453907,-1.0209577842241,-0.23304509,2.7461448,-0.19211712,232.69107,83.81742,6.046699,JOG
2122109595000,4.064925,-6.35388444578313,-0.489801738955823,-0.727221931686747,-0.32253686,2.6685648,-0.09682214,233.26025,84.05394,5.8258486,JOG
2122114657000,4.069987,-6.59724695692771,0.897364142570281,-0.401116288728916,-0.39370266,2.574186,-0.020158553,233.80737,84.311966,5.59035,JOG
2122119612000,4.074942,-6.66310104906647,2.0955442699776,0.010405565832711,-0.4831944,2.4071145,0.06811147,234.39973,84.68918,5.231004,JOG
2122124604000,4.079934,-6.64524915003734,3.2246776292009,0.470092301366692,-0.57940567,2.2996023,0.17470746,234.97585,85.099655,4.841444,JOG
2122129647000,4.084977,-6.49144115983567,4.18723079603673,0.992414541952634,-0.68630713,2.0390682,0.23304509,235.5167,85.56083,4.3971114,JOG
2122135533000,4.090863,-6.16995461058482,5.12444529057516,1.66263176952151,-0.74097955,1.638646,0.39858958,235.98193,86.089615,3.8856175,JOG
2122139608000,4.094938,-5.79698169661284,5.62980838519102,2.06707393922804,-0.97402465,1.4856243,0.44073927,236.48901,86.59757,3.392086,JOG
2122144612000,4.099942,-5.19299800972824,6.11110784718393,2.50590591756597,-1.0659598,1.1429288,0.49754974,236.8219,87.15863,2.8395703,JOG
2122149612000,4.104942,-4.50081737455549,6.46463807357449,2.83294977933783,-1.2406673,0.7770206,0.5494733,237.1445,92.312935,2.312163,JOG
2122154610000,4.10994,-3.68888492004905,6.64561102636419,3.00903157676272,-1.4364496,0.3381139,0.5674938,237.34189,91.788445,1.7695237,JOG
2122159567000,4.114897,-2.95451195563401,6.69109693998453,3.1177531842538,-1.6490307,-0.12675454,0.5748242,237.4528,91.368866,1.2959151,JOG
2122165041000,4.120371,-2.23450729551214,6.56940593321404,3.15324629528968,-1.8961257,-0.61208695,0.5479461,237.42538,91.07076,0.81781477,JOG
2122169544000,4.124874,-1.67257029530036,6.40313706223577,3.19901406272736,-2.1542163,-1.0968086,0.52564955,237.27626,91.07176,0.44491613,JOG
2122174612000,4.129942,-1.08562344547242,6.11682147104513,3.27536492026349,-2.3829854,-1.5674802,0.5039638,236.98639,91.32306,0.06964233,JOG
2122179600000,4.13493,-0.533194263885402,5.70351913444293,3.36269607305139,-2.545781,-2.0118847,0.52839845,236.57,91.72746,-0.21883635,JOG
2122184646000,4.139976,-0.0189628611132333,5.05303842541155,3.4725745932151,-2.6123652,-2.3765712,0.5864306,236.0379,92.20496,-0.52212733,JOG
2122189556000,4.144886,0.537590759941453,4.26974987397805,3.59057872430737,-2.5799894,-2.6096163,0.6600399,235.42265,92.67847,-0.7536409,JOG
2122194616000,4.149946,1.41911751992054,2.6384187289702,3.77296355441715,-2.4010057,-2.6838365,0.7134906,234.74655,93.138664,-1.0063332,JOG
2122199573000,4.154903,2.40202727123804,0.873575311754967,4.02533926422001,-2.0916026,-2.5228734,0.70371675,234.07861,93.4999,-1.1717423,JOG
2122204610000,4.15994,3.76860377882634,-1.4336317115894,4.50896529959529,-1.6255124,-2.101682,0.573297,233.4614,93.7634,-1.3191797,JOG
2122209589000,4.164919,5.12838924405887,-3.67428462850236,4.99802916780189,-1.0381655,-1.6865989,0.41599923,232.88611,93.79575,-1.2917715,JOG
2122214660000,4.16999,6.62579632428019,-5.45343381009884,5.63455750807907,-0.5122105,-1.5192219,0.19181168,232.35811,93.69568,-1.202401,JOG
2122219617000,4.174947,7.82089391107733,-7.02446313441776,6.05380634401541,-0.20250183,-1.616044,-0.12186762,231.8515,93.253975,-0.71692556,JOG
2122224621000,4.179951,8.06859196179183,-8.01039962648221,5.75268294808959,-0.07971791,-1.6969837,-0.44593164,231.40524,92.76846,-0.16001274,JOG
