timestamp,rel_time,acc_x,acc_y,acc_z,gyro_x,gyro_y,gyro_z,azimuth,pitch,roll,label
119896834439000,0,1.574886363236,-9.75958662004,-1.52013493822,-0.21563543,0.16279559,0.04795292,137.06366,105.90958,-14.7162,STD
119896839421000,0.004982,1.589438414077,-9.74479603353,-1.522043405415,-0.17440203,0.18448131,0.059253927,137.33345,105.70626,-14.482287,STD
119896844480000,0.010041,1.6042153761815,-9.729776849035,-1.5239813691925,-0.14202617,0.21899518,0.0571159,137.613,105.502075,-14.247571,STD
119896849630000,0.015191,1.6192581425065,-9.714487503285,-1.5259541925675,-0.11942416,0.2415972,0.059253927,137.89574,105.30359,-14.020435,STD
119896854447000,0.020008,1.63332824064,-9.7001867696,-1.5277994528,-0.0693332,0.25350907,0.06658431,138.18513,105.104034,-13.79675,STD
119896859462000,0.025023,1.6479766820225,-9.685298212525,-1.5297205613875,-0.048258353,0.26328292,0.07391469,138.48003,104.91054,-13.576208,STD
119896864446000,0.030007,1.6625345747145,-9.670501688405,-1.5316297947275,-0.034513887,0.28008172,0.0693332,138.77956,104.71563,-13.356855,STD
119896869441000,0.035002,1.677124597587,-9.65567250743,-1.533543241865,-0.02076942,0.27580565,0.06994407,139.07527,104.526085,-13.144352,STD
119896874430000,0.039991,1.6916970949065,-9.640861139285,-1.5354543905675,-0.0067195175,0.27275133,0.067500606,139.375,104.337364,-12.931959,STD
119896879452000,0.045013,1.7063659827675,-9.625951800575,-1.5373781806625,0.006414085,0.26206118,0.07360926,139.67055,104.15388,-12.725326,STD
119896884438000,0.049999,1.7209297173105,-9.611149338845,-1.5392881801475,0.018325957,0.26083946,0.070249505,139.96649,103.97009,-12.517831,STD
119896889416000,0.054977,1.7354700844495,-9.596370627555,-1.5411951150525,0.028405234,0.26419923,0.083383106,140.2603,103.794975,-12.319597,STD
119896894461000,0.060022,1.750206153597,-9.58139300633,-1.543127715815,0.038789943,0.27122417,0.08002335,140.55305,103.617424,-12.118229,STD
119896899447000,0.065008,1.76476988814,-9.5665905446,-1.5450377153,0.0421497,0.2751948,0.07819075,140.84514,103.44728,-11.923436,STD
119896904458000,0.070019,1.7794066458205,-9.551713862745,-1.5469572915975,0.061086524,0.27672195,0.08277224,141.13736,103.27848,-11.731738,STD
119896909447000,0.075008,1.79397914314,-9.5369024946,-1.5488684403,0.077579886,0.27855456,0.082161374,141.42928,103.11165,-11.540203,STD
119896914451000,0.080012,1.808595454342,-9.52204659438,-1.55078533509,0.09193522,0.2773328,0.0870483,141.71968,102.948944,-11.353814,STD
119896919574000,0.085135,1.8235593556785,-9.506837406365,-1.5527478155075,0.10048734,0.2669481,0.087659165,142.00635,102.78735,-11.168453,STD
119896924439000,0.09,1.837769658236,-9.49239417004,-1.55461146322,0.105374254,0.23854288,0.094989546,142.28635,102.63093,-10.9890995,STD
119896929448000,0.095009,1.8524005740655,-9.477523425795,-1.5565302733725,0.09132435,0.21044308,0.10140363,142.56192,102.4796,-10.812053,STD
119896934436000,0.099997,1.8669701504595,-9.462715026455,-1.5584410390025,0.084910266,0.183565,0.1142318,142.82864,102.33355,-10.641791,STD
119896939414000,0.104975,1.8815105175985,-9.447936315165,-1.5603479739075,0.07422013,0.16065755,0.118507855,143.08696,102.19308,-10.473601,STD
119896944466000,0.110027,1.88426295697204,-9.41700034396782,-1.5512320023709,0.05100725,0.1459968,0.12644911,143.33913,102.06277,-10.312495,STD
119896949443000,0.115004,1.88069058581408,-9.37818056461888,-1.53646620191621,0.02565634,0.14355333,0.12217305,143.58672,101.93568,-10.151213,STD
119896954441000,0.120002,1.87710314136008,-9.3391969887326,-1.52163809850601,-0.006414085,0.15118915,0.118507855,143.83525,101.85451,-9.981671,STD
119896959448000,0.125009,1.87350923692208,-9.30014321433033,-1.50678329382917,-0.04184427,0.16646078,0.12370021,144.08488,101.78199,-9.81414,STD
119896964534000,0.130095,1.86985862817998,-9.26047325295426,-1.49169411136733,-0.087659165,0.17837265,0.13072516,144.33516,101.71898,-9.646802,STD
119896969480000,0.135041,1.86630850807805,-9.22189526849377,-1.47702028194219,-0.1328632,0.183565,0.13255776,144.58734,101.66495,-9.479947,STD
119896974478000,0.140039,1.86272106362405,-9.18291169260749,-1.46219217853199,-0.19272798,0.19028452,0.13347405,144.84303,101.62576,-9.314987,STD
119896979477000,0.145038,1.85913290139406,-9.1439203168861,-1.44736110831439,-0.22174409,0.18600847,0.13133603,145.09639,101.592064,-9.150424,STD
119896984442000,0.150003,1.85556914354811,-9.1051941355585,-1.43263090954855,-0.28130344,0.19853121,0.13713925,145.35628,101.57954,-8.987966,STD
119896989481000,0.155042,1.85195227027806,-9.06589076643266,-1.41768116703475,-0.35338554,0.18967366,0.14049901,145.60803,101.577095,-8.825564,STD
119896994520000,0.160081,1.84833539700802,-9.02658739730682,-1.40273142452095,-0.42088616,0.17959438,0.14446963,145.8627,101.58977,-8.664879,STD
119896999460000,0.165021,1.8447895835621,-8.988056211857,-1.38807539594024,-0.47647488,0.16707164,0.15271631,146.11388,101.61889,-8.506996,STD
119897004475000,0.170036,1.84118993691608,-8.94894003877383,-1.37319685680416,-0.50701815,0.17195857,0.15454891,146.36656,101.65893,-8.348237,STD
119897009509000,0.17507,1.83757665252604,-8.90967566882354,-1.35826194832738,-0.54641896,0.16432275,0.1563815,146.61194,101.716515,-8.192833,STD
119897014483000,0.180044,1.83400643469608,-8.87087928897994,-1.3435050482949,-0.58093286,0.1423316,0.15424347,146.85403,101.78185,-8.037244,STD
119897019475000,0.185036,1.83042329689809,-8.83194251210433,-1.32869474572913,-0.60994893,0.13713925,0.14996742,147.09828,101.85685,-7.881164,STD
119897024474000,0.190035,1.8268351346681,-8.79295113638294,-1.31386367551153,-0.6133087,0.14569137,0.14355333,147.33955,101.93524,-7.7242336,STD
119897029474000,0.195035,1.8232462546621,-8.75395196082644,-1.29902963848652,-0.61422503,0.14905111,0.13683382,147.57726,102.020584,-7.566515,STD
119897035257000,0.200818,1.81909535604717,-8.70884551437779,-1.2818725912634,-0.5900958,0.14813483,0.13897185,147.81587,102.10335,-7.409432,STD
119897039464000,0.205025,1.81607567241012,-8.67603160806456,-1.26939123251056,-0.573297,0.16035213,0.14477506,148.05862,102.18892,-7.250901,STD
119897044570000,0.210131,1.812410708148,-8.63620564998626,-1.25424271390062,-0.54092115,0.17470746,0.15210545,148.30144,102.267334,-7.0936036,STD
119897049471000,0.215032,1.80889288796612,-8.59797865810578,-1.2397023908087,-0.50823987,0.19028452,0.1740966,148.54857,102.34608,-6.9416676,STD
119897054480000,0.220041,1.80529754797612,-8.55890928403328,-1.22484165251705,-0.48441613,0.21655174,0.19181168,148.80234,102.42053,-6.7895923,STD
119897059762000,0.225323,1.80150625513778,-8.51771055497539,-1.20917097580383,-0.45906523,0.2489276,0.20708331,149.06256,102.490395,-6.6420455,STD
119897064446000,0.230007,1.79814419234817,-8.48117612731406,-1.1952744499188,-0.43676865,0.2947425,0.23060162,149.33449,102.55944,-6.49976,STD
119897069437000,0.234998,1.79456177232618,-8.44224715027357,-1.18046711416044,-0.38973203,0.31948254,0.24465153,149.6089,102.61716,-6.358467,STD
119897074432000,0.239993,1.79097648120019,-8.40328697389262,-1.16564791117246,-0.36713,0.38545597,0.27183503,149.90868,102.680534,-6.222533,STD
119897079451000,0.245012,1.78737396345017,-8.36413960146901,-1.15075750480676,-0.30665436,0.45906523,0.31215215,150.21768,102.72637,-6.092199,STD
119897084445000,0.250006,1.78378939010018,-8.32518722492318,-1.13594126862618,-0.22204952,0.56169057,0.3399465,150.55266,102.76199,-5.96022,STD
119897089416000,0.254977,1.78022132559822,-8.28641424458491,-1.12119326901591,-0.12705997,0.65270954,0.3662137,150.90521,102.784485,-5.8349366,STD
119897094463000,0.260024,1.77659871012017,-8.24704847677818,-1.10621979204287,-0.025045475,0.73945236,0.3933972,151.28462,102.787254,-5.7113514,STD
119897099436000,0.264997,1.77302921006621,-8.20825989676968,-1.0914658588178,0.058948494,0.8304713,0.41538838,151.6892,102.77327,-5.587404,STD
119897105257000,0.270818,1.76885103596322,-8.1628570565868,-1.07419607291328,0.14660765,0.89980453,0.42241332,152.10944,102.73443,-5.4623265,STD
119897109497000,0.275058,1.76580766571814,-8.12978575571489,-1.06161680951608,0.20463985,0.9596693,0.43982297,152.55081,102.68676,-5.3407927,STD
119897114445000,0.280006,1.76225611006421,-8.09119217158418,-1.04693704647613,0.25534168,1.0045679,0.46120325,153.0041,102.62129,-5.21852,STD
119897119438000,0.284999,1.75867225449022,-8.05224759487346,-1.03212377710296,0.2773328,1.0323622,0.46792278,153.46533,102.550545,-5.093819,STD
119897124438000,0.289999,1.75508337448422,-8.01324841931696,-1.01728974007795,0.2947425,1.0748174,0.48899764,153.9409,102.47422,-4.9749746,STD
119897129447000,0.295008,1.75148803449422,-7.97417904524446,-1.00242900178629,0.29443705,1.0684034,0.49632803,154.4055,102.39826,-4.8545675,STD
119897134436000,0.299997,1.74790705002423,-7.93526566787418,-0.987627599642741,0.2941316,1.0809261,0.48899764,154.883,102.320816,-4.731543,STD
119897139454000,0.305015,1.74430525005022,-7.89612609528568,-0.972740160084443,0.28191432,1.0800097,0.47952923,155.35045,102.24947,-4.6101465,STD
119897144454000,0.310015,1.74931572720475,-7.91641420165144,-0.979478712475758,0.28191432,1.0913107,0.44409904,155.8182,102.17367,-4.4771285,STD
119897149436000,0.314997,1.75933177140972,-7.97126393789112,-0.998795362397785,0.27091873,1.0906999,0.4089743,156.27716,102.10538,-4.341424,STD
119897154438000,0.319999,1.76938802454366,-8.02633386576564,-1.01818955808425,0.26328292,1.0830641,0.36743546,156.71504,102.07249,-4.234982,STD
119897159549000,0.32511,1.77966341634044,-8.08260383805006,-1.03800637818692,0.2556471,1.0775663,0.3295618,157.14937,102.040276,-4.1177864,STD
119897164461000,0.330022,1.78953872929404,-8.13668290356779,-1.0570516179334,0.25137106,1.0647382,0.3042109,157.57565,102.007454,-3.9917545,STD
119897169438000,0.334999,1.79954472126677,-8.19147759189875,-1.07634888141432,0.23915374,1.026559,0.2941316,157.98979,101.97791,-3.8598254,STD
119897174879000,0.34044,1.81048356039147,-8.25138072615811,-1.09744520663025,0.23518312,0.9660834,0.28099802,158.3903,101.946106,-3.7208445,STD
119897179456000,0.345017,1.81968537378491,-8.30177158179219,-1.11519155482236,0.20799962,0.9315695,0.2864958,158.78577,101.92618,-3.5839818,STD
119897184430000,0.349991,1.8296853344183,-8.35653324137793,-1.13447718643861,0.19853121,0.870483,0.29626966,159.15425,101.903244,-3.4488034,STD
119897189415000,0.354976,1.83970740996261,-8.41141600636284,-1.1538054682253,0.18387043,0.79259765,0.29718593,159.50618,101.890274,-3.3148022,STD
119897194561000,0.360122,1.85005316738509,-8.46807131400824,-1.17375799341574,0.13561209,0.70952,0.30604348,159.83865,101.89191,-3.1887815,STD
119897199443000,0.365004,1.85986816694524,-8.52182009207369,-1.19268691451556,0.08552113,0.61453044,0.30970868,160.14392,101.89898,-3.0660293,STD
119897204447000,0.370008,1.86992844097207,-8.5769120391117,-1.21208886477848,0.034513887,0.5137377,0.3100141,160.42299,101.92101,-2.9492376,STD
119897209527000,0.375088,1.88014150892896,-8.63284071436212,-1.23178548894626,-0.032986723,0.39584067,0.31215215,160.66953,101.962494,-2.8398104,STD
119897214522000,0.380083,1.89018368893776,-8.68783357516444,-1.25115254361517,-0.10170906,0.28069258,0.3036,160.8868,102.01809,-2.7326205,STD
119897219436000,0.384997,1.90006302278425,-8.74193465984565,-1.2702055379381,-0.18081611,0.14263703,0.3005457,161.06409,102.09575,-2.6353288,STD
119897224438000,0.389999,1.91011927591819,-8.79700458772018,-1.28959973362457,-0.24220806,-0.0018325958,0.29626966,161.20609,102.18646,-2.5421844,STD
119897229446000,0.395007,1.92018759173081,-8.85214057308515,-1.30901719304037,-0.32467487,-0.14538592,0.28496864,161.30876,102.30351,-2.4542532,STD
119897234437000,0.399998,1.93022172995382,-8.90708939556051,-1.32836873855639,-0.3753767,-0.28527406,0.27152961,161.37161,102.42699,-2.3730788,STD
119897239417000,0.404978,1.94023375326589,-8.9619171126367,-1.34767763390197,-0.44440445,-0.4251622,0.24587326,161.39325,102.57546,-2.2944133,STD
119897244595000,0.410156,1.95064384497471,-9.01892472689785,-1.36775423231551,-0.4868596,-0.54641896,0.22815818,161.38136,102.72804,-2.2223182,STD
119897249439000,0.415,1.96038244756983,-9.07225514085711,-1.3865358164629,-0.5332854,-0.6640105,0.2049453,161.33058,102.8968,-2.151004,STD
119897254423000,0.419984,1.97040251266769,-9.12712689626027,-1.40586022096137,-0.5726862,-0.7461719,0.18845193,161.25658,103.07193,-2.0833325,STD
119897259454000,0.425015,1.98051706874863,-9.18251610200532,-1.42536685800628,-0.5946773,-0.81581056,0.17195857,161.1535,103.25077,-2.017461,STD
119897264554000,0.430115,1.99077034563448,-9.23866496889058,-1.4451410279385,-0.6075055,-0.8359691,0.15149458,161.042,103.43364,-1.9497718,STD
119897269482000,0.435043,2.00067782573125,-9.29292018771618,-1.46424830429654,-0.6215554,-0.86162543,0.14049901,160.9113,103.619,-1.8869697,STD
119897274482000,0.440043,2.01073005797229,-9.34796809642721,-1.48363474540656,-0.63255095,-0.8695667,0.11453723,160.77983,103.80195,-1.8165283,STD
119897279477000,0.445038,2.02077223798109,-9.40296095722954,-1.50300180007547,-0.62949663,-0.84788096,0.09712757,160.65166,103.980965,-1.7472076,STD
119897284437000,0.449998,2.0307440523642,-9.45756848267089,-1.52223314965662,-0.6267477,-0.8155051,0.089186326,160.52556,104.15877,-1.6752884,STD
119897289463000,0.455024,2.04084855621289,-9.51290264050723,-1.54172040026041,-0.59956425,-0.7611381,0.06414085,160.4116,104.32392,-1.5929332,STD
119897294530000,0.460091,2.05103548836596,-9.56868819119499,-1.56136661968131,-0.59040123,-0.68936145,0.06047566,160.31473,104.49029,-1.5129482,STD
119897299544000,0.465105,2.06111586685727,-9.62389023405042,-1.58080734282644,-0.569021,-0.59223384,0.05589417,160.24037,104.64138,-1.422212,STD
119897304471000,0.470032,2.07102133650759,-9.67813444329428,-1.59991074189626,-0.5540548,-0.47861293,0.048563786,160.19206,104.78846,-1.3253635,STD
119897309516000,0.475077,2.0811640388388,-9.73367778318372,-1.61947166097627,-0.5338962,-0.34513888,0.043982297,160.17786,104.925156,-1.2213866,STD
119897314567000,0.480128,2.09131880384869,-9.78928718056361,-1.63905584378561,-0.5311473,-0.20066923,0.040011674,160.19919,105.05988,-1.1081674,STD
119897319478000,0.485039,2.10119210635584,-9.84335523649959,-1.65809720624388,-0.5195409,-0.052839845,0.043982297,160.25986,105.184204,-0.9873775,STD
119897324474000,0.490035,2.11123629681108,-9.89835910688366,-1.67746813820101,-0.5323691,0.07971791,0.041233405,160.35635,105.31252,-0.8554899,STD
119897329479000,0.49504,2.12129858128436,-9.95346206350341,-1.69687396575214,-0.54244834,0.21135938,0.03940081,160.49431,105.43511,-0.7152367,STD
119897334472000,0.500033,2.13133674040026,-10.0084329051423,-1.71623326584461,-0.5647449,0.30909783,0.027794369,160.65877,105.56306,-0.5652517,STD
119897339463000,0.505024,2.14137087862327,-10.0633817276176,-1.73558481136064,-0.61941737,0.3903429,0.022907447,160.85526,105.70166,-0.40892264,STD
119897344551000,0.510112,2.16754443684544,-10.0869605002968,-1.75300884485406,-0.6569856,0.44623706,0.01985312,161.07062,105.84011,-0.24540435,STD
119897349470000,0.515031,2.2020897602163,-10.0909555452387,-1.76851899595029,-0.7171558,0.47739118,0.01160644,161.30025,105.99881,-0.07568364,STD
119897354484000,0.520045,2.23730225287366,-10.095027745958,-1.78432869255459,-0.7855727,0.47403142,0.01282817,161.57123,106.235855,0.11577433,STD
119897360543000,0.526104,2.27985360768237,-10.0999486602298,-1.80343338974753,-0.8539896,0.45723262,0.0021380284,161.8435,106.48598,0.31118494,STD
119897364491000,0.530052,2.30757975866187,-10.1031550919091,-1.81588187044034,-0.9254609,0.41996986,-0.0033597588,162.10783,106.7519,0.5001093,STD
119897369468000,0.535029,2.34253240643922,-10.1071972424835,-1.83157490195202,-0.9431759,0.37140608,-0.0076358155,162.36186,107.016945,0.686588,STD
119897374434000,0.539995,2.37740780303603,-10.1112304592311,-1.84723324924698,-1.0015136,0.2932153,-0.020463986,162.59473,107.30862,0.8687103,STD
119897379448000,0.545009,2.41262029569338,-10.1153026599504,-1.86304294585127,-1.0509937,0.20189096,-0.032986723,162.80888,107.59715,1.0440207,STD
119897384432000,0.549993,2.4476221033129,-10.1193504956874,-1.87875804913723,-1.0864239,0.105068825,-0.04917465,162.9975,107.89249,1.2139803,STD
119897389421000,0.554982,2.48265902510538,-10.1234023922548,-1.89448891797624,-1.105666,0.003970624,-0.07238753,163.1573,108.19127,1.3782179,STD
119897394458000,0.560019,2.51803304295841,-10.1274932727939,-1.91037113612459,-1.1267409,-0.106901415,-0.09590584,163.28587,108.49443,1.5346893,STD
119897399438000,0.564999,2.55300675923954,-10.1315378598666,-1.92607362696811,-1.14018,-0.22785273,-0.115453534,163.38203,108.7946,1.6834155,STD
119897404451000,0.570012,2.5882122290623,-10.1356092484199,-1.94188017046179,-1.1640037,-0.39767328,-0.15668693,163.43056,109.098114,1.8266298,STD
119897409455000,0.575016,2.62335449337371,-10.1396733274784,-1.95765833595997,-1.2513574,-0.6563747,-0.20372356,163.42004,109.417435,1.9537492,STD
119897414452000,0.580013,2.65844759784295,-10.1437317213744,-1.97341442968388,-1.539075,-0.97494096,-0.27580565,163.34184,109.79558,2.0731015,JOG
119897419438000,0.584999,2.69346345113165,-10.1477811814436,-1.98913583919106,-1.949271,-1.251052,-0.3417791,163.20264,110.22698,2.1783335,JOG
119897424428000,0.589989,2.72850739575873,-10.151833890177,-2.00486986114068,-2.364354,-1.4077389,-0.37751472,163.00786,110.73295,2.2704332,JOG
119897430233000,0.595794,2.76927495058042,-10.1565485142648,-2.02317366823839,-2.67223,-1.4114041,-0.35185838,162.78258,111.31216,2.3460743,JOG
119897434438000,0.599999,2.79880597005073,-10.1599636726263,-2.03643249835827,-2.7351491,-1.2140946,-0.25289822,162.5767,111.92254,2.4109454,JOG
119897439414000,0.604975,2.83375159499349,-10.1640050110347,-2.05212237675934,-2.4819455,-0.8344419,-0.1160644,162.42899,112.510635,2.4734921,JOG
119897444474000,0.610035,2.86928713804219,-10.1681145713937,-2.06807711645174,-1.8216002,-0.3539964,0.029932396,162.37534,112.97963,2.536986,JOG
119897449438000,0.614999,2.90414848896981,-10.1721461638091,-2.08372915752548,-0.86284715,0.06963864,0.15363261,162.42192,113.27297,2.6045954,JOG
119897454470000,0.620031,2.93948739264987,-10.1762329835178,-2.09959561012077,0.1994475,0.35155296,0.24831672,162.57188,113.335754,2.6786547,JOG
119897459457000,0.625018,2.97451026877317,-10.180283255753,-2.11532017273857,1.1881329,0.43004912,0.2837469,162.78665,113.14283,2.7596262,JOG
119897464448000,0.630009,3.00956123623484,-10.1843367766526,-2.1310573477988,1.6166549,0.47067168,0.2843578,163.07104,112.81132,2.8505385,JOG
119897469437000,0.634998,3.04459815802733,-10.18838867322,-2.14678821663782,2.2910502,0.40561453,0.26236662,163.34766,112.14203,2.9316833,JOG
119897474434000,0.639995,3.07969126249657,-10.192447067116,-2.16254431036172,2.7727172,0.24709499,0.20372356,163.60399,111.423874,3.0136073,JOG
119897479457000,0.645018,3.11496696066527,-10.19652657733,-2.17838238496151,3.0567696,0.018325957,0.12644911,163.81754,110.59356,3.0887468,JOG
119897484438000,0.649999,3.149947699781,-10.2005719765688,-2.19408802891564,3.1835241,-0.23671028,0.06505715,163.97478,109.69778,3.153414,JOG
119897489420000,0.654981,3.18493546173133,-10.2046181879736,-2.20979682598038,3.1264083,-0.49510628,0.021685716,164.06146,108.8025,3.2087247,JOG
119897494477000,0.660038,3.22044993627625,-10.2087253118343,-2.22574210634095,2.9404,-0.7165449,-0.0018325958,164.08334,107.936165,3.2529945,JOG
119897499803000,0.665364,3.25785355332711,-10.2130509083703,-2.24253557345592,2.7217102,-0.80939645,-0.006414085,164.0665,107.121445,3.2907186,JOG
119897504450000,0.670011,3.29048866568825,-10.2168250441387,-2.25718807846592,2.499966,-0.745561,-0.011301007,164.02943,106.383995,3.327658,JOG
119897509454000,0.675015,3.32563092999965,-10.2208891231973,-2.2729662439641,2.2516494,-0.528093,-0.014966198,164.00885,105.73596,3.3683784,JOG
119897514446000,0.680007,3.36068892029592,-10.2249434562629,-2.28870657213495,1.981036,-0.18295415,0.00061086525,164.04236,105.17357,3.4174159,JOG
119897519438000,0.684999,3.39574691059219,-10.2289977893285,-2.3044469003058,1.7052304,0.18600847,0.03970624,164.14394,104.696686,3.475961,JOG
119897524429000,0.68999,3.43079787805387,-10.233051310228,-2.32018407536604,1.4456125,0.43951756,0.0711658,164.309,104.304,3.546011,JOG
119897529453000,0.695014,3.46608059905716,-10.2371316326082,-2.33602530307644,1.2449434,0.54275376,0.07727446,164.53433,103.98248,3.625223,JOG
119897534438000,0.699999,3.50108942951127,-10.2411802805112,-2.35174355947301,1.1123856,0.5552765,0.058337633,164.80345,103.723495,3.711879,JOG
119897539415000,0.704976,3.53604207728862,-10.2452224310857,-2.36743659098469,1.022283,0.50671273,0.02565634,165.08165,103.517044,3.8019192,JOG
119897544450000,0.710011,3.50421534395776,-10.2233573663954,-2.38169429938002,0.9257663,0.3830125,-0.006414085,165.339,103.357285,3.8916264,JOG
119897549446000,0.715007,3.41123397776659,-10.1779423089789,-2.39436271315439,0.8185594,0.23182335,-0.02565634,165.57181,103.23279,3.980648,JOG
119897554435000,0.719996,3.31838288971059,-10.1325908835484,-2.40701337694948,0.6963864,0.15210545,-0.04062254,165.88535,103.26007,4.1811666,JOG
119897559443000,0.725004,3.22517818957341,-10.0870667427274,-2.41971221925973,0.5510005,-0.015271631,-0.04184427,166.12955,103.325455,4.3640857,JOG
119897564412000,0.729973,3.13269932476078,-10.0418971229711,-2.43231216882834,0.46975538,-0.15515977,-0.05009095,166.35597,103.40962,4.5460033,JOG
119897569737000,0.735298,3.03359488621635,-9.99349136221393,-2.44581483162827,0.3200934,-0.26053402,-0.06261369,166.54358,103.55141,4.7174897,JOG
119897574422000,0.739983,2.94640159145942,-9.95090338303134,-2.45769463918089,0.17654006,-0.3109304,-0.06811147,166.70647,103.71195,4.8804727,JOG
119897579407000,0.744968,2.8536249480521,-9.90558831873567,-2.47033516013069,0.071776666,-0.2657264,-0.07574729,166.86523,103.90086,5.0436544,JOG
119897584394000,0.749955,2.76081108232044,-9.86025507387258,-2.48298075250314,0.009162978,-0.094989546,-0.079107046,167.04477,104.11313,5.209065,JOG
119897589402000,0.754963,2.66760638218325,-9.81473093305157,-2.49567959481338,0.028710667,0.17837265,-0.083383106,167.26498,104.32789,5.3838916,JOG
119897594418000,0.759979,2.57425279274873,-9.76913406996088,-2.50839872281422,0.15668693,0.5571091,-0.06872234,167.56306,104.52432,5.5703583,JOG
119897599418000,0.764979,2.48119698190889,-9.72368265140956,-2.52107727943388,0.38759398,0.9627236,-0.064751714,167.94319,104.68627,5.778989,JOG
119897604347000,0.769908,2.38946256358297,-9.67887664300167,-2.53357580054954,0.69974613,1.3515394,-0.06047566,168.4238,104.78949,6.005697,JOG
119897609380000,0.774941,2.29579258439159,-9.6331252450879,-2.54633803564288,1.0638218,1.6600263,-0.064446285,168.99251,104.819885,6.2528496,JOG
119897614357000,0.779918,2.20316483028161,-9.58788290306191,-2.55895827090209,1.4110987,1.8515326,-0.08155051,169.63329,104.778854,6.5171037,JOG
119897619359000,0.78492,2.11007179711744,-9.54241330394317,-2.57164189894439,1.7198911,1.917506,-0.1133155,170.32004,104.664604,6.793787,JOG
119897624380000,0.789941,2.01662515187207,-9.49677098943393,-2.58437370550185,1.9642372,1.8353447,-0.12339478,171.01474,104.48976,7.0659237,JOG
119897629374000,0.794935,1.92368100800524,-9.45137411258487,-2.59703704785356,2.1132884,1.6187929,-0.14080444,171.68288,104.28193,7.337694,JOG
119897634353000,0.799914,1.83101603157092,-9.40611358999146,-2.60966235453542,2.1905627,1.3109168,-0.15454891,172.29695,104.04997,7.5933895,JOG
119897639345000,0.804906,1.73810911002843,-9.36073489370981,-2.62232062546448,2.2165246,0.93615097,-0.1572978,172.82602,103.81371,7.8270845,JOG
119897644383000,0.809944,1.6443460750262,-9.3149380443775,-2.63509553911445,2.208278,0.5448918,-0.15607607,173.25856,103.586945,8.038617,JOG
119897649356000,0.814917,1.5517927655649,-9.26973206348636,-2.64770563152836,2.1933117,0.33383787,-0.16371189,173.63184,103.37504,8.236919,JOG
119897654402000,0.819963,1.45788084126533,-9.22386249188436,-2.66050083086892,2.1948388,-0.070249505,-0.17715092,173.83607,103.17765,8.400212,JOG
119897659428000,0.824989,1.36434114020912,-9.17817472595657,-2.67324531598299,2.212554,-0.46211955,-0.18845193,173.98096,102.995926,8.551132,JOG
119897664419000,0.82998,1.27145282982879,-9.13280511995864,-2.68590105120074,2.232407,-0.8368854,-0.21288654,174.01254,102.83166,8.686582,JOG
119897669407000,0.834968,1.17862035293497,-9.08746278481183,-2.6985491792845,2.277611,-1.2174544,-0.25900686,173.92824,102.67687,8.808916,JOG
119897674403000,0.839964,1.0856389867438,-9.04204772739535,-2.71121759305887,2.329229,-1.5897768,-0.30024028,173.73827,102.53167,8.916627,JOG
119897679420000,0.844981,0.992266786147105,-8.99644177402095,-2.72393925677103,2.3808472,-1.9376645,-0.3381139,173.44525,102.396225,9.017213,JOG
119897684412000,0.849973,0.899359864604609,-8.95106307773931,-2.73659752770009,2.4459045,-2.2369885,-0.39370266,173.05852,102.269875,9.117089,JOG
119897689397000,0.854958,0.806583221197288,-8.90574801344364,-2.74923804864989,2.477364,-2.4770586,-0.4465425,172.59,102.15627,9.211196,JOG
119897694432000,0.859993,0.712876019681569,-8.85997843496246,-2.76200535516589,2.4987442,-2.6358836,-0.5027421,172.05957,102.053474,9.30932,JOG
119897699411000,0.864972,0.620211043247256,-8.81471791236905,-2.77463066184774,2.513405,-2.7406468,-0.5494733,171.47765,101.96335,9.408187,JOG
119897704457000,0.870018,0.526299118947689,-8.76884834076705,-2.7874258611883,2.516154,-2.7669141,-0.58032197,170.87512,101.88757,9.510843,JOG
119897709444000,0.875005,0.433485253216032,-8.72351509590396,-2.80007145356074,2.5072963,-2.724459,-0.58093286,170.26591,101.82121,9.611888,JOG
119897714453000,0.880014,0.34026194191668,-8.67798186479924,-2.81277283158231,2.461787,-2.6410758,-0.56688297,169.6647,101.769585,9.712848,JOG
119897719436000,0.884997,0.247522520833695,-8.63268498107099,-2.82540828110946,2.4043655,-2.5051584,-0.5137377,169.0965,101.71681,9.801043,JOG
119897724429000,0.88999,0.154596988129031,-8.58729719450564,-2.83806908774985,2.307849,-2.3582454,-0.45570546,168.56026,101.676155,9.881865,JOG
119897729449000,0.89501,0.0611689540458313,-8.54166397028011,-2.85079835859599,2.2235496,-2.1838431,-0.37873647,168.07742,101.627556,9.942845,JOG
119897734446000,0.900007,-0.031831023307505,-8.49623982257992,-2.86346930808167,2.1065688,-2.0015,-0.32711834,167.64398,101.59162,9.995012,JOG
119897739411000,0.904972,-0.124235443471466,-8.45110656395846,-2.87605911480499,1.9969184,-1.8069394,-0.29046643,167.26971,101.552475,10.031572,JOG
119897744471000,0.910032,-0.0936444971045739,-8.33930793612734,-2.79195091218013,1.8628336,-1.6035212,-0.258396,166.95517,101.52188,10.057136,JOG
119897749439000,0.915,0.0645320082510578,-8.16195844428773,-2.60980814619182,1.7067575,-1.498147,-0.22052236,166.67245,101.49856,10.070575,JOG
119897755144000,0.920705,0.297720158993082,-7.97251131475788,-2.42092616744812,1.5173893,-1.2742649,-0.19639318,166.44702,101.302925,9.825584,JOG
119897759471000,0.925032,0.504755094167948,-7.83714248337817,-2.28953865000961,1.4187346,-1.0332786,-0.16218472,166.25633,101.10728,9.571186,JOG
119897764429000,0.92999,0.780632478194756,-7.70261312837509,-2.21441092582123,1.1933253,-0.7180721,-0.13713925,166.16367,100.96375,9.353385,JOG
119897769439000,0.935,1.11268887102057,-7.59504536640998,-2.24247200467882,0.9462303,-0.3399465,-0.11209377,166.15822,100.83468,9.135595,JOG
119897774408000,0.939969,1.43588032818881,-7.55594025069266,-2.23155618659826,0.66431594,0.08460484,-0.1133155,166.28796,100.77264,8.962667,JOG
119897779454000,0.945015,1.75325047878912,-7.63528284012314,-2.15221370072858,0.36346483,0.50243664,-0.14966199,166.52274,100.76297,8.80602,JOG
119897784441000,0.950002,2.15754092471118,-7.71217791570394,-1.99637143625416,0.082161374,0.8680395,-0.18967366,166.93315,100.85769,8.688498,JOG
119897789420000,0.954981,2.68506875327981,-7.78687217759937,-1.73494161711377,-0.18142697,1.2098186,-0.23762658,167.45319,101.02514,8.601922,JOG
119897794454000,0.960015,3.22764421554699,-7.86528544591029,-1.25417098634057,-0.43799037,1.4547756,-0.28252518,168.13037,101.304756,8.547872,JOG
119897799438000,0.964999,3.77983742683174,-7.94762993667546,-0.425881194702659,-0.66431594,1.4776831,-0.3277292,168.83739,101.65735,8.521606,JOG
119897804423000,0.969984,4.33615441182635,-8.0468055492515,0.55332152741018,-0.82558435,1.17897,-0.4120286,169.71466,102.160194,8.516886,JOG
119897809466000,0.975027,4.90490792784431,-8.17212384760479,1.76794737871257,-0.8857546,0.6453791,-0.5375614,170.52272,102.72667,8.543261,JOG
119897814367000,0.979928,5.36764901913158,-8.26657114123605,2.66537093680953,-0.7819075,0.014660766,-0.6783658,171.69508,103.46378,8.450973,JOG
119897819440000,0.985001,5.7048103616712,-8.32124659645503,3.14833185983307,-0.5653558,-0.5867361,-0.79809546,172.69437,104.23423,8.399032,JOG
119897825177000,0.990738,5.90778895855991,-8.64203873035815,3.17464045184699,-0.31795537,-1.0684034,-0.9294315,173.30867,104.75571,8.61184,JOG
119897829448000,0.995009,5.8272570231577,-9.21726626832927,2.51888061808551,-0.14202617,-1.3607023,-1.1111639,173.78745,105.26385,8.852648,JOG
119897834370000,0.999931,5.75244350804633,-9.77799447586101,1.78158642557913,-0.08093964,-1.4957036,-1.3417655,174.05455,105.66698,9.24645,JOG
119897839414000,1.004975,5.80443274400369,-9.62202676798893,1.15771577504613,-0.096516706,-1.475545,-1.5830573,174.2663,106.07681,9.681053,JOG
119897844476000,1.010037,5.85660750855884,-9.46550247432349,0.531618781985445,-0.099265605,-1.3222178,-1.7611245,174.71892,106.65417,9.969035,JOG
119897849442000,1.015003,5.90779278725912,-9.31194663822263,-0.0826043842609676,-0.11301007,-1.2003502,-1.8121318,175.14272,107.24014,10.285363,JOG
119897854418000,1.019979,5.87884723669623,-9.13252529490022,-0.65644922732816,-0.087659165,-0.83169305,-1.7962493,175.67676,107.82407,10.643754,JOG
119897859462000,1.025023,5.5798392522173,-8.86475711751663,-1.09826699961197,-0.05222898,-0.33933565,-1.6887369,176.2649,108.38419,11.005239,JOG
119897864445000,1.030006,5.253206562551,-8.61692976207859,-1.49880001442989,0.032070424,0.23915374,-1.5259414,177.05531,109.10516,11.316938,JOG
119897869436000,1.034997,4.5193551937084,-8.58613924672536,-1.43208624875456,0.08979719,0.9025534,-1.357648,177.99428,109.78275,11.64452,JOG
119897874415000,1.039976,3.81701022525868,-8.55708687332861,-1.29526202644838,0.13561209,1.5519031,-1.2345587,179.2544,110.534966,11.833301,JOG
119897879434000,1.044995,3.2265468222679,-8.53437675794945,-0.879666639931018,0.15088372,2.0482311,-1.1582005,180.63463,111.24076,12.053104,JOG
119897884452000,1.050013,2.63620106490432,-8.51167116739901,-0.46415405783416,0.13775012,2.313652,-1.1099422,182.26088,111.92403,12.125044,JOG
119897889410000,1.054971,2.05291404517364,-8.48923706657217,-0.0536097409676352,0.10293079,2.3469443,-1.1264355,183.91904,112.590065,12.2576,JOG
119897895075000,1.060636,1.42959979529448,-8.45789886387974,0.369495921173806,0.056199603,2.2198844,-1.135293,185.56108,113.22093,12.430159,JOG
119897899439000,1.065,1.28759244039333,-8.38904633916804,0.335069910448929,0.004276057,2.0506747,-1.153619,187.16026,113.8437,12.641891,JOG
119897904718000,1.070279,1.11750439335123,-8.30487287972331,0.296014895122858,-0.019547688,1.9538525,-1.1481212,188.62886,114.25076,12.766213,JOG
119897909452000,1.075013,0.981766058476151,-8.22062151125336,0.286653627615115,-0.03176499,1.9599612,-1.1417072,190.0474,114.65759,12.9149,JOG
119897914413000,1.079974,0.8404363360548,-8.12498621165492,0.302801273245309,-0.013439035,2.0237966,-1.1163563,191.31296,115.01019,13.099457,JOG
119897919484000,1.085045,0.705442641052318,-7.95142314409808,0.587252305072967,0.020463986,2.0885482,-1.0998629,192.56175,115.35106,13.301578,JOG
119897924456000,1.090017,0.576726569684459,-7.78256645414332,0.861209395163669,0.05375614,2.0732768,-1.0833695,193.68523,115.644264,13.531526,JOG
119897929478000,1.095039,0.486900568905927,-7.62655271483338,1.08341055706281,0.0711658,2.0082195,-1.0552697,194.80612,115.919685,13.76504,JOG
119897934585000,1.100146,0.397319082566719,-7.46967241464874,1.30793987615777,0.05375614,1.9394971,-1.0296134,195.95303,116.1723,13.986555,JOG
119897939454000,1.105015,0.333267616875981,-7.34156960747645,1.5046693560832,0.0580322,1.8680259,-1.0045679,197.07448,116.40312,14.203179,JOG
119897944787000,1.110348,0.266671749791352,-7.20320201304304,1.71613268487048,0.032986723,1.7614299,-0.9822713,198.16312,116.66704,14.411767,JOG
119897949492000,1.115053,0.2485046734684,-7.10328296047777,1.85692747420623,-0.0106901415,1.7046194,-0.95203346,199.23972,116.92024,14.619893,JOG
119897954796000,1.120357,0.231847036513859,-6.99303163979211,2.00636142798507,-0.034513887,1.5396858,-0.91904676,200.31819,117.18374,14.787855,JOG
119897959481000,1.125042,0.251777449395878,-6.9172961757285,2.05419446218905,-0.13439035,1.498147,-0.89858276,201.40332,117.46306,14.971828,JOG
119897964496000,1.130057,0.273111712064677,-6.83622608986318,2.10539673893035,-0.16982053,1.4052955,-0.84665924,202.48283,117.73744,15.114069,JOG
119897969465000,1.135026,0.297787977214971,-6.77054119679646,2.07635319529716,-0.23976462,1.314582,-0.7852673,203.5387,118.027695,15.258936,JOG
119897974388000,1.139949,0.323214913782763,-6.70951665311185,2.0254992584403,-0.31123585,1.2260065,-0.72295904,204.56082,118.30734,15.393695,JOG
119897979473000,1.145034,0.356512281340648,-6.64637748089776,1.90593162274314,-0.35796702,1.162782,-0.65179324,205.46422,118.64245,15.56137,JOG
119897984369000,1.14993,0.389252060436908,-6.58557477725686,1.7843267038404,-0.41538838,1.1133019,-0.5723807,206.34712,118.97273,15.713648,JOG
119897989461000,1.155022,0.413838417549957,-6.47755731074428,1.71661690112945,-0.44898596,1.0742066,-0.5009095,207.17607,119.30856,15.869706,JOG
119897994451000,1.160012,0.436904472169128,-6.36684039115745,1.65664513599768,-0.49113566,1.0488557,-0.43035457,207.9986,119.63483,16.01203,JOG
119897999467000,1.165028,0.493003779699173,-6.18797471586811,1.6229934826676,-0.5290093,1.0500773,-0.35460728,208.7513,119.96483,16.164549,JOG
119898004390000,1.169951,0.554056286472756,-6.00012080360594,1.59481542525152,-0.5656612,1.0876455,-0.2773328,209.51315,120.28128,16.309002,JOG
119898009489000,1.17505,0.690664913315927,-5.80424295424784,1.67080368055835,-0.59895337,1.1609493,-0.19150625,210.24113,120.60687,16.464424,JOG
119898014383000,1.179944,0.836571281462141,-5.61597650471982,1.76493685617594,-0.6429357,1.2168436,-0.094989546,210.98508,120.91826,16.608442,JOG
119898019464000,1.185025,1.05669826357536,-5.45747916219329,1.95983959669504,-0.67256266,1.258077,0.00061086525,211.73064,121.26536,16.766983,JOG
119898024398000,1.189959,1.28384845598398,-5.31077827215824,2.16806057346019,-0.6872234,1.2623531,0.099571034,212.49434,121.59032,16.91209,JOG
119898029472000,1.195033,1.53404235366421,-5.24087407500698,2.40752126995065,-0.698219,1.2180653,0.19822577,213.26637,121.94049,17.081144,JOG
119898034430000,1.199991,1.78164276839557,-5.18781691912655,2.64627877150573,-0.68966687,1.1276573,0.27916542,214.03949,122.26214,17.234137,JOG
119898039466000,1.205027,2.03065989662877,-5.18808746376668,2.89589468938211,-0.6704246,1.0091494,0.35521814,214.82489,122.572845,17.420633,JOG
119898044470000,1.210031,2.27702296893722,-5.21177619693524,3.14699550832427,-0.6462954,0.947452,0.42088616,215.614,122.85527,17.594307,JOG
119898049468000,1.215029,2.50830335416705,-5.30303521823027,3.42461879320959,-0.6096435,0.81214535,0.44959682,216.39131,123.12311,17.80665,JOG
119898054479000,1.22004,2.73319153647891,-5.42650297987687,3.71565061001562,-0.59131753,0.675617,0.47769663,217.16527,123.366196,18.002192,JOG
119898059498000,1.225059,2.99312897055103,-5.63632729781304,4.04221123290094,-0.5662721,0.5531385,0.50335294,217.95677,123.44908,18.2129,JOG
119898064477000,1.230038,3.28450183334048,-5.92770021397942,4.40003751910377,-0.54183745,0.43951756,0.50793445,218.71822,123.52228,18.408606,JOG
119898069472000,1.235033,3.6294577139313,-6.33093950920048,4.78443543550623,-0.54000485,0.34025195,0.5021312,219.49394,123.51242,18.640985,JOG
119898074419000,1.23998,4.00062715877863,-6.79252223607875,5.17939798268381,-0.56321776,0.2501493,0.46853364,220.23956,123.506035,18.866352,JOG
119898080133000,1.245694,4.55528606530291,-7.46479866793863,5.66945840409127,-0.60048056,0.15454891,0.42363504,221.03212,123.43742,19.127048,JOG
119898084442000,1.250003,5.01795112505901,-8.02080824537766,6.05095407482297,-0.66248333,0.022602014,0.37965274,221.78395,123.3874,19.377808,JOG
119898089410000,1.254971,5.6819704567195,-8.76420390282564,6.36366615658167,-0.7470882,-0.1133155,0.30818152,222.60162,123.30682,19.689568,JOG
119898094514000,1.260075,6.45196189671163,-9.59675740799449,6.59947598168751,-0.86467975,-0.25809056,0.21624629,223.36523,123.26401,19.994955,JOG
119898099435000,1.264996,7.30623962030075,-10.368770867884,6.64586159323308,-0.9807441,-0.37018433,0.11178834,224.20877,123.19923,20.378109,JOG
119898104491000,1.270052,8.26604121592618,-11.1394487376233,6.56075594620643,-1.0888673,-0.46883908,0.00061086525,224.98822,123.18583,20.761015,JOG
119898109529000,1.27509,9.21321956940381,-11.7421717352971,6.32706573486331,-1.1459832,-0.5207626,-0.08979719,225.83063,123.204025,21.238201,JOG
119898114473000,1.280034,10.1350506381015,-12.1959230081711,5.97361771355795,-1.1533136,-0.49693888,-0.15363261,226.63364,123.26299,21.720188,JOG
119898119462000,1.285023,10.8007335892391,-12.3539189599512,5.56374146996343,-1.0958922,-0.3979787,-0.16829337,227.48117,123.380844,22.293447,JOG
119898124465000,1.290026,11.2512453326659,-12.2663189824134,5.10905823681003,-1.0326678,-0.21624629,-0.14538592,228.32886,123.51625,22.86544,JOG
119898129468000,1.295029,11.4843127319622,-12.0582008361312,4.71945697187326,-0.9502009,-0.028710667,-0.11759156,229.1878,123.71716,23.507135,JOG
119898134471000,1.300032,11.0741646227904,-11.4935815561979,4.52237269994441,-0.88208944,0.10476339,-0.12370021,230.05417,123.919914,24.140415,JOG
119898139413000,1.304974,10.4841581202607,-10.8360943045024,4.33954165183649,-0.8338311,0.14996742,-0.14355333,230.87947,124.18866,24.797112,JOG
119898144525000,1.310086,9.63824477191943,-10.0288515604265,4.16552504306872,-0.82558435,0.19608775,-0.15057829,231.72206,124.45351,25.440746,JOG
119898150246000,1.315807,8.61266361488266,-9.1102764859194,3.8902184477275,-0.8542951,0.17501289,-0.14996742,232.49017,124.730095,26.035109,JOG
119898154497000,1.320058,7.79433171898208,-8.41691127784929,3.62819104231112,-0.93554014,0.14782938,-0.15027285,233.25555,125.01517,26.615963,JOG
119898159448000,1.325009,6.86443799887173,-7.69961038652019,3.23108607517815,-0.9737192,0.043066,-0.15699236,233.90909,125.29344,27.110634,JOG
119898164471000,1.330032,5.95510284280483,-7.1044958956156,2.69310259170626,-1.0247264,-0.16890424,-0.16920967,234.51732,125.58487,27.57978,JOG
119898169363000,1.334924,5.12836606151604,-6.61753719620991,2.11469585548105,-1.0067059,-0.5403103,-0.20433442,234.9523,125.88054,27.941904,JOG
119898174480000,1.340041,4.36639105539359,-6.2698860281827,1.41463122847425,-0.9272934,-1.0225884,-0.21838433,235.29224,126.16557,28.258995,JOG
119898179385000,1.344946,3.65525926213352,-6.03405786202456,0.703827965253566,-0.816116,-1.527774,-0.20555615,235.42404,126.50136,28.460928,JOG
119898184438000,1.349999,2.96504613853011,-6.00529890471474,-0.115800065847861,-0.6954701,-2.0005836,-0.13713925,235.42902,126.80217,28.593897,JOG
119898189412000,1.354973,2.04956805166747,-6.4009772558724,-0.968014759333011,-0.56413406,-2.3478606,0.008857546,235.28058,127.2129,28.610659,JOG
119898194530000,1.360091,0.542899845674239,-7.82236236520058,-1.9535084417303,-0.40622538,-2.549446,0.17501289,235.04672,127.56038,28.553308,JOG
119898199423000,1.364984,-0.867799022413619,-9.01640951058871,-2.77002998156855,-0.19425514,-2.5714374,0.3753767,234.63127,127.7649,28.287592,JOG
119898204506000,1.370067,-2.23410339636235,-9.70696047816395,-3.19915802030601,0.13164146,-2.269059,0.6227771,234.28754,127.870636,27.980782,JOG
119898209495000,1.375056,-3.81418251106478,-10.1600008459077,-3.44679779639255,0.6059783,-1.4388931,0.9798279,233.9371,127.56575,27.332777,JOG
119898214471000,1.380032,-6.0231335749903,-10.0167425200737,-3.23422087598914,1.1377366,0.1469131,1.459357,233.9502,127.11995,26.736795,JOG
119898219504000,1.385065,-8.26954602876431,-9.78898048194893,-2.63968487108893,1.46852,2.6126707,1.964848,234.42227,126.45996,26.081963,JOG
119898224467000,1.390028,-10.5295430803248,-9.25885769278936,-0.654049655659916,1.3429873,5.7238073,2.3857343,235.58504,125.72261,25.622267,JOG
119898229454000,1.395015,-12.5200995707547,-8.79165545443597,1.72491990695504,0.9104946,8.547532,2.6731462,237.41168,124.93297,25.170364,JOG
119898234467000,1.400028,-13.0260105849057,-8.67120057085508,6.16248078643115,0.4560109,9.805609,2.640465,239.69788,124.166916,24.891127,JOG
119898239428000,1.404989,-13.299457796849,-8.54271679019474,10.1940152264409,0.0290161,9.697486,2.2672265,242.56389,123.19447,24.613754,JOG
119898244492000,1.410053,-12.3740342203738,-8.36237763607006,12.4007953246893,-0.28252518,8.139474,2.0015,245.40297,122.265816,24.281832,JOG
119898249435000,1.414996,-11.4017408227326,-8.12150495421084,14.1005145322929,-0.35643986,5.2607713,1.4257594,248.25546,120.93014,23.887861,JOG
119898254503000,1.420064,-9.88203625500589,-7.38309093713192,12.3997791938555,-0.42241332,1.9401081,0.8790351,250.47607,119.704346,23.319134,JOG
119898259443000,1.425004,-8.42181260466065,-6.65522156183125,10.6445946814545,-0.42546764,-0.95386606,0.4605924,252.10867,118.486145,22.748926,JOG
119898264566000,1.430127,-7.14988825179144,-5.80727189376639,7.70535398974658,-0.3866777,-2.994767,0.25534168,252.92073,117.371254,22.04335,JOG
119898269729000,1.43529,-5.91469630315635,-4.99814173381453,4.79993443754832,-0.38026363,-4.3655486,0.18234327,252.82933,116.596436,21.36931,JOG
119898274453000,1.440014,-5.29849706505179,-4.75830370285458,2.76684577133187,-0.35613444,-5.2564955,0.1863139,252.24261,115.84696,20.608269,JOG
119898279434000,1.444995,-4.64877471005628,-4.50541775192072,0.623150884281869,-0.2864958,-5.7845883,0.24556783,251.10687,115.488434,19.90862,JOG
119898284421000,1.449982,-4.16763897651762,-4.72331532502893,-1.34325972201578,-0.18661933,-6.006027,0.32620203,249.80563,115.120415,19.149237,JOG
119898289510000,1.455071,-3.80871772271436,-5.31297151759074,-3.20964984559495,-0.07971791,-5.9855633,0.3885103,248.42813,114.73647,18.348906,JOG
119898294530000,1.460091,-3.65602023522922,-5.98773847009701,-4.29869276796652,0.032070424,-5.894544,0.46944994,246.9596,115.074554,17.844622,JOG
119898299436000,1.464997,-3.59792729720373,-6.68932288055925,-5.02262070945406,0.11881329,-5.759238,0.56505036,245.52182,115.397865,17.305183,JOG
119898304508000,1.470069,-3.52589806144578,-7.46315482455978,-5.61365524318814,0.14935656,-5.569564,0.6835582,243.96436,115.60721,16.551712,JOG
119898309484000,1.475045,-3.4464007660241,-8.258127502076,-6.07738929738647,0.13500121,-5.3123894,0.8011498,242.48926,115.81848,15.781398,JOG
119898314454000,1.480015,-3.3020871148,-9.06847181535135,-6.51505302384865,0.07941248,-4.9593096,0.9053023,241.08138,116.02176,14.92738,JOG
119898319469000,1.48503,-3.0632467368,-9.90960496454054,-6.92004306265946,-0.02687807,-4.5020766,1.0140363,239.8039,116.24994,14.076115,JOG
119898324405000,1.489966,-2.76274436046694,-10.5835735877967,-7.33426868463802,-0.15943582,-3.9159517,1.1114693,238.6665,116.47519,13.202109,JOG
119898329482000,1.495043,-2.40025368241122,-11.1511581823622,-7.7730732866392,-0.34147367,-3.2400293,1.1899655,237.70288,116.75304,12.371762,JOG
119898334433000,1.499994,-1.98807095674985,-11.5810148068383,-8.11374222951464,-0.52564955,-2.497828,1.269378,236.93901,117.05676,11.584433,JOG
119898339416000,1.504977,-1.51920448709963,-11.8998435773236,-8.37630784810375,-0.70066243,-2.1184807,1.3283265,236.2776,117.41681,10.829868,JOG
119898344457000,1.510018,-1.06212877015673,-12.2039585720276,-8.57191000479185,-0.77182823,-1.3582588,1.3600914,235.92972,117.82437,10.227862,JOG
119898349440000,1.515001,-0.628602586682639,-12.4850361856843,-8.69101027118898,-0.90316427,-0.6200282,1.4052955,235.69229,118.29358,9.667296,JOG
119898354459000,1.52002,-0.191879563456127,-12.7991804084424,-8.67630067964628,-1.0024298,0.090713486,1.4309518,235.66226,118.79837,9.255764,JOG
119898359467000,1.525028,0.243955915754348,-13.1459743767833,-8.51696294347274,-1.0467176,0.72173727,1.4453071,235.81026,119.314,8.935881,JOG
119898364435000,1.529996,0.758709396517314,-13.6025310645145,-7.86843580167648,-1.0552697,1.2318097,1.4428637,236.12897,119.84601,8.750146,JOG
119898369440000,1.535001,1.38530165859196,-14.2099907763696,-6.57220293339986,-1.0464121,1.543351,1.4220943,236.55714,120.36937,8.635301,JOG
119898374413000,1.539974,2.17669305155742,-14.942054916396,-4.84480100674565,-1.0580186,1.3118331,1.38025,237.00493,120.85027,8.56834,JOG
119898379444000,1.545005,3.20789172811007,-15.8581639158704,-2.49698263601663,-1.1462886,0.627664,1.2928963,237.40729,121.33647,8.501861,JOG
119898384396000,1.549957,4.20987291052144,-16.7198815962152,-0.608721631934588,-1.3158038,-0.32498032,1.1282681,237.76274,121.69562,8.483539,JOG
119898389467000,1.555028,5.20882361086085,-17.5190426154479,0.445171342841716,-1.4563028,-1.2889256,0.9266826,237.92886,122.06868,8.395816,JOG
119898394441000,1.560002,6.0449492851378,-18.142242586122,0.543724177755906,-1.5726726,-1.9278907,0.6969972,238.13293,122.38199,8.551878,JOG
119898399480000,1.565041,6.6671672865748,-18.522223359252,-0.819456058503937,-1.5674802,-2.0983222,0.47708577,238.19473,122.70337,8.673405,JOG
119898404360000,1.569921,7.22043477701741,-18.8258963101266,-2.18565237434731,-1.459968,-1.9028453,0.29260445,238.2803,122.92738,8.893162,JOG
119898409521000,1.575082,7.70921934748813,-19.0214100158228,-3.72043613794502,-1.2794572,-1.4993688,0.17165314,238.3594,123.13971,9.144584,JOG
119898414368000,1.579929,8.11762561050867,-19.1744365425868,-4.84417635506703,-1.0864239,-1.0308352,0.10323623,238.4591,123.42616,9.489888,JOG
119898419474000,1.585035,8.44059948955047,-19.2708465205047,-5.3551494897082,-0.8854492,-0.59650993,0.080634214,238.64479,123.66037,9.888522,JOG
119898424411000,1.589972,8.73472902075079,-19.2883369356181,-5.56507992402932,-0.7275405,-0.23365596,0.09865474,238.91739,123.9382,10.30833,JOG
119898429488000,1.595049,8.99478823801505,-19.1294121517433,-5.11720011905705,-0.63713247,-0.010995574,0.18142697,239.26758,124.16519,10.737847,JOG
119898434417000,1.599978,9.22055797167714,-18.9604254763654,-4.54351765519575,-0.62949663,0.039095376,0.28252518,239.67218,124.380066,11.1592865,JOG
119898439457000,1.605018,9.38385884359594,-18.750466238086,-3.6057034918318,-0.7284568,0.074830994,0.32162055,240.1251,124.587585,11.583912,JOG
119898444479000,1.61004,9.53808053958563,-18.5178023215894,-2.66266011596437,-0.81183994,0.06261369,0.37048978,240.6368,124.74422,11.969597,JOG
119898449472000,1.615033,9.66251673426084,-18.2067125845261,-1.69588660540987,-1.0128145,0.004276057,0.39584067,241.13965,124.94858,12.331632,JOG
119898454436000,1.619997,9.79226299623091,-17.8436167236659,-0.689549056536402,-1.2617421,-0.14019357,0.40439278,241.67102,125.11923,12.665656,JOG
119898459524000,1.625085,9.94692063400119,-17.2781502717715,0.504213910017854,-1.536937,-0.44135013,0.40408736,242.14151,125.34076,12.949124,JOG
119898464465000,1.630026,10.0870136836242,-16.6970373453613,1.62833199031845,-1.8295414,-0.9034697,0.4156938,242.5299,125.52586,13.14812,JOG
119898469471000,1.635032,10.1909976266391,-15.9880529095928,2.63508912905452,-2.162463,-1.4462235,0.43249258,242.8158,125.789536,13.280764,JOG
119898475249000,1.64081,10.1557326982799,-14.7579780080835,3.68541788136103,-2.4984388,-2.026851,0.4615087,242.9829,126.0405,13.328498,JOG
119898479480000,1.645041,9.85485526835229,-13.1279064164865,4.25670472919447,-2.820365,-2.576935,0.5369505,243.02635,126.366104,13.280106,JOG
119898484555000,1.650116,9.46526471650849,-11.276776947656,4.89833700776532,-3.1349604,-3.0836477,0.6597345,242.9479,126.71388,13.141569,JOG
119898489475000,1.655036,8.71994282637331,-10.8160326968651,4.96157634167386,-3.443142,-3.5876117,0.8735373,242.75778,127.125565,12.877817,JOG
119898494853000,1.660414,7.89211891232505,-10.3228439116357,5.06389797296846,-3.7045922,-4.1325035,1.1398746,242.42429,127.61978,12.484705,JOG
119898499476000,1.665037,6.92100435687278,-10.1054991727596,5.80841918204512,-3.8344011,-4.6697593,1.3341297,241.99823,128.14531,11.979822,JOG
119898504625000,1.670186,5.87325643549659,-9.88093363359292,6.4799319448803,-3.811799,-5.1990743,1.3793337,241.43948,128.68835,11.287125,JOG
119898509505000,1.675066,5.23970101659456,-9.85397375665801,5.44197959183732,-3.5964692,-5.5649824,1.4147639,240.83148,129.19852,10.4906025,JOG
119898514865000,1.680426,4.58440294975083,-9.81657718272425,4.29931801262458,-3.061351,-5.3114734,1.4905112,240.2405,129.53947,9.595383,JOG
119898519470000,1.685031,4.70242944822813,-9.65378218826135,3.2737088675526,-2.039679,-4.159076,1.5592335,239.77191,129.68689,8.794607,JOG
119898524455000,1.690016,4.83019537546143,-9.47755351347361,2.16346748032484,-0.84299403,-2.475226,1.5406022,239.44586,129.72543,8.06512,JOG
119898529476000,1.695037,5.32675845465724,-9.11399795962701,2.20153400916077,0.076358154,-0.72784597,1.4367551,239.38464,129.55777,7.5696716,JOG
119898534373000,1.699934,5.89862207592991,-8.7151350766472,2.51389637245619,0.43676865,0.049480084,1.3701707,239.48041,129.21028,7.2080793,JOG
119898539456000,1.705017,6.24173545557476,-8.29157802852204,2.77017186689715,0.39828414,1.310306,1.2168436,240.04755,128.85512,7.3107023,JOG
119898544783000,1.710344,6.55038668527802,-7.84574808230097,3.02493169000288,0.04917465,2.3961189,0.9459248,240.7203,128.49567,7.561369,JOG
119898549471000,1.715032,6.54051172256346,-7.76864601696438,3.16109137635015,-0.57910025,2.5809057,0.8533788,241.48196,128.20743,7.928031,JOG
119898554393000,1.719954,6.46665241576308,-7.75879821222187,3.28419032384832,-0.75502944,2.7235427,0.61941737,242.41602,127.91005,8.563422,JOG
119898559449000,1.72501,6.38318410651523,-7.70949124586955,3.34873802768242,-1.0268645,2.5201247,0.32375857,243.29453,127.82161,9.232587,JOG
119898564406000,1.729967,6.29996650029947,-7.65401289000073,3.40074912660872,-1.1612549,1.9764545,-0.011301007,244.0859,127.75999,9.926558,JOG
119898569402000,1.734963,6.1999223920587,-7.54908884654726,3.44112809648252,-1.1044444,1.2073752,-0.3222314,244.73724,127.7251,10.594191,JOG
119898574422000,1.739983,5.96130816417782,-7.02517498659905,3.37888101728528,-0.91721416,0.37598756,-0.5928447,245.2015,127.71483,11.224594,JOG
119898579399000,1.74496,5.73294167237431,-6.41058784425087,3.33631841239423,-0.6575964,-0.40622538,-0.7883216,245.45833,127.68355,11.770228,JOG
119898584412000,1.749973,5.52742973246391,-5.50729135686411,3.35065644078646,-0.36957347,-1.0760391,-0.9257663,245.51337,127.61486,12.243359,JOG
119898589389000,1.75495,5.34411721758002,-4.63538333502131,3.34437647768308,-0.059253927,-1.6362026,-1.0051788,245.37085,127.51666,12.61616,JOG
119898594402000,1.759963,5.22517801752056,-3.83611326782281,3.27301298745417,0.2855795,-2.0314324,-1.074512,245.08948,127.347115,12.936923,JOG
119898599392000,1.764953,5.12129216918086,-3.04830607104623,3.15302958418491,0.6731735,-2.154827,-1.1255192,244.70453,127.151306,13.227582,JOG
119898604353000,1.769914,5.06831015776561,-2.29210633315085,2.86403609510341,0.98899084,-1.9214766,-1.1814134,244.30054,126.89434,13.534544,JOG
119898609352000,1.774913,5.03819071749477,-1.49307880494673,2.52915812335955,1.1270463,-1.2614367,-1.201572,243.9445,126.65413,13.908599,JOG
119898614395000,1.779956,5.08147083514886,-0.569768980564572,2.05307647766604,0.9627236,-0.30634892,-1.2006557,243.71558,126.42102,14.381247,JOG
119898619365000,1.784926,5.08377237394758,0.262268737337172,1.65477180853852,0.69058317,0.59131753,-1.2137892,243.6024,126.28558,14.97838,JOG
119898624389000,1.78995,4.95479364416203,0.849838960276013,1.48280006906275,0.5403103,1.2278391,-1.2366967,243.66519,126.17557,15.691199,JOG
119898629398000,1.794959,4.81982573104779,1.39310282980113,1.38486580813298,0.537256,1.4315627,-1.2507466,243.8053,126.25461,16.518318,JOG
119898634364000,1.799925,4.66454440917186,1.78836429599288,1.53544159073909,0.64904433,1.706452,-1.246776,244.12682,126.362946,17.460297,JOG
119898639356000,1.804917,4.54316302392273,2.1698227551263,1.73380048945022,0.7507534,1.8228219,-1.2272283,244.43768,126.56212,18.413275,JOG
119898644379000,1.80994,4.56222365449232,2.48908846643883,2.12454366491332,0.9950995,1.7715092,-1.2012665,244.782,126.71922,19.383701,JOG
119898649368000,1.814929,4.58339549350528,2.71932176704981,2.52406893077282,1.2922854,1.6181821,-1.1597277,245.13431,126.86847,20.349255,JOG
119898654417000,1.819978,4.61502546617139,2.55665304636015,2.9804452617232,1.6264287,1.4117095,-1.0772609,245.47565,126.964874,21.28649,JOG
119898659519000,1.82508,4.61811007621818,2.32918397780364,3.42852467461818,1.9398025,1.1746938,-1.0574077,245.79138,127.019424,22.237736,JOG
119898664397000,1.829958,4.25409207563636,1.30993308964156,3.69061776477922,2.1988094,0.97433007,-1.1191051,246.0703,127.040726,23.167965,JOG
119898669378000,1.834939,3.85415289784082,0.265509736915182,3.89744603404338,2.3774874,0.8017606,-1.1759156,246.35678,126.96701,24.075136,JOG
119898674385000,1.839946,3.24130031558869,-0.811625103737413,3.65137641789311,2.5109615,0.6740898,-1.2293663,246.6042,126.89452,24.977945,JOG
119898679470000,1.845031,2.61639656860978,-1.88087029656435,3.3809426978316,2.6145031,0.5910121,-1.2516629,246.88696,126.65152,25.752447,JOG
119898684394000,1.849955,1.97897115631278,-2.59797386806533,2.85418147000845,2.7226264,0.54733527,-1.2559389,247.1565,126.42706,26.523516,JOG
119898689355000,1.854916,1.33675599173003,-3.32046591075753,2.32346204449451,2.8032606,0.4978552,-1.2608259,247.43188,126.04993,27.074804,JOG
119898694419000,1.85998,0.867148335097723,-3.81588971105026,1.57614060131014,2.86282,0.4709771,-1.255328,247.71854,125.69072,27.61699,JOG
119898699449000,1.86501,0.44121896303082,-4.32164245763321,0.78861289191302,2.8823676,0.50701815,-1.2571607,248.02437,125.36427,28.15819,JOG
119898704430000,1.869991,0.321202956327613,-5.26033900796118,-0.330107668469764,2.8609874,0.58062744,-1.2522738,248.35756,124.9078,28.404974,JOG
119898709430000,1.874991,0.200729149157157,-6.20261621166322,-1.45309558292749,2.8023443,0.6805039,-1.2632693,248.85822,124.3193,28.206451,JOG
119898714446000,1.880007,0.773783288299402,-7.22071937101185,-2.39249639967588,2.722321,0.8344419,-1.2803736,249.40321,123.75432,28.028734,JOG
119898719376000,1.884937,1.46240545360883,-8.23452421148587,-3.28196672004457,2.6261096,1.0977248,-1.3222178,250.01334,123.22532,27.886667,JOG
119898724427000,1.889988,2.221715463036,-9.57905870529935,-4.10791347518204,2.506991,1.5396858,-1.4071281,250.87297,122.583664,27.264185,JOG
119898729572000,1.895133,3.00405855390372,-10.9992358442557,-4.93510428434466,2.3564126,1.8286251,-1.5628988,251.7316,122.03129,26.749441,JOG
119898734437000,1.899998,3.76943841599883,-12.6731348060837,-3.62273870257385,2.2806654,2.4691174,-1.672549,252.71173,121.62802,26.418293,JOG
119898739401000,1.904962,4.55272185119431,-14.4111891229404,-2.09325073919275,2.1386392,3.0705142,-1.9321668,253.7169,121.356186,26.240343,JOG
119898744466000,1.910027,5.27311790591777,-15.7625051515781,0.298110863195598,1.9935588,3.2388074,-2.2962425,254.68011,121.22293,26.206575,JOG
119898749372000,1.914933,5.95602200222176,-16.9917331972591,2.77119984319975,1.7718146,2.8722885,-2.740036,255.61456,121.21278,26.30195,JOG
119898754438000,1.919999,6.64314570281517,-17.6374856970616,4.06000226629384,1.4834863,2.0350976,-3.2375858,256.5736,121.183334,26.70002,JOG
119898759417000,1.924978,7.31658225918483,-18.2069681429384,5.19444905770616,1.221425,0.9272934,-3.7531562,257.28964,121.31664,27.169834,JOG
119898765207000,1.930768,8.26806528243282,-18.5972613397724,4.19011348092187,1.0103711,-0.07849618,-4.255593,258.01355,121.46238,27.883448,JOG
119898769412000,1.934973,8.98436107539447,-18.8398782184183,3.11181833800325,0.87598073,-0.659429,-4.704273,258.47443,121.80119,28.662827,JOG
119898774422000,1.939983,10.0951031805069,-19.0329320402685,0.797930351407392,0.79168135,-0.66950834,-5.056132,258.89908,122.29137,29.618542,JOG
119898779386000,1.944947,11.299895268256,-19.1853168456376,-1.91166032193729,0.7312057,-0.13347405,-5.1957145,259.28235,122.90369,30.622356,JOG
119898784435000,1.949996,12.2254132704973,-19.2832921423467,-4.30879257524867,0.6759224,0.6966918,-5.039027,259.5848,123.7001,31.689161,JOG
119898789400000,1.954961,13.0152155510381,-19.3567621553839,-6.52207531551907,0.72234815,1.4825699,-4.58546,260.05817,124.45986,32.71661,JOG
119898794446000,1.960007,13.3205240984446,-19.4079092376452,-7.50659103185667,0.977079,1.922393,-3.9116757,260.37488,125.311615,33.709682,JOG
119898799556000,1.965117,13.3494299568813,-19.4464505499114,-7.79083128564678,1.4825699,1.9300288,-3.2226195,260.8448,125.99637,34.56323,JOG
119898804464000,1.970025,12.9582368151659,-19.4720542843602,-7.24723721516588,2.0393736,1.452943,-2.6196957,261.0573,126.627014,35.276665,JOG
119898809524000,1.975085,12.3034558753655,-19.4915998545931,-6.19665661579107,2.4776695,0.63621616,-2.1945333,261.20035,127.07419,35.81273,JOG
119898814480000,1.980041,11.7756200629747,-19.504846168038,-5.13703251670886,2.7229319,-0.30909783,-2.0015,261.15164,127.38948,36.191887,JOG
119898819469000,1.98503,11.3069050917722,-19.5149257373418,-4.05344403037975,2.653904,-1.058324,-1.9834795,260.91974,127.62424,36.467205,JOG
119898824477000,1.990038,11.0165746662049,-19.2638289993073,-3.29404427277585,2.2406538,-1.632232,-2.074193,260.6005,127.7402,36.59982,JOG
119898829476000,1.995037,10.7891654317665,-18.9227151476497,-2.64971710263236,1.591304,-1.8698585,-2.221717,260.14804,127.8907,36.72837,JOG
119898835079000,2.00064,10.7540530601131,-17.7228459719274,-2.57892928207519,1.2034045,-2.5051584,-2.3716843,259.5169,128.00809,36.78833,JOG
119898839466000,2.005027,10.7832258920742,-16.5725911956155,-2.69145420016863,0.089186326,-2.6957483,-2.430022,258.95816,128.23535,36.87546,JOG
119898844500000,2.010061,11.063714813917,-15.1790411990382,-3.63156868191187,-0.1908954,-2.7440066,-2.5659394,258.27838,128.50401,37.02495,JOG
119898849474000,2.015035,11.4424017535578,-13.7718234218275,-4.89385750436746,-0.42424592,-2.083356,-2.7021625,257.7718,128.86172,37.21377,JOG
119898854462000,2.020023,11.5747284513571,-12.707620928738,-5.14567720399216,-0.15424347,-1.0155635,-2.7076602,257.28748,129.33011,37.54676,JOG
119898859486000,2.025047,11.5837037961944,-11.8100578596213,-4.88987167540341,0.22327125,-0.09040806,-2.5696046,256.9817,129.79105,37.895367,JOG
119898864510000,2.030071,11.4219416581221,-11.2598869104263,-4.40552715855415,0.4560109,0.5323691,-2.3047945,256.68784,130.39662,38.405624,JOG
119898869437000,2.034998,11.1138986741551,-11.0243241833717,-3.73055072171659,0.47678033,0.9486737,-1.9804251,256.66382,130.91556,38.89013,JOG
119898874420000,2.039981,10.4918055599721,-10.9728900529986,-2.88509663723849,0.38759398,1.2241739,-1.6539177,256.79218,131.4294,39.424942,JOG
119898879449000,2.04501,9.45065176011158,-11.169606216577,-1.81515509390317,0.24190263,1.3069462,-1.3634512,257.0261,131.85283,39.87972,JOG
119898884435000,2.049996,8.29662242282099,-11.2837000867241,-0.986794537004472,0.041233405,1.1994339,-1.1236867,257.39795,132.18709,40.25924,JOG
119898889464000,2.055025,6.96740620944693,-11.2889540119996,-0.466666396503764,-0.226631,1.1319333,-0.9053023,257.83716,132.45358,40.561073,JOG
119898894439000,2.06,5.7246024416494,-11.0783121907862,-0.2025886142774,-0.48716503,1.2144,-0.7480045,258.48206,132.56964,40.7271,JOG
119898899442000,2.065003,4.52406554444116,-10.7190960998323,-0.108058160656013,-0.7107417,1.4196508,-0.6301075,259.15817,132.64893,40.842808,JOG
119898904940000,2.070501,3.31385747619469,-10.1026751625369,-0.110898858439528,-0.91751957,1.6358972,-0.5170974,259.92255,132.65433,40.89063,JOG
119898909476000,2.075037,2.37414399017699,-9.47477545988201,-0.17069881079351,-1.0574077,1.8747455,-0.37720928,260.77795,132.62827,40.91119,JOG
119898914434000,2.079995,1.45826647363377,-8.74368740662473,-0.222323769748378,-1.1523973,2.1090124,-0.20586158,261.68237,132.56389,40.90479,JOG
119898919437000,2.084998,0.631778372724592,-7.96664735168075,-0.262353110084529,-1.255328,2.2901337,-0.20586158,262.19668261432,132.484194196751,40.8530868145808,JOG
119898924406000,2.089967,-0.189092979147828,-7.19488800068803,-0.30211041412817,-1.3478742,2.3533583,0.2144137,262.7075,132.40504,40.801735,JOG
119898929482000,2.095043,-1.02764057063594,-6.40650996373108,-0.342723832386475,-1.4043792,2.4559836,0.3210097,263.69415,132.28577,40.74517,JOG
119898934466000,2.100027,-1.77806785874303,-5.63012842929549,-0.377519375803345,-1.5201381,2.4874432,0.5580254,264.77682,132.04538,40.560246,JOG
119898939462000,2.105023,-2.44737450879878,-4.84927059493158,-0.406619665376584,-1.6233743,2.459038,0.81153446,265.87952,131.77046,40.339108,JOG
119898944492000,2.110053,-3.06671031056604,-4.12247193584906,-0.43756972490566,-1.7183639,2.3493876,1.0836749,266.90805,131.43549,40.030617,JOG
119898949477000,2.115038,-3.62564466900822,-3.46191337223029,-0.4699047694388,-1.8185458,2.2110267,1.3417655,267.92694,131.04001,39.65001,JOG
119898954419000,2.11998,-4.13112138699473,-2.86115955852373,-0.523560165465729,-1.8894062,2.01219,1.6019942,268.8753,130.60815,39.20513,JOG
119898959504000,2.125065,-4.58282180790861,-2.31911891441125,-0.609145526405975,-1.9529362,1.8237382,1.8283197,269.78458,130.12836,38.69898,JOG
119898964407000,2.129968,-4.91896003313459,-1.89927237918092,-0.691700834297723,-1.9981402,1.6578883,2.0018053,270.6048,129.62589,38.151344,JOG
119898969474000,2.135035,-5.09445127680579,-1.64315011457336,-0.777074905991594,-2.0131063,1.50731,2.1438315,271.3705,129.0819,37.548374,JOG
119898974539000,2.1401,-5.19849725092179,-1.45548131701921,-0.841243401241995,-2.0060816,1.3500122,2.2708917,272.04633,128.44821,36.82957,JOG
119898979479000,2.14504,-5.16636376363283,-1.40039566749466,-0.864195755210557,-1.9761491,1.1548407,2.3768766,272.6602,127.78761,36.067074,JOG
119898984420000,2.149981,-5.10444949328449,-1.33145848644689,-0.885442835051456,-1.956296,0.9456194,2.4743097,273.19754,127.09514,35.246086,JOG
119898989490000,2.155051,-4.95623711233211,-1.22135777216117,-0.902381414983429,-1.9517145,0.752586,2.5842655,273.67975,126.378654,34.38099,JOG
119898994688000,2.160249,-4.80579357542129,-1.10341504991369,-0.916397673181258,-1.9339994,0.5888741,2.6908615,274.10358,125.654755,33.48541,JOG
119898999479000,2.16504,-4.73035994009453,-0.782822286846486,-0.78910350587238,-1.8988746,0.38026363,2.8069258,274.45688,124.910416,32.541748,JOG
119899004700000,2.170261,-4.65871023968872,-0.424628909346303,-0.647653016015564,-1.8188512,0.16279559,2.9153545,274.757,124.17179,31.580177,JOG
119899009534000,2.175095,-4.71275040972763,0.00769125657198438,-0.485532938513619,-1.6872098,-0.04642576,2.999043,275.0013,123.41764,30.580448,JOG
119899014782000,2.180343,-4.77860010391426,0.492931545785648,-0.308935466192358,-1.5427402,-0.20066923,3.0650163,275.21088,122.65465,29.552153,JOG
119899019463000,2.185024,-5.00420750815471,1.29509125038677,-0.137640935400746,-1.3692545,-0.29352075,3.1117475,275.38165,121.875496,28.49438,JOG
119899024440000,2.190001,-5.24408105032619,2.14797500381547,0.0444852939839702,-1.2174544,-0.30207285,3.134655,275.5442,121.08865,27.417376,JOG
119899029490000,2.195051,-5.28236210866579,2.54459266634683,0.00801275328209271,-1.1337659,-0.28527406,3.1340442,275.6903,120.30149,26.325127,JOG
119899034394000,2.199955,-5.27761868606201,2.83394179188971,-0.0726254874467226,-0.9728029,-0.26175576,3.1160235,275.8384,119.50075,25.22737,JOG
119899039484000,2.205045,-5.23181233907254,3.06640309802571,0.0338310136134068,-0.7620544,-0.16401732,3.0778446,276.00882,118.711334,24.13649,JOG
119899044428000,2.209989,-5.17963852044995,3.27944614155188,0.172961170880624,-0.5012149,-0.031154128,3.0063734,276.19348,117.918884,23.05689,JOG
119899049440000,2.215001,-5.02050531464692,3.37437690037272,0.625166679470132,-0.17928895,0.116675265,2.8997774,276.39197,117.1407,22.009235,JOG
119899054410000,2.219971,-4.80953965382291,3.40793954517981,1.22929566279843,0.12858713,0.258396,2.7406468,276.61786,116.3638,20.997644,JOG
119899059430000,2.224991,-4.43092889354773,3.27577596437935,2.23920340854158,0.40500367,0.33536503,2.5179865,276.8622,115.59193,20.048458,JOG
119899064451000,2.230012,-3.9729281761061,3.06401220396354,3.44083952639287,0.6612616,0.2996294,2.209805,277.09348,114.830215,19.159887,JOG
119899069428000,2.234989,-3.28999771476199,2.75613721246527,5.50767481403964,0.9440922,0.1572978,1.777007,277.33313,114.055756,18.390678,JOG
119899074423000,2.239984,-2.51916143230228,2.41058993097796,7.90878537664382,1.2589933,-0.046731193,1.2333369,277.50793,113.31672,17.720766,JOG
119899079445000,2.245006,-1.61201005018055,1.39438584211892,10.5188715204939,1.6505579,-0.35002577,0.5369505,277.65146,112.5504,17.256079,JOG
119899084440000,2.250001,-0.609322224627996,-0.124537265227768,13.2638538931203,2.0583105,-1.0015136,-0.20952678,277.58856,111.84998,16.911036,JOG
119899090148000,2.255709,-0.0206564718749375,-1.89817462557187,13.8048374733793,2.1600194,-2.2317963,-0.8167268,277.40494,111.09023,16.811726,JOG
119899094505000,2.260066,0.233593349318749,-3.26528845974428,13.3088414852662,1.7690657,-3.9651263,-1.174083,276.85373,110.49243,16.788635,JOG
119899099473000,2.265034,-0.0282533646926093,-3.87066529203557,10.1706124383402,0.94714653,-5.721975,-1.2800682,276.09647,109.917946,16.946445,JOG
119899104471000,2.270032,-0.591154244845588,-3.96219372959174,5.6170649523855,-0.08155051,-6.9284334,-1.196685,274.98038,109.559166,17.110819,JOG
119899109414000,2.274975,-1.06529138591851,-4.02694776847748,1.50740585532523,-1.0143417,-7.343211,-1.0216721,273.57043,109.387535,17.248236,JOG
119899114445000,2.280006,-1.47856581691004,-4.07122719564995,-2.34490261335648,-1.5980235,-7.159341,-0.8579602,271.98068,109.31725,17.347523,JOG
119899119433000,2.284994,-1.7917034828807,-4.44916507638215,-5.04831943530553,-1.853976,-6.913773,-0.73731434,270.10913,109.82786,17.523283,JOG
119899124445000,2.290006,-2.03844890972842,-5.06370078582929,-6.98038214118332,-1.858252,-6.2705317,-0.68294734,268.41446,110.35334,17.666586,JOG
119899129442000,2.295003,-2.32860345173666,-6.09100356429835,-8.36577553403482,-1.8216002,-5.5445185,-0.59742624,266.659,111.349304,17.849348,JOG
119899134437000,2.299998,-2.65823145075892,-7.4896956594655,-9.26557099208492,-1.7492126,-4.7864347,-0.54428095,265.07828,112.34761,18.00924,JOG
119899139415000,2.304976,-2.94663695388842,-9.11287855198647,-10.1622713812342,-1.6963727,-4.04515,-0.5723807,263.61652,113.72449,18.328999,JOG
119899144490000,2.310051,-3.17259848680262,-11.1568036999155,-11.0763891327134,-1.5879441,-3.275154,-0.6814202,262.32626,115.05166,18.644138,JOG
119899149422000,2.314983,-3.27796448533969,-13.0527763470401,-11.7506397170242,-1.4547756,-2.4507914,-0.80756384,261.17703,116.07848,18.612495,JOG
119899154435000,2.319996,-3.26365921168057,-14.8838527695669,-12.2084085736988,-1.2483032,-1.679574,-0.9599747,260.19113,117.08647,18.657927,JOG
119899160284000,2.325845,-2.9380294642124,-16.431255755527,-12.6800816870312,-1.0073168,-1.0189233,-1.0613784,259.36795,117.867035,18.523264,JOG
119899164479000,2.33004,-2.52169078507698,-17.1925608941966,-12.9814314911173,-0.73975784,-0.35063666,-1.0809261,258.74164,118.60162,18.486294,JOG
119899169448000,2.335009,-1.75912309822449,-17.8857549744697,-13.2455399490354,-0.49113566,0.46944994,-1.0170907,258.3563,119.149765,18.430826,JOG
119899174476000,2.340037,-0.654566794725501,-18.3294259068049,-13.3980520883962,-0.2666427,1.5476271,-0.90194255,258.2233,119.62761,18.482471,JOG
119899179406000,2.344967,0.504100571456162,-18.6911609031269,-11.943393868179,-0.0693332,2.6939158,-0.7443393,258.36496,119.99527,18.596178,JOG
119899184441000,2.350002,1.82463519383047,-18.9276752174535,-7.54818153218884,0.1282817,3.5143077,-0.41050145,258.74524,120.247604,18.731138,JOG
119899189395000,2.354956,2.64974509298886,-19.1122764954147,-3.29723378550439,0.28710666,2.821892,0.183565,259.07495,120.42781,18.818018,JOG
119899194633000,2.360194,2.76846319307761,-19.2309943372448,1.08049343709693,0.13683382,1.0494665,0.8943067,259.38766,120.5345,18.752495,JOG
119899199369000,2.36493,2.53378338918283,-18.9061989029982,3.48855870617284,-0.12736541,-0.5852089,1.50731,260.00626,120.22332,18.64851,JOG
119899204473000,2.370034,1.68606980109739,-17.8046500823045,3.38798260082304,-0.2950479,-1.7467692,1.958434,260.3258,119.83757,18.255037,JOG
119899209419000,2.37498,0.968305043734928,-16.592833277901,2.85809996238835,-0.32742378,-2.3677137,2.2589796,260.75897,119.17813,17.80977,JOG
119899214474000,2.380035,0.445298881947526,-15.0611721787402,1.43851176786727,-0.24953845,-2.6105325,2.4483478,260.9911,118.51133,17.212278,JOG
119899219394000,2.384955,0.00832854353137315,-13.5192042896837,0.170850731700515,-0.10293079,-2.6367998,2.5189028,261.0636,117.86287,16.504822,JOG
119899224467000,2.390028,-0.227297482667475,-11.7765536967768,-0.796197712700818,-0.013133603,-2.574797,2.6456573,261.10562,117.20422,15.747601,JOG
119899229921000,2.395482,-0.377326548890558,-10.0582125190163,-1.69445115301295,0.1685988,-2.364354,2.7983737,261.00714,116.584915,14.871495,JOG
119899234476000,2.400037,-0.340476427874977,-8.86672533270133,-2.22263623800451,0.43799037,-2.2537873,2.8389962,260.8922,115.952614,14.01451,JOG
119899239444000,2.405005,-0.275825907033155,-7.65957869371189,-2.80143585955602,0.52290064,-2.0005836,2.8948903,260.75687,115.404045,13.093189,JOG
119899244509000,2.41007,-0.0724829985442073,-6.94787844161585,-3.4068431585747,0.7119634,-1.6404786,2.914438,260.67688,114.79522,12.216238,JOG
119899249548000,2.415109,0.138546270028209,-6.30198455042313,-4.01133128984485,0.90133166,-1.1957687,2.9025261,260.60913,114.29027,11.38618,JOG
119899254472000,2.420033,0.452097432558936,-6.43500621695547,-4.62893215021157,1.1111639,-0.6609562,2.8469374,260.65964,113.76266,10.628488,JOG
119899259486000,2.425047,0.77568292537401,-6.64618857612203,-5.25425564026596,1.3048081,-0.06047566,2.7299569,260.78918,113.34651,10.024428,JOG
119899264478000,2.430039,1.14965313599296,-7.76809920797888,-5.83390947892833,1.5180001,0.60994893,2.5558603,261.06915,112.9044,9.528846,JOG
119899269722000,2.435283,1.54819322599222,-9.01813213618677,-6.4225047981323,1.7116444,1.378112,2.312125,261.4967,112.55778,9.250652,JOG
119899274476000,2.440037,1.97335879937743,-10.9535211449416,-6.72809238058366,1.9031507,2.2156084,1.983174,262.09363,112.19555,9.124959,JOG
119899279805000,2.445366,2.4548363943583,-13.1027437026901,-7.05967630117691,2.0476203,3.0818152,1.5653422,262.8638,111.86885,9.196235,JOG
119899284440000,2.450001,2.98554138333645,-14.5082825589389,-7.09699164453577,2.1255057,3.9489384,1.0910053,263.81662,111.55921,9.446636,JOG
119899289453000,2.455014,3.55952716753222,-16.0284478850177,-7.13735018094526,2.1242838,4.8838677,0.6038403,265,111.233505,9.871887,JOG
119899294584000,2.460145,4.50664074108702,-16.999864699887,-6.65715489098942,1.9813415,5.742439,0.1572978,266.35486,110.98708,10.460071,JOG
119899299650000,2.465211,5.51355042739135,-17.842279133258,-6.07892926065961,1.7492126,6.44249,-0.20341812,267.88318,110.827156,11.190936,JOG
119899304474000,2.470035,8.29811672441579,-18.3904914434596,-3.49507129210314,1.4144585,6.995323,-0.3839288,269.6217,110.74027,12.040601,JOG
119899309420000,2.474981,11.3218962699436,-18.9290895431999,-0.657892888203062,0.9795224,7.38475,-0.3387248,271.4958,110.7524,12.913767,JOG
119899314474000,2.480035,12.7031897509621,-18.4423034436504,1.72307231752611,0.42821655,7.5099773,-0.13255776,273.51614,110.86973,13.872383,JOG
119899319429000,2.48499,13.1324466830926,-17.4035483279524,3.77686633750212,-0.23548855,7.475769,0.004276057,275.59445,111.087875,14.782208,JOG
119899324472000,2.490033,13.5693271490329,-16.3463450891099,5.86713540768154,-0.5833763,7.0533557,0.28252518,277.82257,111.14587,15.685587,JOG
119899329479000,2.49504,14.0030888965965,-15.2966888097356,7.94248286641411,-1.2925909,6.3203173,0.5213735,279.9538,111.3748,16.475582,JOG
119899334471000,2.500032,13.6242639124607,-13.8664763137173,9.85114031497382,-2.0341814,5.2571063,0.70463306,281.87042,111.603294,17.098007,JOG
119899339483000,2.505044,12.8050149880628,-12.2229517700524,11.6806289520419,-2.8270843,3.8594465,0.80878556,283.47388,111.905785,17.569532,JOG
119899344475000,2.510036,11.656962398237,-10.7510901715965,12.4859586799216,-3.7183368,2.2562308,0.83199847,284.90002,112.194084,18.000715,JOG
119899349474000,2.515035,10.3909384744368,-9.33501888814887,12.9361007588639,-4.6383,0.6429357,0.7706065,285.90662,112.609276,18.329298,JOG
119899354463000,2.520024,9.13839262279202,-8.30261281861349,12.5380735280152,-5.534439,-0.915687,0.66828656,286.5433,113.07276,18.543383,JOG
119899359488000,2.525049,7.8816071954416,-7.42971830294397,11.7657219610636,-6.3685756,-2.4596488,0.5739079,286.70377,113.7038,18.668308,JOG
119899364438000,2.529999,6.91786961149111,-6.82999044939493,10.3705843436809,-7.1309357,-3.8722749,0.46609017,286.4649,114.4579,18.65586,JOG
119899369440000,2.535001,6.13653805198358,-6.40655933261075,8.51555187709145,-7.66361,-4.953201,0.3387248,285.87158,115.381454,18.57601,JOG
119899374429000,2.53999,5.59495910805825,-5.87660296982524,7.29566713072816,-7.887492,-5.6801305,0.19181168,284.9285,116.459595,18.331118,JOG
119899379451000,2.545012,5.16070579291262,-5.29292896726214,6.36178893140777,-7.9296417,-6.1474423,0.089491755,283.7642,117.67499,18.007639,JOG
119899384436000,2.549997,3.47231470835333,-3.63028498568521,7.9288090781534,-7.8780236,-6.6932507,0.06841691,282.30212,119.07909,17.509895,JOG
119899389423000,2.554984,1.02878346944384,-1.31695970321156,10.9929886100055,-7.735081,-9.595777,0.40561453,280.1422,120.48549,16.563513,JOG
119899394461000,2.560022,-1.28294441700829,-0.562568467880506,11.2157696646315,-6.836804,10.002308,1.271516,283.96057,121.67729,18.14928,JOG
119899399438000,2.564999,-3.35641184437854,-1.93968337896206,7.58330415263847,-4.47978,10.002308,1.9950858,281.6943,122.58607,16.973978,JOG
119899404437000,2.569998,-3.78031563742472,-3.33838822254087,2.99306821670968,-1.666135,10.002308,2.254398,284.82892,122.74545,18.00347,JOG
119899409439000,2.575,-3.04306171984514,-4.74878711494121,-2.2592933351496,1.357648,-9.932974,1.8756617,282.70837,122.28031,16.332432,JOG
119899414414000,2.579975,-1.93420127153954,-5.12845406753393,-5.3349508694525,3.3783903,-7.9647665,0.94225967,286.15286,121.42815,17.353508,JOG
119899419437000,2.584998,-0.42601776223678,-4.45314793860552,-6.21735084595227,3.015231,-1.8414533,0.49205196,285.4276,120.40699,16.206757,JOG
119899424403000,2.589964,0.891079226089785,-3.66016580676643,-6.12202836154847,2.5378397,2.264172,-0.16890424,284.27548,119.53223,15.347162,JOG
119899429450000,2.595011,1.90786781080026,-2.62241263422251,-4.23520429206246,2.0384574,4.531704,-0.50915617,284.26474,118.79716,15.081406,JOG
119899434434000,2.599995,2.57969779404998,-1.68183701160254,-2.24904156962515,1.4202617,5.550627,-0.63132924,284.85367,118.45921,15.480296,JOG
119899439426000,2.604987,2.94000752257041,-0.818989840987703,-0.144073805721936,0.8185594,5.7903914,-0.61361414,285.818,118.274635,16.073576,JOG
119899444426000,2.609987,3.33502365025907,-0.0339529983160621,1.90085973814767,0.32498032,5.3411,-0.5714644,287.03976,118.28791,16.873411,JOG
119899449474000,2.615035,3.76890037120651,0.677247176413768,3.90027167623057,0.023518313,4.084856,-0.5635232,288.10068,118.40137,17.591291,JOG
119899454445000,2.620006,4.20220012197753,1.25886414919551,5.02573187126292,-0.015577064,2.4327707,-0.65087694,289.08286,118.51816,18.354912,JOG
119899459739000,2.6253,4.67615611946067,1.63256020949213,4.47885938711011,0.1777618,0.96944314,-0.79809546,289.7671,118.67244,19.014746,JOG
119899464742000,2.630303,5.09682159435311,1.94013471988205,3.89841597262809,0.49449542,0.01863139,-0.9324858,290.26172,118.72712,19.693169,JOG
119899469472000,2.635033,5.37064845996314,2.0236185050645,3.06023894653152,0.82253003,-0.4822781,-0.9999864,290.47052,118.77243,20.290756,JOG
119899474621000,2.640182,5.66873187032805,2.11449757692591,2.14781325786952,1.0852021,-0.65026605,-1.0155635,290.448,118.93637,20.932137,JOG
119899479505000,2.645066,5.96798120255336,2.18795939485338,1.48790388205665,1.2644911,-0.6282749,-1.0033462,290.3378,119.08216,21.560457,JOG
119899485353000,2.650914,6.35341468158787,2.25499126367445,1.03543847587273,1.366811,-0.5222898,-0.9969321,290.207,119.2209,22.194122,JOG
119899489430000,2.654991,6.57545753230155,2.33170523005492,1.0100418398003,1.3411547,-0.35643986,-1.0146471,289.99365,119.54646,22.895079,JOG
119899494550000,2.660111,6.79088070154768,2.46879265491762,1.37234444029955,1.2571607,-0.15302174,-1.0320568,289.82468,119.88601,23.615679,JOG
119899499575000,2.665136,6.87530809127435,2.60708224829869,1.77963352874988,1.1716396,0.05131268,-1.0390818,289.66507,120.33507,24.405792,JOG
119899504364000,2.669925,6.78552257815792,2.74389844686306,2.23711245273609,1.196685,0.23732115,-1.0506883,289.55847,120.80803,25.225348,JOG
119899509992000,2.675553,6.31260503964588,2.40633680438799,2.64983395496536,1.3368785,0.40439278,-1.1145236,289.5347,121.31877,26.126389,JOG
119899514356000,2.679917,5.32901967081271,1.3078465908611,2.76014265770373,1.536326,0.4804455,-1.1798862,289.54126,121.84709,27.044899,JOG
119899519366000,2.684927,4.23819145620438,0.0440393394160584,2.71310252262774,1.6468927,0.61727935,-1.3408492,289.66147,122.39136,28.032804,JOG
119899524545000,2.690106,3.16739473774031,-1.26641181044515,2.40716051179192,1.8600847,0.7153232,-1.5192219,289.79483,122.948944,29.050438,JOG
119899529523000,2.695084,2.29881256260714,-2.20978563256926,1.93704613816026,2.0980167,0.8017606,-1.6792686,290.03397,123.29584,29.872131,JOG
119899534349000,2.69991,1.61250274506677,-2.81779170029898,1.31061570680686,2.302351,0.8943067,-1.7880026,290.31018,123.690025,30.736204,JOG
119899539335000,2.704896,1.07098585802873,-3.26572721674096,0.404968516433878,2.4599543,1.0097603,-1.8252654,290.64026,123.84956,31.336452,JOG
119899544420000,2.709981,0.723659403496781,-3.50210214467558,-0.834793924427935,2.550057,1.1395692,-1.8359555,291.01483,124.048096,31.958023,JOG
119899549310000,2.714871,0.581088406524753,-4.04694519053465,-1.59720461786139,2.5821273,1.2638801,-1.8298469,291.31775,124.000275,32.234745,JOG
119899554724000,2.720285,0.694026429871287,-5.0993223700198,-1.83334785992079,2.540894,1.3979651,-1.8124372,291.67764,123.96886,32.50686,JOG
119899559377000,2.724938,0.931039707624633,-6.00449105485826,-2.15980491794721,2.4275784,1.5338826,-1.7901406,291.59064,123.09711,31.689943,JOG
119899564374000,2.729935,1.36608790615836,-6.97750210789834,-2.66970011680352,2.1627684,1.6783522,-1.8020525,291.59113,122.3131,30.959791,JOG
119899569328000,2.734889,1.90467240839509,-8.10242398820936,-3.18741832015758,2.0039434,1.861001,-1.8368717,291.68365,121.52145,30.231173,JOG
119899574383000,2.739944,2.64030165086765,-9.52827334319482,-3.73686960347997,1.9636264,2.11451,-1.9077321,291.8717,120.81599,29.592813,JOG
119899579327000,2.744888,3.39130269031477,-11.1442264503632,-3.78487896731235,1.9376645,2.4651468,-2.0164661,292.14194,120.29208,29.146576,JOG
119899584350000,2.749911,4.2572712745868,-13.5091813904095,-2.23525121096958,1.9123137,2.8570168,-2.1988094,292.51413,119.855286,28.798014,JOG
119899589345000,2.754906,5.10853262128801,-15.43954280322,-0.657441803398927,1.8918496,2.9232957,-2.5002716,292.8874,119.69234,28.725744,JOG
119899594407000,2.759968,5.95166652528324,-16.5621155076526,1.01437254068774,1.8289305,2.4193318,-2.963002,293.19247,119.65349,28.76507,JOG
119899599343000,2.764904,6.79647386284164,-17.4756983189936,2.62531702046374,1.6511687,1.6643023,-3.5631769,293.76813,119.75737,29.04507,JOG
119899604400000,2.769961,7.70916346817958,-18.0347804800197,4.23566530626542,1.4795157,0.7128797,-4.3041563,294.0875,120.06107,29.47788,JOG
119899609446000,2.775007,8.7035556478376,-18.5031370970874,5.21436701918211,1.3271047,0.18112154,-5.1605897,294.57703,120.65672,30.244051,JOG
119899614407000,2.779968,9.85905413651074,-18.7733751294498,4.84162563870746,1.1786644,-0.8503244,-5.5970526,294.5688,121.372734,31.055902,JOG
119899619394000,2.784955,11.0652021704812,-19.0082452062793,3.8956329977993,1.0986412,-1.6468927,-6.307489,294.6698,122.50055,32.292294,JOG
119899624399000,2.78996,12.3966442738654,-19.1442021345853,1.39683490610329,0.97524637,-1.9905044,-6.6049805,294.5646,123.65297,33.510254,JOG
119899629384000,2.794945,13.4625683639861,-19.2647614417084,-1.02024130834937,1.0497719,-1.7886134,-6.309627,294.2928,124.96103,34.86007,JOG
119899634379000,2.79994,13.6236172347057,-19.3337823863024,-3.19210190242401,1.4123205,-1.1511755,-5.522527,294.0479,126.19334,36.127434,JOG
119899639372000,2.804933,13.5841960548246,-19.3979694417293,-5.13834092042607,1.9889772,-0.52412236,-4.496579,293.48788,127.39119,37.33398,JOG
119899644410000,2.809971,12.314513255117,-19.4332385983709,-5.72279837447786,2.685669,-0.27000242,-3.4810157,293.0301,128.3359,38.29455,JOG
119899649382000,2.814943,10.9841397465527,-19.4643089074578,-6.02658594772771,3.3319645,-0.14110987,-2.5781567,292.43283,128.98466,38.950634,JOG
119899654429000,2.81999,9.36955945581666,-19.4830829829093,-5.40234404270732,3.6893206,0.0021380284,-1.8420641,291.9622,129.38419,39.36255,JOG
119899659487000,2.825048,7.81579851475506,-19.3433539553144,-4.89286244365894,3.6352592,0.16401732,-1.2501358,291.45233,129.34775,39.334316,JOG
119899664446000,2.830007,6.56663645203872,-18.530701527623,-4.88821872104234,3.1245756,0.41355577,-0.79717916,291.069,129.16768,39.161083,JOG
119899669416000,2.834977,5.36373056377482,-17.7245488781615,-4.88473407514278,2.2849414,0.84665924,-0.52381694,290.90942,128.63327,38.631218,JOG
119899674424000,2.839985,4.48112592825673,-16.9680308007434,-4.88908187809809,1.2547172,1.4010195,-0.4569272,290.9195,128.07664,38.076225,JOG
119899679415000,2.844976,3.60151735480011,-16.2140807759043,-4.89341492213761,0.2724459,2.0335703,-0.56046885,291.15237,127.533,37.53299,JOG
119899684440000,2.850001,2.81918006036973,-15.4285732371462,-4.20476320681687,-0.5589417,2.4055874,-0.8185594,291.5015,127.04622,37.046196,JOG
119899689408000,2.854969,2.05416421704217,-14.6498146028307,-3.46723294546505,-1.1294898,2.2101104,-1.1478158,291.87677,126.638,36.63732,JOG
119899694607000,2.860168,1.98047615650098,-13.4433321306707,-2.53377324239201,-1.2999213,1.536937,-1.3906348,292.23654,126.38418,36.381096,JOG
119899699762000,2.865323,2.04687266210557,-12.2032241731593,-1.64653357136735,-1.0833695,0.6078109,-1.529912,292.42813,126.206055,36.196033,JOG
119899704434000,2.869995,2.26039029669848,-11.3709411345929,-1.63781857144527,-0.57451874,0.12614368,-1.5690074,292.6488,126.11775,36.101257,JOG
119899709864000,2.875425,2.50698443440765,-10.4151045618963,-1.63679666734674,0.03176499,-1.1065824,-1.5262468,292.35217,126.10159,36.07215,JOG
119899714444000,2.880005,2.67990697038242,-9.86607559481569,-1.83998051733688,0.54275376,-1.3765849,-1.4908166,292.22183,126.09168,36.055412,JOG
119899719433000,2.884994,2.86827171535581,-9.26801762172285,-2.06130895131086,0.73364913,-1.7311921,-1.368949,291.60037,126.1199,36.06691,JOG
119899724432000,2.889993,2.81612636810302,-9.07174831215553,-2.23331633556469,0.9810496,-1.8848248,-1.2195925,290.9579,126.11977,36.05534,JOG
119899729401000,2.894962,2.74459532504259,-8.90961122146508,-2.40022195332198,1.0418307,-1.8573358,-1.056186,290.25995,126.078445,35.999283,JOG
119899734439000,2.9,2.60167105427942,-8.70856204874394,-2.63695122206258,0.98654735,-1.681712,-0.88361657,289.51648,126.061714,35.966415,JOG
119899739413000,2.904974,2.45471419139709,-8.5070214437197,-2.87628103031291,0.82833326,-1.3509285,-0.74464476,288.8452,126.00925,35.898003,JOG
119899744500000,2.910061,2.21402780863756,-8.16948281441347,-3.15237242442925,0.5571091,-0.8762862,-0.6151413,288.27615,125.96715,35.839367,JOG
119899749463000,2.915024,1.93400010196739,-7.77444367880063,-3.43740051677012,0.2098322,-0.34880406,-0.5131268,287.84775,125.89969,35.75503,JOG
119899754435000,2.919996,1.5548456096209,-7.34563648847336,-3.4678931647541,-0.15241088,0.15485434,-0.41080686,287.54373,125.84627,35.68212,JOG
119899759465000,2.925026,1.1402562601332,-6.90143363242828,-3.4185373204918,-0.5045747,0.5717699,-0.32650748,287.39648,125.778625,35.593147,JOG
119899764449000,2.93001,0.722523776762889,-6.3846402800251,-3.16612760360108,-0.782213,0.89827734,-0.24740042,287.35294,125.72956,35.51798,JOG
119899769483000,2.935044,0.298978884700714,-5.84473697600888,-2.86359552742808,-0.97494096,1.1218541,-0.15424347,287.41962,125.66164,35.42107,JOG
119899774502000,2.940063,-0.194573188171243,-5.30458310059115,-2.36998933112128,-1.1010846,1.2379184,-0.038179077,287.5716,125.58354,35.312046,JOG
119899779444000,2.945005,-0.704501635633105,-4.77209131788711,-1.81944713844394,-1.1615603,1.2669345,0.08155051,287.77094,125.48371,35.1786,JOG
119899784437000,2.949998,-1.24965350290767,-4.24631923958605,-1.28401757628856,-1.2284501,1.2260065,0.21899518,288.03568,125.35608,35.019226,JOG
119899789504000,2.955065,-1.82008495923038,-3.71976711744198,-0.752589974831709,-1.2986995,1.1337659,0.37293324,288.29416,125.19404,34.82089,JOG
119899794610000,2.960171,-2.34787340880866,-3.22014417826715,-0.26480388798556,-1.352761,1.006095,0.5299256,288.62524,124.97467,34.57386,JOG
119899799541000,2.965102,-2.8349619120165,-2.75253925384219,0.183317569551315,-1.4217888,0.8396343,0.70096785,288.9149,124.7134,34.27649,JOG
119899804466000,2.970027,-3.18807493539564,-2.35641294400641,0.480579928629633,-1.4752395,0.73853606,0.8781188,289.2701,124.38905,33.930206,JOG
119899810248000,2.975809,-3.54319814448741,-1.92295380508347,0.762589461429784,-1.4969252,0.54367006,1.0751228,289.54172,124.01796,33.527237,JOG
119899814487000,2.980048,-3.77961008901515,-1.58227713674242,0.986193443787879,-1.4993688,0.3182608,1.1774428,289.83942,123.63785,33.133858,JOG
119899819482000,2.985043,-4.0463729938447,-1.16954944214015,1.25798978867424,-1.4874569,0.077579886,1.3891076,290.07715,123.182785,32.658585,JOG
119899824471000,2.990032,-4.19900712228086,-0.800450948296687,1.44136699014952,-1.4669929,-0.18936823,1.6053538,290.28595,122.63991,32.072453,JOG
119899829482000,2.995043,-4.30218000326395,-0.448725778145216,1.58674666276752,-1.4355333,-0.43401974,1.8154916,290.42883,122.04326,31.424095,JOG
119899834475000,3.000036,-4.37878113019765,-0.0884698427009136,1.68390545798993,-1.4150693,-0.65026605,2.014939,290.54028,121.36417,30.681757,JOG
119899839462000,3.005023,-4.44111867669215,0.276650609824725,1.75514851439493,-1.4230106,-0.8341365,2.175291,290.58798,120.6409,29.882893,JOG
119899844564000,3.010125,-4.47872133182583,0.627396325622291,1.68159755299546,-1.4278975,-0.9801333,2.309376,290.60043,119.86929,29.024591,JOG
119899849527000,3.015088,-4.4908382079794,0.947282076226992,1.47318713132616,-1.4660766,-1.0940597,2.4080307,290.56897,119.07024,28.12255,JOG
119899854466000,3.020027,-4.50289648952735,1.26562092817876,1.26578453760771,-1.4947872,-1.1844677,2.484389,290.5038,118.25345,27.187595,JOG
119899859504000,3.025065,-4.51519647382348,1.59034073707388,1.05422465359201,-1.4776831,-1.2165382,2.5320365,290.42438,117.422966,26.226196,JOG
119899864473000,3.030034,-4.51750185486173,1.91638654272971,0.75268918073149,-1.4327844,-1.1841623,2.5573874,290.34094,116.58618,25.244577,JOG
119899869480000,3.035041,-4.51274910068391,2.24908310692834,0.381970210898008,-1.3472633,-1.0369438,2.538145,290.28333,115.75203,24.261467,JOG
119899874445000,3.040006,-4.46455811116883,2.56842501584416,0.00761169324675329,-1.1933253,-0.77396625,2.489276,290.199,114.972336,23.302479,JOG
119899880145000,3.045706,-4.37003385142857,2.92551682825397,-0.428250472698413,-0.9737192,-0.38881573,2.3887885,290.19498,114.206245,22.369942,JOG
119899884434000,3.049995,-4.21700567867995,3.13009720474897,-0.764549855377805,-0.6044512,0.13439035,2.2247713,290.25314,113.48985,21.496218,JOG
119899889465000,3.055026,-3.96007955987524,3.30946073215615,-1.16690583938022,-0.11911872,0.7870999,1.9758437,290.45786,112.78967,20.693607,JOG
119899894543000,3.060104,-3.38724182797574,3.12998216034875,-1.1791561557771,0.47647488,1.6255124,1.6450601,290.80844,112.15655,20.013126,JOG
119899899483000,3.065044,-2.52641825163002,2.60631452031842,-0.809719383100834,1.1734722,3.0182853,1.146594,291.49927,111.55833,19.500679,JOG
119899905435000,3.070996,-1.43666190941448,1.97972467844667,-0.112821773652642,2.189952,4.2800274,0.4801401,292.3275,111.04907,19.193558,JOG
119899909522000,3.075083,0.145637358694936,1.61854769306822,4.35889376360101,3.143818,4.3667703,0.16676621,293.2169,110.50489,18.923733,JOG
119899914714000,3.080275,2.11524622888392,1.06752910352907,9.7816013232063,3.3310483,3.4119878,-0.6646214,294.17438,110.343925,19.117481,JOG
119899919414000,3.084975,3.48491766092747,-0.372157523925724,12.0570938032763,3.1612277,1.0687088,-0.9285152,294.75995,110.086815,19.179188,JOG
119899924833000,3.090394,4.95510936696019,-2.00696561618052,14.3152233328747,2.431549,-2.4233024,-1.4691309,295.18588,110.22582,19.757763,JOG
119899929517000,3.095078,4.32557001399743,-2.98213445910842,9.89610413437901,1.4541647,-5.869804,-1.8832976,294.9273,110.55908,20.334383,JOG
119899934470000,3.100031,3.65987650092644,-4.01330680731976,5.22319692042744,0.4184427,-7.814188,-2.1111503,294.2999,111.215096,21.145857,JOG
119899939458000,3.105019,3.1939722649104,-4.52768644701987,0.949774357070511,-0.5195409,-7.8929896,-2.1536055,293.18295,112.022514,22.005665,JOG
119899944467000,3.110028,2.7781805312427,-4.91077543046358,-3.23150273502143,-1.215011,-7.115664,-2.0476203,291.72736,112.880615,22.877066,JOG
119899949747000,3.115308,2.61167653096819,-5.42374305138064,-5.75274228954911,-1.6062702,-6.1388903,-1.8619173,289.82834,113.711464,23.685818,JOG
119899954475000,3.120036,2.5404579943726,-5.91435939811255,-7.46989975099616,-1.7363845,-5.1288247,-1.6029104,288.17874,114.48021,24.410511,JOG
119899959477000,3.125038,2.43650562940125,-6.62008958355675,-8.68674621358356,-1.6786577,-4.1761804,-1.2880094,286.42245,115.499916,25.265755,JOG
119899964483000,3.130044,2.29845549894747,-7.54835786495879,-9.19134315986496,-1.4721853,-3.2907312,-0.96486163,284.91754,116.43216,25.97304,JOG
119899969424000,3.134985,2.17057920075233,-8.92860197842012,-9.48785891447238,-1.1954633,-2.439185,-0.6441574,283.4153,117.27994,26.480371,JOG
119899974423000,3.139984,2.05210151516531,-10.9285048281528,-9.52577203910117,-0.9129381,-1.6554449,-0.39278635,282.1492,118.046814,26.884693,JOG
119899979381000,3.144942,1.93454343133485,-12.8478015248241,-9.71844284203746,-0.6291912,-0.9086621,-0.20250183,281.09552,118.62741,27.093197,JOG
119899984449000,3.15001,1.81429949380636,-14.7139876843722,-10.1465113038351,-0.3408628,-0.08460484,-0.09437868,280.31274,119.13687,27.27292,JOG
119899989390000,3.154951,1.84112322977638,-16.1734778305218,-10.3967779480188,-0.08674286,0.7788532,-0.027488936,279.8579,119.32439,27.196169,JOG
119899994520000,3.160081,2.10132009011377,-17.1082588230679,-10.3871408334641,0.10842858,1.606881,0.092240654,279.66782,119.45314,27.126905,JOG
119899999434000,3.164995,2.56693117513991,-17.8414082547865,-8.922678799784,0.22999077,1.9819523,0.29779682,279.6529,119.37878,26.894709,JOG
119900004431000,3.169992,3.42677607776141,-18.2971729234168,-4.8348912167894,0.2574797,2.4394903,0.37110063,279.92984,119.30678,26.739069,JOG
119900009447000,3.175008,3.76744661908427,-18.681768526742,-0.311195848465461,0.3811799,1.0891727,0.35979962,279.81006,119.11697,26.420048,JOG
119900014452000,3.180013,3.00555767961612,-18.9117733692892,5.08911139016295,0.6750061,-1.221425,0.39706242,279.54855,118.883286,26.051674,JOG
119900019430000,3.184991,2.20918500411021,-19.1004564429088,8.10084820876242,0.50946164,-3.3011158,0.52534413,279.49106,118.46864,25.670485,JOG
119900024427000,3.189988,1.3272986902439,-19.2042076146341,6.08202003414634,0.18570304,-4.012774,0.89888823,279.15067,117.99208,25.173546,JOG
119900029409000,3.19497,0.479805211490715,-19.2559993025546,4.02758634010465,0.18295415,-3.7097847,1.4104879,279.15558,117.1089,24.537748,JOG
119900034440000,3.200001,-0.0886574248897095,-18.8407737928593,1.57578222223761,0.28344148,-3.1483996,1.9788979,278.99487,116.212494,23.803095,JOG
119900039438000,3.204999,-0.62573550621435,-18.2042821544081,-0.615236773566497,0.42943826,-2.6520715,2.5439484,278.66846,115.239265,22.86234,JOG
119900044463000,3.210024,-1.0158085608526,-16.3502316440508,-1.49169716796758,0.64660084,-2.2699752,3.0390546,278.48773,114.17013,21.85666,JOG
119900049446000,3.215007,-1.38168330197999,-14.4885331370527,-2.25881389839126,0.84940815,-1.9975294,3.4578028,278.16052,113.009384,20.645554,JOG
119900054438000,3.219999,-1.63804976055481,-12.5016929415283,-2.49052975079922,1.0571023,-1.8139644,3.794695,277.93674,111.756294,19.373716,JOG
119900059441000,3.225002,-1.86592210112295,-10.6252201934927,-2.68702640593147,1.2583824,-1.6557503,4.0317106,277.6731,110.4994,18.059795,JOG
119900064447000,3.230008,-1.99015868269508,-9.15738873104905,-2.7560466009022,1.4443909,-1.4767667,4.183816,277.4823,109.189445,16.717949,JOG
119900069421000,3.234982,-2.10106179690353,-7.77968232727273,-2.87107250615324,1.5903877,-1.2479976,4.2311583,277.29642,107.90824,15.3996525,JOG
119900074424000,3.239985,-2.12959260103216,-6.92851284090909,-3.29427983128226,1.7214183,-0.92485,4.1853433,277.19385,106.620674,14.104811,JOG
119900079407000,3.244968,-2.08153196663134,-6.26130160289701,-3.86803691312489,1.8353447,-0.49938235,4.022853,277.15628,105.40437,12.895979,JOG
119900084429000,3.24999,-1.43160324087617,-7.0089319148207,-5.64365918116941,1.9205604,0.0852157,3.8084393,277.2553,104.22392,11.757404,JOG
119900089435000,3.254996,-0.783745176134959,-7.75418029026674,-7.41362434919625,2.0100522,0.8509353,3.5494325,277.47058,103.157875,10.751322,JOG
119900094453000,3.260014,-0.18492306073903,-9.39363066789838,-8.50772128452656,2.1252003,1.715615,3.2601879,277.87488,102.15458,9.8582325,JOG
119900099882000,3.265443,0.454473602683017,-11.3359434104739,-9.54545327383367,2.2489004,2.6676486,2.9724703,278.51532,101.214134,9.082182,JOG
119900104471000,3.270032,1.01364926077817,-13.0864070097732,-9.93849693509128,2.4086416,3.1514537,2.8099802,279.17065,100.63329,8.621396,JOG
119900109475000,3.275036,1.62339321220727,-14.9951714139775,-10.3670849675456,2.486527,4.152051,2.4492643,280.1565,100.23568,8.384692,JOG
119900114457000,3.280018,2.35849033378545,-16.233148620222,-10.3575271066584,2.5928175,5.1868567,2.026851,281.27148,99.86389,8.226428,JOG
119900119374000,3.284935,3.11814894827374,-17.2782839500617,-10.2317237518496,2.5466971,6.232658,1.5491543,282.65015,99.6062,8.208112,JOG
119900124418000,3.289979,4.09080927032967,-17.8893434876374,-9.85003524587912,2.2522602,7.355428,1.047023,284.2798,99.48439,8.324421,JOG
119900129383000,3.294944,5.08918581193093,-18.3931964811617,-9.42082677943485,1.7220291,8.622058,0.5018258,286.2209,99.52543,8.590786,JOG
119900135106000,3.300667,6.49870760330431,-18.740141424911,-7.35095624750693,1.0076222,9.859365,-0.016493361,288.41873,99.78117,9.048763,JOG
119900139399000,3.30496,7.60097170874555,-18.9597813791057,-5.52469561495845,0.1328632,9.963212,-0.45051312,290.6211,100.20355,9.596628,JOG
119900144451000,3.310012,9.01734279881516,-19.1186994988152,-2.84628586836493,-0.77121735,9.963212,-0.7128797,293.0888,100.81985,10.313495,JOG
119900149375000,3.314936,10.4327737274882,-19.2444117274882,-0.080608523933649,-1.5885551,9.963212,-0.7425067,295.55655,101.500015,11.035581,JOG
119900154467000,3.320028,11.1677146983338,-18.5706321075709,2.77268012950404,-2.3796256,9.963212,-0.61208695,298.06622,102.221725,11.800452,JOG
119900159477000,3.325038,11.6398921873721,-17.6309517626425,5.57769628852188,-3.193298,9.963212,-0.4120286,300.56137,102.930984,12.501698,JOG
119900164414000,3.329975,11.4813567205765,-16.1540872682146,8.67918616405124,-4.019188,9.367924,-0.20189096,303.01862,103.60949,13.177336,JOG
119900169518000,3.335079,11.0410846180945,-14.3832138078463,12.0350402660528,-4.8527136,7.5060067,-0.005192355,305.1029,104.24403,13.736549,JOG
119900174426000,3.339987,9.98006279589338,-12.4691504189507,14.0520291311105,-5.765041,4.9043317,0.11026118,307.05164,104.83148,14.194913,JOG
119900179423000,3.344984,8.63234313855138,-10.4317953422812,15.5980746682679,-6.820005,1.964848,0.09590584,308.36053,105.49266,14.582699,JOG
119900184437000,3.349998,7.19045355833247,-8.60565310670953,16.1132017236337,-7.881078,-0.6612616,-0.056199603,309.23474,106.18928,14.906809,JOG
119900189498000,3.355059,5.66749736485534,-6.92688256317536,15.8518367362854,-8.776301,-2.7999008,-0.28038713,309.39166,107.07988,15.188086,JOG
119900194452000,3.360013,4.28296570979519,-5.47428356142278,16.3010118818641,-9.437257,-3.717726,-0.48808134,309.25723,108.08211,15.385787,JOG
119900199481000,3.365042,2.93441719278718,-4.10190926749777,17.1349197960819,-9.821491,-5.370422,-0.5589417,308.2815,109.31483,15.469923,JOG
119900205087000,3.370648,0.0270299592130521,-1.22393803358925,17.8205069347409,-9.900599,-9.445809,-0.35918877,306.3526,110.673836,15.197801,JOG
119900209537000,3.375098,-2.82363265259117,1.58173546257198,18.2703959558541,-9.550572,10.002918,0.049480084,310.7682,111.9917,16.3484,JOG
119900214476000,3.380037,-5.71363473837209,2.18687489465116,16.1470080313954,-8.884119,10.002308,1.273654,308.44775,113.21474,15.637159,JOG
119900219479000,3.38504,-8.41822427801269,0.758608617885835,11.8622098357294,-6.58696,10.002308,2.2611177,311.7704,113.87283,16.30315,JOG
119900224455000,3.390016,-8.99680584725395,-2.18605333266461,5.55060032052835,-3.8185186,10.002308,2.7290404,315.12265,114.046234,16.571348,JOG
119900229479000,3.39504,-8.45684434958784,-5.97055933564406,-1.91328674321184,-0.6444628,10.002308,2.496301,318.49716,113.60397,16.74678,JOG
119900234469000,3.40003,-6.36372473770492,-7.21856115029988,-6.76968606044582,3.0335567,-9.646784,1.5464053,316.06876,112.522316,14.96544,JOG
119900239463000,3.405024,-3.39966293442623,-7.06557721867253,-10.2022609920932,5.410739,-2.361605,0.24923302,321.2488,111.19658,15.5851755,JOG
119900244485000,3.410046,-1.39858012575631,-6.37683654581588,-10.2033062698501,4.163047,2.8005116,-0.64812803,319.76233,110.13872,14.327285,JOG
119900249475000,3.415036,0.0426744722144652,-5.3937586570511,-8.27718531387881,3.2809572,5.551238,-1.153619,319.62646,108.77035,13.702702,JOG
119900254467000,3.420028,1.13138705026111,-4.36525919628051,-5.53923623538314,2.4092526,6.7717466,-1.38025,320.20078,108.16443,13.726091,JOG
119900259461000,3.425022,1.85518259117553,-3.28976018080571,-1.96103571439838,1.5793921,6.831001,-1.4709635,321.2169,107.82347,13.931892,JOG
119900264419000,3.42998,2.58626616003502,-2.21116717267147,1.56029004859422,0.8078693,5.8954606,-1.5696182,322.2517,107.64107,14.298446,JOG
119900269441000,3.435002,3.33489495252456,-1.11161858423485,5.10691922783345,0.24251351,4.0833287,-1.6597209,323.0396,107.591415,14.611928,JOG
119900274861000,3.440422,4.14049708856235,-0.255939957285544,6.76943329904686,0.05131268,2.043955,-1.7935003,323.9567,107.87019,15.25727,JOG
119900279445000,3.445006,4.82044282803813,0.271453807599285,6.89147474400318,0.13316862,0.35338554,-1.9590448,324.4383,108.23273,15.855777,JOG
119900284436000,3.449997,5.390739575099,0.638284518405293,6.14684471248913,0.3210097,-0.79809546,-2.1160371,324.75348,108.659584,16.631342,JOG
119900289467000,3.455028,5.81889016391384,0.829090793934125,4.63900969420458,0.57818395,-1.4358387,-2.2623394,324.72818,109.13694,17.401882,JOG
119900294452000,3.460013,6.20552746789838,1.04382769457275,3.36652410438799,0.87598073,-1.5903877,-2.3991733,324.50357,109.767746,18.308863,JOG
119900299481000,3.465042,6.55311532974403,1.28945638026848,2.33302976143187,1.0241156,-1.6181821,-2.4700336,324.1374,110.44449,19.22548,JOG
119900304453000,3.470014,6.97557625265318,1.72232176959351,1.57886909222067,1.2705997,-1.3866642,-2.6068676,323.69266,111.31959,20.285418,JOG
119900309542000,3.475103,7.53183834467361,2.46400464387265,1.22754563618342,1.4602734,-0.88086766,-2.6746736,323.33224,112.21897,21.361492,JOG
119900314432000,3.479993,7.93227123156441,3.20197861986585,0.985995429721839,1.5503759,-0.15424347,-2.669481,323.02454,113.26605,22.545017,JOG
119900319477000,3.485038,8.13719755904518,4.00262146347406,0.885915060585914,1.572978,0.6545421,-2.5546384,322.9074,114.31995,23.740252,JOG
119900324393000,3.489954,8.02515291825747,4.53105297209985,1.01164923185512,1.5848899,1.3365731,-2.312125,322.93973,115.49404,25.0405,JOG
119900329484000,3.495045,7.33785047479197,4.6169660267254,1.55099083839843,1.6172657,1.7391334,-1.9764545,323.15445,116.63414,26.299389,JOG
119900334366000,3.499927,6.50435427777778,4.25784853777778,2.08157219333333,1.6933185,1.8102992,-1.7415768,323.46902,117.846756,27.613533,JOG
119900339462000,3.505023,5.23660469888381,2.87619940308473,2.66592547162861,1.8380935,1.6685784,-1.6517797,323.86215,119.027176,28.880116,JOG
119900344790000,3.510351,4.06018562809974,1.53074590981255,3.10162217183147,2.032654,1.3912456,-1.6933185,324.32303,120.09509,30.02205,JOG
119900349506000,3.515067,3.2213661172141,0.474454591580396,3.24919229987962,2.2504275,1.0680978,-1.7864754,324.74124,121.177765,31.152937,JOG
119900354702000,3.520263,2.30214635881717,-0.66898468758745,3.2983137218608,2.4972172,0.7648033,-1.87444,325.20465,121.99817,31.99748,JOG
119900359511000,3.525072,1.50909916337901,-1.49109635698341,2.02777744797692,2.7046058,0.54244834,-1.9248364,325.6076,57.134624,32.85454,JOG
119900364453000,3.530014,0.694119076072845,-2.33594473921565,0.722102616300036,2.869234,0.44348818,-1.9407189,326.02692,56.493164,33.446846,JOG
119900369475000,3.535036,0.422137785807463,-2.69637997416321,-0.196033527305087,2.982855,0.4202753,-1.9324722,326.41602,55.812107,34.038807,JOG
119900374413000,3.539974,0.283456619932248,-2.93548543429063,-1.00420986668824,3.0500503,0.46944994,-1.9113973,326.81613,55.09775,34.622574,JOG
119900379482000,3.545043,0.33102916821041,-3.38091688071744,-1.54772152588424,3.0500503,0.56505036,-1.8961257,326.70486,54.986404,34.6297,JOG
119900384375000,3.549936,0.415782757367363,-3.85177014288585,-2.01386630803859,3.0112603,0.65668017,-1.8558086,326.61316,54.878284,34.615826,JOG
119900389450000,3.555011,0.7895582694621,-4.77534871019827,-2.43303322017835,2.9104674,0.6936375,-1.824349,325.58325,55.85651,33.592533,JOG
119900394441000,3.560002,1.21579842892515,-5.77293194930272,-2.83206648741106,2.7776043,0.7360926,-1.8154916,324.6762,56.76861,32.62705,JOG
119900399477000,3.565038,2.06757013964657,-7.44880795227636,-3.44040479879193,2.7079656,0.83077675,-1.8307631,323.83755,57.620346,31.720066,JOG
119900404373000,3.569934,3.04596490993411,-9.3166524826278,-4.10515152435104,2.5922067,1.0577132,-1.9242256,323.1293,58.393684,30.888708,JOG
119900409485000,3.575046,4.25831613239811,-11.6147535771805,-4.60158206284702,2.4911084,1.4159856,-2.1255057,322.62616,58.909977,30.311417,JOG
119900414380000,3.579941,5.49050256225635,-13.9452935323883,-5.0030807763733,2.413834,1.9172006,-2.4578164,322.29037,59.323463,29.826471,JOG
119900419472000,3.585033,6.69613908812706,-15.5198078524114,-2.85377870147201,2.3322835,2.4972172,-2.9422324,322.20984,59.338356,29.758871,JOG
119900424396000,3.589957,7.82869151423591,-16.6706276223126,0.347508493608367,2.228131,2.7064385,-3.638619,322.20908,59.188324,29.859135,JOG
119900429482000,3.595043,9.1733587099768,-17.5197122830626,3.98692915684455,2.0076087,2.0796907,-4.62089,322.15042,58.741364,30.307404,JOG
119900434498000,3.600059,10.6020141160093,-18.1580466867749,7.77134557726218,1.5286902,0.92149025,-5.7867265,322.0375,58.06067,31.02656,JOG
119900439500000,3.605061,12.2745680809654,-18.5391965278318,8.38332769855975,0.9816604,-0.6762278,-7.047247,322.2434,56.78838,32.23225,JOG
119900444485000,3.610046,14.0260397781238,-18.8318833612301,7.91410045683145,0.43401974,-2.065641,-8.158716,322.18036,55.287125,33.744526,JOG
119900449461000,3.615022,15.4113518142589,-19.0269919055989,5.09269947177644,-0.037873644,-2.5442538,-8.657488,322.46237,53.417877,35.53919,JOG
119900454462000,3.620023,16.6362402701689,-19.178329563148,1.17211057349264,-0.20463985,-1.9260582,-8.32029,322.66913,51.53179,37.38297,JOG
119900460270000,3.625831,17.5665793520929,-19.2930325560785,-2.90045382307831,-0.0290161,-0.6420194,-7.3740597,322.82715,49.57698,39.334427,JOG
119900464487000,3.630048,18.0923251490086,-19.3577398155418,-5.71117375591027,0.5122105,0.46822822,-6.0521474,323.11417,47.858738,41.01144,JOG
119900469469000,3.63503,17.3598969990155,-19.4083944017919,-7.30830468783105,1.4217888,1.2837334,-4.5622473,323.10336,46.439785,42.454887,JOG
119900474464000,3.640025,15.9375760356404,-19.4460720551344,-8.0335940805159,2.4174993,1.7256943,-3.1853569,323.29916,45.353054,43.484093,JOG
119900479480000,3.645041,14.1600317562893,-19.2994796572327,-7.85997562146226,3.264464,1.9401081,-2.0677788,323.1673,44.609234,44.19854,JOG
119900484442000,3.650003,12.198706658412,-19.0473090227987,-7.16417229604953,3.7180314,2.0922134,-1.1847731,323.1335,44.15071,44.562332,JOG
119900489463000,3.655024,10.2331271836592,-18.1492257489026,-6.04559905097765,3.6172385,2.180789,-0.5729916,322.921,44.110897,44.496517,JOG
119900494681000,3.660242,8.20414505097765,-16.7533654609936,-4.58493145293296,2.883895,2.4309382,-0.3222314,322.83078,44.202564,44.28289,JOG
119900499476000,3.665037,6.77300923415176,-15.4824139091078,-3.68982118742704,1.5793921,2.4327707,-0.30665436,322.55573,44.753517,43.63725,JOG
119900504463000,3.670024,5.56497130103771,-14.1681756092838,-3.04818946103956,0.8384125,2.25562,-0.43554693,322.3472,45.302975,42.99596,JOG
119900509482000,3.675043,4.5167201541169,-12.9253036162139,-2.4202356099778,-0.5161811,1.9404135,-0.59437186,322.29745,46.007397,42.273067,JOG
119900514492000,3.680053,3.69009430124723,-11.7893262290456,-1.81674798710496,-1.4492778,1.4205672,-0.72601336,322.13336,46.679108,41.632633,JOG
119900519451000,3.685012,3.13990937965835,-10.8289274079128,-1.26249041929609,-1.9715676,0.589485,-0.8368854,321.95874,47.259865,41.1418,JOG
119900524469000,3.69003,2.8143749798547,-9.99857944934223,-0.738804702459258,-2.1365013,-0.52015173,-0.9242391,321.50195,47.83197,40.743313,JOG
119900530128000,3.695689,2.58012095088805,-9.49253824306526,-0.942013029465177,-1.9862283,-1.7595973,-0.9636399,320.88104,48.266716,40.505913,JOG
119900534474000,3.700035,2.48045028471363,-9.36379655757334,-1.57741342875674,-1.4825699,-2.719572,-1.0360274,319.96143,48.64133,40.342632,JOG
119900539459000,3.70502,2.38328312557271,-9.31748983511946,-2.32425550600728,-0.68233645,-3.1606169,-1.1090258,318.8869,48.89476,40.266033,JOG
119900544506000,3.710067,2.30249653940616,-9.37451632032248,-3.09885632321306,0.12980886,-3.0564642,-1.1301007,317.66125,49.10729,40.20361,JOG
119900549412000,3.714973,2.18604861262365,-9.37314759625628,-3.53638850060874,0.71929383,-2.6141977,-1.0855075,316.36655,49.224747,40.213974,JOG
119900554476000,3.720037,2.01998844649977,-9.30303304443768,-3.60650282122965,0.9282097,-1.9712621,-0.9801333,315.1842,49.33378,40.19199,JOG
119900559445000,3.725006,1.85704354810531,-9.23423383274996,-3.67530180605692,0.7480045,-1.2092078,-0.838718,314.13058,49.438835,40.155903,JOG
119900564504000,3.730065,1.6322002349115,-9.01674092681073,-3.69144770405039,0.3200934,-0.43218717,-0.677755,313.31873,49.579685,40.060966,JOG
119900569768000,3.735329,1.38577532174325,-8.75170259342801,-3.6860865079922,-0.19486602,0.2501493,-0.50518554,312.75125,49.771896,39.902325,JOG
119900574422000,3.739983,1.16650178989882,-8.387625698784,-3.49991078297596,-0.63438356,0.73853606,-0.30879238,312.4157,50.004597,39.6967,JOG
119900579424000,3.744985,0.930832213988675,-7.99632517729509,-3.29981388213125,-0.91965765,1.0005972,-0.07360926,312.2731,50.277615,39.44801,JOG
119900584425000,3.749986,0.5297627343528,-7.30301258640312,-2.76601058822003,-1.0998629,1.0797043,0.1600467,312.23648,50.614296,39.13691,JOG
119900589388000,3.754949,0.0979765588014376,-6.55331791868823,-2.16815285348907,-1.2571607,1.1863003,0.25900686,312.3032,50.983383,38.792763,JOG
119900594457000,3.760018,-0.385766839022417,-5.77807250631348,-1.64679713196999,-1.3261884,1.2800682,0.4465425,312.44205,51.4108,38.385475,JOG
119900599884000,3.765445,-0.913632152150608,-4.94585255874279,-1.10942079601061,-1.4908166,1.3539828,0.6814202,312.6087,51.882046,37.93804,JOG
119900604464000,3.770025,-1.37065844055477,-4.33203633447054,-0.778877104166836,-1.704314,1.3539828,0.75900006,312.89737,52.329082,37.506676,JOG
119900609444000,3.775005,-1.87278632514679,-3.70437630227779,-0.474703443182831,-1.7608191,1.325883,0.91751957,313.1938,52.86289,36.987125,JOG
119900614454000,3.780015,-2.54265222952926,-2.88960506357523,0.0487212664859982,-1.8228219,1.2147056,1.0760391,313.54422,53.41689,36.444252,JOG
119900619456000,3.785017,-3.29271716615477,-1.98568065534478,0.678583499078591,-1.8377881,1.0189233,1.2623531,313.85046,54.020473,35.85328,JOG
119900624463000,3.790024,-3.72055574822088,-1.36597144086136,1.24183604678203,-1.8161024,0.75594574,1.4648548,314.15335,54.65333,35.219566,JOG
119900629466000,3.795027,-3.99538095667898,-0.881533616274548,1.77285444732646,-1.7681495,0.44440445,1.6734654,314.37,55.33008,34.545242,JOG
119900634462000,3.800023,-4.20177391861498,-0.431564720357108,2.17274384001184,-1.6685784,0.06566802,1.9129245,314.60104,56.08428,33.80377,JOG
119900639491000,3.805052,-4.36806206762356,0.000784129714905851,2.49581772420835,-1.5549575,-0.35308012,2.150551,314.7095,56.894875,33.008606,JOG
119900644445000,3.810006,-4.49648828039667,0.424803927553895,2.67561502561081,-1.4352279,-0.752586,2.3811526,314.77814,57.777332,32.140465,JOG
119900649444000,3.815005,-4.60198911717927,0.851394399616748,2.76276785121203,-1.3475688,-1.1206323,2.6041186,314.71436,58.72548,31.208275,JOG
119900654354000,3.819915,-4.65691666629588,1.27270332625139,2.60409241045606,-1.2687671,-1.4223998,2.8185322,314.58286,59.732605,30.214527,JOG
119900659388000,3.824949,-4.66227936017798,1.70707273939933,2.18581074298109,-1.2027937,-1.6337591,2.999043,314.35928,60.795467,29.164673,JOG
119900664356000,3.829917,-4.57676237935943,2.04654854191154,1.62330035279309,-1.1578951,-1.7348573,3.173445,314.0823,61.90796,28.063702,JOG
119900669358000,3.834919,-4.45012455587189,2.34853105581088,0.990111316730046,-1.1603385,-1.7318029,3.3179145,313.77155,63.06759,26.913979,JOG
119900674381000,3.839942,-4.30925711996865,2.57224064491476,0.462995340074466,-1.174083,-1.6151277,3.433979,313.41666,64.24953,25.741488,JOG
119900679386000,3.844947,-4.16366718203998,2.76479485273369,-0.0207384885949441,-1.1768318,-1.395827,3.5057557,313.09903,65.46512,24.531788,JOG
119900684355000,3.849916,-4.04624871402806,2.98502729458918,-0.315938669098196,-1.1710287,-1.255328,3.531412,312.72357,113.33221,23.332205,JOG
119900689360000,3.854921,-3.94058729644289,3.2203643003006,-0.5272617650501,-1.1499538,-0.9297369,3.517973,312.48145,112.116165,22.113674,JOG
119900694388000,3.859949,-3.79537382973511,3.39650572419837,-0.574003796570404,-0.9831876,-0.44990227,3.4532213,312.28244,110.93982,20.929047,JOG
119900699375000,3.864936,-3.63367057821151,3.54394114985063,-0.545467926317467,-0.6389651,0.17989981,3.318831,312.2355,109.78199,19.761347,JOG
119900704375000,3.869936,-3.22549687213018,3.33456104666667,-0.982389601163708,-0.07544186,0.9630291,3.1041117,312.36053,108.68331,18.656118,JOG
119900709410000,3.874971,-2.69765324298817,2.95413323,-1.64338286186391,0.57696223,1.8732183,2.7895162,312.71454,107.63788,17.613634,JOG
119900714367000,3.879928,-1.9144547088419,2.46021770206631,0.370025602450745,1.2305881,3.1874948,2.3032675,313.417,106.71727,16.707033,JOG
119900719469000,3.88503,-0.965882405553099,1.88731757897165,3.88256092808265,2.1010711,4.4947467,1.6114625,314.38235,74.06407,15.935806,JOG
119900724473000,3.890034,0.486099739025314,0.958285811769982,7.39147978233008,3.0708196,4.485278,0.8167268,315.28882,74.58773,15.391556,JOG
119900729493000,3.895054,2.30678106559498,-0.229948338319713,10.9561824327188,3.5106425,3.125492,-0.02565634,316.18463,74.86708,15.045309,JOG
119900734474000,3.900035,3.7863923218525,-1.75960918709866,13.4216835409613,3.2104023,0.7593055,-0.7837401,316.9879,74.67102,15.012093,JOG
119900739475000,3.905036,5.03988324038724,-3.54431953123176,15.1364961761043,2.2403483,-2.2785273,-1.349096,317.2059,74.19587,15.188896,JOG
119900744567000,3.910128,5.31379911050867,-4.78094606757689,12.9214044450907,1.0012082,-5.1569242,-1.6722436,316.96164,73.09216,15.831113,JOG
119900749703000,3.915264,4.71739376823738,-5.52281630653588,7.23858195770899,-0.17470746,-6.977608,-1.8484782,316.16656,71.906334,16.658388,JOG
119900754467000,3.920028,4.37165047230186,-5.97487792157588,2.4794446081291,-1.0778717,-7.4259834,-1.8671097,315.0236,70.56358,17.71512,JOG
119900759520000,3.925081,4.20606366697494,-6.22549559964857,-2.07195305885508,-1.7088956,-6.952563,-1.7446312,313.6364,69.36212,18.797346,JOG
119900764475000,3.930036,4.10399551582848,-6.47652003663314,-6.04616195814717,-2.105958,-6.1117067,-1.5613716,311.89166,68.63087,19.8706,JOG
119900769478000,3.935039,4.11921401148756,-6.7403065884595,-9.09999808434092,-2.2321017,-5.0341406,-1.3420709,310.34735,67.98151,20.827436,JOG
119900774464000,3.940025,4.04842279511719,-6.96282106796875,-11.1022905652344,-2.0638082,-3.8579195,-1.1004738,308.7223,67.42021,21.846533,JOG
119900779480000,3.945041,3.87015959238281,-7.13639328203125,-11.8200346097656,-1.6801848,-2.7079656,-0.84665924,307.3561,66.87182,22.700668,JOG
119900784407000,3.949968,3.65132828405378,-7.38926094531872,-11.9871833579681,-1.2269229,-2.1884248,-0.7315111,305.8158,66.389145,23.443623,JOG
119900789473000,3.955034,3.3565591887749,-7.78067554551793,-11.3009997129482,-0.9944886,-1.2724323,-0.548557,304.71005,65.932526,24.023258,JOG
119900794484000,3.960045,3.12283376794949,-8.24811809801563,-10.4524998502706,-0.54733527,-0.5537493,-0.4156938,303.6132,65.47522,24.523342,JOG
119900799552000,3.965113,2.97690696041291,-8.84641789717378,-9.32886360493085,-0.14477506,0.009468411,-0.31245756,302.73422,114.96317,24.952282,JOG
119900804366000,3.969927,2.92020236994728,-9.63834039718805,-8.41577473989455,0.21380283,0.42424592,-0.19211712,302.0784,115.22922,25.188713,JOG
119900809494000,3.975055,2.99692149574302,-10.8562579211092,-7.70132748037493,0.5009095,0.77640975,-0.03390302,301.57498,115.45789,25.383686,JOG
119900814370000,3.979931,3.12564157734621,-12.2633527454653,-7.06761184012224,0.72387534,1.1386528,0.18509217,301.32794,115.52467,25.434988,JOG
119900819465000,3.985026,3.37576765389393,-14.2499311164235,-6.5000177400138,0.91965765,1.5598444,0.47158796,301.21152,115.5249,25.429768,JOG
119900824389000,3.98995,3.63910421079158,-15.8756628849689,-5.88536348651053,1.0622946,1.9489655,0.8249735,301.32053,115.327965,25.240692,JOG
119900829487000,3.995048,3.96236879887341,-16.8695799277597,-5.09408965140824,1.1508701,2.2605069,1.29198,301.54166,115.02261,24.949131,JOG
119900834402000,3.999963,4.00629481304474,-17.6877167367914,-3.74451742247397,1.128879,2.4770586,1.8860464,301.96167,114.469284,24.41712,JOG
119900839430000,4.004991,3.36562731481874,-18.1658954371385,-0.861514625752024,1.0036516,2.4895813,2.5274549,302.41397,113.790306,23.756008,JOG
119900844515000,4.010076,2.50987475016087,-18.5972716057597,1.85842539406157,0.73761976,1.7919732,3.1123583,302.79858,112.948425,22.928545,JOG
119900849457000,4.015018,0.982388301467726,-18.8416699463754,3.8465077297716,0.20433442,0.72112644,3.6059375,303.0644,111.98667,21.972284,JOG
119900854935000,4.020496,-0.553273952631034,-19.0736974589254,5.14761873621906,-0.4746423,-0.2406809,4.111123,303.43445,110.74271,20.738611,JOG
119900859435000,4.024996,-1.46977088826668,-19.1791355882187,4.2392323995295,-1.035722,-0.82619524,4.6019535,303.56924,109.419914,19.418394,JOG
119900864440000,4.030001,-2.46738191608683,-19.2269542616711,3.21466023746655,-1.317331,-1.0980303,5.0142875,303.70734,72.13202,17.867968,JOG
119900869474000,4.035035,-3.19848267410051,-18.4050625768659,2.0057158735058,-1.3888022,-1.2342533,5.2861223,303.68756,73.70501,16.294476,JOG
119900874553000,4.040114,-3.91174807539225,-17.563650539424,0.807251560119166,-1.3472633,-1.3139712,5.3832498,303.5518,75.45351,14.546488,JOG
119900879479000,4.04504,-4.32400545565045,-16.6079634919563,-0.110957823853029,-1.2507466,-1.3365731,5.3236904,303.38336,102.834274,12.833807,JOG
119900884604000,4.050165,-4.72753826408134,-15.6442537759583,-1.06713149740867,-1.0958922,-1.3115277,5.126992,303.1437,101.107,11.1018305,JOG
119900889607000,4.055168,-4.80944764657189,-15.0795089778658,-2.01124666408134,-0.8765916,-1.1533136,4.9770246,302.93872,99.43929,9.425882,JOG
119900894461000,4.060022,-4.88891759312579,-14.5315834831744,-2.92724406944394,-0.7489208,-0.8304713,4.6404376,302.74292,97.890045,7.855863,JOG
119900899478000,4.065039,-4.40083695265041,-14.0500134165854,-3.98232587310569,-0.48197266,-0.33567044,4.2745295,302.648,96.43384,6.3788395,JOG
119900904786000,4.070347,-3.75884742340862,-13.5808952443532,-5.11012098521561,-0.19456059,0.28160888,3.9406917,302.6853,95.104706,5.0276985,JOG
119900909497000,4.075058,-3.24510909194512,-13.6019500813888,-5.8470409849916,0.0870483,0.9737192,3.6205983,302.84323,93.90154,3.783135,JOG
119900914423000,4.079984,-2.70792483790368,-13.6239658163151,-6.61759244304648,0.39400807,1.745242,3.2711835,303.14752,92.909,2.721233,JOG
119900919477000,4.085038,-2.23915020131883,-14.0572838823643,-7.29334501872353,0.68691796,2.6297748,2.9061913,303.68814,92.052246,1.7819214,JOG
119900924991000,4.090552,-1.7460589465826,-14.6215431588371,-8.00502284746823,0.9914343,3.583641,2.519819,304.47202,91.334785,0.97086227,JOG
119900929481000,4.095042,-1.39949926505365,-15.4744344120172,-8.40976481325107,1.2626585,4.626388,2.1190915,305.49173,90.897865,0.35200116,JOG
119900934369000,4.09993,-1.03284319990343,-16.4789708583691,-8.81660244114807,1.4398094,5.6908207,1.7079792,306.78842,90.69541,-0.14086938,JOG
119900939462000,4.105023,-0.70133702229636,-17.2292727183728,-8.85183314941546,1.5506815,6.8047333,1.3054191,308.36096,90.69424,-0.4417742,JOG
119900944500000,4.110061,-0.380326024649748,-17.9309113055793,-8.83348977274023,1.5525141,7.8905463,0.9068295,310.22064,90.729576,-0.62706476,JOG
119900949473000,4.115034,-0.0751971063327336,-18.3446234513777,-7.94195225357447,1.459357,8.713382,0.47616947,312.27127,90.72471,-0.68082714,JOG
119900954364000,4.119925,0.221961389970647,-18.6816995378279,-6.84645740398637,1.2425,9.280875,0.47616947,313.416325575594,90.6297027782787,-0.581566527091474,JOG
119900959454000,4.125015,0.772522309443089,-18.9299078921184,-5.02735415346346,0.9569204,9.512088,-0.48166725,314.60797,90.53083,-0.4782673,JOG
119900964378000,4.129939,1.42281460292352,-19.1199924691843,-2.93641429934231,0.6258314,9.335242,-0.91751957,316.8589,90.34546,-0.29633248,JOG
119900969433000,4.134994,2.48224786429873,-19.235664656952,0.117323160716454,0.20341812,8.575326,-1.217149,319.1473,90.19489,0.11598522,JOG
119900974437000,4.139998,3.64126829817851,-19.3278046933819,3.39555653302975,-0.39920044,7.1666713,-1.314582,321.1747,90.62425,0.56950706,JOG
119900979448000,4.145009,5.01517060045325,-18.965029865504,7.90986868548625,-1.2776246,6.3340616,-1.2583824,323.08948,91.13834,1.0980526,JOG
