timestamp,rel_time,acc_x,acc_y,acc_z,gyro_x,gyro_y,gyro_z,azimuth,pitch,roll,label
29068238231000,0,0.259245395595345,9.83248280334229,0.810919188988362,-0.032986723,0.03726278,0.030848695,155.39035,115.35623,0.80192024,STD
29068243238000,0.005007,0.240166080895255,9.84679207520143,0.763220902238138,-0.03268129,0.03848451,0.03023783,155.41687,115.51985,0.8569004,STD
29068248251000,0.01002,0.234227852542474,9.85234170909091,0.741798590253353,-0.03023783,0.03756821,0.023823744,155.47069,115.64818,0.91488713,STD
29068253274000,0.015043,0.243786579122702,9.84756224848485,0.75135731184302,-0.01985312,0.039095376,0.027794369,155.5272,115.77672,0.9723412,STD
29068258302000,0.020071,0.251123290729106,9.84708336513477,0.750188737812682,-0.015577064,0.049785517,0.031154128,155.62544,115.863106,1.0342474,STD
29068263257000,0.025026,0.255724128813264,9.85168429930192,0.736386223560209,-0.025045475,0.04337143,0.024740042,155.71964,115.95217,1.0972626,STD
29068268284000,0.030053,0.257631915843588,9.85265035069567,0.7278373,-0.02076942,0.044898596,0.022602014,155.8915,115.944664,1.1686478,STD
29068273424000,0.035193,0.255159428425838,9.84770553076498,0.7278373,-0.02321288,0.03726278,0.01985312,156.05923,115.94171,1.2412747,STD
29068278239000,0.040008,0.252843275329248,9.84307336968205,0.7278373,-0.02443461,0.03940081,0.01863139,156.34705,115.792496,1.3228656,STD
29068283258000,0.045027,0.250428992381837,9.83824495504546,0.7278373,-0.017715093,0.035430185,0.023518313,156.63213,115.63906,1.4019986,STD
29068289051000,0.05082,0.243627476146341,9.83269619840717,0.733206791050274,-0.018020526,0.033292156,0.024740042,157.11722,115.23392,1.4887081,STD
29068293280000,0.055049,0.235563701463415,9.82866422896964,0.741270561523146,-0.023823744,0.022602014,0.015271631,157.59628,114.82328,1.5709333,STD
29068298198000,0.059967,0.228025525174922,9.83125752060963,0.714269869352269,-0.019242255,0.02565634,0.013133603,158.46744,113.91531,1.6398225,STD
29068303235000,0.065004,0.223251576262556,9.84557940971844,0.628338778959869,-0.027488936,0.010079277,0.00580322,159.31482,113.00906,1.6882623,STD
29068308234000,0.070003,0.218513642847246,9.85979325201643,0.543055967589688,-0.0143553335,0.009468411,0.012217305,161.03708,110.97392,1.6235528,STD
29068313229000,0.074998,0.21377950053689,9.87399572096591,0.457841396116582,-0.013133603,0.009162978,0.015577064,162.66982,108.98118,1.4739512,STD
29068318189000,0.079958,0.242518823411535,9.880082028348,0.414957512355816,-0.008552114,0.0070249503,0.010079277,164.23203,107.01662,1.2404338,STD
29068323347000,0.085116,0.339091976739003,9.87042451788856,0.453586782762463,-0.008246681,0.0061086523,0.01282817,165.71535,105.0881,0.9342999,STD
29068328233000,0.090002,0.392042011504829,9.861564981036,0.611230657717296,-0.01282817,0.005192355,0.010079277,167.0128,103.37484,0.6004102,STD
29068333209000,0.094978,0.358571120070237,9.85319708779631,1.04635230316067,-0.01038471,-0.0067195175,0.01160644,168.24547,101.68932,0.21622385,STD
29068338534000,0.100303,0.324265196504961,9.84809825137817,1.42411969658214,-0.0106901415,0.0030543262,0.013133603,169.4039,100.05982,-0.18861131,STD
29068343226000,0.104995,0.309402668319735,9.88277766659316,0.864297818848953,-0.0106901415,0.006414085,0.009468411,169.934488978622,99.290059192399,-0.40306873280285,STD
29068348217000,0.109986,0.300881310765392,9.91039485094567,0.4758551533167,-0.005192355,-0.0012217305,0.007941248,170.49889,98.471245,-0.63119256,STD
29068353237000,0.115006,0.320227610998793,9.90265617247485,0.878258320994769,0.0061086523,0.006414085,0.017104227,171.63638,96.73745,-1.1611252,STD
29068358618000,0.120387,0.340965149157344,9.89436098744467,1.30959924634849,-0.014049901,0.004581489,0.004276057,172.58891,95.4264,-1.6608536,STD
29068363213000,0.124982,0.370879659015867,9.88304816188138,1.44739488085569,-0.008246681,0.0070249503,0.016798794,173.49948,94.302124,-2.1965032,STD
29068368192000,0.129961,0.406907558179071,9.86953789837552,1.52845763751417,-0.0018325958,0.018325957,0.013439035,174.36633,93.55267,-2.7479212,STD
29068373250000,0.135019,0.412697916565217,9.85253562391304,1.49735456891304,-0.0076358155,0.03023783,0.016187929,175.28897,93.44088,-3.3965094,STD
29068378242000,0.140011,0.398525756818182,9.83363952272727,1.39342542045455,-0.0009162979,0.018936822,0.020158553,176.14967,85.77837,-4.067375,STD
29068383218000,0.144987,0.387523339165669,9.81555258255825,1.35545553548209,-0.0125227375,0.01038471,0.015577064,176.95267,84.492004,-4.7475514,STD
29068388251000,0.15002,0.378645894699328,9.79779780486233,1.3643329706787,-0.013439035,0.013744468,0.018020526,177.70139,82.974724,-5.447268,STD
29068393213000,0.154982,0.367413403433548,9.77938742753473,1.36340134766743,-0.014660766,0.021380283,0.021685716,178.40163,81.37043,-6.164847,STD
29068398213000,0.159982,0.352521002438316,9.75953049201742,1.34850895703919,-0.02107485,0.012217305,0.016187929,179.04729,79.727974,-6.890815,STD
29068403228000,0.164997,0.334916359811848,9.749189,1.35388456291943,-0.017104227,0.010079277,0.01863139,179.64764,78.06395,-7.6299233,STD
29068408321000,0.17009,0.314111993076777,9.749189,1.38162369603791,-0.01863139,0.013133603,0.022296581,180.19957,76.39985,-8.373782,STD
29068413193000,0.174962,0.294210387984834,9.749189,1.40815914794313,-0.028710667,0.010079277,0.020463986,180.70518,74.741516,-9.123271,STD
29068418208000,0.179977,0.273724643006161,9.749189,1.4354734523981,-0.020463986,0.015882496,0.024740042,181.16939,73.08602,-9.878384,STD
29068423288000,0.185057,0.2573389545387,9.75165868249788,1.43344789590896,-0.01740966,0.01160644,0.01985312,181.59604,71.4408,-10.639603,STD
29068428326000,0.190095,0.25280139050221,9.76073400009405,1.35177164849055,-0.022907447,0.016187929,0.024129177,181.98392,69.80753,-11.404092,STD
29068433222000,0.194991,0.247174022002644,9.76712767680106,1.2784308150694,-0.025045475,0.008246681,0.014966198,182.32811,68.18455,-12.164111,STD
29068438253000,0.200022,0.233526326504579,9.75802902945897,1.24203703324521,-0.02076942,0.024740042,0.027183503,182.6391,66.57409,-12.929259,STD
29068443512000,0.205281,0.218757975345618,9.74858558941916,1.20426397891474,-0.028099801,0.025045475,0.027183503,182.91983,65.001495,-13.693963,STD
29068448214000,0.209983,0.199638519752887,9.74093805154552,1.17367282920346,-0.027794369,0.0143553335,0.03359759,183.16345,63.441727,-14.457003,STD
29068453263000,0.215032,0.179108079240829,9.73272613773777,1.14082410208899,-0.029321533,0.022296581,0.03023783,183.38895,61.908703,-15.226709,STD
29068458280000,0.220049,0.169073831033491,9.73996192870351,1.07050676405383,-0.025961773,0.029321533,0.020158553,183.5769,60.394005,-15.986009,STD
29068463225000,0.224994,0.164208690700637,9.75455714649681,0.982934187261147,-0.031154128,0.034208454,0.01985312,183.7326,58.90066,-16.737692,STD
29068468207000,0.229976,0.168534083091674,9.75590176013457,0.914717957372582,-0.01740966,0.036957346,0.024740042,183.86232,57.418667,-17.48856,STD
29068473423000,0.235192,0.176936541439865,9.75170044541632,0.851699491246426,-0.01740966,0.022602014,0.01863139,183.9596,55.964146,-18.223253,STD
29068478267000,0.240036,0.181108561866797,9.75174135503629,0.798714735379072,-0.020463986,0.022602014,0.016493361,184.03506,54.531197,-18.959217,STD
29068483214000,0.244983,0.178670120409697,9.75905682454064,0.754822794243657,-0.005497787,0.028405234,0.015882496,184.08055,53.116394,-19.680157,STD
29068488234000,0.250003,0.176195696291111,9.76648024417108,0.710283165276648,-0.009162978,0.018936822,0.018936822,184.09254,51.731983,-20.382288,STD
29068493222000,0.254991,0.173737045393999,9.77385634319831,0.666027454263215,-0.008552114,0.018325957,0.01985312,184.08313,50.36544,-21.072695,STD
29068498225000,0.259994,0.200773009526731,9.79495424233129,0.609470124386503,-0.0070249503,0.009773844,0.0067195175,184.04865,49.020958,-21.747763,STD
29068503245000,0.265014,0.26397489751972,9.83287526073619,0.537841345858896,-0.01863139,0.01038471,0.013439035,183.98927,47.69894,-22.414753,STD
29068508271000,0.27004,0.32242906783642,9.86685143785462,0.472445899302002,-0.014966198,-0.00061086525,0.010079277,183.90775,46.423576,-23.053576,STD
29068513217000,0.274986,0.357925071202227,9.88206378985119,0.436949880051386,-0.02443461,-0.002443461,0.0143553335,183.80539,45.172924,-23.683771,STD
29068518205000,0.279974,0.392967217457728,9.89849537358265,0.413216246827133,-0.027488936,0.00061086525,0.014049901,183.68414,44.031216,-24.247171,STD
29068523279000,0.285048,0.426799437228964,9.9178284541476,0.418049426126915,-0.020158553,-0.005192355,0.014049901,183.5434,42.902653,-24.799797,STD
29068528213000,0.289982,0.457790599713701,9.92474844301915,0.42009938593047,-0.023518313,-0.0021380284,0.01282817,183.39278,41.829865,-25.324745,STD
29068533209000,0.294978,0.484475318691207,9.90251118107455,0.415651924253579,-0.015577064,0.011911872,0.02076942,183.22728,40.763363,-25.84386,STD
29068538229000,0.299998,0.510280277902439,9.87987808292683,0.417899135682927,-0.026267206,0.015577064,0.017104227,183.04852,39.72514,-26.33829,STD
29068543222000,0.304991,0.529718097941057,9.85558084593496,0.461634197787602,-0.012217305,0.011911872,0.015271631,182.85641,38.69008,-26.827215,STD
29068548232000,0.310001,0.546681915879996,9.83457706733118,0.499601780920551,-0.020463986,0.029932396,0.025350908,182.65709,37.688046,-27.301678,STD
29068553238000,0.315007,0.551366901788332,9.82989198358253,0.508971747845207,-0.022296581,0.030543262,0.016798794,182.44637,36.69682,-27.759134,STD
29068558304000,0.320073,0.557182983998621,9.82522792743881,0.52233209079283,-0.024740042,0.029932396,0.018936822,182.22539,35.718445,-28.209452,STD
29068563214000,0.324983,0.569339693788349,9.82117561185798,0.558802211699414,-0.03390302,0.029932396,0.02443461,181.99539,34.755833,-28.65,STD
29068568199000,0.329968,0.581682096701138,9.81706139736298,0.595829411845915,-0.02443461,0.036957346,0.019547688,181.7624,33.808147,-29.083107,STD
29068573264000,0.335033,0.588131204752516,9.80833490568147,0.627014653237118,-0.013439035,0.03481932,0.025045475,181.51385,32.872738,-29.507925,STD
29068578218000,0.339987,0.592953185360301,9.79869074306332,0.655946567094217,-0.019547688,0.03390302,0.020158553,181.26164,31.955097,-29.92257,STD
29068583209000,0.344978,0.581926168500693,9.78523730976431,0.692361980055456,-0.02565634,0.030848695,0.008552114,181.00293,31.043314,-30.327923,STD
29068588222000,0.349991,0.567663374311745,9.77097473400673,0.730396044939592,-0.014049901,0.036651913,0.021685716,180.73221,30.139923,-30.72869,STD
29068593226000,0.354995,0.575925024870794,9.74292489235917,0.755569809381855,-0.022602014,0.032070424,0.03176499,180.45421,29.250677,-31.114208,STD
29068598260000,0.360029,0.589368883855735,9.71155574456219,0.777976242583194,-0.0106901415,0.04795292,0.03390302,180.17264,28.36878,-31.496618,STD
29068603298000,0.365067,0.571016168748,9.691556911,0.814542854339,-0.01863139,0.04337143,0.032375857,179.87611,27.491465,-31.87093,STD
29068608352000,0.370121,0.537135345492,9.677036769,0.858103901981,-0.01740966,0.04642576,0.03176499,179.57689,26.62635,-32.240498,STD
29068613820000,0.375589,0.511648718079011,9.64619243365501,0.924254257207479,-0.01038471,0.058643065,0.025350908,179.27248,25.759363,-32.602554,STD
29068618253000,0.380022,0.4945783482308,9.61631914716526,0.984000518254926,-0.01038471,0.05009095,0.035430185,178.95541,24.910183,-32.951332,STD
29068623317000,0.385086,0.464514070267627,9.58846338435409,1.04654141320638,-0.0061086523,0.049785517,0.038789943,178.63824,24.057909,-33.30492,STD
29068628224000,0.389993,0.430653674122491,9.56427740514668,1.10458781381369,-0.007941248,0.04734206,0.04153884,178.31267,23.226841,-33.645164,STD
29068633245000,0.395014,0.386084405620928,9.55412378761151,1.12754541445324,0.005497787,0.032070424,0.043066,177.98134,22.406675,-33.96803,STD
29068638306000,0.400075,0.337504456572116,9.5492662015636,1.1372613981758,0.008552114,0.043676864,0.04734206,177.64993,21.610409,-34.286102,STD
29068643272000,0.405041,0.297008602206751,9.57667966232595,1.13248929708504,0.0036651916,0.044898596,0.06047566,177.30962,20.832333,-34.58591,STD
29068648254000,0.410023,0.258774274896324,9.61491375508364,1.12293072399078,0.0061086523,0.037873644,0.064446285,176.97002,20.073557,-34.8751,STD
29068653293000,0.415062,0.225667945635456,9.62802378537758,1.13715001368888,0.005192355,0.047036625,0.07574729,176.62456,19.338816,-35.165188,STD
29068658357000,0.420126,0.194289943143544,9.63250644810056,1.15956290604492,0.014966198,0.045814894,0.0842994,176.27518,18.620138,-35.441128,STD
29068663258000,0.425027,0.169284912171853,9.63004310906244,1.15287954203374,0.020158553,0.043982297,0.08124508,175.9216,17.91691,-35.719925,STD
29068668245000,0.430014,0.147571644666195,9.6228052076177,1.12634109910083,0.028405234,0.05375614,0.086132,175.56313,17.226261,-35.994225,STD
29068673278000,0.435047,0.125658094364215,9.61550054389776,1.09955786603859,0.026572637,0.056199603,0.095294975,175.2005,16.552542,-36.260788,STD
29068678222000,0.439991,0.10413204773338,9.6083250506668,1.07324824866135,0.0421497,0.05955936,0.108123146,174.83574,15.888987,-36.52263,STD
29068683627000,0.445396,0.0602727515663443,9.58940277794971,1.04366449984526,0.04550946,0.07452556,0.1255328,174.46931,15.237426,-36.78889,STD
29068688252000,0.450021,0.0131528261915861,9.56798464448743,1.01796269496132,0.06841691,0.090713486,0.13316862,174.10178,14.594018,-37.04855,STD
29068693218000,0.454987,-0.0410393498433433,9.55240941091091,1.00032094664665,0.06841691,0.10842858,0.1459968,173.72267,13.966178,-37.31833,STD
29068698217000,0.459986,-0.0985462060312312,9.54282524204204,0.990736477537538,0.07727446,0.1133155,0.1554652,173.3414,13.346284,-37.58176,STD
29068703253000,0.465022,-0.150705323418644,9.55029303966926,0.981169730032483,0.08368854,0.12675454,0.15699236,172.95967,12.745005,-37.8585,STD
29068708325000,0.470094,-0.198518654029924,9.57180897391476,0.971607057919087,0.08674286,0.14355333,0.17165314,172.56934,12.15333,-38.132164,STD
29068713269000,0.475038,-0.245125339073728,9.59278191928339,0.962285715070381,0.08460484,0.1695151,0.19364429,172.17293,11.573461,-38.416534,STD
29068718212000,0.479981,-0.291722597199035,9.61375062255143,0.952966257606556,0.07422013,0.18509217,0.1957823,171.77689,11.00977,-38.695538,STD
29068723386000,0.485155,-0.32459493275465,9.66382388603484,0.944435146722764,0.07086037,0.19486602,0.20219639,171.36768,10.448031,-38.974804,STD
29068728220000,0.489989,-0.340541195512253,9.73672113886428,0.937601038190139,0.07849618,0.22204952,0.20647246,170.959,9.899569,-39.257103,STD
29068733209000,0.494978,-0.356998767894892,9.81195580877866,0.930547797091822,0.0888809,0.23976462,0.19975294,170.53802,9.358486,-39.553024,STD
29068738251000,0.50002,-0.373631175181577,9.88798972453499,0.923419626793623,0.073303826,0.25809056,0.19456059,170.11401,8.833109,-39.851143,JOG
29068743212000,0.504981,-0.366671065756247,9.95780084110148,0.913223007510454,0.07941248,0.2706133,0.19486602,169.68802,8.313346,-40.14675,JOG
29068748211000,0.50998,-0.327609812766956,10.0212751401326,0.898575050385518,0.0870483,0.28955013,0.19028452,169.26399,7.810398,-40.443356,JOG
29068753627000,0.515396,-0.281065945285168,10.0671887524691,0.886026344550227,0.08307768,0.2996294,0.19058995,168.81207,7.3051844,-40.74122,JOG
29068758314000,0.520083,-0.237133971572204,10.0871578162648,0.878038694010143,0.0842994,0.30909783,0.18753563,168.36034,6.8101187,-41.03893,JOG
29068763290000,0.525059,-0.19420806308,10.1005717585,0.8803671039,0.06261369,0.310625,0.18967366,167.89883,6.3259325,-41.330708,JOG
29068768210000,0.529979,-0.164223955007273,10.0877213894091,0.918918121718182,0.052534413,0.30207285,0.17928895,167.43927,5.852746,-41.617203,JOG
29068773347000,0.535116,-0.131865491241777,10.0716699418581,0.961547864355834,0.04550946,0.2846632,0.17623462,166.97565,5.39231,-41.89408,JOG
29068778285000,0.540054,-0.0744337246728064,9.99030838341261,1.06205343061431,0.029321533,0.2770274,0.18173242,166.50911,4.9461617,-42.167343,JOG
29068783401000,0.54517,-0.0177772382933782,9.90889816410967,1.16085816564387,0.0018325958,0.267559,0.17134771,166.05234,4.5195827,-42.42007,JOG
29068788247000,0.550016,0.000597187806592101,9.86755583153519,1.18841983261408,-0.017104227,0.25534168,0.17195857,165.58583,4.100523,-42.6673,JOG
29068793507000,0.555276,0.0204592989241945,9.82515114434718,1.216907342019,-0.038179077,0.23701571,0.17287487,165.13197,3.6969163,-42.881855,JOG
29068798209000,0.559978,0.0372334260104302,9.81676391134289,1.22529439986962,-0.045814894,0.23579398,0.16676621,164.67891,3.3041735,-43.09556,JOG
29068803249000,0.565018,0.0552133495567145,9.80777376792699,1.23428435554107,-0.062002823,0.21991149,0.16340645,164.22987,2.9298239,-43.290558,JOG
29068808281000,0.57005,0.0836328721384909,9.81067654765998,1.20722283397326,-0.064446285,0.2049453,0.16554448,163.77953,2.5619562,-43.48394,JOG
29068813214000,0.574983,0.112961957676695,9.81518880563515,1.17563766420726,-0.08002335,0.20158553,0.16401732,163.3303,2.208862,-43.67471,JOG
29068818204000,0.579973,0.142629935952722,9.81975320200573,1.14368753302292,-0.08002335,0.20189096,0.16157386,162.87787,1.8535414,-43.856743,JOG
29068823416000,0.585185,0.173617812260267,9.82452066370583,1.11031597315664,-0.09682214,0.20922135,0.16462818,162.42267,1.511096,-44.038956,JOG
29068828249000,0.590018,0.1925271949437,9.8222813072386,1.05553871367292,-0.093767814,0.21838433,0.16493362,161.96521,1.1727868,-44.217724,JOG
29068833210000,0.594979,0.207812086484719,9.81718624053619,0.989304176568365,-0.109650314,0.22479841,0.18295415,161.49786,0.8439576,-44.39744,JOG
29068838246000,0.600015,0.199691972579321,9.81439400009332,0.929177259406495,-0.10903945,0.22693644,0.17989981,161.03893,0.52019644,-44.58169,JOG
29068843239000,0.605008,0.186305355645763,9.81216285223031,0.87116857981523,-0.095294975,0.2321288,0.17989981,160.5695,0.19863425,-44.768295,JOG
29068848221000,0.60999,0.172948230558044,9.80993661977417,0.813287698236282,-0.0870483,0.22937989,0.19333886,160.09343,-0.11449281,-44.959663,JOG
29068853237000,0.615006,0.159499948855916,9.80769519424225,0.755011804619261,-0.07696902,0.22693644,0.18875736,159.62195,-0.4218508,-45.152103,JOG
29068858265000,0.620034,0.144936069791756,9.81217867174753,0.730601578145127,-0.07666359,0.22327125,0.1957823,159.13757,-0.7287845,-45.342937,JOG
29068863215000,0.624984,0.129670335678403,9.82235603327609,0.735690152640618,-0.06047566,0.20952678,0.19608775,158.65508,-1.0335982,-45.52982,JOG
29068868203000,0.629972,0.0912797391013333,9.837883474,0.7283544472,-0.05375614,0.19517145,0.19150625,158.1558,-1.3429921,-45.737778,JOG
29068873270000,0.635039,0.0404433117973333,9.85636933771429,0.714489977028572,-0.050396383,0.18051068,0.18600847,157.65363,-1.6498299,-45.94092,JOG
29068878214000,0.639983,-0.011332283284828,9.86919208554239,0.731548126014288,-0.02321288,0.16157386,0.18203785,157.15327,-1.9565543,-46.14372,JOG
29068883210000,0.644979,-0.0653037725956007,9.87818751551043,0.772026748398195,-0.018325957,0.14996742,0.17562376,156.65302,-2.2531502,-46.343735,JOG
29068888243000,0.650012,-0.113311422113612,9.89751892281028,0.799260809929122,-0.028099801,0.13530666,0.17592919,156.14047,-2.5511696,-46.54511,JOG
29068893238000,0.655007,-0.152908834575198,9.92969169481091,0.809160163948989,-0.0125227375,0.12705997,0.17715092,155.62692,-2.8493943,-46.744263,JOG
29068898206000,0.659975,-0.192292206969424,9.96169055993585,0.819006007947126,0.009773844,0.09896017,0.17165314,155.11281,-3.1486592,-46.937935,JOG
29068903273000,0.665042,-0.23246039294397,9.99432708360495,0.82904805535827,0.0070249503,0.07941248,0.16646078,154.5949,-3.4416661,-47.130817,JOG
29068908297000,0.670066,-0.259231274059289,10.0154386151678,0.835740774011094,0.0067195175,0.065973446,0.15393804,154.0802,-3.7320776,-47.317,JOG
29068913215000,0.674984,-0.276362760568337,10.0282870411021,0.840023642284259,0.015271631,0.0571159,0.15943582,153.55782,-4.0218287,-47.497963,JOG
29068918214000,0.679983,-0.292889167604101,10.0327698074911,0.829727417995397,0.01282817,0.04062254,0.15210545,153.03082,-4.3064575,-47.68051,JOG
29068923340000,0.685109,-0.308297425913371,10.0224979642185,0.793774840301318,0.020463986,0.016187929,0.14202617,152.50055,-4.5908265,-47.85766,JOG
29068928245000,0.690014,-0.311860829067963,10.0089923527625,0.756939319014677,0.032070424,0.0018325958,0.13347405,151.96695,-4.8715663,-48.03453,JOG
29068933207000,0.694976,-0.302976079773768,9.99122271501356,0.716957900803964,0.043676864,-0.003970624,0.13439035,151.43158,-5.1494765,-48.20656,JOG
29068938918000,0.700687,-0.294527870171477,9.97197304068591,0.673058068400256,0.04520403,-0.0021380284,0.13255776,150.89012,-5.4324465,-48.381596,JOG
29068943227000,0.704996,-0.290132671813825,9.9587874272553,0.64229171202258,0.050701816,-0.015577064,0.12736541,150.3482,-5.7135243,-48.550293,JOG
29068948208000,0.709977,-0.292588484302279,9.93339228228709,0.617208146801279,0.06627888,-0.015577064,0.12370021,149.80101,-5.9917836,-48.72688,JOG
29068953276000,0.715045,-0.304717448452619,9.89457957876849,0.605079185183926,0.07422013,-0.014660766,0.1328632,149.2481,-6.2673984,-48.899147,JOG
29068958320000,0.720089,-0.316788974730108,9.85595067652939,0.593007661427429,0.0852157,-0.015882496,0.122783914,148.7061,-6.535216,-49.079002,JOG
29068963228000,0.724997,-0.328535019728109,9.81836331487405,0.581261618882447,0.10476339,-0.02076942,0.116675265,148.15494,-6.8052964,-49.256844,JOG
29068968209000,0.729978,-0.326953628102354,9.80324908467624,0.560197823805059,0.11026118,-0.027488936,0.110872045,147.60431,-7.0691595,-49.4337,JOG
29068973276000,0.735045,-0.307996436605137,9.81746726779959,0.527022726313117,0.10567969,-0.035430185,0.10751228,147.05179,-7.33052,-49.60838,JOG
29068978225000,0.739994,-0.285081723730201,9.81569029133298,0.500828287503114,0.112704635,-0.04520403,0.10323623,146.50592,-7.5835705,-49.784744,JOG
29068983238000,0.745007,-0.255177844963517,9.79005832897313,0.483740363151806,0.119729586,-0.043066,0.10262536,145.95505,-7.832926,-49.961643,JOG
29068988225000,0.749994,-0.230576493574717,9.77090898148244,0.458999648422904,0.12889257,-0.053145275,0.09590584,145.40602,-8.07726,-50.138027,JOG
29068993267000,0.755036,-0.23557170909326,9.78839233098847,0.389066620731392,0.13041973,-0.05009095,0.089186326,144.85098,-8.318649,-50.31807,JOG
29068998217000,0.759986,-0.240475778275488,9.80555666658046,0.320409641938654,0.14263703,-0.05100725,0.08399397,144.29958,-8.557324,-50.492733,JOG
29069003264000,0.765033,-0.245475947399266,9.8230573537992,0.250407263763513,0.14935656,-0.054061573,0.08155051,143.74475,-8.792037,-50.667313,JOG
29069009091000,0.77086,-0.263056443929692,9.85144887433106,0.158934520308175,0.15577064,-0.04734206,0.073303826,143.1907,-9.028457,-50.8468,JOG
29069013281000,0.77505,-0.288973380034139,9.88106805314634,0.0811837158608599,0.14569137,-0.05467244,0.07147124,142.63164,-9.261599,-51.02048,JOG
29069018237000,0.780006,-0.320991840001909,9.91500473639748,-0.0215993146398116,0.14966199,-0.05467244,0.056505036,142.04987,-9.496735,-51.21568,JOG
29069023233000,0.785002,-0.36361881268614,9.9408853612543,-0.207331114881634,0.172264,-0.048563786,0.054367006,141.41378072355,-9.74497201783933,-51.4216481103085,JOG
29069043294000,0.805063,-0.534783684387171,10.0448067414089,-0.953120875620466,0.2003638,-0.015271631,0.0070249503,138.85962,-10.741746,-52.248695,JOG
29069048244000,0.810013,-0.577018174936999,10.0704490738832,-1.13714257521955,0.21380283,0.0018325958,0.0009162979,138.11618,-11.041192,-52.465748,JOG
29069053260000,0.815029,-0.649693419887267,10.067093600159,-1.39186898590837,0.22602014,0.004581489,-0.018936822,137.37625,-11.335964,-52.68057,JOG
29069058321000,0.82009,-0.729084439621333,10.0577534133545,-1.66273245266657,0.26145032,0.020158553,-0.038789943,136.6261,-11.63349,-52.90087,JOG
29069063265000,0.825034,-0.806640100867177,10.0486291526232,-1.92733410839717,0.27488935,0.0421497,-0.0580322,135.76672,-11.994904,-53.126175,JOG
29069068196000,0.829965,-0.883991833392109,10.0395288836778,-2.19124000734692,0.32742378,0.058337633,-0.08674286,134.90932,-12.360072,-53.351585,JOG
29069073324000,0.835093,-1.01640799207351,10.0331615028466,-2.49916587414103,0.37965274,0.074830994,-0.119729586,134.04884,-12.720022,-53.579865,JOG
29069078453000,0.840222,-1.17340182560927,10.0282556030763,-2.82296565836996,0.4538729,0.086437434,-0.1591304,133.19211,-13.081699,-53.809116,JOG
29069083239000,0.845008,-1.37134855546202,10.0424258958293,-3.07574899295963,0.54000485,0.09132435,-0.21197024,132.18459,-13.527625,-54.071728,JOG
29069088265000,0.850034,-1.60156199986608,10.0654472258466,-3.31977523537402,0.63621616,0.087659165,-0.26419923,131.18149,-13.975961,-54.32983,JOG
29069093220000,0.854989,-1.89752510995899,10.0777341780419,-3.53920469025134,0.743423,0.086437434,-0.30115658,130.09476,-14.464927,-54.613632,JOG
29069098216000,0.859985,-2.24470733740667,10.0827656423388,-3.7455013989694,0.81031275,0.062308256,-0.38240165,129.04372,-14.936859,-54.890167,JOG
29069103259000,0.865028,-2.63934852322071,10.1107449973011,-3.95988816093563,0.9294315,0.030543262,-0.47678033,127.929794,-15.439195,-55.195942,JOG
29069108274000,0.870043,-3.0522214320072,10.1491520569772,-4.1759263802479,1.0671816,0.008552114,-0.5925393,126.85217,-15.924882,-55.497845,JOG
29069113212000,0.874981,-3.45929499284816,10.2647363840124,-4.33055097083132,1.1948525,0.0018325958,-0.72295904,125.754425,-16.403082,-55.83804,JOG
29069118208000,0.879977,-3.87139885012097,10.4175391382948,-4.4602015465015,1.3191634,0.014660766,-0.87995136,124.70771,-16.858805,-56.183067,JOG
29069123271000,0.88504,-4.22632676804396,10.7262185373499,-4.46813103914105,1.4242324,0.04642576,-1.0537425,123.63991,-17.290995,-56.589375,JOG
29069128233000,0.890002,-4.53584093604722,11.1227831327091,-4.40042478648484,1.4950926,0.093462385,-1.2330315,122.62179,-17.685303,-57.011032,JOG
29069133210000,0.894979,-4.74146525317295,11.5466051783482,-4.33850124865505,1.5528195,0.13133603,-1.4068227,121.58104,-18.047039,-57.488018,JOG
29069138242000,0.900011,-4.89208924635348,11.9893482577193,-4.27916468438151,1.5824465,0.172264,-1.57084,120.584045,-18.359137,-57.98635,JOG
29069143255000,0.905024,-4.97147687442243,12.4612210443577,-4.24141141394394,1.6077974,0.22143865,-1.7131716,119.56718,-18.632051,-58.51777,JOG
29069148264000,0.910033,-4.99117907824212,12.9587043910052,-4.2217090043947,1.6249015,0.27672195,-1.8054122,118.56932,-18.864317,-59.059765,JOG
29069153302000,0.915071,-4.94429523586783,13.3661871844148,-4.20225867615446,1.6698002,0.312763,-1.8564194,117.523674,-19.080404,-59.604282,JOG
29069158369000,0.920138,-4.85253704986067,13.7139032516421,-4.18294124293392,1.7153096,0.3203988,-1.8710803,116.47972,-19.269178,-60.143646,JOG
29069163251000,0.92502,-4.74477923854283,13.6856057320411,-4.00347482579263,1.779145,0.2883284,-1.8490891,115.353065,-19.475697,-60.65014,JOG
29069168253000,0.930022,-4.6211309581162,13.4079806027858,-3.70951859163298,1.8451185,0.18997909,-1.7928895,114.23469,-19.676744,-61.11908,JOG
29069173303000,0.935072,-4.49629612881703,13.1276913379438,-3.41274150596601,1.9355265,0.05100725,-1.7434094,113.08418,-19.902275,-61.53219,JOG
29069178258000,0.940027,-4.37380967749476,12.8526748414503,-3.12154735557395,2.0259347,-0.12217305,-1.7211128,111.98208,-20.125109,-61.89472,JOG
29069183267000,0.945036,-4.23223902546185,12.3438954475926,-2.62637522925242,2.1025982,-0.312763,-1.7211128,110.94997,-20.341347,-62.212463,JOG
29069188287000,0.950056,-4.071174149038,11.5845890936154,-1.9130878644587,2.1255057,-0.40775254,-1.7455474,109.96524,-20.544071,-62.50211,JOG
29069193245000,0.955014,-3.83679481252056,10.9734718083882,-1.23790757131682,2.0879374,-0.60139686,-1.758681,109.48428,-20.581999,-62.759777,JOG
29069198262000,0.960031,-3.48118492216283,10.5734114424342,-0.600773310779194,2.031127,-0.75625116,-1.7739527,109.04647,-20.607697,-63.00406,JOG
29069203303000,0.965072,-3.05179727933327,10.3331079956345,-0.201524362960314,1.8594738,-0.86590147,-1.7595973,109.130646,-20.431137,-63.262432,JOG
29069208342000,0.970111,-2.53470108873896,10.2900157715051,-0.0961899433773192,1.6756034,-0.95264435,-1.7434094,109.284096,-20.25187,-63.489086,JOG
29069213233000,0.975002,-1.86472729561554,10.3648011644418,-0.321645482542964,1.4920384,-0.9944886,-1.707063,109.72522,-20.018047,-63.668617,JOG
29069218274000,0.980043,-0.948172047546722,10.598713932562,-0.99474074465045,1.3497068,-0.94897914,-1.6465873,110.14494,-19.791744,-63.830025,JOG
29069223342000,0.985111,0.0703766308597465,10.8079268888669,-1.80451666343106,1.2415836,-0.7883216,-1.5653422,110.55438,-19.575209,-63.97206,JOG
29069228220000,0.989989,1.18089158759905,10.9745041145008,-2.76233583161648,1.1695015,-0.49205196,-1.4740179,110.83719,-19.376413,-64.12573,JOG
29069233185000,0.994954,2.24489586813937,11.1097056134359,-3.5300932812554,1.0922271,-0.119729586,-1.3866642,110.66109,-19.324038,-64.27197,JOG
29069238298000,1.000067,3.22709896845928,11.1901445177244,-3.96615755957116,1.0366384,0.29901853,-1.2678508,110.2544,-19.302818,-64.45115,JOG
29069243346000,1.005115,4.17011693394576,11.2536521146107,-4.29674362620297,1.0137309,0.6973027,-1.1139128,109.06272,-19.594267,-64.56056,JOG
29069248256000,1.010025,4.82834442454068,11.161089164042,-3.64880109284777,1.0228939,1.0326678,-0.9049969,107.6013,-19.931395,-64.67783,JOG
29069253283000,1.015052,5.27041725352941,10.994705927451,-2.88746990159477,1.039998,1.2281445,-0.68936145,105.705414,-20.420628,-64.72769,JOG
29069258329000,1.020098,5.01322772193277,10.6111774182073,-1.82712690594211,1.042747,1.2819008,-0.49510628,103.62438,-20.961954,-64.73218,JOG
29069263274000,1.025043,4.67779329236315,10.226752917223,-0.832397142168224,1.0238101,1.2339478,-0.3567453,101.657974,-21.543467,-64.6213,JOG
29069268270000,1.030039,3.6429457317757,9.76682075700935,-0.197861003052959,0.98746365,1.1215485,-0.27488935,99.66612,-22.163845,-64.442314,JOG
29069273325000,1.035094,2.59587719319092,9.30145705206943,0.444168657320872,0.9392053,0.95111716,-0.25717425,98.22622,-22.665693,-64.23661,JOG
29069278223000,1.039992,0.998041851632833,8.8825513945278,0.715234485039718,0.87872964,0.74281216,-0.29077184,96.88142,-23.173775,-63.98704,JOG
29069283421000,1.04519,-0.770832949110251,8.46167559845261,0.914798064361702,0.86406887,0.5039638,-0.37690386,95.68347,-23.67232,-63.707684,JOG
29069288248000,1.050017,-2.16122691103482,8.28731726266925,0.735969268351064,0.84635377,0.37720928,-0.49388456,95.05434,-23.8125,-63.661076,JOG
29069293587000,1.055356,-3.67615748329608,8.10391364707026,0.522843782886017,0.83169305,0.040011674,-0.63255095,95.00449,-23.550638,-63.91402,JOG
29069298215000,1.059984,-4.49875963663395,8.14698179438344,0.0103324520998931,0.8017606,-0.03848451,-0.7076874,94.87317,-23.287254,-64.184784,JOG
29069303273000,1.065042,-5.39779198140122,8.19405151977456,-0.549797692912253,0.77396625,-0.118202426,-0.8356637,94.83332,-23.05873,-64.432755,JOG
29069308280000,1.070049,-5.65465840448106,8.38404826765799,-1.27686842175425,0.7244862,-0.08093964,-0.9392053,94.7751,-22.820692,-64.69142,JOG
29069313195000,1.074964,-5.85328603333668,8.58267639033457,-2.00516947735557,0.6774496,0.034513887,-0.9914343,94.72919,-22.56801,-64.962326,JOG
29069318261000,1.08003,-5.63976463325816,8.74368960868713,-2.58684206624179,0.623388,0.21135938,-1.0070114,94.497696,-22.179043,-65.410614,JOG
29069323247000,1.085016,-5.39162785400529,8.8981896110403,-3.14397958350819,0.5907067,0.40866885,-0.9868528,94.16695,-21.801603,-65.86214,JOG
29069328222000,1.089991,-4.76463476410999,8.93887498118669,-3.26158881664255,0.5564982,0.5644395,-0.97219205,93.48811,-21.372969,-66.42277,JOG
29069333958000,1.095727,-3.98456844023155,8.9686865130246,-3.33114891924747,0.5296202,0.68386364,-0.94959,92.65958,-20.974829,-66.967995,JOG
29069338294000,1.100063,-3.65537743040812,8.94925550179742,-3.12093542814549,0.4908302,0.8008443,-0.9254609,91.431755,-20.6264,-67.51569,JOG
29069343270000,1.105039,-3.35810546627194,8.91398577373652,-2.79847100403891,0.4456262,0.8582657,-0.9120218,90.108406,-20.300674,-68.03678,JOG
29069348250000,1.110019,-3.16144691962295,8.84184265254409,-2.51283146645044,0.40775254,0.87017757,-0.8943067,88.632454,-20.016525,-68.51861,JOG
29069353237000,1.115006,-2.99201827025137,8.75954906497061,-2.23690468903304,0.3390302,0.8680395,-0.8793405,87.06631,-19.75125,-68.971954,JOG
29069358380000,1.120149,-2.83203329893408,8.65757773249182,-2.02264130356241,0.27000242,0.8332202,-0.86406887,85.58003,-19.490177,-69.3953,JOG
29069363250000,1.125019,-2.68376522684432,8.55727850014025,-1.83512567607293,0.21166481,0.80756384,-0.8454375,84.030304,-19.250364,-69.78694,JOG
29069368248000,1.130017,-2.54159787705984,8.4313336208182,-1.7471694509654,0.13469578,0.77396625,-0.8344419,82.58773,-18.998095,-70.16573,JOG
29069373406000,1.135175,-2.39995048042439,8.28968582976486,-1.70939683815714,0.06811147,0.75961095,-0.8194757,81.09439,-18.768482,-70.51307,JOG
29069378304000,1.140073,-2.23172830713616,8.12734019189499,-1.70978574489009,-0.0015271631,0.75777835,-0.80939645,79.66704,-18.526173,-70.85682,JOG
29069383287000,1.145056,-2.03784055061986,7.94339590571935,-1.73464312295031,-0.06872234,0.7467828,-0.79717916,78.20696,-18.304214,-71.17125,JOG
29069388285000,1.150054,-1.88351025223746,7.7860205655421,-1.81315248751627,-0.1432479,0.7244862,-0.7867944,76.74011,-18.069035,-71.49015,JOG
29069393258000,1.155027,-1.75001211090199,7.64298675022525,-1.91804390561618,-0.17745635,0.6963864,-0.7672467,75.23531,-17.856419,-71.77932,JOG
29069398250000,1.160019,-1.65895593507082,7.51211946041045,-2.05729076535312,-0.23854288,0.6621779,-0.75411314,73.71079,-17.627886,-72.07644,JOG
29069403312000,1.165081,-1.58889456786781,7.38600908723384,-2.21609651800751,-0.30787608,0.655153,-0.7315111,72.13372,-17.423952,-72.34244,JOG
29069408283000,1.170052,-1.53928817371703,7.30595349372662,-2.36348886452758,-0.36132678,0.65484756,-0.7199047,70.48978,-17.214054,-72.60909,JOG
29069413231000,1.175,-1.50292476402878,7.2559539181295,-2.50439703553957,-0.42119157,0.64721173,-0.7098254,68.80895,-17.025898,-72.84574,JOG
29069418209000,1.179978,-1.50820880255562,7.21101345743703,-2.67354024502666,-0.47433686,0.63071835,-0.6924158,67.00983,-16.903622,-73.01237,JOG
29069423290000,1.185059,-1.55741430328185,7.17075440289575,-2.87483537760618,-0.51923543,0.59895337,-0.6783658,65.198074,-16.79513,-73.15537,JOG
29069428221000,1.18999,-1.62782197291645,7.14588436811986,-3.09436577420664,-0.56505036,0.59803706,-0.65087694,63.26959,-16.754044,-73.223625,JOG
29069433251000,1.19502,-1.74811250480699,7.15089657392571,-3.37003149359068,-0.6017023,0.623388,-0.6374379,61.3289,-16.722187,-73.27192,JOG
29069438276000,1.200045,-1.86312528997361,7.16376862938908,-3.626841798904,-0.6435465,0.6383542,-0.6169739,59.28887,-163.26366,-73.26365,JOG
29069443261000,1.20503,-1.96971024577836,7.18799247148366,-3.85454611694743,-0.6618725,0.6722572,-0.6010914,57.204895,-163.23866,-73.232315,JOG
29069448242000,1.210011,-2.07682369022231,7.15521822526067,-4.04263332882156,-0.6792821,0.7031059,-0.57848936,54.98629,-163.17812,-73.1507,JOG
29069453306000,1.215075,-2.18654531745032,7.04549639878025,-4.18097796325005,-0.66737026,0.7312057,-0.5571091,52.75895,-163.10591,-73.04216,JOG
29069458245000,1.220014,-2.28517613714888,6.97966955267951,-4.3199973332854,-0.65057147,0.7800749,-0.54825157,50.39811,-163.00874,-72.88833,JOG
29069463261000,1.22503,-2.37267573933468,6.97506431552104,-4.46736497044387,-0.6365216,0.8210029,-0.5326745,48.065285,-162.89697,-72.7023,JOG
29069468182000,1.229951,-2.45514268723994,6.93089169542302,-4.5695513036061,-0.59895337,0.8231409,-0.5170974,45.71357,-162.79025,-72.50038,JOG
29069473498000,1.235267,-2.53584066267089,6.78462680586487,-4.57459492048742,-0.5546656,0.82344633,-0.5128214,43.383762,-162.67633,-72.27191,JOG
29069478208000,1.239977,-2.59785516412764,6.66187548266153,-4.58848433911282,-0.50518554,0.7800749,-0.51251596,41.086117,-162.55212,-72.01303,JOG
29069483238000,1.245007,-2.64068674217546,6.54765765960284,-4.62655694679905,-0.45020768,0.7440339,-0.5103779,38.853077,-162.42192,-71.730675,JOG
29069488244000,1.250013,-2.67939583372534,6.41207740290602,-4.69166164263777,-0.42088616,0.64568454,-0.516792,36.75855,-162.32202,-71.47066,JOG
29069493263000,1.255032,-2.7074254048304,6.21587055151132,-4.83180940060259,-0.36285394,0.4981606,-0.5195409,34.801483,-162.21764,-71.199,JOG
29069498239000,1.260008,-2.73345741331569,6.04889932708948,-4.97417181888425,-0.30085114,0.35308012,-0.54061574,32.96933,-162.1281,-70.93832,JOG
29069503297000,1.265066,-2.75318222304795,5.98479330927415,-5.13197132657029,-0.25167647,0.21074851,-0.5497787,31.311045,-162.03325,-70.67686,JOG
29069508304000,1.270073,-2.79438369507146,5.92063760719566,-5.27598997427304,-0.20708331,0.060170226,-0.5525276,29.748867,-161.96495,-70.4393,JOG
29069513261000,1.27503,-2.89732995769345,5.85512654016757,-5.38361541035978,-0.16584991,-0.116980694,-0.54458636,28.360334,-161.89487,-70.211205,JOG
29069518241000,1.28001,-3.01157531729532,5.77588797114766,-5.48034129581695,-0.12370021,-0.26358834,-0.54092115,27.067873,-161.81508,-69.97372,JOG
29069523249000,1.285018,-3.16589991693779,5.6472840709689,-5.53606957497319,-0.09315695,-0.39003745,-0.54519725,25.925686,-161.73499,-69.74995,JOG
29069528556000,1.290325,-3.33371236774407,5.5203354392278,-5.58876016977386,-0.089186326,-0.44257188,-0.54336464,24.804575,-161.67276,-69.540726,JOG
29069533214000,1.294983,-3.57484076456702,5.61383426826255,-5.49526154627689,-0.09193522,-0.5103779,-0.5305365,23.81393,-161.60895,-69.34471,JOG
29069538228000,1.299997,-3.84124851855289,5.70982692335329,-5.40314471776447,-0.08246681,-0.55680364,-0.5128214,22.835258,-161.5757,-69.177895,JOG
29069543276000,1.305045,-4.1452060801497,5.78219771137725,-5.3548975257485,-0.065973446,-0.559858,-0.47036624,21.907005,-161.53131,-69.00263,JOG
29069548243000,1.310012,-4.45856972673049,5.87584624028722,-5.27300471919579,-0.06047566,-0.5216789,-0.41050145,20.986094,-161.5137,-68.85896,JOG
29069553280000,1.315049,-4.85112717640977,6.08828915384394,-5.00976034523696,-0.073303826,-0.41905355,-0.3640757,20.05245,-161.48616,-68.69745,JOG
29069558280000,1.320049,-5.22775288152096,6.28824504131393,-4.71729357806703,-0.089186326,-0.36468655,-0.28527406,19.117401,-161.4834,-68.56489,JOG
29069563254000,1.325023,-5.45233125007687,6.36147708476991,-4.06796884767859,-0.10323623,-0.32284227,-0.20097467,18.165756,-161.46178,-68.40368,JOG
29069568247000,1.330016,-5.63604888640596,6.40320990037244,-3.38881631880819,-0.13041973,-0.2678644,-0.10873401,17.06262,-161.53679,-68.33878,JOG
29069573323000,1.335092,-5.5169372604136,6.21263114953445,-2.49786075938449,-0.19914207,-0.17715092,-0.01985312,15.976661,-161.57397,-68.23279,JOG
29069578249000,1.340018,-5.37811576818047,6.01365564420699,-1.62098564042545,-0.30085114,-0.13347405,0.08002335,14.843229,-161.72176,-68.26797,JOG
29069583237000,1.345006,-4.97637671089344,5.65445400613436,-0.595369998268527,-0.43188173,-0.06963864,0.13072516,13.703472,-161.82698,-68.254265,JOG
29069589119000,1.350888,-4.45200428251293,5.23786783097108,0.634248373886229,-0.49632803,-0.011911872,0.22418754,12.869196,-161.91002,-68.28415,JOG
29069593274000,1.355043,-3.93755591400115,4.96349517941965,1.56025551678989,-0.6374379,0.003970624,0.3023783,12.061966,-161.95139,-68.28327,JOG
29069598602000,1.360371,-3.28237306797992,4.62406651605266,2.72017953383843,-0.79534656,-0.030543262,0.37934732,12.029197,-161.80676,-68.21428,JOG
29069603275000,1.365044,-2.80344301144048,4.59015993792026,3.15248815055403,-0.95905846,-0.10567969,0.46731192,12.038393,-161.62726,-68.12308,JOG
29069608252000,1.370021,-2.29335636658775,4.55404758196799,3.61292041791836,-1.1114693,-0.20463985,0.5323691,12.446338,-161.43462,-68.11055,JOG
29069613219000,1.374988,-2.02920922472439,4.73388866314897,3.22293427604824,-1.2483032,-0.31795537,0.5702427,12.92121,-161.21832,-68.08961,JOG
29069618224000,1.379993,-1.80339218882503,4.95067311947611,2.69000609207576,-1.3481796,-0.40317106,0.5170974,13.41432,-161.0055,-68.07769,JOG
29069623289000,1.385058,-1.61541466317842,5.76245836743581,1.3065788959051,-1.3765849,-0.44715336,0.44318274,13.881937,-160.84613,-68.13037,JOG
29069628205000,1.389974,-1.44710943059257,6.75698966489005,-0.330572603217419,-1.2208142,-0.5021312,0.37965274,14.379633,-160.70496,-68.19441,JOG
29069633213000,1.394982,-1.53186272739984,8.64717097327449,-0.933807991213804,-0.8378017,-0.6218608,0.32284227,14.525858,-160.616,-68.244804,JOG
29069638217000,1.399986,-1.65067055964895,10.6526478823185,-1.39478248554145,-0.29626966,-0.8686504,0.20616703,14.742697,-160.57245,-68.33542,JOG
29069643224000,1.404993,-1.65391547148554,12.7848940775673,-0.679693552877368,0.06536258,-1.0693196,0.102319926,14.482128,-160.39517,-68.19454,JOG
29069648209000,1.409978,-1.63963615518445,14.9267855586241,0.210381348159522,0.069027774,-1.1038336,0.14385876,14.281333,-160.21391,-68.04914,JOG
29069653263000,1.415032,0.0346824118734879,15.2415394349291,-1.97505919002074,-0.2049453,-0.9095783,0.27580565,14.290233,-159.6337,-67.511665,JOG
29069659198000,1.420967,2.3137173856896,15.2611861723125,-5.12346757054269,-0.57818395,-0.4392121,0.40378192,14.119084,-159.04962,-66.944885,JOG
29069663214000,1.424983,3.02997073512126,14.482865214451,-4.61784048266076,-0.85062987,0.074830994,0.45631635,13.989407,-158.21494,-66.153206,JOG
29069668202000,1.429971,3.43858250483043,13.0551281441079,-2.45460195578142,-0.93584555,0.31673363,0.47311515,13.711102,-157.37074,-65.33639,JOG
29069673305000,1.435074,3.77151213650925,11.9666811428129,-0.462208300609693,-0.890947,0.13958271,0.4456262,13.02221,-156.13663,-64.01845,JOG
29069678221000,1.43999,4.02936235641211,11.1931297210912,1.29409312702284,-0.8527679,-0.09162979,0.42271876,12.292994,-154.92584,-62.716927,JOG
29069683218000,1.444987,4.24323964745386,10.7509700440622,2.18006307459658,-0.8426886,-0.7480045,0.42363504,12.418529,-153.91762,-61.784847,JOG
29069688246000,1.450015,4.4293531395787,10.5136755541598,2.5290257083583,-0.8564331,-1.4807373,0.47036624,12.698056,-152.91225,-60.88483,JOG
29069693218000,1.454987,4.55597862891541,10.316552272427,2.34173643096101,-0.838718,-2.129171,0.5522222,13.618713,-152.004,-60.20414,JOG
29069698213000,1.459982,4.63752336096314,10.1483661627957,1.73015120669082,-0.8335256,-2.5638015,0.63316184,14.775286,-151.09088,-59.547905,JOG
29069703263000,1.465032,4.69867239356079,10.2425056056704,0.909637354325805,-0.8582657,-2.8139508,0.689056,16.219646,-150.18436,-58.925526,JOG
29069708284000,1.470053,4.74950730418068,10.459709336617,-0.000768560913022687,-0.92149025,-2.9394836,0.7174612,17.773031,-149.27463,-58.28938,JOG
29069713209000,1.474978,4.72061581484085,10.9274154601868,-0.634703165502561,-0.9459248,-2.9709432,0.73823065,19.2521,-148.36093,-57.60508,JOG
29069718212000,1.479981,4.63882864564715,11.5720893606286,-1.1061813542183,-0.9505063,-2.9407053,0.79045963,20.707281,-147.44072,-56.885197,JOG
29069723310000,1.485079,4.38157280004018,12.3250713341704,-1.13995653143029,-0.9401216,-2.9132164,0.86926126,21.939669,-146.47318,-56.066284,JOG
29069728424000,1.490193,4.01263108794697,13.1416629988951,-0.889076080912013,-0.9236283,-2.9226847,0.9764681,23.124971,-145.4944,-55.211025,JOG
29069733209000,1.494978,3.60932471023177,13.8229707083098,-0.329563412006784,-0.9279043,-2.9819386,1.1001683,24.161068,-144.43884,-54.24869,JOG
29069738254000,1.500023,3.14957206353872,14.4921152862257,0.45338159309968,-0.9275989,-3.0848694,1.2373075,25.176912,-143.36517,-53.249054,JOG
29069743218000,1.504987,2.59317652571549,15.0781579008343,1.37907637105291,-0.92087936,-3.2198708,1.3994923,26.18618,-142.23834,-52.179977,JOG
29069748215000,1.509984,1.92606282999261,15.5936547323899,2.47071706480093,-0.9263771,-3.3945782,1.5604553,27.205862,-141.09619,-51.076412,JOG
29069753266000,1.515035,1.08766915628818,15.9792283844662,3.34241424207311,-0.92179567,-3.5781431,1.7131716,28.279509,-139.96617,-49.96541,JOG
29069758271000,1.52004,0.148830062426064,16.2720347157956,4.05351511058858,-0.958753,-3.751018,1.8408424,29.35104,-41.17013,-48.822247,JOG
29069763214000,1.524983,-0.919938360781235,16.4878553650015,4.53464479237413,-1.0177015,-3.8374555,1.9260582,30.367252,-42.177425,-47.77831,JOG
29069768204000,1.529973,-2.12062502031603,16.6426320496614,4.83012625395034,-1.1169671,-3.7956111,1.9477439,31.316736,-43.16431,-46.725655,JOG
29069773280000,1.535049,-3.30642031569462,16.7669786224379,5.00408298682048,-1.2922854,-3.6370916,1.9654589,31.873579,-43.84395,-45.961727,JOG
29069778217000,1.539986,-4.4253514502525,16.855931150708,5.0509001095356,-1.5070046,-3.5329392,1.9660698,32.372643,-44.498573,-45.199863,JOG
29069783208000,1.544977,-5.44682141305595,16.8552038091822,5.00609130004782,-1.6276505,-3.2803464,1.9611828,32.407265,-44.871056,-44.72882,JOG
29069788240000,1.550009,-6.3548584472023,16.7537985408895,4.85859310427547,-1.8420641,-2.982855,1.9898936,32.35418,-45.248417,-44.23735,JOG
29069793245000,1.555014,-7.18247772314091,16.5877994876737,4.65897045906462,-2.0378466,-2.6920831,2.0308216,32.26109,-45.57368,-43.784264,JOG
29069798551000,1.56032,-7.93513266580095,16.3042646545602,4.35997033428021,-2.16399,-2.3976462,2.1019874,32.02032,-45.914295,-43.313473,JOG
29069803283000,1.565052,-8.51419677757758,16.0303783761762,4.08262247219219,-2.2440135,-2.0934353,2.2061398,31.933256,-46.328606,-42.73695,JOG
29069808318000,1.570087,-9.01135187117117,15.7118130693694,3.77371055567568,-2.24157,-1.7712038,2.3405302,31.683216,-46.759426,-42.14847,JOG
29069813216000,1.574985,-9.44209197466047,15.3410269482271,3.52276788612706,-2.1798725,-1.4117095,2.50638,31.366272,-47.198215,-41.553577,JOG
29069818249000,1.580018,-9.811138270896,14.8753255822623,3.33385137996536,-2.0916026,-1.0885619,2.6444356,30.90883,-47.658188,-40.949886,JOG
29069823249000,1.585018,-10.149104859767,14.3426456719849,3.15920333262307,-1.9905044,-0.8374963,2.7620273,30.33361,-48.112152,-40.371574,JOG
29069828221000,1.58999,-10.3890086872048,13.577952385116,3.0292554913299,-1.9117028,-0.6536258,2.8334985,29.647367,-48.588753,-39.78727,JOG
29069833191000,1.59496,-10.5521396730731,12.8505015155967,2.88603020613806,-1.8674151,-0.57696223,2.8530462,28.951006,-49.037647,-39.236668,JOG
29069838244000,1.600013,-10.5472704786174,12.1931396717649,2.71073361275911,-1.892766,-0.61453044,2.8292224,28.22611,-49.48812,-38.686268,JOG
29069843194000,1.604963,-10.4911275985175,11.7229519571271,2.37733993099269,-1.9291124,-0.6783658,2.7076602,27.554781,-49.865765,-38.203594,JOG
29069848216000,1.609985,-10.3273265392167,11.6073282422118,1.70286717070019,-2.0042489,-0.7144069,2.5152376,26.89483,-50.20516,-37.75088,JOG
29069853234000,1.615003,-10.0882794336458,11.6669985851011,0.911667606581154,-2.0552561,-0.69974613,2.2879958,26.270824,-50.45977,-37.38176,JOG
29069858266000,1.620035,-9.69838160394672,12.0759162328564,-0.115381844659102,-2.03693,-0.625526,2.0894647,25.652464,-50.664474,-37.062946,JOG
29069863212000,1.624981,-9.22674984096982,12.4623353275606,-1.18065012984859,-1.9226984,-0.49846604,1.924531,24.813623,-50.77633,-36.883644,JOG
29069868256000,1.630025,-8.54315980672934,12.8208611504206,-2.39485840188817,-1.7342464,-0.35033122,1.7986927,23.977545,-50.86187,-36.746456,JOG
29069873283000,1.635052,-7.78928136614962,13.0499418265266,-3.5433263096505,-1.4902058,-0.20799962,1.7024814,23.09919,-51.018448,-36.58042,JOG
29069878257000,1.640026,-6.87268362352248,12.9751174552327,-4.53474876539368,-1.212873,-0.1563815,1.6676621,22.231928,-51.184227,-36.428543,JOG
29069883238000,1.645007,-5.99462789310703,12.8009646257426,-5.35634294284771,-1.0687088,-0.02565634,1.5861117,21.605598,-51.533882,-36.091564,JOG
29069888281000,1.65005,-5.22499110196134,12.3273420435644,-5.67512725976426,-0.8197812,0.121256754,1.5198327,20.965666,-51.907528,-35.770264,JOG
29069893240000,1.655009,-4.50338092069864,11.8433239635037,-5.91252974191867,-0.6450737,0.22204952,1.4492778,20.385202,-52.38936,-35.357334,JOG
29069898255000,1.660024,-4.0075790379562,11.2323358978102,-5.64710027737226,-0.5687156,0.25320363,1.3756685,19.793299,-52.861137,-34.972916,JOG
29069903278000,1.665047,-3.59278119497916,10.6593727371502,-5.3327151147053,-0.5525276,0.22693644,1.3035865,19.234533,-53.37596,-34.553944,JOG
29069908324000,1.670093,-3.46810974608057,10.2230229163525,-4.84361962313951,-0.57604593,0.15302174,1.235475,18.69519,-53.871967,-34.155117,JOG
29069913241000,1.67501,-3.39209497046642,9.81642556667312,-4.39229023595897,-0.6429357,0.06047566,1.1756102,18.221363,-54.349403,-33.752552,JOG
29069918267000,1.680036,-3.499222891078,9.47641039268434,-4.03364462252758,-0.70707655,-0.016798794,1.1420126,17.77563,-54.81195,-33.35964,JOG
29069923284000,1.685053,-3.61877456301813,9.14164095619794,-3.68809441966683,-0.79412484,-0.1142318,1.1316279,17.411312,-55.22885,-32.97754,JOG
29069928223000,1.689992,-3.81344317901029,8.84036873189613,-3.42390128413523,-0.8564331,-0.21685717,1.1389582,17.077927,-55.63663,-32.597458,JOG
29069933236000,1.695005,-4.01498490573508,8.52329183615721,-3.17289789359534,-0.9120218,-0.2843578,1.1395692,16.797432,-55.990005,-32.247005,JOG
29069938290000,1.700059,-4.2592217975934,8.08648322340611,-3.09774802789908,-0.93584555,-0.30176744,1.1484267,16.533575,-56.342926,-31.892538,JOG
29069943478000,1.705247,-4.50777672080186,7.63674677513074,-3.02697761330622,-0.90224797,-0.28680122,1.1453724,16.306847,-56.643726,-31.577381,JOG
29069948255000,1.710024,-4.71157558739105,7.20699701134999,-3.03583842554716,-0.84665924,-0.2602286,1.1154399,16.08237,-56.936825,-31.270868,JOG
29069953627000,1.715396,-4.9382837931083,6.72705082486639,-3.04359265077356,-0.7476991,-0.2501493,1.0824533,15.886029,-57.18141,-31.016258,JOG
29069958324000,1.720093,-5.08168718884201,6.38119563073605,-3.00141522030005,-0.59986967,-0.25228736,1.0351112,15.687123,-57.420723,-30.778677,JOG
29069963236000,1.725005,-5.23165471701828,6.01950929614627,-2.95730716441632,-0.4370741,-0.32467487,0.97341377,15.532644,-57.606503,-30.602709,JOG
29069968252000,1.730021,-5.42972109056197,5.60836449567468,-2.86793075757739,-0.26175576,-0.44501534,0.8906415,15.398502,-57.78535,-30.446861,JOG
29069973589000,1.735358,-5.6600380960847,5.14748099360226,-2.77634121529616,-0.065973446,-0.59315014,0.7742717,15.302804,-57.95166,-30.315914,JOG
29069978248000,1.740017,-6.05096255286118,4.46743499313681,-2.9514429503605,0.121256754,-0.6603453,0.7021896,15.243047,-58.07648,-30.236359,JOG
29069983244000,1.745013,-6.47016379477047,3.73819914460162,-3.13921034001095,0.21960606,-0.79198676,0.5149594,15.288051,-58.095547,-30.25786,JOG
29069988283000,1.750052,-6.65540497835357,3.30537770232768,-3.24239288994181,0.44257188,-0.874759,0.30757064,15.34394,-58.111683,-30.3085,JOG
29069993198000,1.754967,-6.77346964462727,2.96299028108759,-3.32031551297281,0.65484756,-0.88453287,0.081855945,15.430116,-58.07414,-30.417488,JOG
29069998275000,1.760044,-6.89542576073543,2.60931765898465,-3.40080649102538,0.80756384,-0.7959574,-0.14538592,15.548346,-57.89085,-30.696571,JOG
29070003216000,1.764985,-7.01411498068627,2.2651190326678,-3.4791413191833,0.9059132,-0.6270532,-0.35643986,15.653287,-57.65467,-31.041433,JOG
29070008290000,1.770059,-6.99672301389165,2.08175533145465,-3.30741924421512,0.9737192,-0.4297437,-0.56077427,15.735107,-57.361454,-31.452465,JOG
29070013213000,1.774982,-6.94526305804723,1.94608833500695,-3.07818882047033,1.0088439,-0.2012801,-0.7495316,15.757971,-57.009598,-31.92904,JOG
29070018287000,1.780056,-6.80626472937864,1.92659756058481,-2.76783908922256,0.9987647,-0.008552114,-0.91874135,15.747556,-56.522263,-32.54792,JOG
29070023235000,1.785004,-6.64710976523758,1.94064063271757,-2.44484828353255,0.9950995,0.17898351,-1.0754282,15.664748,-55.976627,-33.225792,JOG
29070033208000,1.794977,-5.95678736027874,2.22795224341463,-1.83949433449477,0.95111716,0.52870387,-1.3332134,15.35606,-54.70479,-34.725918,JOG
29070038288000,1.800057,-5.44411719431851,2.55587252784318,-1.63141302216169,0.8891144,0.6575964,-1.4321736,15.1438465,-54.013687,-35.50779,JOG
29070043277000,1.805046,-4.89563136848915,2.93237550134254,-1.4594301698317,0.8539896,0.7425067,-1.5027285,14.887681,-53.290577,-36.315933,JOG
29070048254000,1.810023,-4.36656124015709,3.45949436745874,-1.43760353765162,0.82894415,0.7809912,-1.5580118,14.627274,-52.599087,-37.073723,JOG
29070053352000,1.815121,-3.83260990865977,4.0662572833267,-1.48129047813681,0.84788096,0.7644979,-1.5922203,14.354673,-51.891724,-37.84107,JOG
29070058330000,1.820099,-3.55572399338451,5.0746194963438,-1.63942916810423,0.9080512,0.679893,-1.6490307,14.099523,-51.276672,-38.503227,JOG
29070063252000,1.825021,-3.38433394815675,6.24578511195839,-1.84414519492981,1.0183123,0.5357288,-1.7263051,13.872794,-50.648632,-39.17312,JOG
29070068248000,1.830017,-3.46761679076156,7.80912128443641,-2.19530017088669,1.1597277,0.45570546,-1.8420641,13.627098,-50.137512,-39.722637,JOG
29070073301000,1.83507,-3.66158051074396,9.55006468402581,-2.61161268645029,1.2641857,0.3323107,-1.9917262,13.451969,-49.59857,-40.293095,JOG
29070078237000,1.840006,-3.85983634010619,11.483277367572,-2.8093700675924,1.303281,0.35063666,-2.0567832,13.197707,-49.223015,-40.700123,JOG
29070083218000,1.844987,-4.06439895106188,13.5532569257198,-2.90191042592403,1.3295482,0.6411031,-2.1820107,12.887695,-48.79219,-41.159386,JOG
29070088776000,1.850545,-4.2777050658046,15.2948888523194,-2.68560054946634,1.3179418,1.1624765,-2.284636,12.386331,-48.543743,-41.434307,JOG
29070093222000,1.854991,-4.44375422270115,16.5140396349548,-2.41467835611658,1.3695599,1.7366899,-2.3157902,11.753239,-48.2794,-41.716167,JOG
29070098211000,1.85998,-4.43864513758309,17.3582781825578,-1.64581220332374,1.3952162,2.2727242,-2.361605,10.89764,-131.80023,-41.799652,JOG
29070103252000,1.865021,-4.36679775867646,18.0288537190197,-0.70700571705824,1.4596626,2.7036896,-2.3832908,9.873352,-131.89676,-41.88072,JOG
29070108268000,1.870037,-3.76200571895735,18.4496204241706,0.474906774052133,1.5195273,2.9477303,-2.3240368,8.777119,-131.86142,-41.81047,JOG
29070113263000,1.875032,-2.96851505130332,18.7802417822867,1.74071332305983,1.5656476,2.9816332,-2.1432207,7.6198854,-131.82304,-41.714756,JOG
29070118250000,1.880019,-2.1004528463451,18.9922826760784,2.70550435082353,1.6285667,2.8600712,-1.8680259,6.615004,-131.67981,-41.51277,JOG
29070123348000,1.885117,-1.18143996494118,19.1598109529412,3.56707894588235,1.7305813,2.6010642,-1.591304,5.672196,-131.51396,-41.276974,JOG
29070128213000,1.889982,-0.685464922682405,19.2610862022493,3.92192000359699,1.8765781,2.26631,-1.3658947,5.054554,-131.183,-40.906097,JOG
29070133237000,1.895006,-0.35901142643926,19.3371092824612,4.06055079054745,2.0622811,2.0124955,-1.2629639,4.503981,-130.84584,-40.52479,JOG
29070138284000,1.900053,-0.304655060637712,19.397774540678,4.07981488992585,2.2589796,1.96271,-1.2974777,4.126245,-130.40868,-40.062847,JOG
29070143260000,1.905029,-0.50153148107839,19.4432079508475,3.98894896568856,2.427273,2.123673,-1.4694363,3.740099,-130.0239,-39.64466,JOG
29070148251000,1.91002,-0.851394184652278,19.4390121007194,3.88301619904077,2.5396724,2.439185,-1.6988163,3.2763383,-129.67134,-39.245327,JOG
29070153292000,1.915061,-1.29518462372102,19.4052452583933,3.7672447582534,2.5876253,2.8060095,-1.9382755,2.7156694,-129.40479,-38.91602,JOG
29070158554000,1.920323,-1.72274743522547,19.1585314059533,3.81331641730617,2.5763242,3.1395419,-2.1685717,2.0064847,-129.25435,-38.68038,JOG
29070163360000,1.925129,-2.09598152830301,18.830814201246,3.93621057106408,2.503631,3.2824843,-2.3738225,1.2265136,-129.18433,-38.51236,JOG
29070168248000,1.930017,-2.35771261234131,18.5696807354591,4.106386001801,2.3921483,3.2626312,-2.5375342,0.36346993,-129.23923,-38.455658,JOG
29070173333000,1.935102,-2.55421110481252,18.3444253944494,4.31246972677886,2.3246477,3.0014863,-2.5983152,359.54053,-129.33191,-38.4356,JOG
29070178244000,1.940013,-2.60670660295217,18.3045320379846,4.29616755857115,2.2156084,2.5192082,-2.6871963,358.83643,-129.56024,-38.580173,JOG
29070183241000,1.94501,-2.55961408227711,18.3940074486322,4.12192563037788,2.1539109,1.9440787,-2.7149906,358.26645,-129.78838,-38.739204,JOG
29070188285000,1.950054,-2.37348161667497,18.5866790405419,3.54829606829365,2.097406,1.3826935,-2.7015514,357.9091,-130.07895,-39.006054,JOG
29070193264000,1.955033,-2.07424629569678,18.862166183086,2.65058995656938,2.065641,0.9627236,-2.6441302,357.7067,-130.36058,-39.284042,JOG
29070198254000,1.960023,-1.82421378852765,19.0635066661428,1.69493114138592,2.0277672,0.7620544,-2.5546384,357.5308,-130.62949,-39.54502,JOG
29070203283000,1.965052,-1.61606940110009,19.2006930046164,0.682592764661625,2.0402899,0.7583892,-2.477975,357.43448,-130.88553,-39.80023,JOG
29070208314000,1.970083,-1.51074072934932,19.2278264989188,0.0646203856005504,2.0696115,0.9410379,-2.408947,357.10257,-131.06644,-39.91275,JOG
29070213263000,1.975032,-1.50608222893651,19.1486317973265,-0.163646295151366,2.0803015,1.1557571,-2.3545802,356.77124,-131.23222,-40.0084,JOG
29070218246000,1.980015,-1.47096576499113,18.8580240455352,0.0277600986398581,2.0778582,1.2928963,-2.3038783,356.21698,-131.35266,-39.99297,JOG
29070223416000,1.985185,-1.39776639183915,18.3017078923714,0.735354548669426,2.0427334,1.2516629,-2.257147,355.6687,-131.46478,-39.965897,JOG
29070228199000,1.989968,-1.29833476993427,17.7195825581595,1.40341961511861,1.997224,1.0424415,-2.2003367,355.0959,-131.57855,-39.92478,JOG
29070233253000,1.995022,-1.15078425824521,17.0141063641993,2.1273393702677,1.9291124,0.713796,-2.1087067,354.60437,-131.6717,-39.87547,JOG
29070238207000,1.999976,-1.01268095527007,16.2422073824818,2.71360570321168,1.8414533,0.35369098,-1.9978348,354.31888,-131.78204,-39.900013,JOG
29070243263000,2.005032,-0.885445015174696,15.285582166326,3.05290138928467,1.7345519,0.03756821,-1.8793269,354.1537,-131.8581,-39.917408,JOG
29070248190000,2.009959,-0.785944683535961,14.3214125194102,3.2599760319992,1.6081028,-0.17348573,-1.7556267,354.1376,-131.96762,-40.02512,JOG
29070253337000,2.015106,-0.751333098874511,13.2237315159494,3.12647429321898,1.4676038,-0.28680122,-1.647809,354.20953,-132.03568,-40.11561,JOG
29070258249000,2.020018,-0.717069214044999,12.2107231791555,2.97662319913767,1.3252722,-0.3390302,-1.5570955,354.39914,-132.13574,-40.282017,JOG
29070263262000,2.025031,-0.679001220467836,11.2637811929825,2.76724913508772,1.1756102,-0.3231477,-1.4776831,354.60736,-132.19261,-40.41597,JOG
29070268234000,2.030003,-0.660018447319021,10.3390845852222,2.53782132204693,1.0274754,-0.29565877,-1.4285084,354.82928,-132.30426,-40.613686,JOG
29070274108000,2.035877,-0.699337355197204,9.29432432920619,2.19518483156266,0.95478237,-0.19394971,-1.3518448,355.02042,-132.37431,-40.764965,JOG
29070278244000,2.040013,-0.681017362962963,8.62019048148148,1.99179842592593,0.77518797,-0.04520403,-1.2837334,355.02753,-132.52536,-40.96776,JOG
29070283257000,2.045026,-0.538389520360467,7.96410206793425,1.84441632521291,0.5833763,0.101098195,-1.181108,355.0059,-132.63153,-41.12402,JOG
29070288275000,2.050044,-0.391654034770078,7.34217668132171,1.72794335585131,0.37232238,0.2507602,-1.0852021,354.91156,-132.78079,-41.317005,JOG
29070293261000,2.05503,-0.23387537580358,6.82939621358421,1.70602966847178,0.1591304,0.39370266,-0.9990701,354.7732,-132.8831,-41.46651,JOG
29070298303000,2.060072,-0.0597955573602485,6.31745073291925,1.68997924611801,-0.07391469,0.5516113,-0.9245446,354.50122,-132.9949,-41.60552,JOG
29070303299000,2.065068,0.291865590341615,5.89149487602485,1.74941494106625,-0.30604348,0.6768387,-0.83658,354.1982,-133.05753,-41.702496,JOG
29070308322000,2.070091,0.653995388815669,5.46845230874222,1.81191271974906,-0.54305923,0.7819075,-0.7452556,353.83194,-133.11093,-41.789,JOG
29070313262000,2.075031,1.05938059746608,5.08237117684382,1.88912895620728,-0.75228053,0.8756753,-0.6469063,353.4331,-133.11789,-41.83514,JOG
29070318281000,2.08005,1.46910588422562,4.68633626826004,1.95448345200765,-0.95172805,0.9184359,-0.55680364,353.02304,-133.06549,-41.824505,JOG
29070323281000,2.08505,1.86737658212237,4.27433215736138,1.95906127227533,-1.1099422,0.92149025,-0.45356745,352.6033,-132.96613,-41.773846,JOG
29070328260000,2.090029,2.26720382335594,3.85925736192863,1.96286036990072,-1.2550226,0.9285152,-0.32406402,352.1931,-132.78394,-41.643036,JOG
29070333269000,2.095038,2.70574022235329,3.38771281987614,1.95814492792687,-1.3704761,0.91324353,-0.17837265,351.79996,-132.55673,-41.47535,JOG
29070338412000,2.100181,3.15532264436393,2.8944549260467,1.95479051980676,-1.475545,0.86009824,-0.009468411,351.44446,-132.24648,-41.22813,JOG
29070343971000,2.10574,3.63218805420692,2.24077420850443,1.97086462342995,-1.565953,0.795652,0.17592919,351.1102,-131.8819,-40.932644,JOG
29070348328000,2.110097,4.00986841497457,1.72330881985758,1.99566429562564,-1.6401732,0.66614854,0.36468655,350.83917,-131.44069,-40.565693,JOG
29070353178000,2.114947,4.4776511123296,1.08542337504578,2.17049224069176,-1.6991217,0.44684792,0.5626069,350.63623,-130.9382,-40.14642,JOG
29070358455000,2.120224,4.98374568511875,0.390769043481311,2.35269594202826,-1.7635679,0.16829337,0.76052725,350.51773,-130.37555,-39.673645,JOG
29070363162000,2.124931,5.41740538279387,-0.232616881005111,2.4656281407155,-1.8078557,0.030848695,0.8622363,350.4299,-129.78067,-39.16953,JOG
29070368170000,2.129939,5.83419111346063,-0.917543968680536,2.55390800744752,-1.8380935,-0.25534168,1.0491611,350.5254,-129.10526,-38.599274,JOG
29070373234000,2.135003,5.7374461522751,-1.86196063052152,2.27288640972737,-1.8942931,-0.5290093,1.1976013,350.6611,-128.40895,-38.006283,JOG
29070378514000,2.140283,5.61353329986555,-2.80578837876719,1.93713176853863,-1.9391917,-0.72112644,1.2809844,350.87775,-127.68457,-37.382053,JOG
29070383160000,2.144929,5.03371889057814,-2.80118668130107,0.768299795283897,-1.9773707,-0.8188649,1.3182472,351.1521,-126.93208,-36.72227,JOG
29070388319000,2.150088,4.37730609441964,-2.79295911651786,-0.582106312946429,-1.9474384,-0.79137594,1.3399329,351.43518,-126.2798,-36.143337,JOG
29070393168000,2.154937,3.59988529877232,-2.74545010096726,-2.52133939084821,-1.7757853,-0.6771441,1.4046847,351.71454,-125.61049,-35.53095,JOG
29070398143000,2.159912,2.8022634265625,-2.69670657604167,-4.510962934375,-1.426065,-0.4642576,1.466382,351.83524,-125.03345,-34.98228,JOG
29070403167000,2.164936,1.57889154030396,-2.45556114715287,-7.95791231802033,-0.890947,-0.12156218,1.5012014,351.86588,-124.44881,-34.41402,JOG
29070408219000,2.169988,0.294497444577124,-2.18817802693181,-11.6105569285009,-0.1572978,0.4334089,1.4932601,351.7462,-123.861084,-33.83103,JOG
29070413157000,2.174926,-2.26999705162897,-1.78903383766066,-12.9297765888214,0.79443026,1.2733486,1.3875804,351.21884,-123.44003,-33.380524,JOG
29070418132000,2.179901,-5.04693226160207,-1.36655993061672,-13.9266254231344,1.96271,2.2201898,1.1102476,350.47006,-123.09556,-32.96493,JOG
29070423184000,2.184953,-7.93037953284628,-0.28675963802942,-10.2711144118867,3.147483,2.7366762,0.5815437,349.2637,-123.15287,-32.795055,JOG
29070428152000,2.189921,-10.7768607826439,0.887531461032678,-5.86987154250173,3.945884,2.5827382,-0.10170906,347.96375,-123.45659,-32.70804,JOG
29070433156000,2.194925,-12.0127727284775,2.51680024463724,-1.13170205186386,4.0091085,1.6615535,-0.73884153,346.70898,-124.4767,-33.154537,JOG
29070438197000,2.199966,-12.9148824828868,4.25198092995519,3.7056317439222,3.277292,-0.036651913,-1.1511755,345.72693,-125.706055,-33.73487,JOG
29070443165000,2.204934,-12.9693938311553,5.00270258562467,4.93146984004182,2.097406,-2.3628268,-1.2928963,345.6369,-127.33822,-35.128128,JOG
29070448156000,2.209925,-12.7245332317825,5.41246952976477,4.89149253010978,1.0922271,-4.7067165,-1.2281445,346.1169,-128.93182,-36.65854,JOG
29070453172000,2.214941,-11.7845252706203,5.53341612951602,3.15504540170416,0.5015204,-6.433327,-1.146594,347.74692,-130.1788,-38.32646,JOG
29070458168000,2.219937,-10.6942636957834,5.58932715415328,1.04906929563736,0.27885997,-6.95409,-1.1426234,349.82974,-131.33932,-39.958447,JOG
29070463140000,2.224909,-8.76000355721893,5.81455743504471,-0.377165288988245,0.12461651,-7.265631,-1.1591167,352.525,-132.33893,-41.446987,JOG
29070468147000,2.229916,-6.54865569376067,6.09398707284236,-1.60569167298302,0.07269296,-6.836193,-1.138042,355.1985,-133.3016,-42.78043,JOG
29070473168000,2.234937,-3.98034486217846,5.900525585209,-1.65910864843248,0.2947425,-6.0606995,-1.0134255,357.45804,-134.24039,-43.93786,JOG
29070478144000,2.239913,-1.33235781217846,5.570125585209,-1.36701609843248,0.89552844,-5.029559,-0.84635377,359.4658,-135.13446,-44.966267,JOG
29070483142000,2.244911,2.44024359876762,6.22948849569161,-4.80619563137139,1.3283265,-3.7586539,-0.64812803,0.8424177,-135.68544,-45.580513,JOG
29070488146000,2.249915,6.53180887117224,7.16969811201814,-9.30408279303953,1.1872166,-1.9905044,-0.38698313,1.5931304,-136.16006,-46.080643,JOG
29070493132000,2.254901,9.38959880687901,9.71675165220312,-12.1568008834843,0.38056904,0.6441574,0.0009162979,1.7654479,-136.05554,-45.978474,JOG
29070498122000,2.259891,11.8453919396764,12.7998655268342,-14.471567790984,-0.63316184,2.8179214,0.46517387,1.4028538,-135.85028,-45.76032,JOG
29070503188000,2.264957,11.2043439405941,14.6456460116482,-10.0167395256843,-0.9242391,3.8857138,0.95111716,359.8838,-134.88893,-44.700333,JOG
29070508196000,2.269965,9.71924881188119,16.1214295270821,-3.76444373721607,-0.3857614,3.6392298,1.1823297,358.10562,-133.88824,-43.54557,JOG
29070513150000,2.274919,7.80011215830305,17.0504057729549,1.74890837183541,-0.048258353,2.59465,1.1212431,355.97733,-132.2681,-41.699745,JOG
29070518149000,2.279918,5.69858174810959,17.7932287979967,7.06620294431896,-0.0143553335,1.1487321,0.9071349,354.29663,-130.73187,-39.91052,JOG
29070523186000,2.284955,4.11516192357356,18.2773897097085,10.5303269213894,-0.076052725,-0.44409904,0.59315014,353.87683,-129.12982,-38.29244,JOG
29070528154000,2.289923,2.78758598446069,18.6390403199269,13.1168112212066,-0.06047566,-1.8099937,0.3182608,353.89423,-127.64613,-36.83693,JOG
29070533147000,2.294916,1.78218498584144,18.0654953097702,13.6352438566032,-0.006414085,-2.5146267,0.28802297,354.66016,-126.34091,-35.758026,JOG
29070538195000,2.299964,0.976623139598427,16.8846703054233,12.824678576123,-0.057726767,-2.7119362,0.44257188,355.63635,-125.15189,-34.776344,JOG
29070543155000,2.304924,0.548948789079289,15.5182148197523,11.6376221334632,-0.16218472,-2.7977629,0.66981375,356.77866,-124.29111,-34.12242,JOG
29070548149000,2.309918,0.286270393449171,14.0472165103855,10.2621424273517,-0.34391713,-2.9003882,0.8720101,357.88248,-123.48877,-33.442543,JOG
29070553222000,2.314991,0.255178025749447,13.1219127502163,8.93210395336987,-0.5748242,-2.9932396,1.0519099,358.77795,-122.94629,-32.94487,JOG
29070558242000,2.320011,0.333755538911643,12.4701815128353,7.6471306777233,-0.82436264,-3.0213394,1.2641857,359.60126,-57.61591,-32.36557,JOG
29070563190000,2.324959,0.54646113727992,12.2229025580371,6.43239757135704,-0.9401216,-2.9782734,1.3897184,0.2674476,-58.02464,-31.894598,JOG
29070568185000,2.329954,0.848281618581873,12.2276934558838,5.23948801952929,-1.1520919,-2.8145616,1.68385,0.8319062,-58.509968,-31.300291,JOG
29070573228000,2.334997,1.17521711008322,12.386264083414,4.28211169698084,-1.3286319,-2.5589144,2.012801,1.330617,-59.05356,-30.623735,JOG
29070578198000,2.339967,1.51144328513644,12.6395854739694,3.49451333458487,-1.459357,-2.2797492,2.3295345,1.7061317,-59.641342,-29.869278,JOG
29070583184000,2.344953,1.60181028562856,13.0997349067907,2.90954962361236,-1.5293012,-2.019215,2.6154196,2.0593867,-60.42683,-28.898556,JOG
29070588218000,2.349987,1.48127415367537,13.7409871630163,2.49490510012001,-1.577254,-1.7712038,2.8264735,2.2764149,-61.23585,-27.877552,JOG
29070593195000,2.354964,1.0311991057713,14.7555551452607,2.39679932349604,-1.6310102,-1.5033394,2.9562824,2.4170713,-62.17727,-26.709238,JOG
29070598191000,2.35996,0.301087218634452,16.0940941385112,2.56060654705077,-1.7058412,-1.2134838,3.0250046,2.4391837,-63.11028,-25.525747,JOG
29070603274000,2.365043,-0.591685543436811,17.110128271534,3.00080614516624,-1.8038851,-0.88056225,3.0320296,2.3332007,-64.048355,-24.329859,JOG
29070608284000,2.370053,-1.616836068444,17.7767050033535,3.69956328256204,-1.9172006,-0.5177083,2.990491,2.1113896,-64.934525,-23.164692,JOG
29070613274000,2.375043,-2.62625143147004,18.3086065281038,4.44277456670784,-2.082745,-0.16126843,2.8918362,1.7501869,-65.70641,-22.09347,JOG
29070618216000,2.379985,-3.61043628296273,18.6594061105621,5.24181619466749,-2.2385156,0.12034045,2.7977629,1.2922511,-66.40449,-21.073072,JOG
29070623272000,2.385041,-4.49049185035127,18.92715180358,5.88056788817246,-2.314874,0.28893927,2.737898,0.6621625,-66.87634,-20.263498,JOG
29070628229000,2.389998,-5.21689805320951,19.091620588875,6.31458374535656,-2.3423629,0.3622431,2.69697,359.9711,-67.276474,-19.501396,JOG
29070633260000,2.395029,-5.93105728015171,19.2255828753282,6.57365572650005,-2.3539693,0.36071593,2.656042,359.10434,-67.454994,-18.954424,JOG
29070638236000,2.400005,-6.60302613375474,19.3089999528348,6.55975297703005,-2.3634377,0.23335053,2.6349673,358.25784,-67.608025,-18.407063,JOG
29070643196000,2.404965,-7.27648963601992,19.1314937224311,6.42119677507877,-2.4468207,-0.028405234,2.6254988,357.60034,-67.6842,-17.854424,JOG
29070648216000,2.409985,-7.96544772200427,18.4278768690924,6.03029888037402,-2.56991,-0.47525316,2.6251934,357.02783,-67.723366,-17.286974,JOG
29070653209000,2.414978,-8.66406136062701,17.612250084023,5.4079765332879,-2.701857,-1.0592403,2.5937338,356.61917,-67.67991,-16.748125,JOG
29070658280000,2.420049,-9.39694206893195,16.5814887342031,4.36775866457015,-2.8053987,-1.3643675,2.5289822,356.2481,-67.584564,-16.210554,JOG
29070663214000,2.424983,-10.075868026622,15.6485965343128,3.0774608700986,-2.8356364,-1.9141463,2.4761422,356.1516,-67.4067,-15.691391,JOG
29070668877000,2.430646,-10.7710311494774,14.7502315482153,0.911758842035101,-2.807842,-2.2122486,2.3539693,356.0624,-67.170456,-15.207518,JOG
29070673264000,2.435033,-11.0503870657653,14.1492639074843,-0.781663524222115,-2.6413813,-2.1395555,2.201253,356.01022,-66.89053,-14.857978,JOG
29070678226000,2.439995,-10.7888089224529,13.6811759974891,-2.73203048353839,-2.3597724,-1.7464638,2.044566,355.95,-66.611694,-14.548522,JOG
29070683238000,2.445007,-10.0709793824701,13.3074060185923,-4.56746291766268,-1.9960022,-1.1850786,1.9046779,356.01202,-66.4241,-14.328817,JOG
29070688270000,2.450039,-7.72305269322709,13.2874066586985,-5.92742022576361,-1.5836681,-0.6267477,1.7776178,355.96948,-66.28494,-14.1894655,JOG
29070693238000,2.455007,-5.40498834661355,13.2676616626826,-7.27008077954847,-1.2070698,-0.20250183,1.6969837,355.96924,-66.331055,-14.060868,JOG
29070698294000,2.460063,-4.08423387144527,13.3212940311648,-7.14842387456175,-0.9080512,0.03268129,1.6581937,355.8678,-66.439224,-13.993601,JOG
29070703348000,2.465117,-3.00477615757694,13.3920008102844,-6.68175873860538,-0.7150178,0.0711658,1.6578883,355.7027,-66.60102,-13.961331,JOG
29070708302000,2.470071,-2.54871100047589,13.1784368168756,-6.28279267169397,-0.643852,-0.07391469,1.6820174,355.5392,-67.041405,-13.672285,JOG
29070713237000,2.475006,-2.26757262699735,12.8843226496751,-5.90217459802324,-0.6102544,-0.27397305,1.6829338,355.38214,-67.51368,-13.390784,JOG
29070718230000,2.479999,-2.30458405719218,12.4375483219217,-5.60848147240123,-0.6001751,-0.4709771,1.6618589,355.25818,-68.023186,-12.982133,JOG
29070723335000,2.485104,-2.59057038688147,11.8655753688147,-5.37875480794016,-0.5897904,-0.5381723,1.5937474,355.1599,-68.5318,-12.583885,JOG
29070728216000,2.489985,-2.94254356273292,11.2193055354691,-5.04656724311867,-0.5861252,-0.49480084,1.5115861,355.0942,-69.00928,-12.159823,JOG
29070733211000,2.49498,-3.38561557515528,10.4530511990847,-4.58785713050016,-0.5815437,-0.39645153,1.4385877,355.03876,-69.478134,-11.755456,JOG
29070738242000,2.500011,-3.7490994983933,9.72580517900444,-4.04075164907836,-0.59437186,-0.26633725,1.3900238,354.9779,-69.88036,-11.4151,JOG
29070743239000,2.505008,-4.06514760684081,9.02766985135535,-3.45111018061114,-0.6087272,-0.17562376,1.3460416,354.90714,-70.271706,-11.102562,JOG
29070748213000,2.509982,-4.33348513288577,8.37863168790601,-2.88107018569454,-0.63285637,-0.16615535,1.3387111,354.83194,-70.5738,-10.854824,JOG
29070753251000,2.51502,-4.5764158117287,7.74986979046303,-2.31423181900484,-0.65118235,-0.19456059,1.3356569,354.74545,-70.867485,-10.6265335,JOG
29070758265000,2.520034,-4.76192144616835,7.0621476353782,-1.92227641463173,-0.66553766,-0.3051272,1.3347405,354.68213,-71.05655,-10.44524,JOG
29070763219000,2.524988,-4.90791578682748,6.34159408898154,-1.64912532568989,-0.6728681,-0.46395215,1.3411547,354.63992,-71.24303,-10.261967,JOG
29070768210000,2.529979,-5.02786547297349,5.53416010955051,-1.48001385108809,-0.6407976,-0.6453791,1.3500122,354.63654,-71.338905,-10.11105,JOG
29070773275000,2.535044,-5.1292761780956,4.65373209244512,-1.38782247600494,-0.571159,-0.80909103,1.3448198,354.67285,-71.439354,-9.957372,JOG
29070778213000,2.539982,-5.26758603737995,3.71963117756435,-1.39267303857088,-0.47342056,-0.9166033,1.325883,354.74802,-71.48455,-9.831405,JOG
29070783209000,2.544978,-5.45139579654245,2.69029539385325,-1.50295897084134,-0.355829,-0.9297369,1.282817,354.8442,-71.54493,-9.715071,JOG
29070788242000,2.550011,-5.69958688006247,1.62121524856575,-1.62752969412806,-0.21044308,-0.8671232,1.1991285,354.9649,-71.57726,-9.64422,JOG
29070793221000,2.55499,-6.04212963904217,0.514157353191879,-1.77149687003644,-0.083383106,-0.70280045,1.0439687,355.06955,-71.61416,-9.619299,JOG
29070798212000,2.559981,-6.46908810055629,-0.427034336407606,-1.83928061263275,0.02687807,-0.4886922,0.84299403,355.17093,-71.63207,-9.684029,JOG
29070803295000,2.565064,-7.00082892031961,-1.19018097834328,-1.81958651962173,0.118202426,-0.29077184,0.60139686,355.2468,-71.64235,-9.821948,JOG
29070808266000,2.570035,-7.5737202712744,-1.72257804937494,-1.78632124009353,0.18936823,-0.16035213,0.35094208,355.31348,-71.59479,-10.100025,JOG
29070813219000,2.574988,-8.19655986536559,-2.04252986666966,-1.73939496167821,0.2751948,-0.12889257,0.09468412,355.3726,-71.5228,-10.462215,JOG
29070818210000,2.579979,-8.83147791529779,-2.29847607826262,-1.71107028829991,0.37720928,-0.21135938,-0.18173242,355.46136,-71.34009,-10.9979925,JOG
29070823584000,2.585353,-9.53684344154994,-2.37627375894387,-1.73700283047465,0.51923543,-0.34147367,-0.48563787,355.57788,-71.11495,-11.619841,JOG
29070828347000,2.590116,-10.0303186,-2.36863493323383,-1.85234499502488,0.65484756,-0.44226643,-0.78893244,355.74512,-70.74806,-12.433671,JOG
29070833268000,2.595037,-10.25540514,-2.19513080488557,-2.17121747094527,0.784351,-0.4343252,-1.0946705,355.9432,-70.3145,-13.338884,JOG
29070838295000,2.600064,-10.3385445663858,-1.98866369511846,-2.52312091582127,0.8390234,-0.25167647,-1.3558154,356.1531,-69.733025,-14.42529,JOG
29070843327000,2.605096,-10.0550258918747,-1.70897650974718,-2.94073602932104,0.82619524,0.1001819,-1.5482379,356.33047,-69.063705,-15.595346,JOG
29070848732000,2.610501,-9.7504912265861,-1.40855734501511,-3.38930711208459,0.7593055,0.5345071,-1.6578883,356.43753,-68.31828,-16.8672,JOG
29070854726000,2.616495,-8.42004109376924,-0.681034890468103,-3.88330935187347,0.6939429,0.9990701,-1.6878207,356.4384,-67.48956,-18.198423,JOG
29070858251000,2.62002,-7.56004975102431,-0.222372823543148,-4.17355652733256,0.65148777,1.2168436,-1.6975945,356.38693,-66.58006,-19.567698,JOG
29070863571000,2.62534,-6.25880467800702,0.54615542190518,-4.27490926817384,0.6478226,1.5781704,-1.6975945,356.11542,-65.72027,-20.916483,JOG
29070868384000,2.630153,-5.08118278321334,1.25030040661984,-4.32751772453029,0.752586,1.8148806,-1.6966782,355.80472,-64.81863,-22.27103,JOG
29070873257000,2.635026,-3.86222801811908,2.0454867157705,-4.06866118186032,0.8176431,1.9233092,-1.677436,355.35562,-64.093376,-23.427723,JOG
29070878310000,2.640079,-2.58115661594561,2.92279645611866,-3.60009802212608,1.0198395,1.9184223,-1.6496416,354.85065,-63.355587,-24.584858,JOG
29070883253000,2.645022,-1.46523442393474,4.29542733439287,-2.97366808298172,1.2583824,1.7986927,-1.6270396,354.28543,-62.855545,-25.46356,JOG
29070888418000,2.650187,-0.370667786657665,5.99757122121894,-2.23158906891702,1.5406022,1.5515977,-1.6187929,353.7425,-62.34458,-26.32491,JOG
29070893250000,2.655019,-0.236823317293685,7.76396662387752,-1.77688468797291,1.8286251,1.2825116,-1.6432275,353.23486,-62.05012,-26.909782,JOG
29070898509000,2.660278,-0.901626842274106,9.84487581561902,-1.50008916210805,2.0732768,1.2379184,-1.6972891,352.72134,-61.737274,-27.489294,JOG
29070903356000,2.665125,-1.51434840256696,11.7627626481672,-1.24497832090878,2.0561724,1.5699236,-1.7351627,352.23013,-61.70119,-27.714174,JOG
29070908638000,2.670407,-2.18205941586731,13.8527726026792,-0.966972242259188,1.7916678,2.1065688,-1.7782288,351.68475,-61.633602,-27.945873,JOG
29070913891000,2.67566,-2.77519658809524,15.5104641955331,-0.448714561052465,1.5057828,2.5445592,-1.9000963,351.06284,-61.516884,-28.201193,JOG
29070918500000,2.680269,-3.24486466190476,16.6637086363253,0.179059659171934,1.359786,2.8487701,-2.0894647,350.30872,-61.34987,-28.480349,JOG
29070923243000,2.685012,-3.10538848001636,17.4958147166513,1.18583829519575,1.2901474,3.0891457,-2.2794437,349.546,-61.27613,-28.62166,JOG
29070928320000,2.690089,-2.47419931628335,18.1120933909844,2.54264647176633,1.2727377,3.1951306,-2.40742,348.73727,-61.148903,-28.79822,JOG
29070968230000,2.729999,-0.317460681115903,19.3185573271032,2.41002872849133,2.7757716,-0.58093286,-1.258077,348.8724,-62.77145,-27.196817,JOG
29070973272000,2.735041,-0.0632239954501858,19.4473266260798,2.3230819880496,2.9226847,-0.20372356,-1.6423112,349.21738,-63.165794,-26.81241,JOG
29070978291000,2.74006,-0.736715906217118,19.3903594031759,2.21682845504844,2.9535334,0.3210097,-2.0118847,349.49515,-63.457127,-26.531237,JOG
29070983211000,2.74498,-1.58844243883671,19.2962460385499,2.10859813486468,2.8512135,0.7800749,-2.2867742,349.66708,-63.63556,-26.360697,JOG
29070988264000,2.750033,-1.99478601080808,19.1311853424242,2.37762612156566,2.613587,1.0137309,-2.4587326,349.70078,-63.56623,-26.43377,JOG
29070993216000,2.754985,-2.28699672806061,18.9539427581818,2.72732070524242,2.3316727,0.95203346,-2.5518897,349.68414,-116.57609,-26.57297,JOG
29070998269000,2.760038,-2.34063498570601,18.9043004780761,2.83747259549932,2.0659463,0.67164636,-2.588236,349.68298,-116.86777,-26.857225,JOG
29071003250000,2.765019,-2.34524209801043,18.8812653976241,2.89736515167085,1.9004018,0.33078352,-2.5821273,349.72272,-117.17705,-27.157654,JOG
29071008277000,2.770046,-2.16266259280832,18.9313300991666,2.60641239931642,1.8524488,0.09101892,-2.561358,349.88718,-117.54412,-27.520098,JOG
29071013307000,2.775076,-1.92358762071355,19.0035036987546,2.2094577899897,1.8548924,0.01985312,-2.5283713,350.10272,-117.902466,-27.875608,JOG
29071018281000,2.78005,-1.72757285232823,18.9766172144699,1.76131750134385,1.8649716,0.17195857,-2.4721715,350.31296,-118.254486,-28.225231,JOG
29071023241000,2.78501,-1.55465868599019,18.8949634119521,1.28340198383538,1.8493946,0.559858,-2.3600779,350.46353,-118.578415,-28.545444,JOG
29071029031000,2.7908,-1.3528092861722,18.7996457674807,0.725512700292229,1.7889189,1.0882565,-2.2165246,350.4083,-118.845,-28.800142,JOG
29071033225000,2.794994,-1.20659920278073,18.7306022094646,0.321404296979625,1.6789632,1.6588045,-2.0555615,350.2143,-119.07405,-29.012693,JOG
29071038253000,2.800022,-1.31153742452121,18.4136463527832,0.423678133241453,1.5757269,2.1267273,-1.8967366,349.7628,-119.22749,-29.133034,JOG
29071043221000,2.80499,-1.54997883866118,17.9878575416145,0.806887520877036,1.4511104,2.379931,-1.7379116,349.20636,-119.336624,-29.201397,JOG
29071048219000,2.809988,-1.83239242645946,17.4244021788161,1.43341229631939,1.3671165,2.4266622,-1.6053538,348.51956,-119.420616,-29.228802,JOG
29071053246000,2.815015,-2.1720142028218,16.6811719727022,2.37844666591351,1.3267993,2.350915,-1.5488489,347.80502,-119.48317,-29.22725,JOG
29071058234000,2.820003,-2.40578160189094,15.861454741954,3.25108125087384,1.2592987,2.0619757,-1.4608842,347.2249,-119.55956,-29.25214,JOG
29071063219000,2.824988,-2.52888253728393,14.9541552251934,4.05351709601757,1.2073752,1.6438384,-1.3939945,346.72345,-119.62403,-29.268167,JOG
29071068208000,2.829977,-2.58290135683388,14.0366015084109,4.68642134695104,1.176221,1.1722504,-1.3274102,346.52185,-119.75227,-29.39267,JOG
29071073293000,2.835062,-2.52438755358967,13.0857530967257,5.05213248993692,1.0705414,0.711658,-1.2425,346.45142,-119.845955,-29.49658,JOG
29071078212000,2.839981,-2.45571350393321,12.226721829128,5.20215718812616,0.929126,0.310625,-1.1481212,346.6323,-120.00525,-29.702406,JOG
29071083206000,2.844975,-2.36698142760668,11.4503162770872,5.03356614118738,0.7593055,0.015882496,-1.0439687,346.90643,-120.12751,-29.875954,JOG
29071088242000,2.850011,-2.27185191801435,10.662034303952,4.76437567979008,0.54305923,-0.15302174,-0.9272934,347.1797,-120.25261,-30.046314,JOG
29071093227000,2.854996,-2.1593653422941,9.86440173621077,4.17637707092214,0.28496864,-0.22540927,-0.82802784,347.50314,-120.34306,-30.184855,JOG
29071098832000,2.860601,-1.83380490236477,8.85282562869915,3.37112854554314,0.009773844,-0.21410827,-0.73548174,347.78275,-120.434265,-30.316336,JOG
29071103247000,2.865016,-1.37261974561466,7.93801552409477,2.58862590571301,-0.25900686,-0.14905111,-0.657291,348.057,-120.49353,-30.414211,JOG
29071108266000,2.870035,-0.878628860265111,6.96229791961824,1.76779932969247,-0.505491,-0.056199603,-0.57940567,348.25076,-120.567924,-30.518324,JOG
29071113288000,2.875057,-0.577718081370096,6.39617760538706,1.38528562545069,-0.68691796,0.083383106,-0.49938235,348.39658,-120.614685,-30.588837,JOG
29071118201000,2.87997,-0.261170381021691,5.87930517123454,1.08292855250862,-0.8219192,0.29657507,-0.4297437,348.3899,-120.67566,-30.663809,JOG
29071123298000,2.885067,0.139584917166025,5.46370728092439,1.00376699177985,-0.93492925,0.5525276,-0.36071593,348.31418,-120.70865,-30.7054,JOG
29071128209000,2.889978,0.540450253883632,5.07860075825916,0.999304285608545,-1.0360274,0.8026769,-0.2706133,348.10965,-120.69249,-30.692144,JOG
29071133601000,2.89537,1.02427052889534,4.70122072550361,1.20734705034198,-1.1218541,1.0122037,-0.16493362,347.8324,-59.35106,-30.648605,JOG
29071138227000,2.899996,1.44837095246321,4.35448761644274,1.40314009046705,-1.1979067,1.1633929,-0.03573562,347.47964,-59.46482,-30.532627,JOG
29071143223000,2.904992,1.96366413535935,3.83409263213905,1.72456050471316,-1.2709051,1.2180653,0.111177474,347.09033,-59.615837,-30.377195,JOG
29071148229000,2.909998,2.44862549062039,3.29795807062907,2.03647619205206,-1.3686435,1.2641857,0.18295415,346.65607,-59.822594,-30.163248,JOG
29071153252000,2.915021,2.84514673289371,2.71778479097614,2.32030201649458,-1.4114041,1.280679,0.344528,346.21353,-60.09789,-29.877995,JOG
29071158651000,2.92042,3.27366480427294,2.09035256621177,2.63365151763277,-1.5088371,1.2534955,0.57696223,345.7463,-60.437866,-29.522894,JOG
29071163217000,2.924986,3.68887754577675,1.47236141037209,3.08748867675831,-1.6581937,1.1594223,0.6469063,345.2957,-60.774944,-29.16439,JOG
29071168214000,2.929983,4.11441584724805,0.824554819426573,3.54332623990128,-1.715615,1.0054842,0.77274454,344.88977,-61.207333,-28.701094,JOG
29071173284000,2.935053,4.36607604831756,0.345202344881119,3.75104566236117,-1.8365663,0.82650065,0.8686504,344.52,-61.640957,-28.221687,JOG
29071178514000,2.940283,4.62567818867133,-0.14927762393007,3.96532033286713,-2.0140228,0.6563747,0.91599244,344.22128,-62.094204,-27.698442,JOG
29071183300000,2.945069,4.79148525399011,-0.538987377646806,3.61636412034846,-2.2379048,0.52015173,0.91751957,343.9641,-62.541393,-27.154444,JOG
29071188272000,2.950041,4.93999677642504,-0.923069046302431,3.07352872155302,-2.4501805,0.40744713,0.9059132,343.7475,-62.97173,-26.59381,JOG
29071193234000,2.955003,5.04080694366859,-1.16088234928019,1.72520859778553,-2.5857925,0.3032946,0.8921687,343.58542,-63.366924,-26.020338,JOG
29071198200000,2.959969,5.13395837504652,-1.37513050041132,0.244102121836843,-2.5964828,0.26236662,0.91446525,343.43073,-63.731735,-25.433727,JOG
29071203391000,2.96516,5.14832115066455,-1.47338066627653,-2.24440191230311,-2.42147,0.29840767,0.99173975,343.25928,-64.08564,-24.8373,JOG
29071208284000,2.970053,5.14367309185677,-1.53845009234279,-4.79605480601706,-2.0457878,0.4914411,1.1071932,343.0429,-64.44002,-24.223894,JOG
29071213705000,2.975474,4.5037415462464,-1.2128977769295,-8.44978727244705,-1.484708,0.86345804,1.2409728,342.68466,-64.878334,-23.60506,JOG
29071218223000,2.979992,3.85409762094064,-0.86871551715621,-11.6463803145073,-0.7623598,1.5482379,1.3054191,342.16803,-65.37094,-22.990723,JOG
29071223283000,2.985052,2.18696770475199,-0.0843754350463841,-13.618079085195,0.17073683,2.6367998,1.2751812,341.28473,-66.04489,-22.437105,JOG
29071228226000,2.989995,0.304913043059447,0.789435681946232,-15.110279262022,1.2110404,3.5750887,1.1133019,340.24963,-66.78888,-21.909416,JOG
29071233210000,2.994979,-1.99098041124964,1.59036166731342,-13.4121528123139,1.9874501,3.7100902,0.7996226,339.0016,-67.5631,-21.568539,JOG
29071238274000,3.000043,-4.52506348529056,2.36362970050908,-10.067535733455,2.271197,2.9434543,0.30634892,337.76578,-68.223976,-21.296293,JOG
29071243257000,3.005026,-7.1534299630485,3.4645582399958,-6.21610977535167,2.1132884,2.271808,-0.301462,336.4653,-68.42553,-21.4256,JOG
29071248380000,3.010149,-9.95005554965358,4.83454443574428,-1.86408631891665,1.6994271,0.47250426,-0.9388999,335.7458,-68.34042,-21.647396,JOG
29071253290000,3.015059,-11.7339763168514,5.79094921291555,-0.189455314207107,1.4511104,-1.5066991,-1.2293663,335.5116,-112.32407,-22.318668,JOG
29071258267000,3.020036,-13.1655288748949,6.61053996851357,0.458932194635078,0.99296147,-3.3084462,-1.7763962,335.75992,-113.28266,-23.244093,JOG
29071263256000,3.025025,-14.5022359155546,7.41986499912492,1.00808309513017,0.75441855,-4.725043,-2.2467623,336.73856,-114.855446,-24.827827,JOG
29071268213000,3.029982,-14.5437777661343,8.06376802089259,0.234361513767228,0.7351763,-5.7607646,-2.5549438,338.1721,-116.44031,-26.429186,JOG
29071273254000,3.035023,-13.8407836781504,8.41995674261216,-0.0565868909232889,0.84849185,-6.4806695,-2.6493225,340.0481,-118.185425,-28.185266,JOG
29071278216000,3.039985,-10.8212081905527,7.83786954463329,1.20581396847956,1.0977248,-6.888422,-2.615725,342.16473,-60.12717,-29.86561,JOG
29071283214000,3.044983,-7.77972526290001,7.25155922308988,2.47737372166284,1.2999213,-6.9156055,-2.463925,344.33057,-58.559856,-31.410707,JOG
29071288245000,3.050014,-4.26655518787288,6.54211227026849,3.31151179940822,1.3521502,-6.642854,-2.1707096,346.5288,-57.130062,-32.805096,JOG
29071293232000,3.055001,-0.513833217334795,5.76749186218082,3.8715414062137,1.2932017,-6.070168,-1.724778,348.62625,-55.859562,-34.033165,JOG
29071298213000,3.059982,2.68422389112641,5.93448272611904,0.60172308962125,1.2415836,-5.1902165,-1.1753048,350.60672,-55.23795,-34.582584,JOG
29071303260000,3.065029,5.78445613485883,6.34340908655189,-3.68724859175603,1.1010846,-3.9550471,-0.57910025,352.24164,-54.762375,-34.985588,JOG
29071308309000,3.070078,8.63794936807521,9.02549939183178,-7.59634691114031,0.838718,-2.1248949,-0.05467244,353.09756,-54.694122,-34.99344,JOG
29071313264000,3.075033,11.3675086953093,12.3067272405985,-11.3237065901739,0.4343252,1.1050552,0.49388456,352.9898,-54.788242,-34.893845,JOG
29071318210000,3.079979,11.0370113130894,14.1969239192757,-9.06503107846096,-0.03604105,6.010303,1.3200798,351.65137,-55.65992,-34.12255,JOG
29071323298000,3.085067,9.87444265824217,15.768459047152,-5.13159702519804,0.64721173,9.016371,2.0189097,349.87903,-56.678143,-33.221684,JOG
29071328215000,3.089984,7.959443175,16.5427003038873,0.105612683031674,1.3805555,8.434827,2.129171,347.32623,-58.284992,-31.703382,JOG
29071333216000,3.094985,5.62485135,16.9662768780337,6.13417901493213,1.2589933,5.6343155,1.7241671,344.63934,-120.12613,-30.11364,JOG
29071338252000,3.100021,3.62579483150788,16.5106454917479,9.82152179932483,0.8356637,2.6349673,1.0341948,342.56577,-118.598495,-28.530807,JOG
29071343229000,3.104998,1.7843214463991,15.7239966652288,12.5569144157914,0.4801401,1.3878858,0.63285637,340.91077,-117.15483,-27.006557,JOG
29071348212000,3.109981,0.622766795342039,15.0905229099591,13.8028344566361,0.36926803,-0.35338554,-0.03390302,340.70865,-116.1825,-26.076773,JOG
29071353899000,3.115668,-0.157403241173261,14.490800441337,14.0310470832196,0.18020524,-1.2596041,-0.33567044,340.6169,-115.265526,-25.205896,JOG
29071358298000,3.120067,-0.356476995581325,14.2136051727337,13.8922757588989,-0.034208454,-1.7510452,-0.2764165,341.02432,-114.826,-24.820038,JOG
29071363215000,3.124984,-0.308993729369769,14.0284199059695,13.5266551356257,-0.23548855,-2.3017402,0.013744468,341.6743,-65.5318,-24.457901,JOG
29071368207000,3.129976,-0.182755147960826,13.6939326511684,12.7323515493067,-0.4129449,-3.0143147,0.33383787,342.52386,-65.780556,-24.136316,JOG
29071373268000,3.135037,0.00993339987976342,13.2333598132454,11.5762200070784,-0.5500842,-3.680463,0.5852089,343.47073,-66.03558,-23.733316,JOG
29071378217000,3.139986,0.135054263936508,12.8079478209524,10.201597655873,-0.61453044,-4.067752,0.7837401,344.4686,-66.299446,-23.250368,JOG
29071383209000,3.144978,0.195762100453515,12.4046743646259,8.56248611519274,-0.7098254,-4.104709,0.99265605,345.4907,-66.57441,-22.676075,JOG
29071388239000,3.150008,0.301018093516963,12.2173232861853,6.75600581282569,-0.9221011,-3.8417315,1.2205088,346.4119,-66.8501,-22.059517,JOG
29071393227000,3.154996,0.514386421727108,12.5729375024992,4.58168054225247,-1.2293663,-3.3899968,1.4758505,347.21414,-67.12454,-21.379562,JOG
29071398206000,3.159975,0.511997019963702,13.4061911258318,2.38504191191773,-1.5992452,-2.9287934,1.7577647,347.83716,-67.420456,-20.676056,JOG
29071403250000,3.165019,0.185674936479129,14.9696149834644,0.120269078241581,-1.9285016,-2.554333,2.0335703,348.2899,-67.70655,-19.923029,JOG
29071408239000,3.170008,-0.29038999338794,16.243708420902,-1.56089763174775,-2.1053472,-2.1551325,2.2595906,348.63907,-68.11959,-19.053734,JOG
29071413216000,3.174985,-0.972443319056548,17.146841137669,-2.48284550088819,-2.0952678,-1.5732834,2.4193318,348.78323,-68.51451,-18.170074,JOG
29071418197000,3.179966,-1.58919227678571,17.862357931677,-2.73284735520186,-1.9566014,-0.8246681,2.488665,348.80945,-69.034615,-17.255222,JOG
29071423349000,3.185118,-2.12070502678571,18.298101931677,-1.90445360520186,-1.7504344,-0.09193522,2.4975226,348.66104,-69.54807,-16.367937,JOG
29071428189000,3.189958,-2.56308366233682,18.5853446283677,-0.857577733043237,-1.5296066,0.42455134,2.4565945,348.3778,-70.08045,-15.578245,JOG
29071433215000,3.194984,-2.90622260958245,18.6343654618091,0.77790258296454,-1.320996,0.655153,2.3832908,347.97318,-70.61425,-14.840494,JOG
29071438208000,3.199977,-3.22463760233958,18.6471153746238,2.37181654122901,-1.2000448,0.65026605,2.3212879,347.48438,-71.06355,-14.194472,JOG
29071443225000,3.204994,-3.43453059885448,18.4838644057858,3.82241032587127,-1.1817188,0.46395215,2.3020456,346.98956,-71.50259,-13.573318,JOG
29071448210000,3.209979,-3.62859833405476,18.2967573893518,5.18666525462612,-1.217149,0.129198,2.286163,346.466,-71.76171,-13.049575,JOG
29071453244000,3.215013,-3.70685222086354,17.9054885000541,5.93790300378747,-1.3784174,-0.27030787,2.3173172,346.01566,-71.98305,-12.5103655,JOG
29071459217000,3.220986,-3.78344940005344,17.4276341601496,6.44199286720406,-1.6190983,-0.67256266,2.38268,345.58945,-72.02254,-12.009899,JOG
29071463216000,3.224985,-3.81756154326178,17.093335641133,6.3703575516879,-1.8967366,-0.98715824,2.4804184,345.24536,-72.010605,-11.474302,JOG
29071468483000,3.230252,-3.87033754104501,16.6439771035437,6.24900660437374,-2.1682663,-1.1756102,2.5937338,344.98932,-71.889336,-10.893748,JOG
29071473257000,3.235026,-4.01629777741833,16.123384520166,5.8013945456103,-2.408947,-1.2486086,2.6939158,344.76898,-71.696396,-10.282726,JOG
29071478218000,3.239987,-4.18287112270302,15.5865074560364,5.34025337640782,-2.597399,-1.1957687,2.7629435,344.56702,-71.42869,-9.654823,JOG
29071483209000,3.244978,-4.44259098784825,15.0717904878483,4.9010912332543,-2.7302623,-1.0506883,2.809064,344.33514,-71.095505,-9.017103,JOG
29071488236000,3.250005,-4.72130671304707,14.5669655270438,4.48268102374071,-2.8432722,-0.8717047,2.8301387,344.08765,-70.709984,-8.400325,JOG
29071493226000,3.254995,-5.12579030305533,14.1674147642444,4.24590995334434,-2.9345965,-0.7458665,2.826168,343.79706,-70.273125,-7.7957287,JOG
29071498215000,3.259984,-5.5593053216937,13.8446721363761,3.98603419662726,-3.0127873,-0.7703011,2.7913487,343.52222,-69.79793,-7.2307615,JOG
29071503249000,3.265018,-6.13370313032719,13.8800194808908,3.61488495692421,-3.089451,-0.9767735,2.7091873,343.25537,-69.27883,-6.68242,JOG
29071508535000,3.270304,-6.74270433401639,13.9444542741588,3.12163196352459,-3.1584787,-1.3319917,2.581211,343.07355,-68.71089,-6.1774106,JOG
29071513218000,3.274987,-7.37150744159836,14.4184751910052,1.10462451864754,-3.1370986,-1.711339,2.4174993,342.9536,-68.13306,-5.687794,JOG
29071518213000,3.279982,-7.92389898434134,14.8635672293289,-1.0910323380116,-2.9196305,-1.8912388,2.2198844,342.94464,-67.60134,-5.2770343,JOG
29071523267000,3.285036,-7.74344710770505,14.9357481474731,-3.58928726288318,-2.4642303,-1.7455474,2.0124955,342.9555,-67.13665,-4.9147053,JOG
29071528368000,3.290137,-7.56131710716653,15.0086003167357,-6.11077487106876,-1.8048013,-1.2455542,1.820073,343.134,-66.9174,-4.643134,JOG
29071533211000,3.29498,-7.01045542765685,14.5964391677337,-7.77245581600512,-1.1676689,-0.58032197,1.6468927,343.24014,-66.81291,-4.462653,JOG
29071538219000,3.299988,-6.3093664204012,14.0028158984208,-9.23604397631242,-0.7806858,-0.2648101,1.564426,343.3111,-66.819405,-4.330811,JOG
29071543224000,3.304993,-5.77751323006352,13.4703708766005,-8.88404365067043,-0.6768387,0.19364429,1.4272866,343.34082,-67.13351,-4.3161173,JOG
29071548204000,3.309973,-5.27746078122795,12.9510857571328,-8.22051224629499,-0.63255095,0.35460728,1.3142766,343.3615,-67.533195,-4.3171325,JOG
29071553275000,3.315044,-4.96775268542006,12.6186053907462,-7.21502808473992,-0.72143185,0.23396139,1.25319,343.36444,-68.01544,-4.30356,JOG
29071558268000,3.320037,-4.69291589654181,12.3208654205384,-6.17522940157103,-0.82436264,-0.030543262,1.2379184,343.35812,-68.499466,-4.307072,JOG
29071563217000,3.324986,-4.74523482091255,11.8997285019011,-5.63369298060837,-0.8940013,-0.2929099,1.2498302,343.36414,-68.89725,-4.252192,JOG
29071568189000,3.329958,-4.88554787475285,11.4425805140684,-5.2218063565019,-0.9080512,-0.46944994,1.2522738,343.41403,-69.28133,-4.186593,JOG
29071573259000,3.335028,-5.22048433621337,10.8056513418482,-4.96217438216164,-0.90010995,-0.5842926,1.2611313,343.49228,-69.54956,-4.0608463,JOG
29071578226000,3.339995,-5.63913601051841,10.1010911615327,-4.78348195907481,-0.8671232,-0.6585127,1.2733486,343.60367,-69.82339,-3.9238212,JOG
29071583210000,3.344979,-6.03001666282421,9.32869022438637,-4.661315405555,-0.8313876,-0.7128797,1.2730432,343.73566,-70.04006,-3.7971306,JOG
29071588258000,3.350027,-6.41914908933718,8.53120855887906,-4.55082084067376,-0.76083267,-0.7507534,1.258077,343.88156,-70.277985,-3.67048,JOG
29071593221000,3.35499,-7.08433882184247,7.02770766030249,-4.36789094065999,-0.63285637,-0.7144069,1.2177598,344.02496,-70.495476,-3.603577,JOG
29071598244000,3.360013,-7.82607662831467,5.33163182106659,-4.16473974596346,-0.40133846,-0.6056729,1.1511755,344.16135,-70.76216,-3.5565932,JOG
29071603254000,3.365023,-8.32626394282834,4.32490465527074,-3.63244237281106,-0.11178834,-0.4334089,1.058324,344.27774,-71.0323,-3.5901902,JOG
29071608296000,3.370065,-8.75739148958333,3.51827928958333,-2.9973409,0.20463985,-0.29871312,0.93279123,344.38284,-71.3704,-3.6630309,JOG
29071613214000,3.374983,-9.17196738409521,2.87611419848526,-2.35108659599675,0.49571714,-0.2556471,0.7892379,344.47308,-71.67484,-3.880485,JOG
29071618213000,3.379982,-9.59066912875304,2.28906834559553,-1.68202698955009,0.7058548,-0.33933565,0.63804877,344.57294,-72.031525,-4.1425567,JOG
29071623281000,3.38505,-10.0901736340467,1.74779453842349,-1.0843419518873,0.81306165,-0.53878313,0.44806966,344.70334,-72.29724,-4.5140996,JOG
29071628220000,3.389989,-10.6598672869126,1.27983175083342,-0.590946357685773,0.84574294,-0.81122905,0.2406809,344.8924,-72.57202,-4.927055,JOG
29071633212000,3.394981,-11.1012157187027,0.909321267351551,-0.389926169850605,0.8542951,-0.9410379,-0.0143553335,345.11813,-72.69251,-5.468587,JOG
29071638245000,3.400014,-11.4567003729198,0.60396908596823,-0.385368668426626,0.8552113,-1.2012665,-0.15424347,345.46524,-72.784874,-6.0104356,JOG
29071643221000,3.40499,-11.6674459929622,0.357340282395561,-0.617104792852116,0.8533788,-1.3744467,-0.4569272,345.86768,-72.6999,-6.7414746,JOG
29071649382000,3.411151,-11.7473016251917,0.123096922194352,-1.20803693830371,0.86376345,-1.3881912,-0.9272934,346.3263,-72.54094,-7.554923,JOG
29071653296000,3.415065,-11.7086184475002,0.0156497550480884,-1.70117085973293,0.84940815,-1.319469,-1.0751228,346.8186,-72.30144,-8.412673,JOG
29071658328000,3.420097,-11.4596414389953,-0.0303152631348859,-2.59748869030284,0.8335256,-1.0387764,-1.3301591,347.30505,-71.93002,-9.448408,JOG
29071663254000,3.425023,-11.215909176695,-0.0753120198060568,-3.4749254218981,0.79901177,-0.5644395,-1.5195273,347.7238,-71.53188,-10.547555,JOG
29071668220000,3.429989,-10.5965590387053,0.128813046108024,-4.50831656860681,0.7666359,0.057421334,-1.6035212,348.03397,-71.038445,-11.723088,JOG
29071673296000,3.435065,-9.84299697260408,0.417915524996588,-5.61259326705664,0.7733554,0.7825184,-1.5922203,348.1882,-70.46156,-12.968547,JOG
29071678954000,3.440723,-8.63686495834074,0.968542884340741,-6.05922917548642,0.8191703,1.5332718,-1.4908166,348.12762,-69.96431,-14.228936,JOG
29071683221000,3.44499,-7.63594332645926,1.44075179845926,-6.20048832638025,0.895223,2.1933117,-1.3842206,347.8741,-69.40113,-15.528398,JOG
29071688238000,3.450007,-6.4543500443199,2.09018663923054,-5.69618376222357,1.0125091,2.6138923,-1.3497068,347.41025,-68.97884,-16.745735,JOG
29071693223000,3.454992,-5.27807483615066,2.77956104587499,-4.88146839420378,1.1667526,2.810591,-1.3573426,346.79388,-68.50642,-17.966537,JOG
29071698210000,3.459979,-4.30182915821794,3.33489085232547,-3.90312623926082,1.3414601,2.8389962,-1.3805555,346.05145,-68.166084,-18.99636,JOG
29071703257000,3.465026,-3.40170897506446,3.83803491490784,-2.84144619255085,1.5406022,2.7608054,-1.4236214,345.25995,-67.76679,-20.026756,JOG
29071708274000,3.470043,-2.66345748976898,4.34142843325083,-1.95901410186159,1.738217,2.6087,-1.4712689,344.4785,-67.456314,-20.838093,JOG
29071713217000,3.474986,-2.03364914158416,4.83941651485148,-1.19738530866337,1.9159788,2.402533,-1.5280794,343.72128,-67.0925,-21.644358,JOG
29071718208000,3.479977,-1.75523367938924,5.43870914987545,-0.698641254120306,2.0769417,2.2266037,-1.6374242,343.05673,-66.78116,-22.274872,JOG
29071723273000,3.485042,-1.65677959349571,6.09656124716302,-0.331676120888458,2.1606305,2.2308798,-1.8072448,342.39404,-66.40715,-22.923767,JOG
29071728213000,3.489982,-1.91484375788744,7.21544520534001,-0.221496574494777,2.067168,2.519819,-1.996613,341.79892,-66.06845,-23.44699,JOG
29071733209000,3.494978,-2.53191179519292,8.82696219681305,-0.359189449672778,1.7446312,2.7748554,-2.0726657,341.21143,-65.689125,-23.970657,JOG
29071738250000,3.500019,-3.12578020458119,10.9129106745608,-0.248772954246336,1.5714508,3.3664784,-2.2073615,340.541,-65.29808,-24.470284,JOG
29071743287000,3.505056,-3.70166305945841,13.2773072211006,0.0134175721333592,1.2647965,3.8927388,-2.356718,339.8147,-64.85961,-24.983536,JOG
29071748512000,3.510281,-3.96282477479203,15.066456482395,0.539692598029599,1.078788,4.254982,-2.4926357,338.9342,-64.40854,-25.500814,JOG
29071753255000,3.515024,-3.98918728454246,16.2747437612691,1.17678921866512,1.0076222,4.444961,-2.6025913,337.9471,-63.91948,-26.036692,JOG
29071758368000,3.520137,-3.49905965037188,17.2614003075904,2.32520859324503,1.0283916,4.4006734,-2.5885415,336.99487,-63.538635,-26.4435,JOG
29071763249000,3.525018,-2.55607561375446,17.913868417728,3.84446089536424,1.2052372,3.9251146,-2.3924537,336.1284,-63.18321,-26.813093,JOG
29071768211000,3.52998,-1.33572543215415,18.3946661450732,5.23829276600976,1.5060883,3.08884,-2.0546453,335.57236,-63.000107,-26.999475,JOG
29071773307000,3.535076,0.154564051100488,18.7231970617561,6.53336872823415,1.8576412,2.048842,-1.6142114,335.2389,-117.10483,-27.104568,JOG
29071778220000,3.539989,1.33615546103052,18.958288041445,7.12590692064781,2.2137756,1.0112875,-1.1917981,335.6644,-63.1191,-26.880384,JOG
29071783211000,3.54498,2.26418233646598,19.1099845317838,7.02775007484365,2.5259278,0.23854288,-0.9089675,336.27936,-63.386307,-26.610485,JOG
29071788232000,3.550001,2.59315840605481,19.2535946368124,6.21333875024179,2.7345383,-0.024129177,-0.8555168,337.1955,-63.893906,-26.091326,JOG
29071793219000,3.554988,1.7415123989724,19.3786951847673,4.00964479546645,2.8188376,0.172264,-1.0280862,338.1039,-64.35235,-25.617271,JOG
29071798207000,3.559976,0.970703293130272,19.3360537523867,2.66221447527908,2.8414397,0.634689,-1.3494014,338.8222,-64.848305,-25.11019,JOG
29071803251000,3.56502,0.343613757665303,18.9773679490832,2.91109820515735,2.826168,1.1859949,-1.6988163,339.3834,-65.23523,-24.716621,JOG
29071808249000,3.570018,-0.277756880370763,18.6219532692832,3.15771217857756,2.776077,1.6545285,-2.006387,339.29837,-65.4174,-24.561525,JOG
29071813217000,3.574986,-0.895397802692327,18.2686719308986,3.40284587604688,2.6465738,1.9068159,-2.228131,339.116,-65.49375,-24.501345,JOG
29071818595000,3.580364,-1.39700029623266,17.9063930276578,3.54272145746577,2.4349089,1.8704693,-2.38268,338.87302,-114.52625,-24.526249,JOG
29071823303000,3.585072,-1.64557663981439,17.6122449052651,3.52200677658734,2.1988094,1.5567901,-2.4877486,338.6468,-114.61463,-24.610235,JOG
29071828210000,3.589979,-1.88173294017749,17.4248281875759,3.37720157234937,2.0442605,1.3420709,-2.574186,338.64932,-114.939255,-24.930408,JOG
29071833210000,3.594979,-2.03828982948155,17.6708459362915,2.77781250182158,1.9559906,0.9080512,-2.6032023,338.81473,-115.2751,-25.263803,JOG
29071838252000,3.600021,-2.17204335269956,17.9342771560449,2.14071948212577,1.9550742,0.5946773,-2.631913,339.0109,-115.6959,-25.682882,JOG
29071843223000,3.604992,-2.03092789297057,18.3677035191616,1.14283161689604,1.9685133,0.49449542,-2.6196957,339.26752,-116.10625,-26.09267,JOG
29071848214000,3.609983,-1.89561894378417,18.7566149633414,0.258487096287532,2.019826,0.6704246,-2.5292876,339.34668,-116.501205,-26.479803,JOG
29071853248000,3.615017,-1.78759337357713,18.9424186084073,-0.10879980180873,2.0228803,1.0931433,-2.3619106,339.3777,-116.86624,-26.83483,JOG
29071858642000,3.620411,-1.67533537912343,19.1187086782954,-0.462568864644513,2.006387,1.6392568,-2.1740694,339.09247,-117.1626,-27.102814,JOG
29071863216000,3.624985,-1.66082739645617,18.7415016339148,0.156436670517774,1.9370537,2.1621575,-1.994475,338.68805,-117.41682,-27.317259,JOG
29071868211000,3.62998,-1.6170059024361,18.273361110024,0.917971724041534,1.8115209,2.4740043,-1.8683313,338.10178,-117.61625,-27.45671,JOG
29071873311000,3.63508,-1.3975693389377,17.4443794307109,2.2297151465655,1.6627752,2.4468207,-1.7925841,337.47232,-117.784195,-27.553053,JOG
29071878215000,3.639984,-1.15825679224236,16.6197195175538,3.4308179497735,1.5491543,2.0662518,-1.7427986,336.93637,-117.95189,-27.65623,JOG
29071883208000,3.644977,-0.738571930164213,15.6088650858815,4.27921295023594,1.4517213,1.389413,-1.690875,336.52026,-118.09393,-27.741707,JOG
29071888519000,3.650288,-0.298855302264891,14.5150518758129,5.1128341748116,1.395827,0.6093381,-1.6126842,336.4845,-118.24715,-27.893095,JOG
29071893225000,3.654994,0.0175124971859192,13.3426297290183,5.09887668502116,1.317331,-0.11728613,-1.4953982,336.6455,-118.3651,-28.027384,JOG
29071898228000,3.659997,0.330006549925332,12.1166113988345,5.04646053014023,1.2247849,-0.68203104,-1.3402383,336.98193,-118.46433,-28.162361,JOG
29071903253000,3.665022,0.382590900817702,11.1087447420324,4.58196544431797,1.0705414,-1.0268645,-1.1780536,337.4656,-118.519394,-28.264156,JOG
29071908254000,3.670023,0.434924102571481,10.1056917767256,4.11968884248771,0.89736104,-1.174083,-0.9975429,337.9882,-118.56635,-28.356014,JOG
29071913217000,3.674986,0.345570416332722,9.16510410751374,3.65144369266952,0.70554936,-1.2290609,-0.8378017,338.5721,-118.56448,-28.402,JOG
29071918224000,3.679993,0.238166269704744,8.22287663164325,3.17788915693341,0.46181414,-1.2379184,-0.6918049,339.16647,-118.50786,-28.392376,JOG
29071924625000,3.686394,0.125282824902141,7.32438449962729,2.57986771472668,0.20586158,-1.1963795,-0.5742133,339.67764,-118.480286,-28.400702,JOG
29071928218000,3.689987,0.0628038622201835,6.83112977505734,2.24445433170872,-0.059864793,-1.1508701,-0.46089783,340.17032,-118.40626,-28.359186,JOG
29071933250000,3.695019,0.102180169950131,6.26733759022994,1.79204201414573,-0.18692477,-1.0250319,-0.41416663,340.55594,-118.388245,-28.36197,JOG
29071938238000,3.700007,0.167064965373047,5.73435519934996,1.3471176891239,-0.42180246,-0.8359691,-0.3268129,340.8892,-118.32095,-28.311459,JOG
29071943293000,3.705062,0.290753415946411,5.28562643051759,1.17245551497902,-0.6123924,-0.57757306,-0.22082779,341.09802,-118.29382,-28.291761,JOG
29071948262000,3.710031,0.429013726193909,4.87084561206284,1.0802819819434,-0.786489,-0.26511553,-0.12217305,341.21536,-61.758034,-28.241892,JOG
29071953307000,3.715076,0.6978671515006,4.48578065646258,1.0326712365046,-0.9431759,0.03359759,-0.0009162979,341.21442,-61.836952,-28.160225,JOG
29071958298000,3.720067,0.97520557755102,4.1080264659864,0.989635944557823,-1.07665,0.30451632,0.118202426,341.11505,-61.943264,-28.047325,JOG
29071963398000,3.725167,1.44707126130252,3.71029787795343,1.01752031273305,-1.1777482,0.49174652,0.26175576,340.92865,-62.089806,-27.891333,JOG
29071968195000,3.729964,1.90493137221411,3.33532633310422,1.0490968877395,-1.2797627,0.59956425,0.43279803,340.67664,-62.27681,-27.691177,JOG
29071973304000,3.735073,2.48191351492221,2.84051710304102,1.15931349507603,-1.3674219,0.65087694,0.63804877,340.39307,-62.537838,-27.413198,JOG
29071978299000,3.740068,3.10777535756719,2.29077354964639,1.32000779374116,-1.4446963,0.6420194,0.88789266,340.08972,-62.85668,-27.072163,JOG
29071983192000,3.744961,3.69759388363486,1.72542271209295,1.52919597791701,-1.5305228,0.5513059,1.1609493,339.8108,-63.293358,-26.604282,JOG
29071988318000,3.750087,4.26386850614108,1.07359582170954,1.86325722775934,-1.6087136,0.38240165,1.4141531,339.55344,-63.788715,-26.067717,JOG
29071993399000,3.755168,4.82517193121992,0.427491172853112,2.19438582909544,-1.7391334,0.19120082,1.6670512,339.3353,-64.40944,-25.385683,JOG
29071998262000,3.760031,5.10433104985413,-0.497321741848292,2.83823886044277,-1.9547688,0.031154128,1.8771889,339.15158,-65.07275,-24.637653,JOG
29072003989000,3.765758,5.41494192706367,-1.60799136414622,3.61947262138322,-2.2525656,-0.054061573,1.9807305,339.00674,-65.79099,-23.791014,JOG
29072008244000,3.770013,5.33271824375327,-1.74189146875065,3.28504608200732,-2.5940392,-0.06078109,1.9740111,338.87592,-66.496414,-22.908417,JOG
29072013229000,3.774998,5.06818725133299,-1.5272718702666,2.40161193898589,-2.8298333,-0.036651913,1.9727893,338.74814,-67.18277,-21.987999,JOG
29072018238000,3.780007,4.65850308489317,-1.31745697540375,0.67007680064199,-2.8325822,-0.005192355,2.0314324,338.6432,-67.786,-21.054058,JOG
29072023236000,3.785005,4.17836584559133,-1.11099801314074,-1.47613669463336,-2.5647178,0.02687807,2.1584923,338.51135,-68.34619,-20.095135,JOG
29072028244000,3.790013,3.60972732080409,-0.702802657002306,-4.32429631132946,-2.068695,0.18020524,2.225993,338.30322,-68.87733,-19.174532,JOG
29072033253000,3.795022,2.99891733579306,-0.197802261177461,-7.50820373274514,-1.7721201,0.45570546,2.363743,338.02798,-69.41127,-18.200459,JOG
29072038264000,3.800033,1.29740182667457,0.759792222683017,-9.13993291553053,-1.0650436,0.94897914,2.4862216,337.59634,-70.09574,-17.324545,JOG
29072053305000,3.815074,-5.31994719673977,4.26058365536959,-11.8864875730093,2.3967297,5.0949216,2.17804,334.60233,-73.01076,-15.159485,JOG
29072058481000,3.82025,-8.13689518322307,5.49386074507752,-8.17609504511504,3.2195654,4.6312747,1.611768,333.33163,-74.00432,-14.898452,JOG
29072063252000,3.825021,-10.9928610575491,6.64436838551397,-2.51830476652711,3.0705142,3.0799825,0.88056225,332.07935,-74.76756,-14.740341,JOG
29072068242000,3.830011,-13.2624700642626,7.79552200783139,1.33306948592513,2.2766948,0.95081174,0.099265605,331.2352,-74.735435,-15.134041,JOG
29072074072000,3.835841,-15.3746469267957,9.10123136707281,4.27914443425961,1.1429288,-1.2177598,-0.6160576,330.85928,-74.31604,-15.678019,JOG
29072078261000,3.84003,-15.974745283293,9.46992599576271,3.99342215211864,0.16676621,-2.925739,-1.2754866,331.0694,-72.88713,-17.111332,JOG
29072083282000,3.845051,-16.1930493668281,9.60090814194915,2.33916115402542,-0.25381452,-3.997502,-1.8414533,331.76212,-71.387344,-18.610052,JOG
29072088271000,3.85004,-15.6726259501622,9.47972241433206,1.60309987744028,-0.12767084,-4.5940123,-2.2751677,332.99863,-69.80015,-20.18063,JOG
29072093227000,3.854996,-14.6602013308758,9.1904582373931,1.48179557817753,0.19303341,-5.1187453,-2.549446,334.55307,-68.18796,-21.75248,JOG
29072098216000,3.859985,-13.0883329090381,8.61097126736414,2.0132975688172,0.49327368,-5.7021217,-2.6154196,336.24738,-66.5133,-23.385424,JOG
29072103252000,3.865021,-11.0466800654848,7.78870364671123,3.0878518125448,0.6722572,-6.0949078,-2.499355,338.05408,-64.91564,-24.933788,JOG
29072108257000,3.870026,-8.4852002957243,6.71884239707712,4.02605386588328,0.7351763,-6.306878,-2.2110267,339.96506,-63.544888,-26.245857,JOG
29072113224000,3.874993,-5.39917518982917,5.39894452168461,4.8245687382443,0.77457714,-6.4348545,-1.8044959,341.9708,-62.302647,-27.4206,JOG
29072118206000,3.879975,-2.15068796403785,4.29424634637224,4.95093727791798,0.8374963,-6.3493333,-1.2638801,344.02744,-61.45175,-28.16161,JOG
29072123251000,3.88502,1.32147559471609,3.4369219040418,4.27460360313486,0.799928,-6.208529,-0.64476824,346.0889,-60.753,-28.728582,JOG
29072128254000,3.890023,5.00427785960615,3.46311577265602,1.38246138152248,0.6386596,-5.6618047,-0.32650748,347.96136,-60.410877,-28.889072,JOG
29072133246000,3.895015,8.98549728878221,4.61064373958068,-4.34581083574018,0.5503896,-4.1703773,0.26939157,349.42633,-60.317314,-28.818161,JOG
29072138264000,3.900033,11.7653666547397,6.69713595833742,-8.96090576672875,0.37812558,1.430341,0.99296147,349.28586,-60.68629,-28.417942,JOG
29072143345000,3.905114,12.7050757137536,10.241318000098,-11.8802048014901,0.82924956,8.917411,2.1096232,348.00787,-61.359615,-27.863422,JOG
29072148251000,3.91002,12.406757205805,13.0627997191545,-10.6846189236448,1.9865338,9.963212,2.8646526,346.778,-62.810673,-26.64009,JOG
29072153328000,3.915097,9.9088110782767,14.8920041049757,-2.15816351395631,2.3124304,9.776593,2.7864618,343.59045,-64.29075,-25.468798,JOG
29072158323000,3.920092,7.0480061769074,16.0713705430984,4.51423177256843,1.6630806,4.8847837,2.0412061,341.42444,-66.07007,-23.864943,JOG
29072163392000,3.925161,3.5138740368278,16.2975551094933,8.59968782760629,0.906524,-0.14721853,0.9334021,339.467,-67.622025,-22.377886,JOG
29072168203000,3.929972,0.400598055644444,16.3091068925432,11.8013232102716,0.43799037,-2.771801,-0.355829,338.65485,-111.19466,-21.194376,JOG
29072173305000,3.935074,-2.35973949866667,15.8651366474074,13.6785457837037,0.057421334,-3.1850514,-1.3842206,338.71786,-69.69873,-20.300243,JOG
29072178191000,3.93996,-4.29825920721395,15.5463871874446,14.889968465852,-0.44990227,-2.5042422,-1.8542814,339.2906,-69.80665,-20.149319,JOG
29072183253000,3.945022,-4.49891604911797,15.4890569319996,14.6415361117572,-0.86193085,-1.9315559,-1.7852536,339.9842,-69.705765,-20.141045,JOG
29072188254000,3.950023,-4.44782345224285,15.3381268658304,14.0925332527346,-1.0906999,-2.2198844,-1.3264939,340.9067,-69.27878,-20.363075,JOG
29072193282000,3.955051,-3.6988433386854,14.9225632965379,12.6912150203211,-1.2186762,-3.2241468,-0.69058317,341.84967,-68.866905,-20.48037,JOG
29072198234000,3.960003,-2.87555669456746,14.6401656382246,10.9477875414821,-1.2739595,-4.280944,-0.0143553335,342.873,-68.53853,-20.434383,JOG
29072203248000,3.965017,-1.80754242258636,14.7015998447003,8.18796321612046,-1.207986,-4.8765373,0.59773165,344.00674,-68.32406,-20.18715,JOG
29072208277000,3.970046,-0.746952382088952,14.8622275895552,5.37898332167438,-1.1194105,-4.822476,1.1823297,345.11346,-68.30944,-19.705229,JOG
29072213326000,3.975095,0.284532712195613,15.3341810609781,2.43049291161199,-1.0937542,-4.2131376,1.6875153,346.15436,-68.38621,-19.069895,JOG
29072218217000,3.979986,1.19371192920689,15.7528686584735,-0.107165129037715,-1.1206323,-3.74888,2.122146,346.94946,-68.722595,-18.28015,JOG
29072223266000,3.985035,1.85292206079212,16.0656323272963,-1.73834911127475,-1.20371,-2.681393,2.4581218,347.3216,-69.11428,-17.46189,JOG
29072228260000,3.990029,2.36989479059244,16.3861741726167,-2.94463802457545,-1.2519683,-1.577254,2.5909848,347.65466,-69.74682,-16.46167,JOG
29072233250000,3.995019,2.46672539393091,16.7412205687958,-2.8846952884697,-1.4040737,-0.5946773,2.7895162,347.67932,-70.397,-15.430622,JOG
29072238254000,4.000023,2.4552750405694,17.1111934458566,-2.60434632221149,-1.5522085,0.21563543,2.9303205,347.48907,-71.15212,-14.360679,JOG
29072243309000,4.005078,1.9039781797153,17.554199562786,-1.22610399532283,-1.7122552,0.79076505,2.9932396,347.08603,-71.860245,-13.323773,JOG
29072248240000,4.010009,1.33637318068057,17.9402379039045,0.179764178099219,-1.8377881,1.1233811,2.9813278,346.52634,-72.52692,-12.301571,JOG
29072253300000,4.015069,0.632977198997519,18.149475528158,1.87147605137437,-1.9517145,1.2250903,2.9239066,345.87878,-73.1165,-11.316124,JOG
29072258410000,4.020179,-0.0914992623583098,18.3440046386648,3.56954507966922,-2.022575,1.1844677,2.840218,345.13306,-73.513664,-10.443092,JOG
29072263258000,4.025027,-1.00920384391378,18.2550436431021,5.01165220221864,-2.071444,1.0143417,2.7220156,344.40616,-73.81922,-9.614092,JOG
29072268425000,4.030194,-1.99203508010051,18.1344926195032,6.48661255610322,-2.103209,0.7791586,2.5842655,343.55103,-73.868866,-8.980523,JOG
29072273327000,4.035096,-2.98112555339712,17.712541611095,7.14449392983473,-2.1352794,0.5714644,2.3823745,342.75543,-73.83941,-8.396583,JOG
29072278594000,4.040363,-4.03674373243243,17.2467656824324,7.82636543660572,-2.207667,0.46761733,2.1771238,342.01184,-73.59548,-7.930947,JOG
29072283260000,4.045029,-4.81376514594595,16.5585464459459,7.87520682869634,-2.3490822,0.40622538,1.964848,341.33142,-73.27714,-7.514003,JOG
29072288631000,4.0504,-5.70351404772535,15.7425876936046,7.90986419040219,-2.5540276,0.32895094,1.813048,340.80917,-72.79431,-7.17637,JOG
29072293251000,4.05502,-6.34945466767448,14.4340372047659,7.38894441701987,-2.777299,0.13439035,1.7153096,340.34436,-72.24561,-6.869714,JOG
29072298241000,4.06001,-7.04712646281435,13.0206893824056,6.8263059604879,-2.9886582,-0.21105394,1.6539177,340.0385,-71.58011,-6.6283383,JOG
29072303285000,4.065054,-7.27621018181141,12.4166922623928,6.07849528915393,-3.1477885,-0.67103547,1.6200147,339.81464,-70.865,-6.3805585,JOG
29072308253000,4.070022,-7.4092073654864,11.9822343667536,5.30711066097652,-3.2284229,-1.1731668,1.6016886,339.69,-70.115265,-6.11122,JOG
29072313261000,4.07503,-7.53369835284683,11.7536144105854,4.18693833440257,-3.220787,-1.6151277,1.5937474,339.71924,-69.33064,-5.890482,JOG
29072318210000,4.079979,-7.65247256692061,11.6205877115076,2.92793297489976,-3.1309898,-1.8005253,1.5839735,339.80182,-68.55406,-5.653229,JOG
29072323337000,4.085106,-7.51424789227973,12.1028861589974,1.40429170291782,-3.0775392,-2.1053472,1.5720617,340.00998,-67.84253,-5.404441,JOG
29072328343000,4.090112,-7.26658307021908,12.8412939070123,-0.178011558385153,-2.9294043,-2.2904391,1.5607607,340.22202,-67.19349,-5.152396,JOG
29072333249000,4.095018,-6.53919322076432,13.7972763121134,-2.25082871171423,-2.771801,-2.3130412,1.5781704,340.44623,-66.72376,-4.925412,JOG
29072338289000,4.100058,-5.47964767935542,14.9290635801237,-4.71667974025145,-2.5980098,-2.1099286,1.6093245,340.65088,-66.31212,-4.7064056,JOG
29072343255000,4.105024,-4.16547703769401,15.595180059339,-6.77681277005596,-2.400395,-1.6368134,1.638646,340.90387,-66.08242,-4.481087,JOG
29072348256000,4.110025,-2.66358691929047,15.9693880292472,-8.60739917100623,-2.165212,-0.93828905,1.6606371,341.03342,-65.918686,-4.3057775,JOG
29072353325000,4.115094,-1.60108759366947,15.7421041092618,-9.05139105149794,-1.8933768,-0.17256944,1.6621643,341.20898,-65.97552,-4.059042,JOG
29072358321000,4.12009,-0.739171222010965,15.2736716361856,-8.92023015468964,-1.6200147,0.4596761,1.6392568,341.22705,-66.10004,-3.8791828,JOG
29072363815000,4.125584,-0.311037992003323,14.672206224763,-8.1634609211375,-1.3652838,0.7779369,1.6001616,341.16284,-66.442116,-3.6194363,JOG
29072368252000,4.130021,-0.140786455996287,14.157299160559,-7.34542302931692,-1.1997393,0.7651087,1.5378532,341.0146,-66.82961,-3.4028225,JOG
29072373301000,4.13507,-0.222931841775954,13.5864899024927,-6.61932132275503,-1.0946705,0.50732356,1.4947872,340.83612,-67.23983,-3.106041,JOG
29072378258000,4.140027,-0.470059282976274,13.0352054025428,-6.03001744168586,-1.0173961,0.13805555,1.4679092,340.6907,-67.68288,-2.8062685,JOG
29072383246000,4.145015,-0.89276236165,12.4660881181,-5.6972539505,-0.9596693,-0.22510384,1.4416419,340.59595,-68.03892,-2.4624817,JOG
29072388277000,4.150046,-1.4275704907,11.8830993598,-5.523802679,-0.9236283,-0.5213735,1.4175128,340.5837,-68.4066,-2.0950127,JOG
29072393251000,4.15502,-1.98011872577031,11.2237340572229,-5.40848548203281,-0.9056077,-0.72143185,1.3921618,340.637,-68.70317,-1.7319564,JOG
29072398322000,4.160091,-2.55826137612045,10.4998406903762,-5.32589367483994,-0.8970556,-0.8176431,1.3603969,340.74545,-69.004166,-1.3613888,JOG
29072403284000,4.165053,-3.08688757657247,9.82838739243391,-5.23049922593437,-0.9053023,-0.8765916,1.3423764,340.899,-69.264305,-1.0399601,JOG
29072408306000,4.170075,-3.59983960074749,9.1707567213309,-5.12527816290793,-0.93859446,-0.9654725,1.3429873,341.0883,-69.51907,-0.71458775,JOG
29072413250000,4.175019,-4.17219733992956,8.43685367723343,-5.02060174691002,-0.9633345,-1.1133019,1.3469579,341.31128,-69.737564,-0.4522785,JOG
29072418247000,4.180016,-4.84132353437934,7.57873773198847,-4.91333740042694,-0.945314,-1.1972959,1.3707817,341.5396,-69.96092,-0.18790908,JOG
29072423312000,4.185081,-5.53128197820714,6.68999135390349,-4.90466459945076,-0.9193522,-1.357648,1.3698653,341.82916,-70.14211,0.020534966,JOG
29072428218000,4.189987,-6.20866734248725,5.81445926088662,-4.97378550098078,-0.8127562,-1.4175128,1.3588698,342.1137,-70.355286,0.22412983,JOG
29072433826000,4.195595,-7.00844552065344,4.75718102462077,-4.94450429206534,-0.6056729,-1.2959507,1.2614367,342.39813,-70.56769,0.31779492,JOG
29072438287000,4.200056,-7.66065998742707,3.88063785930572,-4.85311118124271,-0.11484267,-1.2012665,1.2055426,342.704,-70.89637,0.4201082,JOG
