timestamp,rel_time,acc_x,acc_y,acc_z,gyro_x,gyro_y,gyro_z,azimuth,pitch,roll,label
130774788863000,0,1.55739559838409,9.79920887701988,-0.447906742636798,-0.09040806,-0.014966198,0.03726278,64.99555,-98.15882,7.5684147,STD
130774793912000,0.005049,1.55642196106821,9.80042592366474,-0.43573626754664,-0.077579886,-0.013744468,0.028099801,64.976654,-98.138626,7.5302143,STD
130774798837000,0.009974,1.55547223562144,9.80161308047319,-0.42386469103267,-0.077579886,-0.008857546,0.040317107,64.9561,-98.12503,7.5006523,STD
130774803835000,0.014972,1.55450843302592,9.80281783371759,-0.411817150034332,-0.062002823,-0.01160644,0.041233405,64.93732,-98.1105,7.4667115,STD
130774808849000,0.019986,1.55354154502794,9.80402644371508,-0.399731041477775,-0.05955936,0.0021380284,0.03726278,64.912735,-98.097664,7.43661,STD
130774813853000,0.02499,1.55257658540649,9.80523264324188,-0.387669037645104,-0.049480084,0.008857546,0.03634648,64.89126,-98.08964,7.4088583,STD
130774818798000,0.029935,1.55162300320664,9.80642462099169,-0.375749251683363,-0.049785517,0.0061086523,0.03145956,64.8687,-98.07978,7.3802586,STD
130774823828000,0.034965,1.561033750138,9.80097367192062,-0.401681404455647,-0.05100725,-0.005497787,0.035124753,64.847206,-98.07409,7.355146,STD
130774829240000,0.040377,1.57370939442296,9.7934717701952,-0.438932279032926,-0.059253927,-0.011911872,0.0290161,64.825066,-98.0648,7.3272095,STD
130774833844000,0.044981,1.58449259218495,9.78708988631792,-0.470621677878786,-0.063224554,-0.011301007,0.035124753,64.81789,-98.01317,7.2661443,STD
130774838830000,0.049967,1.59617048619913,9.78017848905204,-0.504940388270936,-0.058948494,-0.007941248,0.040011674,64.81197,-97.96164,7.2052207,STD
130774843861000,0.054998,1.60795377636868,9.77320471455452,-0.539568834316445,-0.059864793,-0.0012217305,0.040317107,64.80525,-97.9112,7.146862,STD
130774848834000,0.059971,1.61960122260465,9.76631133737778,-0.573798065519847,-0.067500606,0.0018325958,0.041233405,64.79903,-97.86359,7.09203,STD
130774853848000,0.064985,1.63134469644884,9.75936112761221,-0.608309500318531,-0.0720821,0.00061086525,0.038179077,64.79237,-97.81699,7.038182,STD
130774858879000,0.070016,1.64312798661839,9.75238735311469,-0.64293794636404,-0.057421334,0.019242255,0.04184427,64.77961,-97.775505,6.98884,STD
130774863848000,0.074985,1.65476606430721,9.74549952058076,-0.677139645509366,-0.04917465,0.014966198,0.04062254,64.77401,-97.73224,6.9387,STD
130774868841000,0.079978,1.6664603532789,9.73857842018996,-0.711506537003149,-0.06414085,0.015882496,0.036957346,64.76198,-97.68977,6.8911295,STD
130774873823000,0.08496,1.67812887874594,9.73167256756689,-0.745797715337223,-0.047647487,0.015271631,0.035124753,64.752,-97.654015,6.8454156,STD
130774878851000,0.089988,1.68990514250513,9.72470295155148,-0.780405512339175,-0.047036625,0.004276057,0.03145956,64.745026,-97.614426,6.799701,STD
130774883841000,0.094978,1.70159240506646,9.71778600964279,-0.814751754789401,-0.047036625,-0.0067195175,0.025045475,64.7385,-97.577156,6.7543817,STD
130774888821000,0.099958,1.71325624625993,9.71088292934112,-0.849029167094436,-0.030543262,-0.014660766,0.02076942,64.7345,-97.54312,6.7101684,STD
130774893907000,0.105044,1.72516835395269,9.70383291600493,-0.884036178938495,-0.043066,-0.018936822,0.018325957,64.73269,-97.50553,6.6662016,STD
130774898817000,0.109954,1.73666824557116,9.69702686695249,-0.917831780227194,-0.054367006,-0.02687807,0.016493361,64.73423,-97.470634,6.622663,STD
130774903869000,0.115006,1.74850072061321,9.6900239830802,-0.952604769577604,-0.04184427,-0.029932396,0.015577064,64.73568,-97.43817,6.580324,STD
130774908913000,0.12005,1.76031445856097,9.68303218849354,-0.987322694811861,-0.05589417,-0.01863139,0.020158553,64.735405,-97.40286,6.540708,STD
130774913878000,0.125015,1.77194316770265,9.67614990060243,-1.02149686189911,-0.054367006,-0.012217305,0.01863139,64.73729,-97.37073,6.50049,STD
130774918876000,0.130013,1.78364916735827,9.66922186940811,-1.05589816846549,-0.054061573,-0.004581489,0.021685716,64.73584,-97.34003,6.4645424,STD
130774924193000,0.13533,1.79610230864856,9.66185165294949,-1.09249515666346,-0.03604105,-0.018020526,0.01740966,64.73858,-97.310844,6.427215,STD
130774928903000,0.14004,1.80713377290986,9.65532283603767,-1.12491415504834,-0.0125227375,-0.016798794,0.014660766,64.735176,-97.28473,6.3929124,STD
130774933878000,0.145015,1.8187859034194,9.64842668653953,-1.15915715228078,-0.0030543262,-0.02565634,0.013133603,64.73852,-97.259445,6.3586745,STD
130774938864000,0.150001,1.83046379743358,9.64151528927365,-1.19347586267293,0.022296581,-0.021991149,0.009773844,64.73783,-97.23948,6.3247266,STD
130774943900000,0.155037,1.84225879828706,9.63453458397261,-1.22813872379103,0.04428773,-0.020463986,-0.0012217305,64.74005,-97.21908,6.289295,STD
130774948887000,0.160024,1.85393903443803,9.62762180054603,-1.2624643171977,0.0842994,-0.0015271631,-0.006414085,64.73617,-97.20638,6.2562838,STD
130774953866000,0.165003,1.86560053349471,9.62072010640507,-1.29673484648822,0.109650314,-0.0030543262,-0.01038471,64.7374,-97.19338,6.2215886,STD
130774958890000,0.170027,1.87736742870676,9.61375603503247,-1.33131511143209,0.12217305,-0.013439035,-0.01038471,64.73562,-97.185036,6.1882167,STD
130774963880000,0.175017,1.88905469126809,9.60683909312377,-1.36566135388232,0.14110987,-0.029932396,-0.01160644,64.73579,-97.18112,6.1547394,STD
130774968843000,0.17998,1.9006787161362,9.59995957755407,-1.39982175494053,0.15271631,-0.0571159,-0.016187929,64.7417,-97.178185,6.1213813,STD
130774973877000,0.185014,1.9124690327161,9.59298164457443,-1.4344708500296,0.17470746,-0.08246681,-0.0036651916,64.75176,-97.18446,6.0937214,STD
130774978882000,0.190019,1.92419142732922,9.5860439102552,-1.46892033769761,0.172264,-0.09865474,0.00030543262,64.76617,-97.18648,6.063401,STD
130774983876000,0.195013,1.93588805843769,9.57912142370369,-1.50329411220591,0.16462818,-0.10415252,0.01160644,64.78439,-97.196465,6.0397463,STD
130774988869000,0.200006,1.94758234740937,9.57220032331289,-1.5376610036997,0.13041973,-0.06963864,0.025961773,64.795044,-97.20407,6.019759,STD
130774993989000,0.205126,1.95957408775286,9.56510318051279,-1.5729020380374,0.07880162,-0.028099801,0.040011674,64.804634,-97.21058,6.0039806,STD
130774998869000,0.210006,1.97100371526775,9.55833871628144,-1.60649114889053,0.01863139,0.009773844,0.05009095,64.80502,-97.212944,5.992631,STD
130775003875000,0.215012,1.98272845201765,9.5513995958015,-1.64094751957306,-0.016493361,0.06078109,0.058337633,64.78979,-97.21417,5.9864902,STD
130775008977000,0.220114,1.99467803389899,9.54432740389405,-1.67606465964943,-0.038179077,0.093767814,0.058948494,64.769135,-97.20884,5.981895,STD
130775013877000,0.225014,2.00615450414959,9.53753521644864,-1.70979143079293,-0.0693332,0.11056661,0.07086037,64.7395,-97.20149,5.9839067,STD
130775018867000,0.230004,2.01784176671092,9.53061827453995,-1.74413767324316,-0.08857546,0.118507855,0.06811147,64.70354,-97.18981,5.9826684,STD
130775023872000,0.235009,2.01599479277159,9.53562769708522,-1.73968983687249,-0.11209377,0.10934488,0.086437434,64.66934,-97.181015,5.9909716,STD
130775028883000,0.24002,2.00975236505568,9.54451115480443,-1.72264321100471,-0.14782938,0.0983493,0.106901415,64.63445,-97.16787,5.9993434,STD
130775033875000,0.245012,2.00353360649296,9.55336092948699,-1.70566122011827,-0.16371189,0.10598512,0.12675454,64.54383,-97.2589,6.0380483,STD
130775038870000,0.250007,1.99731111069552,9.56221602254375,-1.68866902370846,-0.1563815,0.12736541,0.14630222,64.45371,-97.35217,6.082256,STD
130775043968000,0.255105,1.99096030317294,9.571253713115,-1.67132643766297,-0.096516706,0.14752395,0.12675454,64.36228,-97.44612,6.120567,STD
130775048897000,0.260034,1.98482002653919,9.57999180193918,-1.65455876276729,0.003970624,0.14019357,0.09285152,64.27374,-97.5485,6.1595445,STD
130775053880000,0.265017,1.97861247968061,9.58882562149912,-1.63760738845096,0.13103059,0.13194689,0.065973446,64.180435,-97.662,6.1950016,STD
130775058873000,0.27001,1.97239247537298,9.59767716897307,-1.62062199572339,0.1908954,0.13469578,0.022907447,64.08572,-97.76971,6.216551,STD
130775063857000,0.274994,1.96618368276949,9.60651276132441,-1.60366721956594,0.2724459,0.16218472,0.004886922,63.986702,-97.903145,6.2387595,STD
130775068844000,0.279981,1.95997115293129,9.61535367204995,-1.58670223788511,0.3145956,0.21594086,0.003970624,63.879143,-98.03552,6.255571,STD
130775073821000,0.284958,1.95377108054213,9.62417685486147,-1.56977127461552,0.31337386,0.27000242,0.009773844,63.763798,-98.17341,6.2714524,STD
130775078850000,0.289987,1.94750622941794,9.63309222282592,-1.55266341560752,0.31123585,0.28863382,-0.008857546,63.643238,-98.31452,6.2822275,STD
130775084422000,0.295559,1.94056493881067,9.64297021652208,-1.53370835686969,0.3118467,0.25625798,-0.0012217305,63.52377,-98.46396,6.3037076,STD
130775088827000,0.299964,1.93507743250683,9.65077936265122,-1.5187232467225,0.33292156,0.18753563,0.0033597588,63.410072,-98.613235,6.3200502,STD
130775093883000,0.30502,1.92877894627022,9.65974259598355,-1.50152353800418,0.38637227,0.10903945,0.005192355,63.30962,-98.77073,6.3379326,STD
130775098843000,0.30998,1.92260005154444,9.66853564134122,-1.48465040603368,0.40500367,0.043066,0.008246681,63.226032,-98.92701,6.3570256,STD
130775103839000,0.314976,1.9163763100021,9.67739250718938,-1.46765480778275,0.40317106,0.010079277,-0.0027488936,63.15506,-99.08717,6.372457,STD
130775108900000,0.320037,1.91007159504098,9.68636460447873,-1.45043808985881,0.36285394,0.014049901,-0.016493361,63.091908,-99.24271,6.388191,STD
130775113848000,0.324985,1.90390764925405,9.69513637633957,-1.43360577998179,0.31612277,0.027183503,-0.030848695,63.034542,-99.39332,6.401013,STD
130775118839000,0.329976,1.89769013643623,9.70398437823072,-1.41662719093647,0.24373524,0.05467244,-0.05375614,62.970715,-99.52482,6.4092693,STD
130775123880000,0.335017,1.89141033637319,9.71292101969201,-1.399478509835,0.17623462,0.096516706,-0.07360926,62.898415,-99.64433,6.4164605,STD
130775128887000,0.340024,1.8851728916369,9.72179738624561,-1.38244549133171,0.12186762,0.14110987,-0.092240654,62.816883,-99.746346,6.419808,STD
130775133887000,0.345024,1.87894416711494,9.73066134325939,-1.36543628571629,0.069027774,0.17348573,-0.10140363,62.727184,-99.83175,6.4225354,STD
130775138876000,0.350013,1.87272914578693,9.73950579956774,-1.34846450035322,0.029932396,0.16737708,-0.12186762,62.635754,-99.90257,6.4182377,STD
130775143905000,0.355042,1.86646429466274,9.74842116753219,-1.33135664134522,0.007330383,0.14477506,-0.13164146,62.5413,-99.9658,6.4161563,STD
130775148874000,0.360011,1.86027418823282,9.75723016801249,-1.31445289280461,-0.0027488936,0.13408493,-0.14172074,62.445946,-100.01959,6.4096546,STD
130775153936000,0.365073,1.85396822752679,9.76620403809324,-1.29723277303955,-0.011911872,0.100792766,-0.14508049,62.364826,-100.06829,6.4017987,STD
130775158935000,0.370072,1.84774074874974,9.77506622231561,-1.28022696926525,-0.013439035,0.082161374,-0.13439035,62.284096,-100.117424,6.396496,STD
130775163879000,0.375016,1.84158178594243,9.78383090301084,-1.26340826675272,-0.02443461,0.0852157,-0.12980886,62.2075,-100.160866,6.3892875,STD
130775168874000,0.380011,1.83535929014499,9.7926859960676,-1.24641607034291,-0.041233405,0.09590584,-0.11484267,62.13589,-100.206474,6.388717,STD
130775173870000,0.385007,1.82913554860265,9.80154286191577,-1.22942047209198,-0.057726767,0.09285152,-0.10293079,62.06845,-100.24994,6.3891296,STD
130775178877000,0.390014,1.82289810386636,9.81041922846937,-1.21238745358869,-0.06719518,0.06963864,-0.09437868,62.005295,-100.293205,6.393203,STD
130775183877000,0.395014,1.8166693793444,9.81928318548314,-1.19537824797326,-0.059864793,0.028710667,-0.08246681,61.94979,-100.33915,6.4013433,STD
130775188882000,0.400019,1.81043442609792,9.82815600645394,-1.17835203315222,-0.044898596,-0.013744468,-0.063224554,61.90292,-100.38731,6.413434,STD
130775193889000,0.405026,1.80419698136163,9.83703237300753,-1.16131901464894,-0.034513887,-0.03176499,-0.046120327,61.861794,-100.43737,6.4279556,STD
130775198842000,0.409979,1.79802680685018,9.84581300882538,-1.1444696955663,-0.03359759,-0.03604105,-0.029932396,61.82986,-100.49122,6.446664,STD
130775203887000,0.415024,1.79174202380752,9.85475674145229,-1.12730740710033,-0.038789943,-0.025350908,-0.02107485,61.799328,-100.54685,6.4680324,STD
130775208901000,0.420038,1.7854958588569,9.8636455175457,-1.11025057570918,-0.043066,-0.032070424,-0.018020526,61.77546,-100.603745,6.491296,STD
130775213874000,0.425011,1.77930076944736,9.87246160919161,-1.09333321980408,-0.037873644,-0.023823744,-0.019547688,61.744564,-100.6614,6.516606,STD
130775218859000,0.429996,1.77309073109897,9.88129897433434,-1.0763750418055,-0.04153884,-0.027488936,-0.016493361,61.719414,-100.71646,6.5430284,STD
130775223943000,0.43508,1.76753378827533,9.87927937764549,-1.063492407972,-0.044593163,-0.04153884,-0.008857546,61.695137,-100.77243,6.569974,STD
130775228883000,0.44002,1.76234472313825,9.87432617653071,-1.05217080781645,-0.04520403,-0.06688975,-0.014660766,61.67482,-100.82537,6.593056,STD
130775233875000,0.445012,1.75710103626288,9.86932083645682,-1.04073003292242,-0.026267206,-0.09285152,-0.018325957,61.681282,-100.80259,6.5599117,STD
130775238873000,0.45001,1.75185104687925,9.86430948034919,-1.02927550709703,-0.020463986,-0.11026118,-0.01863139,61.692513,-100.77694,6.5263963,STD
130775243900000,0.455037,1.74657059537235,9.85926904674514,-1.01775451843671,-0.009468411,-0.11178834,-0.008857546,61.70678,-100.75841,6.495314,STD
130775248879000,0.460016,1.74134056393156,9.85427674141103,-1.0063435372273,-0.0125227375,-0.12003502,-0.011301007,61.727146,-100.736244,6.460685,STD
130775253866000,0.465003,1.73610212914641,9.84927641469859,-0.994914221442738,-0.015271631,-0.12675454,-0.009773844,61.747795,-100.71935,6.430885,STD
130775258893000,0.47003,1.73082167763951,9.84423598109454,-0.983393232782423,-0.019547688,-0.13744467,-0.004886922,61.771626,-100.70187,6.4018006,STD
130775263875000,0.475012,1.72558849494459,9.83924066774356,-0.97197537610733,-0.018020526,-0.12308934,-0.005497787,61.789692,-100.6847,6.3733006,STD
130775268874000,0.480011,1.72033745514291,9.83422830896364,-0.960518558460043,-0.026572637,-0.13713925,0.0027488936,61.81905,-100.66683,6.3478694,STD
130775273874000,0.485011,1.7150853649232,9.82921494751143,-0.949059448990861,-0.038179077,-0.14508049,0.008552114,61.842117,-100.648346,6.323279,STD
130775278878000,0.490015,1.7098290730313,9.82419757537006,-0.937591172234105,-0.04550946,-0.1469131,0.00580322,61.867,-100.62904,6.2989817,STD
130775283876000,0.495013,1.70457908364768,9.81918621926243,-0.926136646408711,-0.059253927,-0.15118915,0.010995574,61.89497,-100.60816,6.2787623,STD
130775288869000,0.500006,1.69933434635427,9.81417987651625,-0.914693579692786,-0.061391957,-0.15149458,0.017715093,61.92186,-100.58832,6.2589245,STD
130775293947000,0.505084,1.69400032352712,9.80908830662539,-0.903055708115886,-0.08155051,-0.14294247,0.011911872,61.94668,-100.56019,6.2377467,STD
130775298848000,0.509985,1.68885222469376,9.80417420972993,-0.891823489014194,-0.10415252,-0.1301143,0.014049901,61.970566,-100.533745,6.2213616,STD
130775303871000,0.515008,1.68357597485903,9.79913778681504,-0.880311667641454,-0.10751228,-0.122478485,0.016493361,61.99293,-100.50657,6.204041,STD
130775308894000,0.520031,1.6782997250243,9.79410136390015,-0.868799846268715,-0.12339478,-0.109650314,0.026267206,62.01038,-100.47344,6.1905847,STD
130775313884000,0.525021,1.67305813898503,9.78909802917084,-0.857363655018472,-0.10873401,-0.09773844,0.017715093,62.0251,-100.44444,6.173289,STD
130775318884000,0.530021,1.66780604876531,9.78408466771863,-0.84590454554929,-0.10354166,-0.10170906,0.008857546,62.041042,-100.41183,6.1587954,STD
130775323869000,0.535006,1.66256971481626,9.77908634635078,-0.834479813408517,-0.08979719,-0.112399206,0.0015271631,62.055225,-100.38396,6.1428733,STD
130775328881000,0.540018,1.65730501958001,9.77406095283108,-0.822993202076609,-0.08368854,-0.115453534,-0.008246681,62.067886,-100.35419,6.124335,STD
130775333875000,0.545012,1.65205923186856,9.76905360741262,-0.811547843538791,-0.07941248,-0.0983493,-0.0143553335,62.077587,-100.32706,6.105651,STD
130775338874000,0.550011,1.64680819206689,9.76404124863269,-0.800091025891503,-0.065973446,-0.08155051,-0.032070424,62.08725,-100.300316,6.0813446,STD
130775343911000,0.555048,1.64151723637955,9.75899078830574,-0.78854711901225,-0.058643065,-0.07666359,-0.033292156,62.09586,-100.275475,6.0608244,STD
130775348874000,0.560011,1.63630401162746,9.75401452572827,-0.77717280695314,-0.05222898,-0.06505715,-0.040927973,62.096867,-100.25004,6.03522,STD
130775353861000,0.564998,1.63106557684231,9.74901419901584,-0.765743491168579,-0.0290161,-0.056199603,-0.050701816,62.09725,-100.230194,6.0095334,STD
130775358892000,0.570029,1.62578092366323,9.74396975472263,-0.754213335220688,-0.0143553335,-0.051923547,-0.062308256,62.095417,-100.20886,5.9822755,STD
130775363860000,0.574997,1.62056244682092,9.73898847878371,-0.74282756405211,-0.004581489,-0.043066,-0.052839845,62.090416,-100.19422,5.959709,STD
130775368878000,0.580015,1.61529144907641,9.73395706923027,-0.731327201788839,0.010995574,-0.028405234,-0.04520403,62.082203,-100.1826,5.9347687,STD
130775373858000,0.584995,1.61006036721758,9.72896376122387,-0.719913928757534,0.016493361,-0.015882496,-0.048563786,62.072224,-100.17111,5.910599,STD
130775378877000,0.590014,1.60478831905503,9.72393134899814,-0.70841127467237,0.025961773,0.0015271631,-0.047647487,62.05742,-100.166534,5.8914413,STD
130775383874000,0.595011,1.59953938008944,9.7189209955628,-0.69695904066887,0.02076942,0.032986723,-0.06078109,62.034626,-100.15728,5.8693023,STD
130775388879000,0.600016,1.59428203777951,9.71390262074914,-0.68548847209022,0.015882496,0.04886922,-0.07513642,62.011715,-100.15062,5.8479753,STD
130775393901000,0.605038,1.58900683836282,9.70886720050654,-0.673978942539374,0.0070249503,0.05009095,-0.08979719,61.984066,-100.140114,5.8244486,STD
130775398842000,0.609979,1.5838167228077,9.70391299671946,-0.662655050561929,0.010079277,0.04917465,-0.087964594,61.95335,-100.13222,5.803093,STD
130775403868000,0.615005,1.57853732171884,9.6988735657877,-0.651136353723508,-0.004276057,0.03359759,-0.09040806,61.926483,-100.11576,5.7769036,STD
130775409727000,0.620864,1.57238292239938,9.692998908838,-0.637708569247521,0.009162978,0.0076358155,-0.090713486,61.90374,-100.10787,5.7524137,STD
130775413878000,0.625015,1.56802263709897,9.68883681616038,-0.628195216566206,0.0076358155,-0.014660766,-0.086132,61.885178,-100.09416,5.7291374,STD
130775418882000,0.630019,1.56276634520708,9.68381944401901,-0.61672693980945,0.010079277,-0.034513887,-0.09132435,61.87334,-100.08343,5.7030396,STD
130775423872000,0.635009,1.57202885741993,9.68087554373235,-0.61068185752584,0.011301007,-0.03970624,-0.087659165,61.86454,-100.07467,5.681373,STD
130775428880000,0.640017,1.58860080270366,9.67895414517858,-0.607319434132214,0.009162978,-0.0290161,-0.095294975,61.856342,-100.0634,5.655838,STD
130775433871000,0.645008,1.60511649338081,9.67703926894417,-0.603968424715762,-0.00061086525,-0.018936822,-0.09437868,61.85871,-100.002365,5.592196,STD
130775438877000,0.650014,1.62168182047553,9.67511863772209,-0.60060734414298,-0.0106901415,-0.02443461,-0.099265605,61.86239,-99.94003,5.526398,STD
130775443907000,0.655044,1.63832656583839,9.67318879851972,-0.597230149720069,-0.004581489,-0.017715093,-0.10354166,61.860302,-99.88096,5.4637103,STD
130775448881000,0.660018,1.65478600190894,9.67128044460469,-0.593890554280792,-0.00580322,-0.018936822,-0.11178834,61.862183,-99.81783,5.399717,STD
130775453876000,0.665013,1.6713149289641,9.66936403370691,-0.590536859222653,-0.007330383,-0.020158553,-0.112704635,61.862812,-99.75804,5.338629,STD
130775458899000,0.670036,1.68793651066542,9.66743688016546,-0.587164364672696,-0.004886922,-0.021991149,-0.10415252,61.86452,-99.70056,5.279628,STD
130775463881000,0.675018,1.70442241949202,9.66552545692366,-0.583819397950043,0.0027488936,-0.040011674,-0.10415252,61.871292,-99.64392,5.219012,STD
130775468877000,0.680014,1.72095465564169,9.66360866236004,-0.580465031481481,0.0012217305,-0.05467244,-0.10781772,61.878265,-99.587776,5.161508,STD
130775473864000,0.685001,1.73745710994081,9.66169532078901,-0.577116707706718,-0.0021380284,-0.06811147,-0.109650314,61.8904,-99.53453,5.1054726,STD
130775479308000,0.690445,1.75547182042896,9.65960664392665,-0.573461549369078,-0.0012217305,-0.077579886,-0.11301007,61.90557,-99.48232,5.049154,STD
130775483880000,0.695017,1.77060100050828,9.65785252368147,-0.570391860919466,0.00030543262,-0.08155051,-0.11636983,61.92306,-99.43031,4.9935894,STD
130775488879000,0.700016,1.78714316394147,9.65593457812031,-0.567035480219638,-0.02321288,-0.079107046,-0.11575896,61.94149,-99.37362,4.9396544,STD
130775493909000,0.705046,1.80378790930433,9.65400473891793,-0.563658285796727,-0.025045475,-0.080634214,-0.115453534,61.96208,-99.32306,4.885944,STD
130775498844000,0.709981,1.82011829068916,9.65211134797087,-0.56034487536391,-0.042455133,-0.08002335,-0.12339478,61.98114,-99.26298,4.831748,STD
130775503877000,0.715014,1.83677296333554,9.65018035777097,-0.556965666709733,-0.054061573,-0.09590584,-0.13133603,62.005417,-99.205025,4.7783866,STD
130775508906000,0.720043,1.85341439960389,9.64825090223444,-0.553589143697244,-0.04795292,-0.09437868,-0.13255776,62.024647,-99.14817,4.7268615,STD
130775513891000,0.725028,1.869910235714,9.64633832799511,-0.550242162743325,-0.04734206,-0.10842858,-0.13255776,62.05263,-99.087364,4.673696,STD
130775518879000,0.730016,1.88641599910763,9.64442460275825,-0.54689316755814,-0.042760566,-0.113926366,-0.13927728,62.077488,-99.02904,4.6201415,STD
130775523867000,0.735004,1.90292176250125,9.64251087752138,-0.543544172372954,-0.031154128,-0.118507855,-0.14385876,62.10611,-98.97403,4.5681334,STD
130775528873000,0.74001,1.91948708959598,9.6405902462993,-0.540183091800172,-0.03604105,-0.11209377,-0.15363261,62.132618,-98.915436,4.514433,STD
130775533857000,0.744994,1.93597961661158,9.63867805572582,-0.536836782256675,-0.026267206,-0.10140363,-0.15088372,62.159363,-98.865486,4.464461,STD
130775538872000,0.750009,1.95257472555686,9.63675397151113,-0.533469658990095,-0.027488936,-0.09621128,-0.14905111,62.18537,-98.81114,4.4130354,STD
130775543944000,0.755081,1.96935845288895,9.63480801834325,-0.530064265329457,-0.023518313,-0.08979719,-0.1563815,62.20769,-98.76058,4.361721,STD
130775548993000,0.76013,1.98606607104741,9.63287088948981,-0.526674314108527,-0.020158553,-0.07727446,-0.160963,62.22692,-98.71125,4.313568,STD
130775553873000,0.76501,2.00221445223444,9.63099860016425,-0.523397831248923,-0.027794369,-0.06780604,-0.1572978,62.245266,-98.661285,4.2672706,STD
130775558873000,0.77001,2.01875992476213,9.62908027093724,-0.520040779138674,-0.013439035,-0.05497787,-0.17745635,62.258076,-98.61464,4.214983,STD
130775563861000,0.774998,2.03526568815576,9.62716654570038,-0.516691783953488,-0.008857546,-0.037873644,-0.16554448,62.268456,-98.569725,4.174758,STD
130775568878000,0.780015,2.05186741529005,9.625241694154,-0.513323317866064,-0.013439035,-0.02565634,-0.1600467,62.275787,-98.52342,4.1288495,STD
130775573860000,0.784997,2.06835332411664,9.62333027091221,-0.509978351143411,-0.0027488936,-0.017715093,-0.160963,62.279922,-98.48386,4.0864105,STD
130775578879000,0.790016,2.08496166943994,9.62140465203413,-0.506608542235142,-0.008552114,-0.01863139,-0.15485434,62.283897,-98.44173,4.049001,STD
130775583890000,0.795027,2.10154354200719,9.61948210248282,-0.50324410461025,-0.007941248,-0.025961773,-0.13561209,62.28822,-98.40649,4.0164413,STD
130775588874000,0.800011,2.1180360690228,9.61756991190934,-0.499897795066753,0.004886922,-0.03940081,-0.13041973,62.29457,-98.372665,3.982602,STD
130775593903000,0.80504,2.13467750529115,9.61564045637281,-0.496521272054264,-0.004886922,-0.043982297,-0.12492194,62.301422,-98.33675,3.95538,STD
130775598849000,0.809986,2.15104428671554,9.61374284510146,-0.493200476106805,-0.013439035,-0.03268129,-0.11209377,62.3081,-98.30669,3.9327562,STD
130775603874000,0.815011,2.16767248660587,9.61181492422831,-0.489826638736003,-0.0290161,-0.016493361,-0.10476339,62.31475,-98.27301,3.9110005,STD
130775608935000,0.820072,2.1844198138984,9.60987319138473,-0.486428630590009,-0.051923547,-0.00030543262,-0.09315695,62.318913,-98.23827,3.8952258,STD
130775613877000,0.825014,2.20077335894478,9.60797711477676,-0.483110520284238,-0.074830994,0.016187929,-0.08582657,62.318718,-98.20074,3.88151,STD
130775618979000,0.830116,2.21765635911203,9.60601965163352,-0.479684984310939,-0.10048734,0.03176499,-0.082161374,62.3148,-98.15865,3.8710392,STD
130775623863000,0.835,2.22147206325849,9.60571057199552,-0.469641219644221,-0.12003502,0.04337143,-0.08246681,62.307903,-98.11376,3.8622968,STD
130775628879000,0.840016,2.22099185424156,9.60595068151829,-0.456915671419018,-0.12339478,0.03359759,-0.0888809,62.30318,-98.06728,3.8529062,STD
130775633873000,0.84501,2.22051375140452,9.6061897379291,-0.444245937001819,-0.124311075,0.02107485,-0.1001819,62.280262,-98.03478,3.8662875,STD
130775638869000,0.850006,2.22003545709659,9.60642889007737,-0.431571128602075,-0.12186762,0.0106901415,-0.1020145,62.260117,-98.00368,3.8802075,STD
130775643902000,0.855039,2.219553620577,9.60666981336845,-0.418802451525231,-0.12339478,-0.004276057,-0.10903945,62.244728,-97.97,3.88882,STD
130775648879000,0.860016,2.21907714524262,9.60690805601095,-0.406175845959674,-0.10873401,-0.020158553,-0.119729586,62.23279,-97.9411,3.895448,STD
130775653863000,0.865,2.21859999976008,9.60714663373453,-0.393531481455205,-0.09682214,-0.02076942,-0.1386664,62.220604,-97.909805,3.8977757,STD
130775658862000,0.869999,2.2181214182458,9.60738592948897,-0.380849062081642,-0.076052725,-0.019242255,-0.15515977,62.212337,-97.883934,3.8975272,STD
130775663848000,0.874985,2.21764408129236,9.60762460295,-0.368199623594628,-0.071776666,-0.024129177,-0.18448131,62.205265,-97.8531,3.8883936,STD
130775668850000,0.879987,2.21716521257173,9.60786404231061,-0.355509593247246,-0.0580322,-0.025045475,-0.19975294,62.19683,-97.830055,3.8792589,STD
130775673835000,0.884972,2.21668797135374,9.60810266790291,-0.342862691751504,-0.053145275,-0.014049901,-0.21868975,62.18556,-97.80185,3.8616843,STD
130775678850000,0.889987,2.21620785807226,9.60834272955695,-0.330139680517574,-0.046120327,0.0021380284,-0.2321288,62.173023,-97.77684,3.8422942,STD
130775683840000,0.894977,2.21573013817702,9.60858159449287,-0.317480094065468,-0.043676864,0.014660766,-0.24190263,62.158222,-97.75041,3.819738,STD
130775688844000,0.899981,2.21525107798549,9.60882112959094,-0.30478498973554,-0.044593163,0.030848695,-0.24251351,62.138042,-97.72503,3.797652,STD
130775693889000,0.905026,2.2147680926405,9.60906262730672,-0.29198586876342,-0.02565634,0.05222898,-0.25686884,62.112507,-97.702644,3.770535,STD
130775698881000,0.910018,2.21429018127437,9.60930158798009,-0.279321208328768,-0.019242255,0.07544186,-0.27275133,62.082325,-97.67739,3.7444456,STD
130775703839000,0.914976,2.21381552491353,9.60953892111682,-0.266742805597397,-0.003970624,0.08368854,-0.26847526,62.051147,-97.66066,3.7213547,STD
130775708847000,0.919984,2.2133360817802,9.60977864768979,-0.254037553302377,-0.0018325958,0.094989546,-0.27000242,62.012493,-97.64005,3.6941977,STD
130775713855000,0.924992,2.21285663864686,9.61001837426275,-0.241332301007358,0.00030543262,0.09621128,-0.2666427,61.975418,-97.625275,3.6707647,STD
130775718840000,0.929977,2.21237939742887,9.61025699985505,-0.228685399511616,0.009468411,0.11301007,-0.25350907,61.931744,-97.61464,3.651736,STD
130775723820000,0.934957,2.21190263488814,9.61049538610373,-0.216051182972239,-0.0009162979,0.122478485,-0.24801129,61.89044,-97.59971,3.6323678,STD
130775728846000,0.939983,2.2114214685167,9.61073597431373,-0.203300264834306,-0.012217305,0.11484267,-0.24098633,61.85053,-97.58944,3.61813,STD
130775734560000,0.945697,2.21087443615571,9.61100949620629,-0.188803896700572,-0.016798794,0.10995574,-0.21899518,61.80867,-97.581635,3.611004,STD
130775738830000,0.949967,2.21046564578443,9.61121389566048,-0.177970943965002,-0.028710667,0.10781772,-0.21288654,61.76873,-97.568535,3.6019652,STD
130775743917000,0.955054,2.20997863955055,9.61145740386269,-0.165065269359418,-0.028405234,0.11453723,-0.1957823,61.729504,-97.562355,3.6030173,JOG
130775748878000,0.960015,2.20950369598337,9.61169488060559,-0.152479255654228,-0.058643065,0.111177474,-0.18753563,61.694427,-97.545654,3.6033614,JOG
130775753866000,0.965003,2.20902616755903,9.61193364980407,-0.139824743184667,-0.071776666,0.11759156,-0.18081611,61.655903,-97.53594,3.6090071,JOG
130775758937000,0.970074,2.20854069309235,9.61217639210668,-0.126959660439451,-0.08674286,0.1001819,-0.18570304,61.625786,-97.51831,3.6130056,JOG
130775763879000,0.975016,2.20806756849871,9.61241295934382,-0.114421849568447,-0.09162979,0.0870483,-0.19914207,61.59335,-97.50029,3.6169631,JOG
130775768874000,0.980011,2.20758936992623,9.61265206362337,-0.101749578159976,-0.09010262,0.095294975,-0.21074851,61.560406,-97.48038,3.620324,JOG
130775773874000,0.985011,2.20711069267649,9.61289140724654,-0.0890646217951396,-0.090713486,0.0888809,-0.22632557,61.535507,-97.456985,3.6180477,JOG
130775778879000,0.990016,2.20663153674951,9.61313099021333,-0.0763669804739389,-0.062308256,0.1001819,-0.24740042,61.50336,-97.43957,3.6120684,JOG
130775783884000,0.995021,2.20615238082252,9.61337057318012,-0.0636693391527381,-0.024740042,0.11301007,-0.2574797,61.47316,-97.42437,3.605055,JOG
130775788863000,1,2.20567571401723,9.61360891156007,-0.0510376596046345,0.008246681,0.13927728,-0.26450464,61.436024,-97.413284,3.5943413,JOG
130775793910000,1.005047,2.20519253720135,9.61385050501329,-0.038233464649969,0.049785517,0.17745635,-0.2687807,61.39229,-97.41324,3.5830736,JOG
130775798844000,1.009981,2.20472017849131,9.61408668930064,-0.0257159497091489,0.06780604,0.21930063,-0.27458394,61.3405,-97.414795,3.5711489,JOG
130775804682000,1.015819,2.20416127493452,9.61436614691505,-0.0109049946575664,0.06780604,0.25167647,-0.26175576,61.281864,-97.424515,3.565123,JOG
130775808967000,1.020104,2.2037510485315,9.61457126440011,-3.39870529020014e-05,0.06566802,0.29138273,-0.2507602,61.209984,-97.43745,3.5594442,JOG
130775813876000,1.025013,2.20328108320771,9.61480625196933,0.012420103106094,0.061086524,0.32436943,-0.23273966,61.13259,-97.452774,3.5610423,JOG
130775818871000,1.030008,2.20280288463522,9.61504535624887,0.0250923745145651,0.03268129,0.3539964,-0.2134974,61.046593,-97.46354,3.5679715,JOG
130775823870000,1.035007,2.20938632677165,9.58487079970472,0.139622488927165,0.013439035,0.37904188,-0.19486602,60.95453,-97.47816,3.5812905,JOG
130775828884000,1.040021,2.21883870377953,9.54233520187008,0.295586818127953,-0.019547688,0.39003745,-0.16798794,60.860573,-97.486404,3.603207,JOG
130775833869000,1.045006,2.23475933186464,9.49333756981244,0.47740147944031,-0.06658431,0.3924809,-0.13530666,60.772106,-97.438995,3.6066427,JOG
130775838884000,1.050021,2.25382359781681,9.44091073891039,0.672810334843703,-0.076358154,0.37965274,-0.12217305,60.686775,-97.39537,3.612392,JOG
130775843891000,1.055028,2.28623248651533,9.37426649651804,0.879547029040427,-0.12370021,0.3491095,-0.095294975,60.617023,-97.31151,3.6137412,JOG
130775848874000,1.060011,2.32507591115131,9.30089557330198,1.09102758604504,-0.16676621,0.3042109,-0.06566802,60.556915,-97.230896,3.6190321,JOG
130775853871000,1.065008,2.37151446895463,9.20121613264554,1.30746451932835,-0.23762658,0.23671028,-0.027183503,60.523746,-97.10558,3.6197045,JOG
130775858957000,1.070094,2.4279186319402,9.06789696831245,1.53308149252553,-0.30573806,0.14782938,0.004886922,60.5112,-96.97717,3.6250908,JOG
130775863871000,1.075008,2.47087846700434,8.94863693735787,1.69394047277238,-0.37812558,0.05589417,0.036651913,60.530575,-96.802155,3.6334202,JOG
130775868871000,1.080008,2.50552680274964,8.83479261236304,1.81273487012611,-0.44898596,-0.05009095,0.07880162,60.581017,-96.623116,3.6507967,JOG
130775874120000,1.085257,2.54399152977716,8.74724901439558,1.92429036286728,-0.52015173,-0.14508049,0.11484267,60.665142,-96.40708,3.6701775,JOG
130775878877000,1.090014,2.57992681396174,8.68436229052455,2.01862028450996,-0.5635232,-0.25595254,0.15027285,60.78515,-96.19626,3.6979835,JOG
130775883870000,1.095007,2.62059816559492,8.69957241376402,2.10396178979855,-0.59406644,-0.376293,0.20189096,60.938084,-95.97535,3.7348692,JOG
130775888879000,1.100016,2.66344149413516,8.77097762994939,2.18012771824948,-0.61269784,-0.4905248,0.2415972,61.12096,-95.76353,3.7758315,JOG
130775893874000,1.105011,2.70041687206458,8.88753494266145,2.23925794361057,-0.61483586,-0.6001751,0.2770274,61.341,-95.557655,3.822529,JOG
130775898846000,1.109983,2.73303041903131,9.03662586007828,2.28584874584149,-0.61361414,-0.70738196,0.3145956,61.592846,-95.3718,3.8785524,JOG
130775903866000,1.115003,2.77846576919682,9.20479041394528,2.27060755463372,-0.6188065,-0.8078693,0.3390302,61.87569,-95.19328,3.9312737,JOG
130775908907000,1.120044,2.83527863511817,9.38943230234383,2.19959164525841,-0.61636305,-0.88697636,0.35888332,62.182243,-95.04096,3.991426,JOG
130775913874000,1.125011,2.89966389431972,9.57260006140114,2.11112512859075,-0.61300325,-0.9416488,0.35918877,62.506577,-94.89534,4.040279,JOG
130775918873000,1.13001,2.97304458085835,9.75820985294383,2.00321226412406,-0.59986967,-0.9502009,0.36071593,62.83891,-94.775246,4.0940843,JOG
130775923814000,1.134951,3.04985944418246,9.93308020284266,1.89163673779198,-0.6010914,-0.93401295,0.35430184,63.163326,-94.67796,4.1441307,JOG
130775928853000,1.13999,3.14024931044513,10.0872743801234,1.76402756055531,-0.6105598,-0.91721416,0.3472769,63.488243,-94.599,4.19361,JOG
130775933838000,1.144975,3.26708919562044,10.2290776715328,1.64742046569343,-0.6426302,-0.8854492,0.34697145,63.78753,-94.553024,4.252127,JOG
130775938857000,1.149994,3.44010939691031,10.3588434874513,1.54168582853715,-0.6453791,-0.8527679,0.3622431,64.080055,-94.52663,4.312214,JOG
130775944023000,1.15516,3.60585362678089,10.4967906214731,1.45603666171897,-0.66767573,-0.8268061,0.37232238,64.35078,-94.52848,4.383126,JOG
130775948922000,1.160059,3.75002482383835,10.6322240900456,1.39924201961076,-0.67103547,-0.806953,0.40286562,64.61248,-94.5543,4.4629817,JOG
130775953801000,1.164938,3.87358099745248,10.7385734636488,1.30134225673133,-0.66675943,-0.82253003,0.43463063,64.85569,-94.62854,4.575578,JOG
130775958864000,1.170001,3.95434571945914,10.7813311584362,1.10180573589065,-0.6575964,-0.840856,0.46761733,65.09256,-94.72082,4.6950383,JOG
130775963815000,1.174952,4.0267256699405,10.8075337970535,0.91437931489848,-0.6337727,-0.8558222,0.51893,65.31971,-94.86006,4.8500576,JOG
130775968844000,1.179981,4.08130497143262,10.7893407757106,0.746092865381056,-0.6084218,-0.86254174,0.5665775,65.54819,-95.01199,5.010117,JOG
130775973829000,1.184966,4.11046597133672,10.7496298387431,0.572634064671783,-0.59620446,-0.8680395,0.61941737,65.75818,-95.195885,5.1958747,JOG
130775978851000,1.189988,3.99076545819766,10.5800541421757,0.358170390543399,-0.6026186,-0.8576548,0.6786713,65.964035,-84.606125,5.392691,JOG
130775983833000,1.19497,3.88574534249758,10.3962316950629,0.163501025380445,-0.59986967,-0.8344419,0.73273283,66.14872,-84.38734,5.609325,JOG
130775988839000,1.199976,3.83005332596321,10.1548993649564,0.0335531237827687,-0.6151413,-0.8002335,0.7800749,66.32582,-84.15768,5.8356004,JOG
130775993879000,1.205016,3.78205786128636,9.90579994223679,-0.0859833247595248,-0.63194007,-0.73823065,0.8362745,66.47562,-83.927986,6.0630245,JOG
130775998843000,1.20998,3.77718903342892,9.62827705940188,-0.144409297687014,-0.6230826,-0.6612616,0.883922,66.61001,-83.69285,6.295797,JOG
130776003835000,1.214972,3.77658090121898,9.3521492900991,-0.155026182081031,-0.61819565,-0.6087272,0.93126404,66.718,-83.4487,6.538457,JOG
130776008848000,1.219985,3.79342164454968,9.08690826405332,0.0302211548802947,-0.57787853,-0.5742133,0.98349303,66.808075,-83.19627,6.7901077,JOG
130776013860000,1.224997,3.81025902846619,8.82172014864509,0.215431538453039,-0.52687126,-0.5626069,1.031446,66.88318,-82.93197,7.0545692,JOG
130776018840000,1.229977,3.87029667094188,8.57106937875751,0.489223197074148,-0.46822822,-0.5375614,1.0665708,66.94368,-82.66348,7.323954,JOG
130776023815000,1.234952,3.95171480860342,8.3515243589668,0.760993060331958,-0.40530908,-0.5326745,1.1071932,67.005875,-82.386955,7.602224,JOG
130776028852000,1.239989,4.16964505103123,8.35626206757022,0.96471042429778,-0.34208453,-0.48624873,1.1340714,67.07014,-82.08619,7.903115,JOG
130776033801000,1.244938,4.37749848403203,8.36753598935469,1.15654894611399,-0.3115413,-0.4071417,1.2162327,67.13756,-81.741005,8.246228,JOG
130776038841000,1.249978,4.51391036910033,8.45847724606689,1.25203736062176,-0.2660318,-0.301462,1.2922854,67.182526,-81.39779,8.588451,JOG
130776044235000,1.255372,4.66107164493474,8.56332839755542,1.35727779548374,-0.24648413,-0.16584991,1.3732251,67.206375,-80.99138,8.991577,JOG
130776048842000,1.259979,4.81188704403356,8.81468715744769,1.51266330613217,-0.23060162,-0.01985312,1.4425583,67.19503,-80.574974,9.405035,JOG
130776054062000,1.265199,4.97985365565932,9.11982743285394,1.69051658860665,-0.23762658,0.09743301,1.5033394,67.152954,-80.12562,9.849961,JOG
130776059805000,1.270942,5.12367043231229,9.74132054071722,1.91137795211057,-0.23090707,0.21105394,1.536326,67.068214,-79.67358,10.297571,JOG
130776063788000,1.274925,5.22341311408293,10.1723508469369,2.06455413369443,-0.22204952,0.26816985,1.5289958,66.97172,-79.19531,10.768532,JOG
130776068840000,1.279977,5.36892634997038,10.6078108569313,2.1887088451718,-0.21533,0.28221974,1.4993688,66.8536,-78.72355,11.23247,JOG
130776073803000,1.28494,5.51440600256714,11.0207860659558,2.30133831844392,-0.21960606,0.27885997,1.4517213,66.7232,-78.26827,11.67937,JOG
130776078855000,1.289992,5.60129388875223,11.4757633003372,2.35053704437612,-0.2180789,0.2507602,1.4074335,66.61246,-77.82453,12.11139,JOG
130776083782000,1.294919,5.676175980976,11.9250546808173,2.387978090488,-0.22235495,0.1966986,1.3545936,66.50993,-77.40571,12.517851,JOG
130776088833000,1.29997,5.72825282954923,12.3247004878263,2.40212768590985,-0.23732115,0.13530666,1.3087788,66.42632,-76.99751,12.911299,JOG
130776093824000,1.304961,5.77498971113719,12.7079431120563,2.41147506222744,-0.25228736,0.0580322,1.2815952,66.362976,-76.60771,13.286272,JOG
130776098842000,1.309979,5.53125008454631,12.8014747299239,2.23911532549389,-0.2489276,-0.045814894,1.2928963,66.32849,-76.231575,13.647525,JOG
130776103799000,1.314936,5.2186388486958,12.821774138801,2.02394142182502,-0.2657264,-0.1518,1.3353515,66.3168,-75.86132,14.002183,JOG
130776108853000,1.31999,4.82795422297661,12.7222061647807,1.69879593820455,-0.30115658,-0.21502456,1.3616186,66.324455,-75.51197,14.336,JOG
130776113852000,1.324989,4.35844527686173,12.4848719189568,1.25508396551353,-0.34483343,-0.2125811,1.3408492,66.3432,-75.17105,14.660694,JOG
130776118837000,1.329974,4.04676896044453,12.2236230330448,0.859066341471282,-0.3915646,-0.17745635,1.3222178,66.38118,-74.8914,14.928338,JOG
130776123829000,1.334966,3.83518995304878,11.9462194390244,0.49232963097561,-0.4578435,-0.14049901,1.3041973,66.41729,-74.62085,15.184021,JOG
130776129680000,1.340817,3.82377757870098,11.6364450829871,0.475670066681528,-0.46975538,-0.016798794,1.2718215,66.417366,-74.43,15.368131,JOG
130776133843000,1.34498,3.91265199732496,11.4223389010031,0.633220132542304,-0.5488624,0.021685716,1.2562444,66.43109,-74.23754,15.548396,JOG
130776138833000,1.34997,4.11346013003742,11.2208864289935,1.05341855507189,-0.57818395,0.03573562,1.2385293,66.41063,-74.09455,15.689177,JOG
130776143852000,1.354989,4.37854730956273,11.0552065401812,1.6309299828442,-0.6160576,-0.015577064,1.1896601,66.39851,-73.963684,15.814052,JOG
130776148843000,1.35998,4.68904757551622,10.930017660767,2.0693812941003,-0.6429357,-0.11301007,1.1527027,66.3956,-73.793495,15.972525,JOG
130776153849000,1.364986,5.03575568534589,10.8342167588733,2.40696542231421,-0.64812803,-0.2302962,1.1160508,66.41453,-73.640015,16.114445,JOG
130776158841000,1.369978,5.42342186718143,10.7697272133361,2.53529569873185,-0.59956425,-0.28405234,1.0790935,66.46108,-73.41485,16.312815,JOG
130776163853000,1.37499,5.86031126415422,10.7402744090816,2.42730047705052,-0.49510628,-0.23243423,1.0390818,66.51136,-73.208115,16.494942,JOG
130776168832000,1.379969,6.25558180657138,10.7237537514387,2.1843511373863,-0.33964106,-0.10903945,1.0027353,66.551865,-72.94692,16.726192,JOG
130776173824000,1.384961,6.61500288754409,10.7193163666234,1.81161827263783,-0.16187929,0.07849618,0.96669424,66.55813,-72.70931,16.938374,JOG
130776178839000,1.389976,6.95923497843842,10.6940833264728,1.42523282294675,0.0012217305,0.3100141,0.9260717,66.50228,-72.42391,17.20773,JOG
130776183840000,1.394977,7.27216262822607,10.631497578678,1.01842658414244,0.1142318,0.5516113,0.90285885,66.387955,-72.157616,17.461756,JOG
130776188824000,1.399961,7.48357399547215,10.5005848489723,0.734974974647006,0.16249016,0.7666359,0.8720101,66.18426,-71.86804,17.755314,JOG
130776193858000,1.404995,7.60324863556747,10.3043188310992,0.562643819812332,0.19333886,0.9651671,0.8206975,65.91549,-71.60221,18.025959,JOG
130776199489000,1.410626,7.65842066025603,10.0152758764513,0.439515283643942,0.16218472,1.1108584,0.7431176,65.577484,-71.32519,18.31642,JOG
130776203834000,1.414971,7.65429142268532,9.75099923905924,0.385834035350799,0.13225232,1.2409728,0.64599,65.188644,-71.075035,18.577477,JOG
130776208829000,1.419966,7.55018246229282,9.50582966456196,0.3866966507794,0.11056661,1.3356569,0.5271767,64.75923,-70.83439,18.830454,JOG
130776213845000,1.424982,7.34165438660221,9.32099778453039,0.453046458853591,0.105374254,1.426065,0.4120286,64.2974,-70.62374,19.049736,JOG
130776218869000,1.430006,7.04173630994734,9.16759499804954,0.578404010493466,0.11209377,1.4883732,0.32162055,63.826813,-70.41523,19.265566,JOG
130776223883000,1.43502,6.63900971755413,9.05052342793056,0.770401507733567,0.15393804,1.5091426,0.24953845,63.34806,-70.23891,19.449474,JOG
130776228817000,1.439954,6.19527269585441,8.94421731141525,0.947073331409303,0.17806722,1.525636,0.21227567,62.874485,-70.09064,19.60058,JOG
130776233875000,1.445012,5.67162863569374,8.84813587850838,1.11041191784191,0.23060162,1.5085317,0.1469131,62.41143,-69.975975,19.721632,JOG
130776238810000,1.449947,5.13575779319132,8.72817594266375,1.24206974381844,0.28405234,1.4957036,0.077579886,61.967766,-69.91594,19.781672,JOG
130776243878000,1.455015,4.54633900091579,8.56391190244874,1.33386446135775,0.3323107,1.505172,0.009468411,61.52859,-69.87677,19.82321,JOG
130776248837000,1.459974,3.99652623616116,8.39985937299545,1.44000023609186,0.3594942,1.491122,-0.051923547,61.132206,-69.92288,19.775698,JOG
130776253869000,1.465006,3.48132390497921,8.2281248142942,1.57357119423876,0.38240165,1.4850134,-0.10415252,60.73711,-69.986176,19.71306,JOG
130776258807000,1.469944,3.00387310230406,8.04788931832642,1.69840279717536,0.40622538,1.4504995,-0.14782938,60.397404,-70.14387,19.554638,JOG
130776263888000,1.475025,2.56291896059963,7.84148551045985,1.81567779265401,0.42638394,1.4199562,-0.16798794,60.06517,-70.306984,19.392109,JOG
130776269144000,1.480281,2.12991884445904,7.60447916876232,1.92478984108098,0.45906523,1.3561208,-0.18784106,59.798527,-70.559235,19.139399,JOG
130776273835000,1.484972,1.78424615456507,7.35154790541428,2.00066919807638,0.49693888,1.2641857,-0.20830505,59.55679,-70.813065,18.88762,JOG
130776278857000,1.489994,1.4265826721669,7.07127028356458,2.07904340830443,0.54153204,1.1801916,-0.23243423,59.38377,-71.149025,18.553995,JOG
130776283877000,1.495014,1.13230253884717,6.7426572015405,2.14280416855744,0.57543504,1.0641272,-0.26297748,59.25465,-71.48579,18.222881,JOG
130776288849000,1.499986,0.871260738123383,6.41689205052736,2.19501940664677,0.6209445,0.9468411,-0.2932153,59.208282,-71.910706,17.8076,JOG
130776293970000,1.505107,0.72486422960398,6.08018023685572,2.20477916640796,0.6401868,0.8313876,-0.3222314,59.200073,-72.33202,17.397306,JOG
130776298902000,1.510039,0.610986992071358,5.74940989815659,2.19970618846383,0.6392705,0.72265357,-0.3744604,59.284245,-72.83453,16.909399,JOG
130776303865000,1.515002,0.601565850664024,5.39140613117939,2.13846876931615,0.63163465,0.6261369,-0.4269948,59.397854,-73.329384,16.429605,JOG
130776308848000,1.519985,0.616035705782871,5.02061549333202,2.07206993136422,0.6301075,0.54733527,-0.48716503,59.530254,-73.853806,15.920708,JOG
130776313873000,1.52501,0.744390259176134,4.59276724676479,1.9817463133656,0.6267477,0.4529566,-0.5519168,59.6935,-74.3758,15.413164,JOG
130776318845000,1.529982,0.893672149180328,4.18058959799421,1.88649429891996,0.6215554,0.40469822,-0.6203337,59.845726,-74.87398,14.928386,JOG
130776323864000,1.535001,1.17177823032787,3.82832171774349,1.75671142878496,0.6133087,0.30634892,-0.6575964,60.03721,-75.366356,14.449063,JOG
130776328845000,1.539982,1.45381653203495,3.48839797946851,1.62878572482708,0.61086524,0.2144137,-0.7107417,60.175655,-75.78227,14.043604,JOG
130776333872000,1.545009,1.81308969809793,3.26494755496906,1.51048844665089,0.6038403,0.10140363,-0.74464476,60.347824,-76.19434,13.641609,JOG
130776338846000,1.549983,2.16857502294321,3.04385298336367,1.39343838465599,0.6114761,-0.019547688,-0.77274454,60.428993,-76.500946,13.345811,JOG
130776343906000,1.555043,2.60518249076713,2.8425501528296,1.34333834138545,0.61300325,-0.17989981,-0.8081747,60.55554,-76.8145,13.043163,JOG
130776349216000,1.560353,3.07221311651329,2.64341119137014,1.29500859538855,0.59315014,-0.37782016,-0.81000733,60.728073,-77.121605,12.747075,JOG
130776353864000,1.565001,3.44087912183027,2.6479626194274,1.13570847080777,0.56321776,-0.58062744,-0.77824235,60.89838,-77.33333,12.550993,JOG
130776359095000,1.570232,3.85132349139022,2.65045429670182,0.951589366527325,0.51159966,-0.77488256,-0.7119634,61.07357,-77.45385,12.447836,JOG
130776363885000,1.575022,4.1635934653116,2.61526896822627,0.714088229394056,0.43890667,-1.0177015,-0.6432411,61.31924,-77.55864,12.359056,JOG
130776368772000,1.579909,4.48218706918504,2.57937111848514,0.471777570277085,0.37659842,-1.3142766,-0.54275376,61.59051,-77.57332,12.365321,JOG
130776373858000,1.584995,4.75975325764236,2.76296906645355,0.107628582310689,0.36774087,-1.6636915,-0.39553526,61.942944,-77.54958,12.408,JOG
130776378808000,1.589945,5.02495704885115,2.96187193458541,-0.2570267567003,0.40317106,-2.0329595,-0.24770586,62.38215,-77.49201,12.481911,JOG
130776383882000,1.595019,4.76714204882155,2.76955480261878,-1.21869523046203,0.4746423,-2.3768766,-0.12614368,62.859753,-77.34317,12.647743,JOG
130776388886000,1.600023,4.46684307912458,2.54545104638982,-2.21819785032735,0.5546656,-2.637716,-0.035430185,63.41227,-77.15413,12.845295,JOG
130776393898000,1.605035,3.85241937253881,2.43192429680175,-2.97186598989478,0.6591236,-2.8252518,0.003970624,63.97733,-103.10192,13.09622,JOG
130776398779000,1.609916,3.17552906563184,2.34913925195333,-3.64388663613918,0.7492262,-2.8747318,-0.028710667,64.56603,-103.37746,13.34583,JOG
130776403867000,1.615004,2.38681362422569,2.27911952458079,-3.90916398430657,0.8219192,-2.7446175,-0.12217305,64.94012,-103.52035,13.40295,JOG
130776408830000,1.619967,1.60387232333794,2.21348367824028,-4.09669474306569,0.86376345,-2.4178047,-0.23640485,65.24013,-103.70323,13.449372,JOG
130776413876000,1.625013,0.604501065862314,1.89476680482612,-2.78516501710433,0.8927795,-1.9257526,-0.3866777,65.52491,-103.96477,13.503669,JOG
130776418775000,1.629912,-0.403950360377167,1.53800327654872,-1.22967633978506,0.82436264,-1.6423112,-0.47678033,65.76023,-104.25859,13.544175,JOG
130776423862000,1.634999,-0.736909887539588,2.66798723911322,-0.876392500415677,0.72021013,-1.0115929,-0.72326446,65.85479,-104.45974,13.459836,JOG
130776428781000,1.639918,-0.942052975475059,4.00607986935867,-0.741184554988124,0.2284636,-0.30970868,-0.9728029,65.83889,-104.62581,13.360401,JOG
130776433874000,1.645011,-1.49393891177102,6.86222690823093,-0.0738686081236591,-0.4251622,0.44012842,-1.1004738,65.832596,-104.35078,13.007474,JOG
130776438858000,1.649995,-2.09906907966647,9.93908088677589,0.680216667554125,-0.7626653,1.1111639,-1.1939361,65.63604,-104.00356,12.613832,JOG
130776443895000,1.655032,-2.57079527013139,12.3231077880292,1.45233327573723,-0.61269784,1.402852,-1.3341297,65.332634,-103.39101,12.005983,JOG
130776448860000,1.659997,-3.00116441772263,14.4934636741606,2.21589142055474,-0.022296581,1.0283916,-1.529912,65.03164,-102.7666,11.364916,JOG
130776454555000,1.665692,-2.6322298976959,16.0580826616931,1.43573952419407,0.6282749,0.17287487,-1.7467692,64.939926,-101.67168,10.330935,JOG
130776458914000,1.670051,-2.15765881593585,17.0495972076736,0.469648478481527,1.1322387,-0.7724391,-1.8729129,64.985275,-100.66569,9.302423,JOG
130776463875000,1.675012,-1.60299219181144,17.7252381698784,-0.739341929054254,1.4236214,-1.3836098,-1.6988163,65.28951,-99.489975,8.121625,JOG
130776468872000,1.680009,-1.04021120750667,18.278560488487,-1.98786445790296,1.5876387,-1.6215417,-1.2345587,65.74508,-98.509865,7.0547924,JOG
130776473876000,1.685013,-1.00432958808133,17.5151113074853,-2.33792347519187,1.6401732,-1.6267341,-0.66798115,66.18145,-97.93028,6.2108817,JOG
130776478910000,1.690047,-1.14367773250075,16.3090290303997,-2.39077977274993,1.6114625,-1.5555683,-0.1704314,66.65038,-97.54666,5.5360875,JOG
130776483871000,1.695008,-1.76007480310115,14.6311589453193,-1.71142567711815,1.4850134,-1.5070046,0.0711658,67.0146,-97.54378,5.089471,JOG
130776488877000,1.700014,-2.54281191847165,12.7738952225872,-0.780477857632113,1.2770138,-1.4984524,0.024129177,67.35765,-97.60438,4.7301173,JOG
130776493909000,1.705046,-3.35809426507277,11.5672491288981,-0.0807358848232848,1.0015136,-1.4899004,-0.27855456,67.702415,-97.69251,4.3882794,JOG
130776498839000,1.709976,-4.17012275533926,10.692756951616,0.49482277010962,0.61666846,-1.4153748,-0.7110472,68.00703,-97.70047,4.0122814,JOG
130776503878000,1.715015,-4.89189400938488,10.5409887240641,0.633606906444966,0.18906279,-1.2315043,-1.1340714,68.377914,-97.44409,3.4602802,JOG
130776508902000,1.720039,-5.5250360372539,10.9827158394369,0.412743471757625,-0.09468412,-0.9718866,-1.4737124,68.685616,-97.11996,2.8307483,JOG
130776513879000,1.725016,-5.93868134092022,11.7041779886758,0.32268524372373,-0.105068825,-0.8597928,-1.781283,69.07752,-96.633995,1.9856894,JOG
130776518871000,1.730008,-6.21181081359927,12.6162355377474,0.317807924254234,0.06994407,-0.79290307,-1.9040669,69.398636,-96.20045,1.1222888,JOG
130776524645000,1.735782,-6.08630353874889,13.4574174356162,0.267325308614488,0.18478674,-1.1557571,-2.214081,69.81532,-95.86283,0.05330109,JOG
130776528855000,1.739992,-5.84723832054551,13.9992988132227,0.215527834269197,0.5412266,-1.35551,-2.295937,70.16195,-95.8263,-0.9562641,JOG
130776533833000,1.74497,-5.30279864439634,14.3986627876611,-0.130892147803798,0.6261369,-1.7980819,-2.4431555,70.68439,-95.95314,-2.104634,JOG
130776538869000,1.750006,-4.58147853435009,14.645429760799,-0.667136800056086,0.7370089,-2.2186625,-2.6087,71.244446,-96.38669,-3.2559857,JOG
130776543884000,1.755021,-3.79321054949971,14.8715572301354,-1.33443418597999,0.7840455,-2.5399778,-2.7687466,71.87562,-96.97391,-4.3822775,JOG
130776548866000,1.760003,-2.96010525169708,15.082173552678,-2.09265345540122,0.79137594,-2.7776043,-2.9083295,72.58881,-97.69807,-5.5243983,JOG
130776553847000,1.764984,-2.08290791259416,15.2670423808376,-3.05929781660139,0.74220127,-2.8680124,-3.0228667,73.271774,-98.48913,-6.5661445,JOG
130776558868000,1.770005,-1.16051526679723,15.4312382080948,-4.21349596835392,0.65118235,-2.7565293,-3.0842586,73.95088,-99.3082,-7.599638,JOG
130776563858000,1.774995,-0.176477704602389,15.7468085633557,-5.57397783186717,0.5390886,-2.4178047,-3.1294627,74.48097,-100.10233,-8.489175,JOG
130776568851000,1.779988,0.863526816982231,16.1878816217108,-7.11077024275172,0.42485678,-1.8164078,-3.1132748,74.88992,-100.863075,-9.337114,JOG
130776573846000,1.784983,2.05854200245579,16.7976835502779,-8.6457910661142,0.31948254,-0.92271197,-3.0072896,74.979324,-101.55467,-9.988247,JOG
130776578857000,1.789994,3.42135300888327,17.5882112127337,-10.1831969601415,0.22174409,0.17989981,-2.8145616,74.82987,-102.1794,-10.563019,JOG
130776583837000,1.794974,4.85099444654966,18.173322030714,-11.534501559633,0.11484267,1.3677273,-2.5760188,74.274376,-102.750175,-10.909963,JOG
130776588828000,1.799965,6.35718915710012,18.5641703862186,-12.7165786995413,0.06872234,2.6740627,-2.3674083,73.37941,-103.26355,-11.158985,JOG
130776593854000,1.804991,7.91826136052059,18.8586220602732,-12.8592046245051,0.05222898,4.0173554,-2.228131,72.03009,-103.731186,-11.162174,JOG
130776598834000,1.809971,9.5089555226346,19.0521485864014,-11.9623738525336,0.10995574,4.941289,-2.1728477,70.463684,-104.18623,-11.092678,JOG
130776603835000,1.814972,11.1834160401654,19.1986790758023,-9.57014119944871,0.5305365,4.8667636,-2.1658227,68.74319,-104.71714,-10.850883,JOG
130776608832000,1.819969,12.94065403544,19.2929009100217,-5.55157721519984,1.597718,3.594331,-2.1502457,67.15373,-105.41208,-10.613325,JOG
130776613834000,1.824971,14.4250250110152,19.3647624846705,-2.6425982904351,3.1645875,2.6471846,-2.1230621,65.559555,-106.21815,-10.271824,JOG
130776618841000,1.829978,15.5694421020745,19.4087784912796,-1.11524175803194,3.968486,0.8060367,-1.9920316,64.6092,-107.108246,-10.031941,JOG
130776623814000,1.834951,16.282617074504,19.4475730472773,1.35629958020262,5.1553974,-0.7819075,-1.7583756,64.12004,-108.02729,-9.724757,JOG
130776629065000,1.840202,15.7943860101309,19.4741073322077,6.76399061713803,5.6230145,-2.359467,-1.5748106,64.13724,-108.98855,-9.538592,JOG
130776633796000,1.844933,14.6014279329367,19.4940838465107,10.658453636547,5.4443364,-5.122105,-1.4914275,65.01862,-109.895584,-9.4892645,JOG
130776638831000,1.849968,12.0533366012505,19.5086719415087,13.143328705123,4.341114,-8.339838,-1.493871,66.43599,-110.69493,-9.627242,JOG
130776643816000,1.854953,10.0163999961121,19.5192737010475,14.0917562726243,2.3606887,-9.898766,-1.3243558,68.53572,-110.72979,-9.967303,JOG
130776648843000,1.85998,8.73980546650939,19.5238173082948,12.6288973751062,0.37293324,-9.78148,-0.90469146,71.064514,-110.46018,-10.37742,JOG
130776653774000,1.864911,7.87368731044718,19.1898926861941,10.298196327397,-0.8035932,-8.155051,-0.58184916,73.8295,-109.73485,-11.032637,JOG
130776658869000,1.870006,8.10712735604374,17.8559468679945,5.27207901612966,-0.93737274,-5.0350566,-0.45478916,76.16472,-108.80389,-11.438531,JOG
130776663797000,1.874934,8.29473731399252,16.4371599837921,1.2551384463067,-0.58459806,-1.4037683,-0.3594942,77.85036,-107.894226,-11.641884,JOG
130776668837000,1.879974,8.34565740989738,14.5114744443272,0.264521714207346,-0.31337386,1.1859949,-0.33933565,78.93964,-106.98042,-11.661946,JOG
130776673811000,1.884948,8.38470445465903,12.6464605300364,-0.348064358225924,-0.110872045,2.1041253,-0.43676865,79.05652,-106.543205,-11.381294,JOG
130776678851000,1.889988,8.34952782581989,10.9931678949505,1.46603509930661,0.027794369,1.8261817,-0.589485,78.7736,-106.15747,-11.027603,JOG
130776683815000,1.894952,8.34377521600155,9.52200352285936,2.83976806233049,0.0571159,1.0965031,-0.6743952,78.251686,-105.93272,-10.64928,JOG
130776688834000,1.899971,8.44620190236343,8.62344326051918,2.68147242900039,-0.06291912,0.38026363,-0.6560693,77.805244,-105.71602,-10.298917,JOG
130776693917000,1.905054,8.54689602511839,7.69338390347951,2.28627767244698,-0.24740042,-0.03023783,-0.5720753,77.61334,-105.39502,-10.0615,JOG
130776699020000,1.910157,8.63242196891085,6.65701240798847,0.686442283487749,-0.4260785,-0.14538592,-0.45081854,77.54605,-105.03419,-9.829104,JOG
130776703832000,1.914969,8.67410923949955,5.64687062210307,-0.680880433536888,-0.5500842,-0.029626964,-0.32467487,77.51133,-104.67483,-9.597125,JOG
130776708888000,1.920025,8.56833536997319,4.45931999285076,-1.57514935110217,-0.5842926,0.24007004,-0.18936823,77.47511,-104.26817,-9.323762,JOG
130776713879000,1.925016,8.49397704446309,3.16073179723154,-2.07235830728188,-0.571159,0.38056904,-0.12583824,77.30276,-104.02389,-9.024806,JOG
130776718835000,1.929972,8.53777652600671,1.37690054800336,-1.05700790222148,-0.54336464,0.6188065,0.005497787,77.0392,-103.74044,-8.648712,JOG
130776723859000,1.934996,8.58217696895973,-0.431406190520134,-0.0277261356711409,-0.4541783,0.77121735,0.13103059,76.67986,-103.69951,-8.404109,JOG
130776728856000,1.939993,8.6882953425174,-1.14644576184261,0.588291288934648,-0.31642818,0.8454375,0.2593123,76.28349,-103.663246,-8.116115,JOG
130776733870000,1.945007,8.80899052407193,-1.61530008367169,1.11285107320766,-0.13041973,0.91782504,0.39828414,75.853065,-103.64929,-7.7848525,JOG
130776738870000,1.950007,8.56694084085554,-1.57771510513866,1.25471532457858,0.074830994,1.0629056,0.5726862,75.474144,-103.5027,-7.331463,JOG
130776744741000,1.955878,8.13890588598876,-1.33312378597064,1.27000227205003,0.2938262,1.3121386,0.7519751,75.05499,-103.397934,-6.8263507,JOG
130776748893000,1.96003,7.50298443131982,-0.884873962527927,0.919977695941663,0.4538729,1.6487253,0.9599747,74.62439,-103.225746,-6.190881,JOG
130776753842000,1.964979,6.53722762339677,-0.178940074358709,0.27777395328403,0.5158757,2.0454822,1.1682798,74.11777,-103.08889,-5.4820685,JOG
130776758862000,1.969999,5.42810496697679,0.463965500359881,-0.179421437138738,0.4392121,2.4938574,1.3420709,73.52964,-102.98692,-4.7612634,JOG
130776763839000,1.974976,4.24394228136182,1.05361030628361,-0.505918969189449,0.29168814,2.87687,1.4844025,72.85948,-102.904076,-3.9669156,JOG
130776768846000,1.979983,3.14200073663483,1.46818663458698,-0.372761896919366,0.089186326,3.118467,1.5540411,72.11038,-103.00155,-3.4074106,JOG
130776773826000,1.984963,2.0948975132421,1.78278716407404,0.0122715565609924,-0.12034045,3.1386256,1.5564847,71.32206,-103.08257,-2.8188903,JOG
130776778851000,1.989988,1.0839381729892,2.05028173493397,0.767334490252101,-0.32895094,2.944676,1.4966198,70.56291,-103.31408,-2.6567585,JOG
130776783843000,1.99498,0.108276543217287,2.28463186410564,1.74777881159664,-0.5103779,2.5433373,1.4114041,69.85512,-103.50881,-2.506355,JOG
130776788852000,1.999989,-0.881988111705587,2.48850627566263,2.89989386000591,-0.63499445,1.9917262,1.3045027,69.28407,-103.380066,-2.078679,JOG
130776793865000,2.005002,-1.88009626810523,2.67299065234013,4.15817256730712,-0.7476991,1.3762794,1.187522,68.83722,-103.22217,-1.7142558,JOG
130776798840000,2.009977,-2.7542718181954,2.85723325709591,5.07479784935763,-0.8582657,0.7629707,1.0149527,68.66488,-103.13949,-2.0728528,JOG
130776803837000,2.014974,-3.55019219657405,3.04310687660592,5.7611001420476,-1.0369438,0.2510656,0.8249735,68.63266,-103.028015,-2.4875493,JOG
130776808830000,2.019967,-4.01302813772582,3.2282896314559,5.82675917056323,-1.2626585,0.06169739,0.72509706,68.75919,-102.38532,-2.5729241,JOG
130776814327000,2.025464,-4.25206346474737,3.43172387775094,5.39446151667472,-1.4001031,-0.15027285,0.559858,69.01936,-101.74175,-2.7654,JOG
130776818835000,2.029972,-4.1991028395122,3.58532283804878,4.82330045536585,-1.6584991,-0.17592919,0.45540005,69.3419,-100.88742,-3.034357,JOG
130776823824000,2.034961,-3.92408394680976,3.74380832803902,4.00290525549268,-1.8741345,-0.06780604,0.4251622,69.67868,-100.044624,-3.3321486,JOG
130776828842000,2.039979,-3.48704000263999,3.94566227101165,3.09323738655254,-2.0512855,0.09285152,0.45356745,69.979866,-99.262825,-3.6753159,JOG
130776833843000,2.04498,-2.85978531000309,4.19755197063009,2.08567874279674,-2.2046127,0.25411993,0.5369505,70.24924,-98.487015,-4.0051107,JOG
130776838830000,2.049967,-2.18045462251799,4.5766534400276,1.05271792552499,-2.339003,0.4288274,0.6948592,70.421684,-97.900925,-4.323335,JOG
130776843853000,2.05499,-1.44535003682343,5.07937011677019,-0.0143694721384207,-2.4507914,0.65668017,0.9086621,70.53789,-97.33728,-4.5940886,JOG
130776848864000,2.060001,-0.634357670076472,5.63425635584467,-1.0593190629854,-2.5231788,0.94959,1.2082914,70.60555,-97.368065,-5.169121,JOG
130776853838000,2.064975,0.250313306644155,6.23980644933956,-2.07645414581388,-2.5720482,1.3011429,1.5118915,70.60322,-97.38834,-5.6429954,JOG
130776858827000,2.069964,1.23472833059937,7.0365096259858,-3.07973452231861,-2.5873199,1.7363845,1.7956384,70.32688,-97.04994,-5.5842943,JOG
130776863877000,2.075014,2.34081931640379,8.05678336908517,-4.07616981608833,-2.6218336,2.2592852,2.084883,69.932594,-96.65459,-5.4329967,JOG
130776868837000,2.079974,3.45033124482082,9.43766261458027,-4.7122156984487,-2.6685648,2.8515189,2.386956,69.273605,-96.06675,-4.94875,JOG
130776873860000,2.084997,4.60275638404516,11.3079918297496,-4.92947625474718,-2.7531698,3.4293976,2.7079656,68.4773,-95.40973,-4.38081,JOG
130776878813000,2.08995,5.75583766475925,13.1195283755358,-4.48712018263384,-2.9135218,3.8325686,3.080288,67.48243,-94.633064,-3.5484357,JOG
130776884514000,2.095651,7.11111097299372,15.1497163675606,-2.87603224575815,-3.1957414,3.87594,3.4807103,66.44046,-93.78867,-2.6327121,JOG
130776888800000,2.099937,7.906271394,16.3217285125743,-1.37707654526733,-3.5543194,3.382361,3.8649445,65.42047,-92.77116,-1.4294009,JOG
130776893886000,2.105023,8.538023798,17.2187211543564,0.802710944316831,-3.8835757,2.3518312,4.166101,64.55702,-91.94716,-0.17717707,JOG
130776898778000,2.109915,8.69440397543891,17.9036669268029,2.25357007851805,-4.0320163,1.0100657,4.2537603,64.00698,-91.72446,1.2740035,JOG
130776903873000,2.11501,8.08376719331953,18.3122228987125,2.65773247876114,-3.8841867,0.3371976,4.0402627,63.554882,-92.69982,2.672107,JOG
130776908828000,2.119965,7.31719226553961,18.6810829549833,2.97603553699626,-3.556152,-0.9306532,3.8139372,63.753143,-85.82306,4.1212025,JOG
130776913877000,2.125014,5.61099660835463,18.9044562930018,2.89999349784745,-3.3658676,-2.1197023,3.1059444,64.10092,-84.40494,5.3334684,JOG
130776918847000,2.129984,3.97272363159332,19.1103472416793,2.77363815511381,-3.0320296,-3.4550538,2.1606305,64.84847,-83.19039,6.3114643,JOG
130776923864000,2.135001,2.60204010051593,19.2221408217501,2.29244055575114,-2.7531698,-4.8295007,1.1661417,65.94501,-82.19617,7.06809,JOG
130776928833000,2.13997,1.39933427364211,19.3249224258647,1.76121937716692,-2.406809,-5.774204,0.4868596,67.279396,-81.6152,7.440182,JOG
130776933874000,2.145011,1.07990955755789,19.3829992941353,0.904580506433083,-1.8982637,-5.850562,0.2406809,68.762146,-81.22883,7.6615877,JOG
130776938860000,2.149997,0.86943875346632,19.4357155003373,0.0595723945562301,-1.3234396,-5.3429327,0.31642818,70.32268,-81.185165,7.602004,JOG
130776943894000,2.155031,1.22252092297196,19.4635904809675,-0.781320572815843,-0.8051204,-4.603786,0.62125,71.83176,-81.19465,7.5417256,JOG
130776948817000,2.159954,1.560849897177,19.489897209149,-1.65503926396044,-0.45112398,-3.7158933,1.0323622,73.101906,-81.310104,7.4669976,JOG
130776953807000,2.164944,1.81687596991552,19.5046677325366,-3.18134895899444,-0.18112154,-2.7953193,1.395827,74.13686,-81.412346,7.4511747,JOG
130776958874000,2.170011,2.09269130718644,19.4185564718644,-4.70193945830508,0.0870483,-1.7876972,1.5021176,74.84924,-81.52488,7.497246,JOG
130776963877000,2.175014,2.45928774332203,18.7317678903632,-6.02911155525424,0.33292156,-0.65576386,1.3952162,75.251656,-81.61562,7.5630846,JOG
130776968848000,2.179985,2.88154950496012,18.0829328747325,-7.25515696440381,0.57848936,0.364992,1.2296717,75.338455,-81.787476,7.6091857,JOG
130776973871000,2.185008,4.03713823716203,17.8490087065746,-7.33001275683719,0.8686504,1.106277,1.2021828,75.17446,-81.93831,7.654784,JOG
130776979137000,2.190274,5.26285846655396,17.6160460698163,-7.31378971430138,1.1716396,1.5827519,1.321607,74.732124,-82.12417,7.672104,JOG
130776983874000,2.195011,6.53141282481952,17.5497163820707,-6.19447700195559,1.3096951,1.7296649,1.525636,74.16801,-82.21747,7.714206,JOG
130776988860000,2.199997,7.86664863446952,17.4799000799598,-5.01632771258339,1.2754866,1.7186694,1.7510452,73.53366,-82.00137,7.9935594,JOG
130776993892000,2.205029,8.99752142053311,16.3001995987991,-3.53974715398472,1.135904,1.5885551,1.9034561,72.89399,-98.32523,8.312993,JOG
130776998782000,2.209919,10.0541068613082,14.9368638618996,-2.04859850824236,0.97341377,1.4743233,1.9679024,72.25732,-98.74886,8.672422,JOG
130777003868000,2.215005,9.81274126821794,13.460737450541,-1.6165618435507,0.84329945,1.2855659,1.8839084,71.75117,-99.41932,9.272776,JOG
130777008907000,2.220044,8.77300685301159,11.9635199312458,-1.85685598948578,0.7996226,1.1551461,1.788308,71.264175,-100.10308,9.8767185,JOG
130777013876000,2.225013,7.39519979978858,10.8072504780127,-2.19330538691332,0.71959925,1.119716,1.4999796,70.859116,-100.85058,10.589412,JOG
130777018874000,2.230011,5.72043498435518,9.90662197293869,-2.61326149158562,0.636827,1.2815952,1.1838568,70.42929,-101.54873,11.25604,JOG
130777023884000,2.235021,4.18515743845773,9.24037469650114,-2.87352993544454,0.5635232,1.5406022,0.9117164,69.96401,-102.1094,11.779855,JOG
130777028885000,2.240022,2.72779426278125,8.69920394062841,-3.0491731450788,0.5045747,1.8304577,0.6722572,69.4377,-102.5826,12.221127,JOG
130777033870000,2.245007,1.39492638306534,8.14316979855465,-3.01761404366155,0.4810564,2.0983222,0.46700647,68.80995,-102.84047,12.43151,JOG
130777038871000,2.250008,0.125839413574225,7.57592599006323,-2.86859232517314,0.4596761,2.2962425,0.269697,68.11881,-103.03285,12.579577,JOG
130777043873000,2.25501,-0.951966323139512,6.99170327882927,-2.63189043853659,0.41447207,2.3924537,0.0711658,67.31566,-102.93151,12.404991,JOG
130777048877000,2.260014,-1.92443912339707,6.39793400897561,-2.34669417121951,0.3662137,2.3964243,-0.11209377,66.49611,-102.79737,12.191271,JOG
130777053872000,2.265009,-2.79925625373077,5.76105727269231,-1.94677330396154,0.3210097,2.3380868,-0.2843578,65.71317,-102.56032,11.875982,JOG
130777058907000,2.270044,-3.61527381397115,5.08877003278846,-1.46458108506731,0.26175576,2.1792617,-0.4251622,64.975746,-102.2968,11.526832,JOG
130777063873000,2.27501,-4.34854137800756,4.37481557215152,-1.03206614583416,0.21991149,1.9407189,-0.539394,64.33426,-102.02245,11.19506,JOG
130777068869000,2.280006,-5.01927598528535,3.60894133914297,-0.637236607158481,0.17165314,1.6358972,-0.6203337,63.76345,-101.71951,10.82807,JOG
130777073876000,2.285013,-5.54392746329755,2.85860992183512,-0.452744163186145,0.14019357,1.3051136,-0.6933321,63.290825,-101.32506,10.38582,JOG
130777078886000,2.290023,-5.92294543038282,2.12486979848086,-0.47704020232935,0.13469578,1.0213667,-0.77671516,62.89422,-100.90691,9.907944,JOG
130777083871000,2.295008,-6.19169218878523,1.54297931736383,-0.574613208881533,0.15241088,0.79198676,-0.8546005,62.588043,-100.40466,9.350273,JOG
130777088868000,2.300005,-6.36450713553014,1.0917405932892,-0.737827193811817,0.1872302,0.5766568,-0.93462384,62.359547,-99.88435,8.755736,JOG
130777093841000,2.304978,-6.42016753410113,0.746849592909843,-0.905022889458341,0.23548855,0.37140608,-1.0369438,62.190075,-99.32807,8.093616,JOG
130777098846000,2.309983,-6.37272721333453,0.492397275301422,-1.07753297238978,0.3032946,0.2648101,-1.1468995,62.052856,-98.768715,7.3961825,JOG
130777103877000,2.315014,-6.2464465796576,0.243725389724068,-1.27091656837865,0.39492437,0.07452556,-1.2012665,61.99189,-98.23508,6.659883,JOG
130777108882000,2.320019,-5.94717378912387,0.0120303208821752,-1.50743860438066,0.42821655,-0.08368854,-1.3087788,61.948086,-97.697495,5.8670526,JOG
130777113773000,2.32491,-5.59587112298186,-0.180111538357584,-1.73636653577835,0.49663344,-0.19242255,-1.4022411,61.933617,-97.25653,5.0636253,JOG
130777118878000,2.330015,-5.09401461959338,-0.301921376587602,-1.97024147239386,0.56046885,-0.22693644,-1.4605788,61.939907,-96.87783,4.229333,JOG
130777123792000,2.334929,-4.61622444645249,-0.454796527962729,-2.13167662886538,0.6392705,-0.22968534,-1.4770721,61.95047,-96.663956,3.4164732,JOG
130777128881000,2.340018,-4.13373291373386,-0.696042264686014,-2.15059784994662,0.7171558,-0.18661933,-1.4422529,61.954826,-96.57232,2.5945654,JOG
130777133801000,2.344938,-3.70659079918609,-0.973544173090836,-2.02242014434285,0.7993172,-0.17195857,-1.3961325,61.94726,-96.68696,1.8382837,JOG
130777139456000,2.350593,-3.3528735607918,-1.44698120494373,-1.36396170649116,0.87964594,-0.15363261,-1.3460416,61.923626,-96.92987,1.0885601,JOG
130777143836000,2.354973,-3.13827931613264,-1.84984907501863,-0.683851438934426,0.9288206,-0.19608775,-1.2947289,61.900784,-97.301796,0.42103714,JOG
130777148845000,2.359982,-3.05338413779806,-2.40836979112332,0.553830377254098,0.89461213,-0.2874121,-1.2504412,61.883755,-97.74118,-0.24038748,JOG
130777153835000,2.364972,-2.96930905779663,-2.96027411874359,1.75211016719172,0.7715228,-0.34788775,-1.2140946,61.89493,-98.119644,-0.851819,JOG
130777158896000,2.370033,-2.88799408542269,-3.48430366292292,2.69174946534626,0.47433686,-0.21105394,-1.1355985,61.87681,-98.477936,-1.4394652,JOG
130777164197000,2.375334,-2.76631392455259,-3.99019078697017,3.65737802527473,0.06872234,0.36926803,-0.977079,61.83701,-98.54823,-1.9879719,JOG
130777168876000,2.380013,-1.82837823405547,-3.45869388915925,4.08726529224664,-0.47158796,1.5329664,-0.6722572,61.604607,-98.51569,-2.4498796,JOG
130777173860000,2.384997,-0.829303328854003,-2.8925514359236,4.54517470421245,-1.1679744,2.840829,-0.29535335,61.247063,-98.151436,-2.8284163,JOG
130777178814000,2.389951,0.408792858074459,-1.65225288362338,4.68985864258009,-1.7024814,3.549738,0.01038471,60.742363,-97.69474,-3.1294563,JOG
130777183853000,2.39499,1.78757941247792,-0.0603811502337662,4.68568050446753,-1.6526959,3.2430835,0.23762658,60.169285,-97.203415,-3.3446243,JOG
130777188824000,2.399961,3.04684611166949,1.5782045218102,4.12586114969319,-0.9737192,2.0650299,0.46792278,59.705574,-96.49985,-3.2680519,JOG
130777193866000,2.405003,4.14518996133094,3.36109772958633,2.57285393651079,0.06811147,0.61117065,0.73731434,59.41865,-95.86632,-3.1348171,JOG
130777198812000,2.409949,4.97696619785672,4.75324944487994,0.771166667850764,0.9957104,-0.013133603,0.8940013,59.4469,-95.138664,-2.5523705,JOG
130777203838000,2.414975,5.54531613236753,5.76577185510022,-1.373279714487,1.3377949,-0.9147707,1.2434162,59.956142,-94.51321,-1.9119575,JOG
130777209461000,2.420598,6.03914799893238,6.57060972135231,-3.20737826156584,1.752267,-1.5360206,1.7314975,60.277534,-94.43612,-1.0857098,JOG
130777213845000,2.424982,6.32137025247133,6.96074065057335,-4.22835903341242,1.8548924,-1.5897768,1.8481728,60.68177,-94.533966,-0.28536472,JOG
130777218805000,2.429942,6.25708352746914,6.90437538611111,-4.63662285709877,1.7938058,-1.5454891,2.007914,61.101517,-95.37656,0.76426446,JOG
130777223826000,2.434963,5.68199127267554,6.18550983758681,-4.05689256978202,1.5415184,-1.349096,2.051591,61.478935,-96.34177,1.7816244,JOG
130777228783000,2.43992,4.61394033822032,5.80389023404602,-1.6125813700672,1.1407908,-1.0876455,2.0161607,61.74377,-97.60241,2.8427486,JOG
130777233844000,2.444981,2.59073010089595,6.02594993068621,4.37315978882101,0.6554584,-0.9101892,1.9031507,61.95409,-98.784225,3.8492668,JOG
130777238823000,2.44996,1.67554438937483,6.99600443043919,6.15077005877912,0.2012801,-2.334727,1.5372424,62.546066,-99.681305,4.563196,JOG
130777243879000,2.455016,2.41114467369487,9.14484912024675,1.59004797013166,-1.3955216,-4.736649,1.044885,63.34018,-100.13917,5.1404953,JOG
130777248880000,2.460017,2.87174158027565,11.2969355381317,-2.70911779265952,-3.4492507,-5.1896057,1.180497,64.345406,-99.142715,5.369213,JOG
130777253838000,2.464975,2.45969943558959,13.5171157898928,-6.28176639078101,-3.2824843,-4.3035455,1.4779885,65.6164,-98.31789,5.4521513,JOG
130777258882000,2.470019,1.82689041997012,15.4604333441235,-9.09084105926295,-1.6441438,-2.9184086,1.5039502,66.59434,-98.25787,5.688291,JOG
130777263882000,2.475019,0.6345588562251,16.5526091409363,-9.69177582021912,0.24495697,-1.5262468,1.2244794,67.29898,-98.3013,5.9401107,JOG
130777268823000,2.47996,-0.536651866035733,17.4763900495312,-9.86961634243764,1.4825699,-0.3921755,0.7107417,67.49214,-98.859344,6.056528,JOG
130777273828000,2.484965,-1.70251753108969,17.9596943817442,-8.83941531493013,2.0460932,0.26175576,0.05375614,67.41226,-99.564835,6.0747457,JOG
130777279290000,2.490427,-2.91520265509136,18.4081427573333,-7.71746958311111,2.090381,0.5009095,-0.63529986,67.2042,-100.27985,5.8529644,JOG
130777283841000,2.494978,-3.35427162836543,18.0250335093333,-6.80489497244444,1.8161024,0.5467244,-1.1795808,66.852715,-100.98969,5.521439,JOG
130777289181000,2.500318,-3.86027066073539,17.5364285213395,-5.73086692606697,1.3545936,0.65026605,-1.5357152,66.492516,-101.34558,4.907489,JOG
130777293863000,2.505,-4.10000429996248,16.2410257080949,-4.7172560425476,0.9049969,0.70402217,-1.7959439,66.112724,-101.637276,4.205413,JOG
130777298779000,2.509916,-4.35171950082544,14.8808804219116,-3.65298626395273,0.61208695,0.77579886,-1.9178114,65.73406,-101.745834,3.4254282,JOG
130777303841000,2.514978,-4.81473515984237,13.562202162888,-2.75022925725406,0.5027421,0.7644979,-2.1520782,65.346344,-101.82097,2.5745482,JOG
130777308821000,2.519958,-5.31129029597159,12.2813681626934,-1.90098075204826,0.3436117,0.7370089,-2.3316727,64.94337,-101.86549,1.741032,JOG
130777313850000,2.524987,-6.19720370736305,11.7223352261928,-1.37026747330061,0.23609942,0.7498371,-2.5042422,64.55441,-101.84604,0.83797795,JOG
130777318777000,2.529914,-7.1699932767524,11.3749106218339,-0.939460654325545,0.14813483,0.78954333,-2.6762006,64.16198,-101.860306,-0.08957113,JOG
130777323824000,2.534961,-8.0103112499239,11.9795468037544,-0.892327091454084,0.06414085,0.8912524,-2.8787024,63.78473,-101.85652,-1.1178315,JOG
130777328784000,2.539921,-8.78150896073059,12.9098037372907,-0.983906830307458,-0.0125227375,0.9077458,-3.089451,63.41694,-101.93224,-2.1801417,JOG
130777333839000,2.544976,-9.16449400696557,14.2568247122535,-1.00191737952516,-0.06352998,0.8402451,-3.2537737,63.069954,-102.080635,-3.4003167,JOG
130777338810000,2.549947,-9.42137127322672,15.7000060369862,-0.997246892642009,-0.11178834,0.65270954,-3.3484578,62.750603,-102.34683,-4.647133,JOG
130777343888000,2.555025,-9.26130655749561,16.7547709076351,-0.970098165967559,-0.13255776,0.2941316,-3.4046574,62.508873,-102.76002,-6.0029373,JOG
130777348957000,2.560094,-8.95034626748631,17.6575572414506,-0.934989802722389,-0.16584991,-0.15760323,-3.3759468,62.35132,-103.281876,-7.3495684,JOG
130777353875000,2.565012,-7.96814535767694,18.1700559483765,-1.46871215766158,-0.1740966,-0.5919284,-3.2669072,62.317387,-103.86426,-8.672531,JOG
130777358882000,2.570019,-6.81885243500973,18.6120925557718,-2.13667752386562,-0.1133155,-0.8943067,-3.1291573,62.382328,-104.52755,-9.959944,JOG
130777363854000,2.574991,-5.52507481589031,18.8472697242675,-3.34303591247183,0.03573562,-0.9166033,-2.973081,62.517918,-105.17581,-11.115192,JOG
130777368805000,2.579942,-4.21146115621713,19.0476513129226,-4.63438485818933,0.2657264,-0.6469063,-2.7892108,62.668346,-105.85445,-12.1902275,JOG
130777373819000,2.584956,-2.89560893943893,19.1817284588836,-6.02969524891545,0.5653558,-0.10751228,-2.554333,62.74201,-106.45664,-12.992309,JOG
130777378848000,2.589985,-1.58164201997494,19.2885170170635,-7.46437979118866,0.9737192,0.6261369,-2.2892175,62.692623,-107.0654,-13.687369,JOG
130777383840000,2.594977,-0.497550831583755,19.3597511697945,-8.53560314596366,1.3888022,1.4669929,-2.022575,62.418472,-107.58953,-14.049323,JOG
130777388828000,2.599965,0.465325714824744,19.4119268087578,-9.41310185314269,1.8161024,2.3478606,-1.8044959,61.931137,-108.122696,-14.297107,JOG
130777393871000,2.605008,1.36815007515843,19.449194973579,-9.53131705586429,2.2052236,2.7934868,-1.6319265,61.295788,-108.61342,-14.242005,JOG
130777398844000,2.609981,2.21785853718631,19.4770543430828,-9.20629172477333,2.3832908,3.5811975,-1.5543466,60.320244,-109.12586,-14.074533,JOG
130777403833000,2.61497,3.22959899236125,19.4968359547476,-7.62310300491201,2.7027733,3.9623773,-1.459968,59.325516,-109.682686,-13.70222,JOG
130777408870000,2.620007,4.36769258289499,19.5108287037324,-5.1043713672017,2.960253,3.7015378,-1.421178,58.304455,-110.29143,-13.313311,JOG
130777413842000,2.624979,5.70663200546674,19.5200601177927,-1.53426472701392,3.3206635,2.6254988,-1.5042557,57.417255,-110.96235,-12.898494,JOG
130777418875000,2.630012,7.26772740113461,19.5250323791645,3.11422051024239,3.9202278,0.6835582,-1.6807957,56.846844,-111.785065,-12.599593,JOG
130777423872000,2.635009,9.30619304103778,19.18535078248,7.12351177883003,4.7229047,-2.74981,-1.8701639,57.002533,-112.623024,-12.608931,JOG
130777428988000,2.640125,11.7566651882214,18.581190396567,10.7774703125185,5.0961432,-6.949203,-1.8564194,57.893707,-113.49868,-12.878123,JOG
130777433873000,2.64501,12.4920029714127,17.5602751799426,11.4657970589324,3.9559634,-9.097921,-1.6627752,59.307285,-113.8572,-13.301007,JOG
130777438865000,2.650002,11.9789436941438,16.16705319382,9.96200151077806,2.1487186,-8.908553,-1.5167783,61.21938,-114.138535,-13.912381,JOG
130777443963000,2.6551,11.6206322459034,14.6900862360501,7.3945979945807,0.61208695,-7.309003,-1.3631458,63.516582,-113.868454,-14.408835,JOG
130777448977000,2.660114,11.5126338971833,13.1575389047874,3.34723275418229,-0.2284636,-4.9852715,-1.1933253,65.58306,-113.331314,-14.752781,JOG
130777453867000,2.665004,11.2590107048269,11.9021180975134,0.267260535894685,-0.25778514,-2.3817637,-1.0509937,67.0338,-112.8002,-14.903871,JOG
130777458898000,2.670035,10.8643546334471,10.8262101706485,-2.1194683821843,0.12461651,-0.005497787,-0.9651671,67.911095,-112.15967,-14.82781,JOG
130777464458000,2.675595,10.3700120806435,9.85270677466063,-3.13481300405229,0.44715336,1.7067575,-0.92149025,67.97425,-111.79634,-14.48743,JOG
130777468878000,2.680015,9.93586363619909,9.23127877466063,-2.79430429294118,0.59437186,2.6575692,-0.8753699,67.58814,-111.458305,-13.9904175,JOG
130777473867000,2.685004,9.41772288840522,8.4897159937871,-1.79290939166996,0.6563747,2.9000828,-0.8188649,66.73657,-111.40611,-13.382757,JOG
130777478879000,2.690016,8.86688385793431,7.70144670237436,-0.121398416877721,0.6258314,2.5821273,-0.7666359,65.78635,-111.37414,-12.727273,JOG
130777483857000,2.694994,8.25657420069328,6.91813277785481,1.36382477771615,0.5222898,1.8603901,-0.7031059,64.92204,-111.36662,-12.14533,JOG
130777488880000,2.700017,7.56576285632366,6.12727279514707,2.65492760388234,0.3454443,0.9810496,-0.63255095,64.20044,-111.33734,-11.5834055,JOG
130777493828000,2.704965,6.90015198973903,5.30587865840253,3.40173742586002,0.13683382,0.54244834,-0.5888741,63.68605,-111.17745,-11.156972,JOG
130777498978000,2.710115,6.22733304994069,4.39416014812179,3.47486986951364,0.047036625,-0.23609942,-0.5161811,63.519196,-110.989006,-10.806806,JOG
130777503801000,2.714938,5.64428440632947,3.54991311415654,3.17594669511161,-0.1328632,-0.8237518,-0.43188173,63.51437,-110.65193,-10.598457,JOG
130777508888000,2.720025,5.09824045040972,2.67348956631817,2.32246625035321,-0.25228736,-1.1850786,-0.36132678,63.668694,-110.29543,-10.418367,JOG
130777513785000,2.724922,4.57510570186009,1.84047787280631,1.38184063400728,-0.26297748,-1.3100005,-0.30818152,63.927063,-109.98152,-10.363615,JOG
130777518874000,2.730011,4.0380792536393,1.00291392396886,0.0910067295794581,-0.18784106,-1.1911873,-0.22937989,64.22842,-109.642265,-10.289731,JOG
130777523793000,2.73493,3.57486191811878,0.219368633835795,-1.06771631305396,0.0009162979,-0.8216137,-0.16646078,64.41949,-109.51628,-10.299303,JOG
130777528860000,2.739997,3.22863305960205,-0.526730134509095,-2.05276173545372,0.28496864,-0.2510656,-0.11636983,64.52671,-109.42016,-10.26414,JOG
130777534429000,2.745566,3.13533310644737,-1.26907050547368,-2.50997771707895,0.5934556,0.39064834,-0.08979719,64.38577,-109.64722,-10.329861,JOG
130777538861000,2.749998,3.41457262714912,-1.76425522182456,-2.10414962402632,0.9224065,1.0125091,-0.116675265,64.08741,-109.94604,-10.345097,JOG
130777544034000,2.755171,3.75918789699919,-2.27407594971614,-1.55256894201135,1.1753048,1.5228871,-0.13591751,63.64921,-110.327286,-10.119834,JOG
130777548863000,2.76,4.29366576845093,-1.97401827032644,-0.150736629186943,1.346347,1.8451185,-0.12095132,63.091125,-110.77997,-9.845795,JOG
130777553887000,2.765024,4.82964122646697,-1.65220450597046,1.25811325036931,1.4004086,1.9639318,-0.03023783,62.475388,-111.21889,-9.485501,JOG
130777558865000,2.770002,5.11818526676241,-1.21694315878129,2.05527724023389,1.3200798,1.9236146,0.15241088,61.826237,-111.669586,-9.068145,JOG
130777563828000,2.774965,5.34303148315573,-0.821896752274905,2.75328368363476,1.0537425,1.8264871,0.42149702,61.25984,-111.88205,-8.591693,JOG
130777568891000,2.780028,5.08232123475413,-0.722352811800763,2.71062203092189,0.6805039,1.7650951,0.72204274,60.715504,-112.033844,-8.048417,JOG
130777573852000,2.784989,4.81368440643373,-0.63381813842621,2.67297844352173,0.28619036,1.758681,0.95569867,60.24031,-111.999405,-7.4863887,JOG
130777578871000,2.790008,4.37598552890231,-0.657606136776205,2.68725122166683,-0.07452556,1.767844,1.1551461,59.80187,-111.861275,-6.855376,JOG
130777583953000,2.79509,3.90292827310094,-0.674772089982657,2.71467924370447,-0.37720928,1.7498235,1.2950343,59.398693,-111.64852,-6.2288094,JOG
130777588878000,2.800015,3.0726601396462,-0.605242228033299,2.90281885608741,-0.605062,1.6988163,1.3863586,59.01426,-111.36157,-5.566106,JOG
130777593892000,2.805029,2.22738817596254,-0.534455887360388,3.09435835182102,-0.7067711,1.5515977,1.4056009,58.68944,-111.029884,-4.9433618,JOG
130777598866000,2.810003,1.38156547181284,-0.136382852528888,3.23978352405759,-0.89675015,1.3646729,1.4010195,58.392296,-110.6212,-4.314539,JOG
130777604216000,2.815353,0.469238125014207,0.40713130914946,3.38051482307255,-1.0418307,1.16492,1.3814718,58.13536,-110.21207,-3.7035384,JOG
130777608920000,2.820057,-0.0830565109964771,0.852523765314545,3.17813781419225,-1.1917981,0.93645644,1.3518448,57.986763,-109.69435,-3.2340786,JOG
130777613844000,2.824981,-0.543464264494212,1.30343855730247,2.81265955188727,-1.3973542,0.73456544,1.2724323,57.87468,-109.1306,-2.802868,JOG
130777618872000,2.830009,-0.661678933985551,1.92276449732089,1.95136526306743,-1.6334536,0.65118235,1.1963795,57.828934,-108.48973,-2.5774262,JOG
130777623862000,2.834999,-0.589751984457154,2.62285353615292,0.834099921977724,-1.8961257,0.7611381,1.1414018,57.778397,-107.78957,-2.3742826,JOG
130777628884000,2.840021,-0.206611297574893,3.64054460030433,-0.411303540795055,-2.1407773,1.0586295,1.1591167,57.69071,-107.16266,-2.3703382,JOG
130777633874000,2.845011,0.334216434236805,4.81309546468854,-1.71110796149881,-2.3252585,1.5289958,1.2311989,57.52887,-106.48875,-2.3474348,JOG
130777638877000,2.850014,1.12803664822804,6.36442517873652,-3.02858760190036,-2.4691174,2.1261165,1.4019357,57.202118,-105.95884,-2.2801023,JOG
130777643918000,2.855055,2.12977158514638,8.22904090175655,-4.36754037621983,-2.5653286,2.8005116,1.6698002,56.74132,-105.397964,-2.126692,JOG
130777648861000,2.859998,3.14654993688808,10.4667553843185,-5.21691633479586,-2.6526823,3.5876117,2.0430388,56.027378,-104.92439,-1.6482971,JOG
130777653876000,2.865013,4.20017372858013,12.9983789299208,-5.78275120575868,-2.7501154,4.3499713,2.486527,55.159737,-104.43773,-1.040469,JOG
130777658888000,2.870025,5.09353547682963,14.7923750961105,-4.8784479013912,-2.857933,4.884173,2.999043,54.09104,-104.10968,-0.10823123,JOG
130777663889000,2.875026,5.89590739164299,16.1718921513667,-3.15639889699226,-3.0637946,4.8786755,3.5402696,53.00013,-103.79214,0.9461932,JOG
130777668877000,2.880014,6.10011477886179,17.1445872439024,-0.843148257723577,-3.3686163,4.1001277,4.034765,51.98695,-103.48566,2.2891574,JOG
130777674051000,2.885188,5.90117694563886,17.8756823242999,1.96684620872227,-3.7516289,2.673757,4.3252316,51.184727,-103.24865,3.6354063,JOG
130777678878000,2.890015,4.88657775097409,18.3448880683872,3.63475892378992,-4.039041,0.8170323,4.2507057,50.774445,-102.80639,5.0391793,JOG
130777683880000,2.895017,3.32796831425989,18.7008674186584,4.77966352919261,-4.137696,-0.18142697,3.7873645,50.50407,-102.50607,6.3314047,JOG
130777688878000,2.900015,1.37392383056118,18.9378842554738,5.25731296918123,-4.125173,-2.2727242,3.436117,51.132225,-101.99855,7.3961463,JOG
130777693896000,2.905033,-0.836582909199632,19.1014613610856,5.31920702161914,-4.0705004,-4.439769,2.5418103,51.995792,-101.52975,8.117086,JOG
130777698909000,2.910046,-3.18948403351595,19.2333640286819,4.99656547695778,-3.8432586,-6.598261,1.4996742,53.483868,-100.89794,8.380319,JOG
130777703870000,2.915007,-5.69541111701579,19.3252312607154,4.20548875496831,-3.364035,-8.405811,0.54000485,55.45596,-100.265724,8.370535,JOG
130777708889000,2.920026,-7.35396874701347,19.388774975893,3.02341926327738,-2.6245825,-9.285458,-0.098043874,57.82589,-99.3186,7.7463384,JOG
130777713882000,2.925019,-8.37135136431778,19.4307768949834,1.57201520399375,-1.6459764,-8.443074,-0.22021692,60.204292,-98.40549,7.036855,JOG
130777718856000,2.929993,-8.18745725398387,19.4628828536297,0.50661931290183,-0.46822822,-6.663929,0.115453534,62.621742,-97.30485,5.7785764,JOG
130777723832000,2.934969,-6.9358669695062,19.4863208611056,-0.219959457273264,0.34391713,-4.978552,0.63224554,64.80479,-96.38943,4.631543,JOG
130777728875000,2.940012,-5.75535358834244,19.2601534672131,-0.981178876539162,0.61178154,-3.6731327,1.1050552,66.55571,-95.78947,3.5976844,JOG
130777733878000,2.945015,-4.67414058652095,18.7801525245902,-1.76178557537341,0.51893,-2.688418,1.2886202,67.889565,-95.43963,2.7181077,JOG
130777738871000,2.950008,-3.69876731131553,18.1320681214639,-2.52677375503462,0.269697,-1.9205604,1.215011,68.84468,-95.37019,2.1326146,JOG
130777743915000,2.955052,-2.81006250664688,17.3198114979228,-3.28647309596439,0.0012217305,-1.2953397,0.99082345,69.536835,-95.322655,1.6105741,JOG
130777748916000,2.960053,-1.77370716309414,16.6792761037595,-4.32703140361075,-0.24190263,-0.6386596,0.7076874,69.91722,-95.344955,1.2371167,JOG
130777753879000,2.965016,-0.595012231749826,16.2030831215157,-5.63774010958238,-0.37415496,0.15607607,0.4914411,70.061935,-95.33335,0.86104435,JOG
130777758910000,2.970047,0.775594783765969,16.010833500826,-6.26696791093062,-0.33750305,0.8668178,0.46731192,69.98273,-95.4104,0.6195768,JOG
130777763887000,2.975024,2.31539343486013,16.1245686393172,-6.15760706029736,-0.27885997,1.396438,0.61911196,69.72432,-95.46543,0.39850205,JOG
130777768859000,2.979996,3.95118329345107,16.2190374650478,-5.68314747078734,-0.25381452,1.6759088,0.8912524,69.27341,-95.67753,0.37976468,JOG
130777773869000,2.985006,5.82740385699569,16.2694734663093,-4.35163619484915,-0.2874121,1.6484199,1.2321151,68.76887,-95.89426,0.43749157,JOG
130777778803000,2.98994,7.39982429017,16.1297673686,-3.14657471083,-0.36377025,1.5460999,1.5436565,68.21673,-96.10766,0.8412703,JOG
130777783883000,2.99502,8.57715863857,15.6821858406,-2.07627088243,-0.4071417,1.185384,1.7647897,67.76176,-96.35431,1.2985848,JOG
130777788799000,2.999936,9.45142830102193,14.9632166818137,-1.3418400145947,-0.4269948,0.7724391,1.8338175,67.37836,-96.55209,2.0129495,JOG
130777793880000,3.005017,9.92938358855045,13.7610855552138,-1.06665335706519,-0.42424592,0.41508293,1.8750509,67.093704,-96.82801,2.7574174,JOG
130777798843000,3.00998,9.99148537896047,12.3600640162726,-0.948731845220637,-0.3662137,0.17959438,1.7058412,66.90201,-97.12666,3.569821,JOG
130777803873000,3.01501,9.38744193778118,10.5663767050828,-1.07784046197186,-0.30543262,0.037873644,1.3674219,66.7831,-97.47323,4.3221455,JOG
130777808792000,3.019929,8.52650389371981,8.86321880193237,-1.27167972173913,-0.25686884,-0.02443461,0.9108001,66.69658,-97.8557,5.0358725,JOG
130777813885000,3.025022,6.92620753431965,7.23346905354267,-1.64966382110507,-0.23915374,0.04917465,0.43463063,66.60123,-98.21193,5.6374397,JOG
130777818802000,3.029939,5.40721884058251,6.00594229819655,-2.00868841217089,-0.226631,0.2434298,0.047647487,66.48572,-98.53064,6.110642,JOG
130777824035000,3.035172,3.85576227630437,5.56612149223647,-2.37601150159128,-0.1777618,0.49449542,-0.1957823,66.32325,-98.80282,6.491582,JOG
130777828819000,3.039956,2.26214189288703,5.0749612442347,-2.69279374083877,-0.10415252,0.7806858,-0.32650748,66.09961,-98.969345,6.6693215,JOG
130777833879000,3.045016,-0.0341856133891214,4.24507693169213,-2.9615630484188,-0.053450707,1.0516045,-0.3998113,65.80354,-99.10554,6.803902,JOG
130777838831000,3.049968,-2.02984113218812,3.44495572035644,-3.13924886043564,-0.03023783,1.2748758,-0.46883908,65.45183,-99.12206,6.711794,JOG
130777843872000,3.055009,-2.82329947336634,2.6897362590099,-2.90025534990099,-0.04734206,1.4034629,-0.54183745,65.04998,-99.1338,6.6076813,JOG
130777848811000,3.059948,-3.56231547829621,1.96023853031306,-2.67544039382902,-0.08460484,1.4016303,-0.6386596,64.653915,-99.02681,6.3384743,JOG
130777853851000,3.064988,-4.0902217973811,1.277350542354,-2.50108607956051,-0.14660765,1.3335189,-0.7489208,64.23825,-98.90651,6.0457325,JOG
130777859546000,3.070683,-4.60297305228137,0.60082793430522,-2.31994265178016,-0.2134974,1.2189816,-0.8677341,63.848225,-98.702995,5.65375,JOG
130777863849000,3.074986,-4.81307766207224,0.29101260734618,-2.21667080051849,-0.26206118,1.1050552,-0.9850202,63.4736,-98.48729,5.2246213,JOG
130777868828000,3.079965,-5.05618964258555,-0.067474613878327,-2.09717497262357,-0.28252518,0.9941832,-1.087951,63.13516,-98.22071,4.7055697,JOG
130777873836000,3.084973,-5.15101110938711,-0.248830499353333,-2.06613487857356,-0.2733622,0.8588765,-1.183246,62.831253,-97.961365,4.144656,JOG
130777878799000,3.089936,-5.21711001661865,-0.395191923077382,-2.05197087984504,-0.21777347,0.79076505,-1.255328,62.535503,-97.73399,3.553889,JOG
130777883841000,3.094978,-5.07322602780008,-0.505223650062224,-2.14525850722601,-0.17867808,0.6407976,-1.2873985,62.304333,-97.515274,2.9009278,JOG
130777888799000,3.099936,-4.88737780614211,-0.605295700136491,-2.25962659004416,-0.07391469,0.4822781,-1.3115277,62.09054,-97.379845,2.2203982,JOG
130777894016000,3.105153,-4.472269632466,-0.692534520981668,-2.53884778385571,0.050701816,0.33322698,-1.3087788,61.91498,-97.32597,1.5185645,JOG
130777898832000,3.109969,-4.04950827942046,-0.769813492383205,-2.82523459875813,0.18325958,0.23823744,-1.2638801,61.76696,-97.37864,0.81150997,JOG
130777903837000,3.114974,-3.60028641722746,-0.934078425066333,-2.94957001826572,0.33536503,0.1740966,-1.1933253,61.641636,-97.57166,0.13097924,JOG
130777908807000,3.119944,-3.15186498990579,-1.11710760023457,-3.03193302835993,0.5149594,0.113926366,-1.0913107,61.541576,-97.87599,-0.5371578,JOG
130777913846000,3.124983,-2.8231677882575,-1.33940467977964,-2.78776039874515,0.689056,0.049785517,-0.98837996,61.436028,-98.327324,-1.1221505,JOG
130777918777000,3.129914,-2.54855812442359,-1.57065489653132,-2.42643194135891,0.8127562,-0.04428773,-0.8979719,61.355488,-98.84934,-1.6898973,JOG
130777923827000,3.134964,-2.43970732945313,-1.85182846502267,-1.6755983296493,0.84879726,-0.20738874,-0.8142834,61.29733,-99.42983,-2.1659486,JOG
130777929322000,3.140459,-2.38127351877487,-2.17321467798649,-0.726048153596743,0.81092364,-0.3915646,-0.77640975,61.26936,-100.03963,-2.6383657,JOG
130777933839000,3.144976,-2.09421571098019,-2.59035069431183,0.993158273003555,0.65026605,-0.4841107,-0.7431176,61.272587,-100.568214,-3.0578687,JOG
130777938836000,3.149973,-1.6470152233418,-3.13476864174708,3.40415190534891,0.32895094,-0.37507126,-0.7110472,61.269142,-101.051994,-3.4694083,JOG
130777943895000,3.155032,-0.00281587518797,-2.39584161170526,4.85977310937343,-0.32803464,0.24648413,-0.47800204,61.20917,-101.22874,-3.8064659,JOG
130777948932000,3.160069,2.29908555037594,-0.940227400989474,5.75925532125313,-1.4083499,1.4165965,-0.02443461,60.976097,-101.19172,-4.042019,JOG
130777953864000,3.165001,4.31401087344782,0.857002234019626,5.77554804372523,-2.2992969,2.5402832,0.43493605,60.735703,-100.56908,-4.1577024,JOG
130777958850000,3.169987,6.22436976869221,2.87098902320438,5.3340028351387,-2.3414464,3.105639,0.84116143,60.343586,-99.846535,-4.138187,JOG
130777963841000,3.174978,7.35779463553338,4.76870620904701,4.49468575222151,-1.6566665,2.8747318,1.1933253,60.044933,-98.61151,-3.4466078,JOG
130777968840000,3.179977,7.78423578441726,6.56181483689633,3.29242979304572,-0.6762278,1.8371773,1.4388931,59.839596,-97.45877,-2.7185354,JOG
130777973825000,3.184962,7.73437358786982,7.31867056922091,1.64930946259862,0.31520647,0.4981606,1.6029104,59.62933,-96.48931,-1.6546624,JOG
130777978884000,3.190021,7.43335859763314,7.54323723431953,-0.252340323964497,1.0748174,-0.11636983,1.7318029,59.500946,-95.85634,-0.56474286,JOG
130777983878000,3.195015,7.27171632560674,7.42012516556711,-1.86220463540862,1.4453071,-1.0247264,1.7901406,59.740993,-95.79142,0.5654344,JOG
130777988875000,3.200012,7.18638766250619,7.10251178658742,-3.32227732291233,1.4953982,-1.5134187,1.9474384,60.029415,-96.08589,1.7272972,JOG
130777993954000,3.205091,7.06126366894282,6.75743264305365,-3.89951900082531,1.3695599,-1.6691893,2.130698,60.384808,-96.971146,2.8429363,JOG
130777999090000,3.210227,6.91145207955394,6.39498575887208,-3.93334736726272,1.0619892,-1.6713274,2.2766948,60.832645,-97.91379,3.9499426,JOG
130778003868000,3.215005,5.03123162189705,6.70439115822688,-0.687443019694948,0.593761,-1.7095064,2.3506095,61.271515,-99.11503,5.0301013,JOG
130778008950000,3.220087,1.84383111316492,7.47456355895138,5.0006983113632,-0.03023783,-2.866485,2.1636846,62.015476,-100.18112,5.9885087,JOG
130778013877000,3.225014,0.31130841038961,9.21860943376623,6.25527191688312,-1.7095064,-5.9837303,1.5176947,63.298504,-100.823616,6.681116,JOG
130778018880000,3.230017,0.380446597623858,12.0302292083886,3.0841335782684,-5.2931476,-7.1788883,1.5445728,64.36882,-101.02036,7.5124083,JOG
130778023878000,3.235015,0.363187792342784,14.3287077262844,-1.04409441055212,-6.0133576,-5.689599,2.1508565,65.790306,-100.09402,7.5356865,JOG
130778028873000,3.24001,0.220423755138563,15.883815419207,-6.56600339493711,-3.0182853,-3.4083226,2.3866506,67.29365,-99.23577,7.4593573,JOG
130778033876000,3.245013,-0.575711677170332,16.7961156635763,-9.51068732182661,0.17867808,-1.711339,2.003638,68.42565,-98.78426,7.477375,JOG
130778038872000,3.250009,-1.94893459327251,17.1358825908867,-10.1619067320249,1.9230038,-0.66767573,1.2733486,69.07503,-98.592064,7.5052104,JOG
130778043953000,3.25509,-3.06637882302216,16.4870312714329,-9.83000726451419,2.519819,-0.29443705,0.4166101,69.272064,-99.10575,7.526607,JOG
130778048900000,3.260037,-3.89296106375213,14.9241255068685,-8.57588214851098,2.4388795,-0.25137106,-0.28252518,69.25225,-99.7026,7.401532,JOG
130778053876000,3.265013,-4.34759857322372,13.1046704854179,-7.41316635852417,1.9990565,-0.2501493,-0.7452556,69.19958,-100.236946,7.0069923,JOG
130778058954000,3.270091,-4.44278542977099,11.0057981094148,-6.32327573536896,1.4520267,-0.21227567,-1.0488557,69.10347,-100.7188,6.4832144,JOG
130778063879000,3.275016,-4.48929858482972,9.31073195665635,-5.41611439318885,0.960891,-0.17562376,-1.287093,69.03654,-100.97981,5.7972493,JOG
130778068879000,3.280016,-4.48451640166783,7.97650175591731,-4.66531093768101,0.602924,-0.16249016,-1.5259414,68.94521,-101.17545,5.0457215,JOG
130778073870000,3.285007,-4.57000384137696,7.22270755228357,-3.98676523197001,0.37415496,-0.16584991,-1.8228219,68.85561,-101.24699,4.2413607,JOG
130778078884000,3.290021,-4.76172095977213,7.14321497423313,-3.38823391069238,0.22632557,-0.21074851,-2.0030272,68.76217,-101.305115,3.412669,JOG
130778083827000,3.294964,-5.10192875100451,7.46158012125423,-2.82820398853736,0.15057829,-0.3567453,-2.4727826,68.68374,-101.292816,2.433628,JOG
130778088879000,3.300016,-5.67877035104206,8.38816036503943,-2.3013250180154,-0.025045475,-0.6047566,-3.0347786,68.62655,-101.291245,1.3776349,JOG
130778093896000,3.305033,-6.33266548505551,9.6402292382579,-1.95516526063194,-0.226631,-0.890947,-3.617544,68.61224,-101.26465,0.14931834,JOG
130778098918000,3.310055,-7.19516718104185,11.7451436065329,-2.06297797263023,-0.46395215,-1.0778717,-4.148386,68.608574,-101.324394,-1.218524,JOG
130778103770000,3.314907,-7.86528909458147,13.5870984822296,-2.46602317319868,-0.62980205,-0.9621128,-4.533231,68.609344,-101.4298,-2.7831428,JOG
130778108955000,3.320092,-8.313724126141,15.2410037201398,-3.38700263037483,-0.68539083,-0.54183745,-4.693278,68.56407,-101.739525,-4.403036,JOG
130778113778000,3.324915,-8.50878260356436,16.5247357366337,-4.21084037576238,-0.56046885,0.14355333,-4.608062,68.430725,-102.26177,-6.0954866,JOG
130778118878000,3.330015,-8.25248437584158,17.3516603405941,-5.01358532427723,-0.3051272,0.88606006,-4.312403,68.16961,-102.98169,-7.7056994,JOG
130778123798000,3.334935,-7.82923294127793,18.0236744680517,-5.53048003645629,0.036651913,1.5140295,-3.9052615,67.74199,-103.90564,-9.18988,JOG
130778128887000,3.340024,-6.99339745757546,18.4344281856135,-5.48271804586437,0.36896262,1.9285016,-3.4788775,67.17843,-104.879036,-10.509666,JOG
130778133801000,3.344938,-6.10446943764067,18.7782297530145,-5.43369458874598,0.6588182,2.1707096,-3.0976977,66.477005,-105.86358,-11.583821,JOG
130778138879000,3.350016,-4.96101476581592,18.9883513924839,-5.37505593472669,0.8561276,2.4065037,-2.7947085,65.67599,-106.80741,-12.498911,JOG
130778143918000,3.355055,-3.63833710745864,19.0539141847927,-5.2980358532441,0.97066486,2.7079656,-2.562885,64.81772,-107.58981,-13.137065,JOG
130778149124000,3.360261,-1.81701872365867,18.7758495203569,-5.17290699620747,1.0888673,3.0140092,-2.38268,63.90861,-108.334045,-13.6639,JOG
130778153814000,3.364951,-0.305296163869403,18.4729260735874,-5.0269298878601,1.2260065,3.2650747,-2.2366831,62.980057,-108.89065,-13.907354,JOG
130778158903000,3.37004,0.458287931159406,17.7881646780552,-4.64267484253513,1.4043792,3.4581082,-2.1294763,61.998287,-109.435196,-14.081759,JOG
130778163840000,3.374977,1.19486843522147,17.1746154830578,-4.16272858036334,1.6230689,3.5848627,-2.0641136,61.0927,-109.6903,-13.826065,JOG
130778168879000,3.380016,1.92380432261686,16.8249223574199,-3.08902557811798,1.8918496,3.61113,-2.0295997,60.173126,-109.993996,-13.555045,JOG
130778173869000,3.385006,2.66379594268931,16.6451699673216,-1.83512381895547,2.250733,3.5631769,-2.0525072,59.241314,-110.347595,-13.2493,JOG
130778178888000,3.390025,3.48000183660776,17.1244544890907,0.181664335363807,2.4483478,3.2666018,-2.0851886,58.378662,-110.7344,-12.959291,JOG
130778184334000,3.395471,4.4748540964236,17.6429078625174,2.84938419748258,2.8863382,2.5308146,-2.2018638,57.583916,-111.28675,-12.828202,JOG
130778188865000,3.400002,5.57931765058058,18.070181372968,6.28370074703205,3.4034357,1.346347,-2.3350325,56.994377,-111.9113,-12.768507,JOG
130778194069000,3.405206,6.84739330884774,18.5476213119342,10.138677172428,3.8792996,-0.29077184,-2.4220808,56.756737,-112.47742,-12.8663025,JOG
130778198926000,3.410063,8.02461343091564,18.8012506539095,12.4452629745885,4.1868706,-2.595261,-2.3710735,57.027027,-113.11673,-13.128457,JOG
130778203869000,3.415006,9.10798197433873,18.981423958942,14.4406862735886,4.0356812,-5.2699347,-2.0525072,58.05145,-113.33678,-13.504945,JOG
130778208898000,3.420035,8.87031060047375,18.254148760758,12.3586837480261,3.1542027,-7.0518284,-1.6358972,59.471943,-113.44012,-13.972152,JOG
130778213981000,3.425118,8.66921873699822,17.4527461190429,10.1301500520071,1.8756617,-7.3969674,-1.396438,61.35186,-113.1858,-14.443779,JOG
130778218986000,3.430123,8.95356845422187,15.8461693259838,6.40516618311252,0.81000733,-6.5570273,-1.3408492,63.413208,-112.77826,-14.89329,JOG
130778224103000,3.43524,9.2336662061679,14.2362432901199,2.74820460018275,0.2434298,-4.724737,-1.3762794,65.16886,-112.403046,-15.237969,JOG
130778228863000,3.44,9.37251449095755,13.1124406363982,1.08202610244813,0.12889257,-2.346639,-1.4257594,66.54398,-111.90847,-15.438001,JOG
130778233827000,3.444964,9.51731341652389,11.9404750118028,-0.655560045189416,0.17531833,-0.06566802,-1.42973,67.14448,-111.6228,-15.376547,JOG
130778238863000,3.45,9.55466224261155,11.0056971303844,-0.301540849851265,0.20525073,1.6029104,-1.3842206,67.243454,-111.30746,-15.178217,JOG
130778243830000,3.454967,9.58222731765501,10.1052405707939,0.226788295206683,0.19547687,2.5097399,-1.2990049,66.91339,-110.98414,-14.857281,JOG
130778248870000,3.460007,9.60975288929959,9.40860428357502,1.21394713106815,0.17348573,2.7140744,-1.2183707,66.15334,-110.82024,-14.4022455,JOG
130778254380000,3.465517,9.63976048194484,8.68842414899062,2.379238695735,0.17715092,2.3499987,-1.1151345,65.31215,-110.642204,-13.891325,JOG
130778258885000,3.470022,9.53868466533088,7.94385503260045,2.60017092029676,0.13958271,1.6890424,-0.9966267,64.53989,-110.433525,-13.403326,JOG
130778263780000,3.474917,9.40159815715369,7.1010273267627,2.68140734995126,0.083383106,0.91904676,-0.8503244,63.91707,-110.2001,-12.913166,JOG
130778268881000,3.480018,8.88621612456747,6.0066957615917,2.15875803512111,0.025350908,0.18173242,-0.71929383,63.55812,-109.876656,-12.500542,JOG
130778273798000,3.484935,8.34308800980392,4.92496682058824,1.5794219622549,-0.04520403,-0.15485434,-0.6740898,63.31041,-109.52715,-12.098446,JOG
130778278817000,3.489954,7.5055307741696,3.78694027389126,1.03341544165894,-0.064751714,-0.7440339,-0.6160576,63.349842,-109.189125,-11.776395,JOG
130778283872000,3.495009,6.59373081081833,2.63259204908146,0.494420189951754,-0.09010262,-1.181108,-0.59895337,63.442894,-108.832886,-11.465147,JOG
130778288896000,3.500033,5.62780888366101,1.51998114775455,0.0437318398737583,-0.04917465,-1.4892895,-0.58093286,63.61915,-108.62555,-11.260562,JOG
130778293912000,3.505049,4.63366026188949,0.426417627473096,-0.363869098685844,0.043982297,-1.6239853,-0.5458081,63.872105,-108.41732,-11.064123,JOG
130778298845000,3.509982,3.78974544253417,-0.557711450262049,-0.641026026451547,0.22540927,-1.5396858,-0.47647488,64.10332,-108.44053,-11.05368,JOG
130778303838000,3.514975,2.98386857220224,-1.520832519145,-0.876892416636523,0.45234573,-1.2000448,-0.37843102,64.30129,-108.48224,-11.016376,JOG
130778308880000,3.520017,2.75294450061873,-2.26046308015375,-1.10581634027843,0.6976081,-0.59131753,-0.28924468,64.38468,-108.70847,-11.083431,JOG
130778313889000,3.525026,2.6854885272429,-2.93052626555733,-1.3306697022593,0.9126327,0.2611449,-0.22785273,64.3029,-108.96453,-11.084427,JOG
130778318872000,3.530009,3.15940464182121,-2.8964790343244,-1.32494846972819,1.0506883,1.2360858,-0.22388211,64.05657,-109.252686,-10.978091,JOG
130778324184000,3.535321,3.96808520529879,-2.46717951969385,-1.19016841925228,1.0512991,2.1200078,-0.26145032,63.59639,-109.56091,-10.799292,JOG
130778328832000,3.539969,4.52327449334807,-1.80245099036978,-0.959441685289389,0.9896017,2.7812696,-0.2321288,62.906994,-109.94039,-10.529185,JOG
130778333877000,3.545014,5.03788360473272,-0.9140221510209,-0.643879571342444,0.90469146,3.1719177,-0.11209377,62.05241,-110.31967,-10.180009,JOG
130778338876000,3.550013,5.21148070892128,-0.176877787090379,-0.337617359916035,0.8729264,3.385415,0.05222898,61.054676,-110.6489,-9.662139,JOG
130778343954000,3.555091,5.18312449564626,0.484768804680272,-0.030424285844898,0.8524625,3.4471126,0.22327125,60.006725,-110.96204,-9.070906,JOG
130778348898000,3.560035,4.98055049267564,0.99658815062282,0.289420942354559,0.820392,3.4052682,0.39064834,58.945953,-111.227036,-8.429826,JOG
130778353862000,3.564999,4.64893600059791,1.41347461559542,0.625772547726158,0.766025,3.2705724,0.5549711,57.913704,-111.48514,-7.733409,JOG
130778358856000,3.569993,4.24506181824603,1.63851607513243,1.09968689381989,0.65057147,3.0552425,0.70646566,56.908844,-111.84626,-7.2870483,JOG
130778363887000,3.575024,3.78187481306651,1.70941206444968,1.68576039234844,0.47403142,2.7577512,0.83199847,55.97928,-112.17749,-6.810471,JOG
130778368857000,3.579994,3.4612989162049,1.58489373195137,2.81789288618696,0.28771752,2.5677722,0.9767735,55.14971,-112.41795,-6.3640327,JOG
130778373868000,3.585005,3.26520910743472,1.27880243520032,4.4726991277955,0.17104226,2.068695,1.0564915,54.490993,-112.63693,-5.9571548,JOG
130778378877000,3.590014,2.60420990180171,0.802545082335179,5.69118070688475,-0.116675265,1.3884968,1.2095132,54.027203,-112.671165,-5.6268315,JOG
130778383882000,3.595019,1.50421221086059,0.165704297986915,6.49688072027177,-0.5525276,0.7330383,1.2837334,53.690945,-112.64145,-5.344833,JOG
130778388860000,3.599997,0.398625797401309,0.117476888553858,6.53493290609006,-0.9966267,0.29229903,1.2702943,53.632732,-112.18368,-5.0324593,JOG
130778393978000,3.605115,-0.748698832156318,0.60849294538782,5.86890114864114,-1.31672,0.033292156,1.2272283,53.703598,-111.64476,-4.764901,JOG
130778398885000,3.610022,-1.5034467201169,1.10838128738432,5.04962198226985,-1.5274686,-0.109650314,1.1539245,53.975605,-110.7973,-4.5739264,JOG
130778403868000,3.615005,-1.94974366609839,1.64300781854847,4.05010286174379,-1.7256943,-0.17501289,1.054048,54.28512,-109.8659,-4.4180245,JOG
130778408864000,3.620001,-2.05156424928108,2.34678209499107,2.81389724640541,-1.9981402,-0.09437868,0.97341377,54.60324,-108.93403,-4.4328794,JOG
130778413883000,3.62502,-1.73988732077812,3.25471037483319,1.29164940389061,-2.316401,0.18417588,1.001819,54.883644,-107.93631,-4.433581,JOG
130778418857000,3.629994,-1.25368269292959,4.29032109852743,-0.366954653199212,-2.6087,0.7351763,1.1615603,55.022552,-107.06347,-4.492298,JOG
130778423866000,3.635003,-0.398048730872135,5.61356898554392,-2.34685189689931,-2.8328876,1.4691309,1.4080443,55.04164,-106.125854,-4.486476,JOG
130778428784000,3.639921,0.517105566642743,6.98273792493022,-4.13163315018939,-2.9657507,2.3854287,1.715615,54.737823,-105.65685,-4.599005,JOG
130778433876000,3.645013,1.58651567149123,8.51393881962719,-5.72116556458333,-3.054021,3.3991597,2.1022928,54.235577,-105.12818,-4.550074,JOG
130778438809000,3.649946,2.72508467354555,10.2951752860992,-7.01190855484483,-3.1535919,4.3896775,2.5384505,53.35527,-104.6271,-4.000517,JOG
130778443985000,3.655122,4.09033734182217,12.6596341712404,-7.95175636652031,-3.2632422,5.330105,2.994156,52.24007,-104.09783,-3.282024,JOG
130778448853000,3.65999,5.38204119656515,14.5349332135796,-7.81476725451822,-3.422678,5.9712076,3.4868188,50.84199,-103.73598,-2.212918,JOG
130778453860000,3.664997,6.72266012209686,15.9186445358962,-6.07675031323016,-3.6490035,5.7946677,4.022242,49.461308,-103.378235,-1.0221543,JOG
130778458793000,3.66993,7.73841001027037,17.0196519879401,-3.47185051865396,-3.9370265,4.5478916,4.539645,48.175194,-103.02774,0.5186934,JOG
130778463889000,3.675026,8.26527054191791,17.7078920151721,0.747778833145302,-4.197255,2.4098635,4.8536296,47.23145,-102.78311,2.0266442,JOG
130778468771000,3.679908,8.16572356250716,18.2597194155695,3.71071745636329,-4.1657953,1.2638801,4.8521028,46.424515,-102.39722,3.7728672,JOG
130778473922000,3.685059,6.69269044135661,18.5985649919863,4.39311296314635,-4.05248,-0.72387534,4.4727554,46.4424,-102.1903,5.25703,JOG
130778478807000,3.689944,5.09148752434441,18.8865240229197,4.8500070276688,-3.74888,-2.3414464,3.6285396,46.781048,-101.723404,6.593452,JOG
130778483881000,3.695018,2.70349119715053,19.0671282492257,4.64933504230849,-3.5408804,-3.9031234,2.5448647,47.607777,-101.42283,7.6291146,JOG
130778488833000,3.69997,0.101784381061744,19.2249479414363,4.12169234382122,-3.3759468,-5.454721,1.4318681,48.8879,-100.99745,8.15276,JOG
130778494005000,3.705142,-3.30209416302447,19.3430774996025,2.73038980595354,-3.1325169,-6.683782,0.47983465,50.47585,-100.55472,8.374104,JOG
130778499112000,3.710249,-6.38835340562806,19.4522857188744,1.34491500936777,-2.7189612,-7.180721,-0.18020524,52.314274,-99.84052,8.064671,JOG
130778503875000,3.715012,-6.28279407396094,19.4733975852078,-0.0738033782097565,-2.2171354,-6.203642,-0.40561453,54.0632,-99.09392,7.638938,JOG
130778509721000,3.720858,-6.13072753876664,19.4797661857588,-1.77268778377562,-1.743104,-4.394259,-0.14966199,55.74285,-97.977104,6.440048,JOG
130778513869000,3.725006,-5.59426351402399,19.1121187882708,-2.17034634711493,-1.1899655,-2.8166997,0.29718593,57.204987,-97.00186,5.315671,JOG
130778518783000,3.72992,-4.95873212116347,18.6765789350269,-2.64143944746435,-0.69027776,-1.6536123,0.74128497,58.224735,-96.35726,4.4091787,JOG
130778523874000,3.735011,-3.96656503505535,18.0407949594096,-3.30838033136531,-0.3475823,-0.94042706,1.0677924,58.919106,-95.92833,3.6725142,JOG
130778528796000,3.739933,-2.89473437144709,17.363850362222,-4.01353225425352,-0.24404067,-0.44868052,1.1166617,59.34274,-95.64983,3.0461862,JOG
130778533853000,3.74499,-1.62570593305731,17.0700713068942,-4.52600006659556,-0.30207285,0.17134771,1.0619892,59.47386,-95.57996,2.63503,JOG
130778538855000,3.749992,-0.311190043135848,16.921433382333,-4.95797856802094,-0.3662137,0.81306165,0.9993755,59.45691,-95.56976,2.2726376,JOG
130778543997000,3.755134,1.37806981829259,17.1631316128746,-4.71875236184937,-0.3662137,1.38025,0.97097033,59.226498,-95.69619,2.077647,JOG
130778548909000,3.760046,3.13562531362382,17.5619434977326,-4.19936927762224,-0.3118467,1.7986927,1.0803152,58.859734,-95.837715,1.9326065,JOG
130778553863000,3.765,4.80995070573527,17.8973583575114,-3.3803770780512,-0.20463985,1.947133,1.3197744,58.365593,-96.09105,2.0111985,JOG
130778558916000,3.770053,6.46653970307601,18.2046672972812,-2.39122540345307,-0.11759156,1.8680259,1.649947,57.83033,-96.372856,2.1588845,JOG
130778563903000,3.77504,7.7447160951498,18.1472867679321,-1.66475030055626,-0.062308256,1.7595973,1.9938642,57.263134,-96.69417,2.680587,JOG
130778568855000,3.779992,8.8230680998341,17.8973685534303,-1.07697907104518,-0.010079277,1.4459181,2.1471913,56.787933,-97.07401,3.223615,JOG
130778573866000,3.785003,9.09968688933161,16.9277028341717,-0.940374893301126,0.03726278,1.1087204,2.3979516,56.368496,-97.54513,4.0737014,JOG
130778593854000,3.804991,7.27748447063834,10.7610646964286,-2.14148757888957,0.5665775,0.15149458,1.8099937,55.503746,-100.17979,7.6133947,JOG
130778598821000,3.809958,5.83247982489737,8.76441939285714,-3.14713283450328,0.6407976,0.31429017,1.3545936,55.33964,-100.85889,8.370848,JOG
130778603887000,3.815024,4.46293767211944,7.29348291487452,-4.05705211379374,0.6554584,0.67347896,0.91813046,55.12435,-101.47509,8.983124,JOG
130778608867000,3.820004,3.17867357869573,6.18394872161568,-4.88265045305001,0.6084218,1.1490375,0.537256,54.812153,-102.00033,9.486413,JOG
130778613876000,3.825013,1.82622558214584,5.23436304074384,-5.33940196648558,0.5183192,1.6514742,0.24190263,54.349083,-102.41057,9.74672,JOG
130778618876000,3.830013,0.400510005463853,4.49399133159214,-5.32939695185959,0.39950588,1.9984456,0.035430185,53.78506,-102.74568,9.939646,JOG
130778623840000,3.834977,-0.87264728284275,3.79000491189253,-5.12403145989727,0.29229903,2.1114557,-0.14630222,53.179527,-103.01112,9.998546,JOG
130778628879000,3.840016,-2.03570905636112,3.10360790082971,-4.73793296696958,0.17501289,2.0299053,-0.3286455,52.529224,-103.219086,10.011037,JOG
130778633869000,3.845006,-3.04342129894914,2.41543537914147,-4.38363575249331,0.09773844,1.8509218,-0.49266282,51.935474,-103.32254,9.936145,JOG
130778638872000,3.850009,-3.91266241786458,1.71719255459502,-4.05588920761376,0.076052725,1.6505579,-0.6420194,51.367577,-103.388824,9.810715,JOG
130778643958000,3.855095,-4.63718100339988,1.09690881206958,-3.74951206687092,0.09865474,1.486846,-0.77457714,50.87082,-103.32052,9.537837,JOG
130778649260000,3.860397,-5.22433448163669,0.544884159810239,-3.45844458126112,0.18051068,1.3582588,-0.88606006,50.416016,-103.247284,9.219272,JOG
130778653845000,3.864982,-5.62304350450335,0.206829961269216,-3.16812633466693,0.31398472,1.2611313,-0.97494096,50.01609,-103.09911,8.774718,JOG
130778658871000,3.870008,-5.9408314719255,-0.0113528788096177,-2.80765030270004,0.48380527,1.1801916,-1.0387764,49.642815,-102.98211,8.296092,JOG
130778663833000,3.87497,-6.15534996252624,-0.125132645573828,-2.48863699619489,0.64568454,1.1551461,-1.069625,49.292137,-102.84961,7.734742,JOG
130778668889000,3.880026,-6.24006025279916,-0.103955099541638,-2.21332890662176,0.7440339,1.0644327,-1.1206323,48.976734,-102.76182,7.1366076,JOG
130778673798000,3.884935,-6.29612302060322,-0.060117051416344,-1.95502108057876,0.929126,0.9602802,-1.1472049,48.68293,-102.710396,6.487673,JOG
130778678871000,3.890008,-6.18226394488486,0.137898607483187,-1.74710463563277,1.0711522,0.82619524,-1.1255192,48.420856,-102.71809,5.824723,JOG
130778683826000,3.894963,-6.04320939850875,0.316259842403212,-1.58986251204474,1.2241739,0.70005155,-1.0784826,48.19333,-102.774956,5.132377,JOG
130778688825000,3.899962,-5.77319764357136,0.426095140808718,-1.64478016602619,1.3445144,0.5983425,-1.0103711,47.99703,-102.91628,4.438888,JOG
130778693880000,3.905017,-5.49136474334145,0.510318364250293,-1.70370796630601,1.4517213,0.5222898,-0.94714653,47.83297,-103.11876,3.7557611,JOG
130778698906000,3.910043,-5.12681936993959,0.336725236507078,-1.79484433231449,1.5519031,0.50610185,-0.89919364,47.68211,-103.40342,3.0785635,JOG
130778703775000,3.914912,-4.77366150621224,0.168554735316924,-1.88313382019656,1.6239853,0.5342017,-0.88147855,47.530468,-103.77321,2.4453418,JOG
130778708822000,3.919959,-4.36509961051695,-0.233089264159336,-1.82249744053573,1.6603317,0.5983425,-0.89675015,47.372475,-104.19963,1.8125854,JOG
130778713784000,3.924921,-3.95645563811407,-0.665218401690224,-1.73795044389641,1.6511687,0.6536258,-0.9468411,47.206097,-104.6682,1.1716725,JOG
130778718842000,3.929979,-2.72972085077882,-1.39884666710092,0.440167873293684,1.5525141,0.70066243,-1.0045679,47.00159,-105.19085,0.592492,JOG
130778723795000,3.934932,-1.37293059376947,-2.17351573895025,2.97463410455962,1.3255776,0.7812967,-1.0354166,46.768696,-105.69999,0.01003867,JOG
130778728822000,3.939959,-0.0712949026321286,-1.89143042552747,4.06197051276373,0.9056077,1.0943651,-0.9999864,46.441395,-106.163155,-0.47984856,JOG
130778733820000,3.944957,1.19356979715897,-1.19650472596616,4.56691656298308,0.1863139,1.8118263,-0.8549059,45.98573,-106.49316,-0.9110457,JOG
130778738813000,3.94995,2.2596936998958,-0.232535814871649,5.14683293096524,-0.59223384,2.7046058,-0.65057147,45.478455,-106.23871,-1.0655502,JOG
130778744011000,3.955148,3.32065370338164,0.837854937198068,5.76926273140097,-1.1939361,3.4260378,-0.38637227,44.84147,-105.8231,-1.1258343,JOG
130778748865000,3.960002,4.03228691520343,1.98598771220557,6.32079487922912,-1.5457945,3.7229183,-0.07086037,44.2037,-105.044624,-0.74357915,JOG
130778753813000,3.96495,4.65076491736515,3.2132798038136,6.87162660236566,-1.5778649,3.421151,0.21746802,43.56318,-104.20273,-0.30648398,JOG
130778758828000,3.969965,4.99963288084242,4.50805569647146,7.44019832311103,-1.2134838,3.0286698,0.47861293,42.907978,-103.25578,0.37506026,JOG
130778763834000,3.974971,5.24762131664511,5.81885219650841,8.01145755532976,-0.93309665,1.7223345,0.59620446,42.605293,-102.33559,0.9868215,JOG
130778768837000,3.979974,5.17933544551219,6.7773817805838,7.06652723559637,-0.2874121,-0.13927728,0.8341365,42.518784,-101.56163,1.6570946,JOG
130778773840000,3.984977,4.87552656127692,7.47404731541489,4.9922458050727,0.22815818,-2.096184,1.0644327,42.82325,-100.905655,2.2687688,JOG
130778778822000,3.989959,4.33529347544296,7.5529739716305,2.68268419636671,0.5552765,-3.6001344,1.2803736,43.52234,-100.30383,2.861909,JOG
130778783839000,3.994976,3.7087618158471,7.4190586255226,0.272211632040613,0.70554936,-4.488638,1.4819591,44.58916,-99.890816,3.439781,JOG
130778788836000,3.999973,2.98859806315063,7.38718569725946,-1.24122833891562,0.6951646,-4.870734,1.6371188,45.84923,-99.89667,3.9903898,JOG
130778793894000,4.005031,2.2245683153194,7.39196097979101,-2.44935040696767,0.5534439,-4.918687,1.704925,47.252903,-99.96102,4.5356407,JOG
130778799044000,4.010181,1.35673862357974,7.93220496734135,-2.20944711136208,0.31490102,-4.79743,1.7281377,48.64155,-100.41322,5.024645,JOG
130778803838000,4.014975,0.51725524596167,8.62354411195854,-1.46872653230664,0.022602014,-4.5998154,1.724778,50.001354,-100.81887,5.501935,JOG
130778808822000,4.019959,0.13730494004918,10.579590206089,-1.67064818852459,-0.29229903,-4.5304823,1.6841555,51.2649,-101.24374,5.767631,JOG
130778813846000,4.024983,0.0105412148688525,13.1946787837627,-2.37958606393443,-0.689056,-4.9577823,1.5711454,52.567547,-101.53413,5.972317,JOG
130778818844000,4.029981,-0.326644351777091,15.0317450704511,-3.80612397055246,-1.5949692,-4.598899,1.6239853,53.6777,-101.34526,6.0319986,JOG
130778823832000,4.034969,-0.796345716371515,16.3827422159149,-5.68492938241257,-1.3377949,-3.5848627,1.5641204,54.68075,-101.290886,6.029813,JOG
130778828879000,4.040016,-1.45711944541319,17.1177983669447,-6.48590878961334,-0.38973203,-2.3490822,1.215011,55.50642,-101.142746,5.928173,JOG
130778834457000,4.045594,-2.3025556865997,17.5379853220243,-6.68840863845716,0.5873469,-1.2321151,0.68233645,56.04733,-101.032074,5.8058634,JOG
130778838862000,4.049999,-2.83012896985294,16.9267217866653,-6.48810408306836,1.1869112,-0.5149594,0.2660318,56.411392,-101.24425,5.686925,JOG
130778843978000,4.055115,-3.33643616691176,15.5002987361884,-5.98179698767886,1.3713925,-0.16646078,0.014966198,56.538803,-101.53552,5.50908,JOG
130778848928000,4.060065,-3.77113732621065,13.9156491614205,-5.45440019940476,1.2675453,-0.022602014,-0.17440203,56.574127,-101.80878,5.174034,JOG
130778853860000,4.064997,-4.15711976616223,12.162050488297,-4.8968698922619,1.0543534,0.0033597588,-0.42088616,56.52217,-102.07724,4.7839465,JOG
130778858882000,4.070019,-4.41485414633705,10.8672275205297,-4.39561367118224,0.8155051,-0.020463986,-0.7959574,56.459038,-102.25867,4.282937,JOG
130778863885000,4.075022,-4.55635115901686,9.99542200342955,-3.95286456664761,0.6933321,-0.12492194,-1.0332786,56.400005,-102.430084,3.7646315,JOG
130778868845000,4.079982,-4.58532406635393,9.52638586745184,-3.67091358981934,0.4633413,-0.24801129,-1.5216653,56.360577,-102.46842,3.0528746,JOG
130778873873000,4.08501,-4.46997801261603,9.56483483641082,-3.58921007026649,0.22876903,-0.3662137,-1.9642372,56.332214,-102.50456,2.2939236,JOG
130778878807000,4.089944,-4.49655014696154,9.88780353067815,-3.62075636747236,0.02565634,-0.42241332,-2.302962,56.314754,-102.4849,1.4207497,JOG
130778883888000,4.095025,-4.71558818368725,10.6115807685684,-3.80646251715432,-0.14446963,-0.37415496,-2.604424,56.272274,-102.46487,0.44666132,JOG
130778888820000,4.099957,-5.01264158637255,11.612328572549,-4.04603187254902,-0.3109304,-0.28038713,-2.8814514,56.209145,-102.45706,-0.5862778,JOG
130778894024000,4.105161,-5.46704420327451,13.1660919545098,-4.3978273745098,-0.4746423,-0.17837265,-3.131906,56.111565,-102.49668,-1.6752197,JOG
130778898825000,4.109962,-5.81755342960725,14.5588724612286,-4.78673005035247,-0.61575216,-0.028099801,-3.333797,55.965816,-102.605675,-2.8240583,JOG
130778904484000,4.115621,-6.08498169873112,16.1143235516616,-5.38162145498489,-0.72326446,0.21044308,-3.4379497,55.757027,-102.793365,-3.9801426,JOG
130778908791000,4.119928,-6.14826978628392,17.0501642571764,-5.77846151200157,-0.7693848,0.5531385,-3.4040465,55.487377,-103.067505,-5.149955,JOG
130778913880000,4.125017,-5.98115175281669,17.728184884687,-6.15089584128539,-0.66981375,0.9630291,-3.213762,55.134617,-103.43642,-6.2541523,JOG
130778918771000,4.129908,-5.69579152520414,18.270795502994,-6.47278495971693,-0.4196644,1.3515394,-2.9046643,54.702217,-103.894905,-7.259529,JOG
130778923869000,4.135006,-5.11109014770459,18.5852942774451,-6.72526963073852,-0.025350908,1.6936239,-2.5906794,54.17901,-104.42389,-8.155297,JOG
