timestamp,rel_time,acc_x,acc_y,acc_z,gyro_x,gyro_y,gyro_z,azimuth,pitch,roll,label
130247106157000,0,-1.02587396458875,11.3935505835501,-2.35039993231939,0.14660765,0.28771752,0.21685717,183.6736,-40.63977,44.358673,STD
130247111190000,0.005033,-0.835078982292788,11.1670433222429,-2.30973490208435,0.26633725,0.5235115,0.24801129,184.48462,-41.70231,43.642937,STD
130247116172000,0.010015,-0.68100476007535,10.8682325274489,-2.16966742734123,0.38728857,0.7012733,0.26725355,185.17358,-42.745872,42.91438,STD
130247121162000,0.015005,-0.628210629851595,10.5288845132505,-1.88202765974752,0.48716503,0.8005389,0.27305678,185.8093,-43.74146,42.238995,STD
130247126181000,0.020024,-0.637474556596319,10.1629584467573,-1.50220577810543,0.56138515,0.84238315,0.28344148,186.36095,-44.72091,41.5572,STD
130247131212000,0.025055,-0.705732945200241,9.79257378486617,-1.09619075750151,0.6291912,0.82741696,0.27183503,186.80879,-45.627026,40.913696,STD
130247136224000,0.030067,-0.821649137673576,9.42067612255987,-0.671164760459851,0.6606508,0.7696902,0.25289822,187.22884,-46.520714,40.27169,STD
130247141193000,0.035036,-0.971711285085144,9.07615289019378,-0.274786314327657,0.6780604,0.6936375,0.22235495,187.50963,-47.346146,39.633533,STD
130247146222000,0.040065,-1.15082139883539,8.7462134789587,0.107000989366804,0.66645396,0.59712076,0.18417588,187.80386,-48.169186,38.99645,STD
130247151203000,0.045046,-1.30379054475976,8.47561099530287,0.446049219156473,0.659429,0.49235737,0.15149458,187.9833,-48.944927,38.346375,STD
130247156250000,0.050093,-1.43622577066249,8.25330864737254,0.753488248965652,0.6209445,0.38148534,0.11301007,188.19385,-49.7229,37.69438,STD
130247161181000,0.055024,-1.58202245524102,8.05733809353657,1.07793344517272,0.56688297,0.25992316,0.07666359,188.32774,-50.477135,37.014095,STD
130247166245000,0.060088,-1.75003131906364,7.87972893229734,1.43795233739879,0.49357912,0.14294247,0.03634648,188.49854,-51.234394,36.33205,STD
130247171185000,0.065028,-1.84256817642191,7.81651419142455,1.62423582357809,0.39858958,0.02443461,0.011301007,188.62552,-51.970528,35.629356,STD
130247176242000,0.070085,-1.8510960647121,7.8847372532224,1.6157079352879,0.30787608,-0.090713486,-0.0070249503,188.79398,-52.706997,34.927628,STD
130247181116000,0.074959,-1.85273444650664,7.97447402058508,1.58910028595156,0.19150625,-0.14049901,-0.01160644,188.89215,-53.426296,34.18682,STD
130247186209000,0.080052,-1.82137483930562,8.18876439691384,1.46888840377197,0.13805555,-0.21288654,-0.01160644,189.04164,-54.14392,33.454517,STD
130247191113000,0.084956,-1.79055492541176,8.40666298901961,1.3448616054902,0.022907447,-0.24129178,-0.01038471,189.20216,-54.852764,32.71606,STD
130247196174000,0.090017,-1.75729239602941,8.65850827254902,1.19755623872549,-0.06536258,-0.24404067,-0.02076942,189.38246,-55.558056,31.981066,STD
130247201872000,0.095715,-1.73020895945051,8.92879816872727,1.04545687202263,-0.16035213,-0.23793201,-0.021685716,189.6012,-56.264523,31.250925,STD
130247206212000,0.100055,-1.72349165650101,9.11688272145454,0.948055895085252,-0.23151793,-0.22724187,-0.02107485,189.82193,-56.961212,30.522863,STD
130247211189000,0.105032,-1.71578842682828,9.33257323272727,0.836358968307071,-0.27672195,-0.22540927,-0.019242255,190.08293,-57.67237,29.795351,STD
130247216212000,0.110055,-1.69063083853061,9.56857066979592,0.692004401983673,-0.31764993,-0.21930063,-0.014966198,190.33905,-58.368263,29.073841,STD
130247221150000,0.114993,-1.66167763134694,9.80502176102041,0.542412720681633,-0.3475823,-0.2284636,-0.005497787,190.59924,-59.05093,28.361418,STD
130247226292000,0.120135,-1.62783828047314,10.0517379771451,0.384807908953488,-0.3631594,-0.22113322,-0.004276057,190.88748,-59.75687,27.641867,STD
130247231104000,0.124947,-1.59550213247795,10.2827106006415,0.236985646976744,-0.3820962,-0.23090707,0.0027488936,191.18149,-60.44554,26.936037,STD
130247236208000,0.130051,-1.56183614293276,10.4673543340521,0.334307711725152,-0.3943135,-0.21899518,0.010079277,191.49913,-61.150105,26.233109,STD
130247241116000,0.134959,-1.52958550270535,10.6332146183101,0.477131853944325,-0.3820962,-0.18051068,0.03268129,191.80688,-61.83841,25.544353,STD
130247246209000,0.140052,-1.55829517616816,10.6385983823146,0.0787024079980671,-0.3585779,-0.14844026,0.036651913,192.14671,-62.546703,24.85811,STD
130247251108000,0.144951,-1.60136930521382,10.6023254240638,-0.440453993899009,-0.3399465,-0.09010262,0.052839845,192.45937,-63.234188,24.187803,STD
130247256205000,0.150048,-1.64618433598454,10.5645864430056,-0.980592834574535,-0.32436943,-0.040927973,0.064751714,192.73502,-63.904682,23.517305,STD
130247261207000,0.15505,-1.69016408562455,10.5275508567287,-1.51066434351293,-0.2864958,0.008246681,0.086437434,192.98819,-64.5598,22.862225,STD
130247266230000,0.160073,-1.79460079174356,10.4228351360165,-1.39517515027999,-0.25870144,0.043676864,0.09285152,193.22787,-65.20297,22.21553,STD
130247271254000,0.165097,-1.92854809661152,10.2850603679605,-0.962716663178492,-0.21227567,0.06963864,0.09987647,193.45175,-65.83437,21.583988,STD
130247276140000,0.169983,-2.0669731407232,10.1434547357942,-0.571095961006242,-0.1826487,0.06352998,0.0983493,193.86183,-66.570755,20.983011,STD
130247281199000,0.175042,-2.25989352148084,9.95053489948343,-0.341677220036591,-0.16737708,0.053145275,0.07422013,194.25378,-67.30054,20.384207,STD
130247286174000,0.180017,-2.40038572202471,9.79643838236601,-0.367477503443249,-0.12644911,0.03573562,0.05100725,194.55138,-67.99673,19.749023,STD
130247291193000,0.185036,-2.42174642721536,9.72808389378722,-1.00830043015465,-0.09743301,0.015271631,0.044593163,194.84761,-68.68361,19.121183,STD
130247296339000,0.190182,-2.43290897120322,9.66376274303742,-1.57030246203873,-0.07452556,-0.0030543262,0.027794369,195.11664,-69.37924,18.454153,STD
130247301150000,0.194993,-2.31261130842037,9.67378775326371,-0.938739578028721,-0.054061573,-0.009468411,0.019547688,195.38496,-70.06671,17.796907,STD
130247306166000,0.200009,-2.17664835651128,9.68888594225564,-0.425270697106767,-0.03756821,0.0027488936,0.018325957,195.7585,-70.81575,17.163568,STD
130247311181000,0.205024,-1.9985005240802,9.7225892560401,-0.492677988314787,-0.005497787,0.038789943,0.029626964,196.118,-71.55649,16.537683,STD
130247316192000,0.210035,-1.82824056641176,9.75512100323529,-0.537968681623529,0.028405234,0.07238753,0.039095376,196.37556,-72.20987,15.929128,STD
130247321171000,0.215014,-1.68799668290196,9.78316985803922,-0.500570299670588,0.062002823,0.10842858,0.048258353,196.61852,-72.85461,15.329996,STD
130247326213000,0.220056,-1.56106131179039,9.80744459825327,-0.462112280087336,0.09040806,0.14813483,0.059864793,196.84929,-73.4604,14.783605,STD
130247331214000,0.225057,-1.50650241472375,9.81199126400228,-0.421193114408582,0.110872045,0.1685988,0.069027774,197.07187,-74.05848,14.245647,STD
130247336246000,0.230089,-1.45343781452724,9.81878331290813,-0.36709521009822,0.11636983,0.1704314,0.06536258,197.27469,-74.61662,13.745785,STD
130247341535000,0.235378,-1.42172103606763,9.85503087047142,-0.14054663923893,0.09682214,0.14508049,0.06872234,197.47653,-75.161385,13.257408,STD
130247346183000,0.240026,-1.39384817044458,9.88688540772878,0.0585453927811074,0.07574729,0.10751228,0.064751714,197.67227,-75.68521,12.785075,STD
130247351206000,0.245049,-1.35088518169549,9.90542520223534,0.0873787666634332,0.038789943,0.07544186,0.06078109,197.872,-76.19545,12.320758,STD
130247356176000,0.250019,-1.30571750307887,9.92048140953184,0.0773414995082244,0.0009162979,0.0711658,0.058948494,198.07307,-76.69522,11.862627,STD
130247361301000,0.255144,-1.3305798867163,9.87396041648487,0.0268387672974485,-0.033292156,0.058643065,0.062002823,198.25526,-77.1541,11.414838,STD
130247366173000,0.260016,-1.35934573571564,9.82527969562743,-0.0240546525587594,-0.044593163,0.071776666,0.06811147,198.4313,-77.6027,10.973386,STD
130247371165000,0.265008,-1.38882010316324,9.77539994223656,-0.0762016049237409,-0.048563786,0.07360926,0.06566802,198.6141,-78.03387,10.547261,STD
130247376152000,0.269995,-1.41826494900882,9.72557014853457,-0.128296326767523,-0.051618114,0.070249505,0.063224554,198.79451,-78.45424,10.128986,STD
130247381169000,0.275012,-1.50453582803845,9.662387316075,-0.159817004769201,-0.04520403,0.047036625,0.063224554,198.98094,-78.86823,9.717037,STD
130247386101000,0.279944,-1.61242458368707,9.5949568731322,-0.182293833165509,-0.054061573,0.015577064,0.065973446,199.17097,-79.271706,9.311694,STD
130247391152000,0.284995,-1.72643638667803,9.51499355392943,-0.235066636067562,-0.057726767,-0.014660766,0.051618114,199.38211,-79.69463,8.897331,STD
130247396178000,0.290021,-1.84223354243184,9.42814592642342,-0.307439882344627,-0.051618114,-0.03481932,0.037873644,199.59947,-80.10926,8.490227,STD
130247401165000,0.295008,-1.90767474099302,9.37681038613049,-0.344207021821912,-0.051923547,-0.05131268,0.02443461,199.8318,-80.54202,8.06069,STD
130247406181000,0.300024,-1.94217013524826,9.34724284653262,-0.358990750455478,-0.031154128,-0.06261369,0.0125227375,200.06847,-80.97353,7.6339445,STD
130247411512000,0.305355,-1.93510220198931,9.35257763961273,-0.330161580078031,-0.028405234,-0.08368854,0.00030543262,200.32463,-81.426094,7.185126,STD
130247416210000,0.310053,-1.91126373851452,9.37208177322865,-0.286818928677809,-0.008552114,-0.08032878,-0.0027488936,200.5764,-81.87619,6.7412167,STD
130247421161000,0.315004,-1.88614150933963,9.39263625716488,-0.24114215833245,0.0125227375,-0.080634214,-0.0106901415,200.8383,-82.32974,6.2913394,STD
130247426185000,0.320028,-1.86064886555561,9.41349380660854,-0.194791907026636,0.020463986,-0.07544186,-0.011911872,201.0969,-82.77383,5.848343,STD
130247431168000,0.325011,-1.80853113347072,9.45806503318872,-0.114020088998048,0.026572637,-0.07849618,-0.0143553335,201.35794,-83.2143,5.408607,STD
130247436167000,0.33001,-1.73064427361171,9.52556725672451,0.000213972309219091,0.024740042,-0.074830994,-0.019242255,201.61517,-83.64509,4.9735894,STD
130247441155000,0.334998,-1.62427111025766,9.58827708342246,0.103246081342538,0.013439035,-0.059253927,-0.02076942,201.85875,-84.04113,4.556441,STD
130247446177000,0.34002,-1.5026898818668,9.64906745347594,0.201446300104424,0.011301007,-0.05497787,-0.022602014,202.10474,-84.427475,4.1439347,STD
130247451165000,0.345008,-1.39689991127393,9.71532026366883,0.308881190222548,0.00580322,-0.03634648,-0.020463986,202.33348,-84.77025,3.7515264,STD
130247456185000,0.350028,-1.30003551947981,9.78576715257807,0.42335731343896,-0.0067195175,-0.017104227,-0.01038471,202.56142,-85.09506,3.3667278,STD
130247461171000,0.355014,-1.22300111208567,9.85658122503229,0.556566871874731,-0.008857546,-0.0143553335,0.0036651916,202.77565,-85.36839,3.0183294,STD
130247466158000,0.360001,-1.17160254184245,9.92853904089539,0.715902391325872,-0.0027488936,0.017104227,0.02107485,202.9771,-85.62214,2.678404,STD
130247471203000,0.365046,-1.17301113120976,9.96252286672432,0.843462059140963,-0.011301007,0.032070424,0.0421497,203.16945,-85.81574,2.3733687,STD
130247476163000,0.370006,-1.21409010190257,9.96708728682617,0.943877266289997,-0.010079277,0.04062254,0.05222898,203.35602,-85.994705,2.0747159,STD
130247481119000,0.374962,-1.29533440176883,9.93949285954466,1.00597563434326,-0.015577064,0.043982297,0.076052725,203.52905,-86.11307,1.8013331,STD
130247486168000,0.380011,-1.42235702881786,9.8759815681261,1.02714610902802,-0.026267206,0.041233405,0.09162979,203.7033,-86.21186,1.5331129,STD
130247491125000,0.384968,-1.55709048717949,9.79928358974359,1.04092528205128,-0.03390302,0.04153884,0.100792766,203.87474,-86.271194,1.2630042,STD
130247496213000,0.390056,-1.73778958342869,9.65988705318924,1.02543674803984,-0.06261369,0.030848695,0.10140363,204.05217,-86.30096,0.99972403,STD
130247501100000,0.394943,-1.89806839126107,9.55288434059919,0.996492136787101,-0.096516706,0.018325957,0.08674286,204.24043,-86.308624,0.7041325,STD
130247506175000,0.400018,-2.03351825714144,9.50450944261969,0.933604749208719,-0.11636983,0.0061086523,0.07422013,204.43376,-86.28738,0.41442186,STD
130247511140000,0.404983,-2.16748076036646,9.47717638816969,0.856356528105955,-0.13591751,-0.0036651916,0.056505036,204.64525,-86.23598,0.08255225,STD
130247516173000,0.410016,-2.30667633935471,9.4963756643099,0.741160189639514,-0.15424347,-0.026267206,0.028099801,204.86632,-86.15027,-0.25010863,STD
130247521116000,0.414959,-2.41312508038166,9.53246768484081,0.611396762393146,-0.17501289,-0.049480084,0.0106901415,205.10545,-86.039,-0.612479,STD
130247527075000,0.420918,-2.45201870928829,9.62692401372797,0.405815683343394,-0.18173242,-0.08277224,-0.013133603,205.35614,-85.8955,-0.9781305,STD
130247531131000,0.424974,-2.45154778542914,9.68970239321357,0.258287054810379,-0.18051068,-0.12095132,-0.016798794,205.6309,-85.73585,-1.3699538,STD
130247536166000,0.430009,-2.36905121751735,9.76303268643665,0.0520457259585591,-0.18600847,-0.122478485,-0.02321288,205.90607,-85.54256,-1.7625513,STD
130247541165000,0.435008,-2.27950055760369,9.83440988018433,-0.154905953686636,-0.172264,-0.11942416,-0.025045475,206.19849,-85.36379,-2.1532023,STD
130247546178000,0.440021,-2.14174897526302,9.89702421598122,-0.376143421699852,-0.16187929,-0.09010262,-0.010995574,206.48349,-85.16201,-2.5344994,STD
130247551161000,0.445004,-2.00482175906443,9.95926384001391,-0.596056907259369,-0.13316862,-0.040927973,0.010995574,206.76047,-85.0029,-2.8839188,STD
130247556172000,0.450015,-1.89274070512323,10.0006413027363,-0.760709364960217,-0.09743301,0.014660766,0.038179077,207.02603,-84.83456,-3.2219949,STD
130247561197000,0.45504,-1.78534310518145,10.0379967607219,-0.914801540925674,-0.059253927,0.06261369,0.051618114,207.27881,-84.660645,-3.5522103,STD
130247566171000,0.460014,-1.67574857680014,10.0748645186458,-0.916109849450077,-0.010995574,0.10751228,0.071776666,207.50801,-84.55933,-3.8265429,STD
130247571101000,0.464944,-1.56621353349373,10.1113760867847,-0.875541325090222,0.027488936,0.116675265,0.079107046,207.73256,-84.45095,-4.095722,STD
130247576174000,0.470017,-1.48742402967632,10.1184314404978,-0.764748072358722,0.048563786,0.16493362,0.09010262,207.92857,-84.38345,-4.327935,STD
130247581151000,0.474994,-1.45178188298259,10.0878811885482,-0.5712620002457,0.08552113,0.17959438,0.09193522,208.13039,-84.31255,-4.5557404,STD
130247586164000,0.480007,-1.45273582675022,10.0153461634681,-0.339781131737589,0.11728613,0.19486602,0.093767814,208.3079,-84.25499,-4.7461524,STD
130247591153000,0.484996,-1.48080514342505,9.91242538450994,-0.0824788780557133,0.15485434,0.18784106,0.09743301,208.48679,-84.19521,-4.9317284,STD
130247596953000,0.490796,-1.50409270201506,9.81018611886831,0.176489650614289,0.1740966,0.15027285,0.09101892,208.66566,-84.11222,-5.1089725,STD
130247601169000,0.495012,-1.51641993246489,9.74444080398942,0.344961917230206,0.16646078,0.13133603,0.089491755,208.84099,-84.02686,-5.280764,STD
130247606169000,0.500012,-1.53064477043141,9.67650775821619,0.502349240610761,0.16157386,0.09254608,0.08307768,209.03317,-83.902214,-5.461999,STD
130247611197000,0.50504,-1.54464932244304,9.61582177237034,0.628389867503635,0.1337795,0.028405234,0.070554934,209.23877,-83.76989,-5.6418395,STD
130247616170000,0.510013,-1.5454236360881,9.59360688675034,0.697956771878565,0.10567969,-0.028405234,0.064446285,209.45428,-83.613365,-5.8242264,STD
130247621174000,0.515017,-1.53353752882087,9.60787023532913,0.714597287300957,0.076358154,-0.076052725,0.04886922,209.68686,-83.44861,-6.0092607,STD
130247626168000,0.520011,-1.52167517476561,9.62210508001389,0.731204548296046,0.04153884,-0.1142318,0.045814894,209.93492,-83.26734,-6.194302,STD
130247631174000,0.525017,-1.509784316856,9.6363741293715,0.747851714603899,0.018020526,-0.12858713,0.030848695,210.19127,-83.07912,-6.383925,STD
130247636165000,0.530008,-1.50554434068241,9.65774506036746,0.716852865616798,-0.017715093,-0.13897185,0.025350908,210.45836,-82.88992,-6.56827,STD
130247641156000,0.534999,-1.50972612622922,9.68701729720035,0.633217111014873,-0.049785517,-0.13347405,0.027488936,210.72612,-82.69934,-6.7516985,STD
130247646154000,0.539997,-1.515114236121,9.71483965157918,0.540296131957295,-0.090713486,-0.13408493,0.036651913,210.99675,-82.51137,-6.924169,STD
130247651169000,0.545012,-1.5257965430605,9.73620415391459,0.406767205978648,-0.101098195,-0.124005646,0.036957346,211.26407,-82.32434,-7.0958395,STD
130247656124000,0.549967,-1.54295559557091,9.7385225714981,0.295389449535676,-0.11178834,-0.09865474,0.040317107,211.52774,-82.14676,-7.2612762,STD
130247661275000,0.555118,-1.57176714973231,9.70971146860703,0.213756794642266,-0.11209377,-0.086437434,0.05222898,211.793,-81.97437,-7.4212136,STD
130247666228000,0.560071,-1.59861356116979,9.68138800026626,0.148032940585781,-0.099571034,-0.07574729,0.05589417,212.05162,-81.81208,-7.5809817,STD
130247671182000,0.565025,-1.62387856544777,9.6519119860655,0.105924569344102,-0.092240654,-0.03573562,0.060170226,212.29826,-81.655075,-7.734989,STD
130247676201000,0.570044,-1.64986550120708,9.62336362018731,0.0701349149947971,-0.07849618,-0.0018325958,0.07574729,212.54517,-81.505646,-7.8895297,STD
130247681159000,0.575002,-1.67951078135276,9.60854121227888,0.104721040770031,-0.04550946,0.018325957,0.07727446,212.78476,-81.35864,-8.044481,STD
130247686153000,0.579996,-1.70232370081098,9.59674356768559,0.153641139650655,-0.022907447,0.03359759,0.07513642,213.01775,-81.21335,-8.201638,STD
130247691162000,0.585005,-1.68736107099189,9.60173069432314,0.278329804803493,0.007330383,0.05131268,0.077579886,213.24461,-81.07565,-8.35468,STD
130247696148000,0.589991,-1.67169295074855,9.61297146114237,0.392612547252789,0.029321533,0.064751714,0.06566802,213.47197,-80.92721,-8.517244,STD
130247701225000,0.595068,-1.65314749808334,9.64542611223419,0.476066934168018,0.04734206,0.0720821,0.06414085,213.69641,-80.78656,-8.673584,STD
130247706076000,0.599919,-1.64301604875612,9.67115864662096,0.555225938217434,0.0720821,0.07391469,0.06658431,213.9193,-80.64357,-8.826143,STD
130247711106000,0.604949,-1.68783758558276,9.65936351831538,0.633073834299706,0.09865474,0.07941248,0.073303826,214.13977,-80.50516,-8.975465,STD
130247716086000,0.609929,-1.73221358029383,9.64768563780607,0.710147894436827,0.11362094,0.07238753,0.06811147,214.36105,-80.36852,-9.118021,STD
130247721088000,0.614931,-1.77678561353575,9.63595616826641,0.787562442389814,0.12980886,0.06383542,0.06994407,214.5815,-80.24005,-9.254351,STD
130247726239000,0.620082,-1.82411283847873,9.62081709928114,0.86772343422382,0.13072516,0.03176499,0.06505715,214.81151,-80.11016,-9.391262,STD
130247731088000,0.624931,-1.88726915572178,9.56668296502817,0.948924400077715,0.13988814,0.0036651916,0.0571159,215.04376,-79.98388,-9.526159,STD
130247736411000,0.630254,-1.95457558937178,9.50795503072714,1.0354288390824,0.13500121,-0.028710667,0.048258353,215.29831,-79.82509,-9.682048,STD
130247741084000,0.634927,-1.97341275085762,9.47028090445123,1.05897534011365,0.11178834,-0.07544186,0.03176499,215.56607,-79.66376,-9.839036,STD
130247746065000,0.639908,-1.99142117046393,9.43337685644754,1.07707660363502,0.102319926,-0.09773844,0.021685716,215.84276,-79.48295,-10.01128,STD
130247751198000,0.645041,-1.9838495922494,9.43640555098269,1.00741802081203,0.080634214,-0.12705997,0.01985312,216.13548,-79.2998,-10.181975,STD
130247756170000,0.650013,-1.97651550168197,9.43933924847514,0.939944326326166,0.05131268,-0.14782938,0.018325957,216.43637,-79.10728,-10.358963,STD
130247761186000,0.655029,-1.96911650765818,9.4422989078923,0.871873519499723,0.0067195175,-0.17562376,0.014966198,216.74797,-78.91363,-10.5332365,STD
130247766111000,0.659954,-1.96185174578276,9.44520487332881,0.805037649559485,-0.014966198,-0.17745635,0.012217305,217.05804,-78.72229,-10.7047205,STD
130247771165000,0.665008,-1.95439669877395,9.44818695440823,0.736451154802538,-0.032986723,-0.18295415,0.010079277,217.3774,-78.529724,-10.873262,STD
130247776157000,0.67,-1.94703310663545,9.45113245277555,0.668706045616413,-0.06719518,-0.18478674,0.0067195175,217.69644,-78.3358,-11.039797,STD
130247781173000,0.675016,-1.91717817026245,9.47922253606117,0.572866772576979,-0.08246681,-0.16462818,0.012217305,218.00887,-78.147705,-11.201058,STD
130247786172000,0.680015,-1.87265757626576,9.52374297509816,0.459092001601571,-0.09437868,-0.13530666,0.01282817,218.31926,-77.95764,-11.361706,STD
130247791153000,0.684996,-1.84559540405876,9.56311006339389,0.362930255732509,-0.09468412,-0.09468412,0.022296581,218.61334,-77.794,-11.510798,STD
130247796180000,0.690023,-1.82698598248937,9.60032871221492,0.274535444982605,-0.08124508,-0.056505036,0.038179077,218.8988,-77.6354,-11.655528,STD
130247801168000,0.695011,-1.80262395245853,9.63773993453792,0.205481517402251,-0.0711658,-0.031154128,0.050701816,219.16722,-77.5004,-11.78427,STD
130247806174000,0.700017,-1.77422256369471,9.67560868355055,0.148678794244668,-0.043676864,0.004581489,0.055283304,219.42075,-77.37288,-11.909289,STD
130247811213000,0.705056,-1.78678028085357,9.68899029255581,0.143669053194021,-0.013744468,0.029932396,0.0711658,219.66106,-77.268654,-12.018698,STD
130247816171000,0.710014,-1.82880373108467,9.6843209282132,0.176353940510375,0.0021380284,0.03145956,0.07574729,219.89772,-77.165726,-12.128081,STD
130247821167000,0.71501,-1.90927778899685,9.67086421883754,0.236687285294993,0.013439035,0.025350908,0.07880162,220.12546,-77.08213,-12.22369,STD
130247826190000,0.720033,-2.0229697269958,9.64981018067227,0.320903495115546,0.02565634,0.022907447,0.07880162,220.35141,-77.001816,-12.31709,STD
130247831159000,0.725002,-2.11212941839056,9.6172645082855,0.406615461878046,0.027794369,0.019547688,0.0693332,220.58406,-76.90913,-12.420457,STD
130247836216000,0.730059,-2.13311062822485,9.54907524769847,0.501030982811654,0.040927973,0.0027488936,0.064751714,220.82117,-76.821304,-12.520121,STD
130247841134000,0.734977,-2.1433036770664,9.49836242120912,0.582070540921705,0.049480084,-0.006414085,0.061391957,221.07123,-76.69639,-12.651225,STD
130247846188000,0.740031,-2.13850673482656,9.46958116848365,0.649227782368682,0.04550946,-0.034208454,0.056199603,221.33133,-76.572014,-12.780848,STD
130247851108000,0.744951,-2.11965363638953,9.46029615400481,0.685092772656288,0.029321533,-0.06291912,0.054367006,221.60355,-76.43505,-12.916202,STD
130247856196000,0.750039,-2.07658126646368,9.48183226400825,0.673128214349556,0.0143553335,-0.105374254,0.046120327,221.88768,-76.297165,-13.051384,STD
130247861114000,0.754957,-2.03494802839464,9.50264881058783,0.661563415262977,0.0076358155,-0.12217305,0.04184427,222.17459,-76.15738,-13.18323,STD
130247866181000,0.760024,-1.99205343358051,9.52409603334479,0.649648238977557,-0.004581489,-0.15790866,0.03756821,222.47896,-76.01616,-13.313553,STD
130247871119000,0.764962,-1.93277974767591,9.56171193279384,0.622786320132241,-0.020463986,-0.1853976,0.039095376,222.78505,-75.87706,-13.440681,STD
130247876203000,0.770046,-1.83187591939209,9.63859106394947,0.560322077495312,-0.021685716,-0.17684549,0.032986723,223.09074,-75.73752,-13.5686655,STD
130247881171000,0.775014,-1.745184471997,9.71649900149799,0.50411067733171,-0.02565634,-0.16432275,0.03176499,223.39583,-75.623314,-13.669801,STD
130247886204000,0.780047,-1.68651946399214,9.80224000393222,0.45898376549574,-0.0125227375,-0.11789699,0.048258353,223.68773,-75.51586,-13.766462,STD
130247891152000,0.784995,-1.64035057646727,9.87708383671934,0.431567017249812,0.016798794,-0.06169739,0.058643065,223.96019,-75.44029,-13.836673,STD
130247896191000,0.790034,-1.65850619015237,9.89977829458239,0.499650438233634,0.06078109,0.008552114,0.0842994,224.21347,-75.3773,-13.897786,STD
130247901399000,0.795242,-1.6836851904101,9.91899065574455,0.57314435552541,0.1133155,0.06627888,0.11575896,224.44801,-75.34382,-13.935891,STD
130247906096000,0.799939,-1.78225842335386,9.88613273171241,0.676411598622561,0.15393804,0.103847094,0.13897185,224.66699,-75.318565,-13.969326,STD
130247911081000,0.804924,-1.88737393337671,9.84870107738512,0.786041224006407,0.20097467,0.118202426,0.14660765,224.88185,-75.29515,-14.001579,STD
130247916113000,0.809956,-1.99833419310241,9.78598469576534,0.897001382981279,0.22327125,0.11789699,0.15668693,225.08913,-75.2804,-14.026473,STD
130247921349000,0.815192,-2.11140598579445,9.72228912906084,1.00584754255759,0.22785273,0.11362094,0.14996742,225.30724,-75.23537,-14.07801,STD
130247926143000,0.819986,-2.20180006972829,9.67257226255168,1.06912348154164,0.22968534,0.09865474,0.13500121,225.52829,-75.193146,-14.127923,STD
130247931137000,0.82498,-2.29242435307312,9.62076658646245,1.13327408143281,0.2180789,0.081855945,0.12675454,225.76672,-75.116066,-14.205192,STD
130247936109000,0.829952,-2.33947573524704,9.56901012994071,1.17562024186759,0.19333886,0.063224554,0.119729586,226.0099,-75.0357,-14.284547,STD
130247941272000,0.835115,-2.3829909329677,9.51542425959781,1.21658131340646,0.15332718,0.034208454,0.106901415,226.27356,-74.92185,-14.390987,STD
130247946096000,0.839939,-2.36288190397841,9.4671628419953,1.22060311920432,0.12705997,0.009468411,0.10598512,226.54054,-74.81049,-14.493712,STD
130247951189000,0.845032,-2.34165153817359,9.41621023008618,1.22484919236528,0.09896017,-0.02321288,0.08979719,226.82573,-74.67387,-14.615033,STD
130247956190000,0.850033,-2.31016635341145,9.36266455226047,1.20305313343011,0.05222898,-0.061391957,0.07849618,227.11865,-74.53696,-14.732194,STD
130247961153000,0.854996,-2.27566727650353,9.30845134218167,1.17348262841145,0.015882496,-0.08735373,0.076052725,227.41658,-74.39905,-14.848577,STD
130247966167000,0.86001,-2.23839136523749,9.24428347438293,1.12531676763694,-0.00030543262,-0.12705997,0.070249505,227.72844,-74.258835,-14.9633665,STD
130247971125000,0.864968,-2.201037279349,9.17891383626709,1.07395478374471,-0.039095376,-0.17654006,0.069027774,228.04971,-74.11651,-15.074266,STD
130247976201000,0.870044,-2.11865494862279,9.12406534676718,0.981148371257369,-0.06780604,-0.21380283,0.05955936,228.37764,-73.977264,-15.182136,STD
130247981127000,0.87497,-2.02746839008408,9.07391269672369,0.880843166386392,-0.087964594,-0.23854288,0.05497787,228.71461,-73.83864,-15.285728,STD
130247986191000,0.880034,-1.92119986017263,9.02566357283777,0.812159430086313,-0.10170906,-0.26175576,0.06047566,229.05307,-73.708916,-15.3810215,STD
130247991900000,0.885743,-1.79599958951911,8.97269416954377,0.749559294759556,-0.10293079,-0.28405234,0.061391957,229.39684,-73.578224,-15.476147,STD
130247996167000,0.89001,-1.67721011686384,8.9237050058077,0.666619078049043,-0.099571034,-0.2996294,0.062308256,229.72998,-73.47539,-15.548669,STD
130248001256000,0.895099,-1.50947907413422,8.85556451086255,0.530337568202839,-0.07452556,-0.30909783,0.07238753,230.06573,-73.379,-15.616272,STD
130248006103000,0.899946,-1.38575368122114,8.78096584669061,0.404128477371986,-0.054061573,-0.29016098,0.07513642,230.3854,-73.31006,-15.659839,STD
130248011150000,0.904993,-1.28159592739867,8.6966475417137,0.275171288194972,-0.03176499,-0.25992316,0.084910266,230.70235,-73.2495,-15.6976595,STD
130248016084000,0.909927,-1.25358306876598,8.64408166966569,0.175388252842125,0.003970624,-0.19792034,0.09987647,230.9812,-73.235115,-15.70233,STD
130248021168000,0.915011,-1.26741632509707,8.60719317871011,0.0877775677817975,0.040011674,-0.119729586,0.10354166,231.24524,-73.222946,-15.708616,STD
130248026116000,0.919959,-1.33584850419918,8.60075147546201,0.0608284525601643,0.08399397,-0.027794369,0.12064589,231.4712,-73.24884,-15.691139,STD
130248031095000,0.924938,-1.4533423225462,8.62033366776181,0.0853063370907598,0.129198,0.07544186,0.12705997,231.67035,-73.2762,-15.678522,STD
130248036083000,0.929926,-1.59500094976434,8.65559778397486,0.138799748128044,0.18692477,0.16065755,0.11636983,231.84415,-73.30882,-15.674788,STD
130248041106000,0.934949,-1.75560057314415,8.70283292380204,0.214376024133346,0.21960606,0.23976462,0.09468412,231.98924,-73.34119,-15.675337,STD
130248046071000,0.939914,-1.90616221902223,8.76296701931395,0.333688274126345,0.23182335,0.29657507,0.077579886,232.12646,-73.34796,-15.705016,STD
130248051071000,0.944914,-2.05066694691681,8.83521930781611,0.49264342451363,0.22357668,0.32559118,0.058337633,232.24934,-73.34854,-15.742452,STD
130248056097000,0.94994,-2.1548618689055,8.90411127558553,0.641806638020596,0.18967366,0.32620203,0.03970624,232.38124,-73.30313,-15.820441,STD
130248061228000,0.955071,-2.22651196092226,8.97128328068896,0.785107009095051,0.17256944,0.3023783,0.040317107,232.51192,-73.258484,-15.897245,STD
130248066061000,0.959904,-2.28375195425229,9.02757986247234,0.904855334871957,0.12461651,0.23609942,0.03940081,232.67316,-73.16471,-16.006626,STD
130248071086000,0.964929,-2.32432407644641,9.07322321530193,1.00121385368321,0.05009095,0.13744467,0.04550946,232.85056,-73.070564,-16.110422,STD
130248076111000,0.969954,-2.35913949325058,9.10651375087277,1.03849013556051,-0.03023783,0.03268129,0.056505036,233.05957,-72.95261,-16.222332,STD
130248081078000,0.974921,-2.386816742436,9.12496515399534,1.00619996334368,-0.129198,-0.0720821,0.06047566,233.29684,-72.82849,-16.329723,STD
130248086070000,0.979913,-2.37464738142827,9.13433108369769,0.932032860483031,-0.23243423,-0.15699236,0.04795292,233.56586,-72.68609,-16.440117,STD
130248091089000,0.984932,-2.29959112577556,9.12932775827608,0.791927940495524,-0.3390302,-0.22266038,0.03268129,233.85825,-72.53729,-16.545475,STD
130248096055000,0.989898,-2.2029622308011,9.14208720313733,0.636911500228887,-0.42088616,-0.25778514,0.020463986,234.16768,-72.37673,-16.656267,STD
130248101098000,0.994941,-2.07907787099448,9.17544035931334,0.460614548855564,-0.47678033,-0.28619036,0.015577064,234.49208,-72.20921,-16.764795,STD
130248106063000,0.999906,-1.88224948507551,9.12929403168493,0.262061930707729,-0.50946164,-0.2910773,0.01282817,234.80267,-72.06155,-16.856846,STD
130248111172000,1.005015,-1.58281906881848,8.97957879834172,0.0254152595143618,-0.52106804,-0.30298916,0.023823744,235.12064,-71.915245,-16.942797,STD
130248116092000,1.009935,-1.3452145644012,8.80666211826347,-0.131400100814371,-0.49235737,-0.3155119,0.040927973,235.41449,-71.81667,-16.994307,STD
130248121104000,1.014947,-1.17276319901198,8.5910985993014,-0.193674190810379,-0.46578476,-0.3463606,0.05222898,235.71472,-71.71989,-17.041708,STD
130248126107000,1.01995,-1.03758693503447,8.37057793649869,-0.253187000602,-0.41905355,-0.3820962,0.07666359,235.98312,-71.710594,-17.020576,STD
130248131103000,1.024946,-0.953964916407418,8.14293977337606,-0.308935006552092,-0.36071593,-0.40866885,0.08674286,236.25648,-71.704865,-16.99946,STD
130248136046000,1.029889,-0.901875746752521,7.94364514120994,-0.362979809839273,-0.29260445,-0.42913285,0.08674286,236.52588,-71.736725,-16.947475,STD
130248141097000,1.03494,-0.906704779077568,7.78911615723271,-0.416099210796646,-0.22449298,-0.43127087,0.07880162,236.79636,-71.77512,-16.895164,STD
130248146055000,1.039898,-0.94474968916081,7.70136096279109,-0.459896773902109,-0.15332718,-0.38912117,0.060170226,237.05264,-71.82602,-16.841736,STD
130248151198000,1.045041,-1.04902081965619,7.73472770503853,-0.48909267772377,-0.08735373,-0.29077184,0.021380283,237.2929,-71.87575,-16.798866,STD
130248156573000,1.050416,-1.1655515461429,7.78720880188204,-0.511248882249699,-0.027183503,-0.15760323,-0.018020526,237.50977,-71.919655,-16.775124,STD
130248161197000,1.05504,-1.33999003613087,8.00525658549075,-0.448257211493599,0.02107485,-0.09132435,-0.043066,237.71756,-71.9622,-16.75972,STD
130248166166000,1.060009,-1.51437141770679,8.24087793085303,-0.362848872151034,0.03756821,0.059864793,-0.0693332,237.8667,-71.97385,-16.789867,STD
130248171168000,1.065011,-1.62935323029911,8.48410895467134,-0.194798545588996,0.07147124,0.19761491,-0.08093964,238.00012,-71.98864,-16.824234,STD
130248177310000,1.071153,-1.74790273103774,8.77075589622642,0.00967618862264151,0.07238753,0.30176744,-0.079107046,238.11343,-71.96687,-16.89334,STD
130248181176000,1.075019,-1.7637792259434,8.91999476929674,0.133512676475129,0.054061573,0.34238997,-0.07696902,238.20508,-71.94291,-16.966717,STD
130248186173000,1.080016,-1.78430039641509,9.11289354030875,0.293577583303602,0.0061086523,0.32834008,-0.059864793,238.29886,-71.896194,-17.047777,STD
130248191159000,1.085002,-1.78777160823171,9.28277621189024,0.39113445203125,-0.07360926,0.2657264,-0.046731193,238.3953,-71.84459,-17.127459,STD
130248196153000,1.089996,-1.78321496387195,9.44225876448171,0.459484169765625,-0.14721853,0.1826487,-0.03481932,238.50162,-71.79389,-17.200047,STD
130248201182000,1.095025,-1.75293149395199,9.55616756371191,0.470373313457987,-0.24617869,0.09468412,-0.024740042,238.64085,-71.73499,-17.254976,STD
130248206149000,1.099992,-1.70461680158818,9.63522816952909,0.439627606389658,-0.32375857,-0.00061086525,-0.0125227375,238.80603,-71.67616,-17.302061,STD
130248211171000,1.105014,-1.60658814102211,9.68635508136705,0.41507467605756,-0.39920044,-0.10629055,-0.007941248,239.00145,-71.618286,-17.331629,FOL
130248216170000,1.110013,-1.43942519896307,9.69648584498995,0.399878043999577,-0.46578476,-0.21166481,-0.014049901,239.2239,-71.55523,-17.35704,FOL
130248221167000,1.11501,-1.20367320281788,9.68642584832905,0.417448029508602,-0.5198463,-0.33108896,-0.0067195175,239.47284,-71.51233,-17.354874,FOL
130248226167000,1.12001,-0.90540402148507,9.65801967866324,0.464792339376112,-0.5885687,-0.46792278,-0.0036651916,239.75696,-71.45906,-17.35118,FOL
130248231176000,1.125019,-0.603246852189674,9.61789836239835,0.5049286276232,-0.6386596,-0.623388,0.013439035,240.07108,-71.44449,-17.299303,FOL
130248236168000,1.130011,-0.298800681835995,9.56637663809151,0.537715141662584,-0.68630713,-0.77946407,0.024740042,240.42395,-71.42157,-17.243671,FOL
130248241148000,1.134991,-0.0292078244784785,9.52320674654655,0.56856323386987,-0.713796,-0.89827734,0.044898596,240.80142,-71.4598,-17.10942,FOL
130248246884000,1.140727,0.23473242983984,9.48471525825826,0.601555764224224,-0.72204274,-0.98807454,0.06536258,241.21336,-71.49493,-16.968628,FOL
130248251119000,1.144962,0.398904981110735,9.46779744023027,0.605586283210295,-0.72295904,-1.0158689,0.086437434,241.63005,-71.588135,-16.754805,FOL
130248256149000,1.149992,0.562031756237724,9.4596413625127,0.589273599735862,-0.7031059,-1.0259482,0.10354166,242.0643,-71.68199,-16.536009,FOL
130248261171000,1.155014,0.715555033588444,9.44223098411939,0.558117199387736,-0.6973027,-0.9755518,0.12705997,242.48053,-71.81727,-16.264656,FOL
130248266171000,1.160014,0.784268369472879,9.34145082531331,0.393205193265091,-0.68539083,-0.86834496,0.14538592,242.87943,-71.952385,-15.995311,FOL
130248271564000,1.165407,0.837408195494595,9.22094903097466,0.210322646293033,-0.700357,-0.6960809,0.15882497,243.23587,-72.12138,-15.688405,FOL
130248276169000,1.170012,0.681177243795985,9.0046294801526,0.00602063124625304,-0.7461719,-0.45204028,0.15882497,243.53702,-72.28161,-15.3923025,FOL
130248281118000,1.174961,0.513275619484059,8.7721505535471,-0.213543032698701,-0.84482664,-0.18020524,0.1518,243.765,-72.45223,-15.098341,FOL
130248286165000,1.180008,0.161132806708861,8.55339766329114,0.00618250402531648,-0.95478237,0.10323623,0.14508049,243.91681,-72.60789,-14.820197,FOL
130248291138000,1.184981,-0.230722255986287,8.34239872890295,0.332728374741561,-1.0925325,0.32345316,0.13103059,244.00739,-72.73449,-14.559951,FOL
130248296136000,1.189979,-0.693578239219945,8.10544059695911,0.760711783790726,-1.2370021,0.44837508,0.09560041,244.03004,-72.8088,-14.374982,FOL
130248301151000,1.194994,-1.16528277397299,7.86505278328454,1.20066701611673,-1.3918564,0.4633413,0.036651913,244.02231,-72.84692,-14.208521,FOL
130248306148000,1.199991,-1.68407182819607,7.57134856581161,1.39098420614809,-1.5351044,0.35796702,-0.048258353,244.04672,-72.723625,-14.154531,FOL
130248311136000,1.204979,-2.21489479855644,7.26376892543359,1.51500819202409,-1.674687,0.19547687,-0.16646078,244.0871,-72.551414,-14.125357,FOL
130248316676000,1.210519,-2.7139842787354,7.03871498716271,1.12584847699356,-1.7837266,0.021685716,-0.28924468,244.21777,-72.159164,-14.2477255,FOL
130248321108000,1.214951,-3.10287291216271,6.87204844910391,0.754053967609746,-1.8570304,-0.116675265,-0.39370266,244.38806,-71.72668,-14.389288,FOL
130248326156000,1.219999,-3.36137319582378,6.75896517927179,0.305094145561927,-1.8414533,-0.20463985,-0.47128254,244.64636,-71.11456,-14.704623,FOL
130248331112000,1.224955,-3.58816338378249,6.65917751172592,-0.139414666410551,-1.7574593,-0.25289822,-0.5198463,244.9328,-70.49179,-15.029059,FOL
130248336166000,1.230009,-3.676778045142,6.59913573710015,-0.480005593769806,-1.6010778,-0.27000242,-0.55833083,245.251,-69.808556,-15.511174,FOL
130248341140000,1.234983,-3.72424690732436,6.55166672621824,-0.783806519916293,-1.3933836,-0.28588495,-0.5876524,245.57864,-69.15324,-15.991479,FOL
130248346166000,1.240009,-3.46798688819218,6.6258228807585,-0.818743843353667,-1.171945,-0.29779682,-0.63438356,245.89876,-68.51997,-16.563643,FOL
130248351183000,1.245026,-3.12490876059488,6.73488079309595,-0.775575081444176,-0.9819659,-0.30818152,-0.6942484,246.21938,-67.91943,-17.135164,FOL
130248356147000,1.24999,-2.78545493851137,6.84278660869154,-0.73286235788055,-0.82527894,-0.31612277,-0.7290677,246.51984,-67.383224,-17.718098,FOL
130248361312000,1.255155,-2.43225610872464,6.95506169683643,-0.688420130401475,-0.75716746,-0.2947425,-0.7806858,246.815,-66.85411,-18.312134,FOL
130248366197000,1.26004,-2.00435267207399,7.18272826152928,-0.65216823860029,-0.6817256,-0.2443461,-0.8142834,247.10052,-66.35522,-18.900837,FOL
130248371170000,1.265013,-1.49687830662348,7.50751200463729,-0.61968987276788,-0.6411031,-0.12064589,-0.82650065,247.35614,-65.8605,-19.493021,FOL
130248376137000,1.26998,-1.02550653345858,7.84832820595645,-0.572358365670367,-0.6469063,0.07269296,-0.8011498,247.51483,-65.57358,-19.852472,FOL
130248381182000,1.275025,-0.690272271972673,8.26092422506405,-0.464051909308283,-0.64721173,0.25595254,-0.73792523,247.6361,-65.3033,-20.207115,FOL
130248386331000,1.280174,-0.524965902263699,8.56635637584749,-0.341124377278536,-0.6737844,0.44868052,-0.66431594,247.6647,-65.20302,-20.37853,FOL
130248391144000,1.284987,-0.672028746934673,8.65459394137353,-0.205091248261307,-0.6826419,0.6786713,-0.5870415,247.62202,-65.12262,-20.543879,FOL
130248396159000,1.290002,-0.825263770002393,8.7465348080083,-0.0633488543237617,-0.6585127,0.7852673,-0.5299256,247.55667,-65.14139,-20.592693,FOL
130248401171000,1.295014,-1.3446522683589,8.65990613575081,0.00578081166164575,-0.6453791,0.82833326,-0.50488013,247.43845,-65.16718,-20.6393,FOL
130248406153000,1.299996,-1.93910710242678,8.5356919748954,0.0590155689598326,-0.6267477,0.838718,-0.5006041,247.29572,-65.20539,-20.679659,FOL
130248411183000,1.305026,-2.73036420344828,8.24490440965517,0.369053804696552,-0.6114761,0.7086037,-0.52656585,247.20175,-65.19439,-20.746542,FOL
130248416111000,1.309954,-3.59671360060852,7.8811332440568,0.795048815111156,-0.59498274,0.5412266,-0.59040123,247.11874,-65.17777,-20.819525,FOL
130248421166000,1.315009,-4.36131391842105,7.3344641231015,1.23820549786654,-0.5674938,0.35827246,-0.66523224,247.10812,-65.002,-21.054941,FOL
130248426169000,1.320012,-5.06379436447368,6.71754217121241,1.67950726771147,-0.50946164,0.1563815,-0.77549344,247.16064,-64.8115,-21.300657,FOL
130248431168000,1.325011,-5.51002920780856,6.05119088526448,2.0807964790932,-0.47678033,0.061391957,-0.88697636,247.3624,-64.306656,-21.813202,FOL
130248436169000,1.330012,-5.76638661933249,5.34746436835642,2.45276621920655,-0.45112398,0.01282817,-0.9807441,247.61624,-63.797543,-22.328466,FOL
130248441159000,1.335002,-5.5865459816003,4.8671919002642,2.80492363822419,-0.408058,-0.008857546,-1.0485502,248.1224,-62.906334,-23.159178,FOL
130248446157000,1.34,-5.18910217314588,4.49684670264201,3.14817046081336,-0.408058,0.04337143,-1.0519099,248.61568,-62.031837,-23.972569,FOL
130248451167000,1.34501,-4.498010261899,4.40809387790545,3.36485403616571,-0.37293324,0.11209377,-0.9944886,249.3103,-60.92871,-24.952679,FOL
130248456177000,1.35002,-3.56462635533716,4.55317930669287,3.4760863379498,-0.3359759,0.24190263,-0.94714653,249.95505,-59.861248,-25.90688,FOL
130248461171000,1.355014,-2.51443137700226,4.87215938964381,3.47415077743463,-0.25289822,0.3857614,-0.81031275,250.57202,-58.878742,-26.731878,FOL
130248466175000,1.360018,-1.36989941004735,5.326025538007,3.38535100090591,-0.14905111,0.5662721,-0.64812803,251.11917,-57.951538,-27.522894,FOL
130248471164000,1.365007,-0.417901591299614,5.87358458928041,3.36364800839355,-0.055588737,0.75411314,-0.45081854,251.3995,-57.410694,-27.93824,FOL
130248476158000,1.370001,0.419998357378996,6.47952366787093,3.38258353817678,0.07574729,0.7984009,-0.22632557,251.64877,-56.945187,-28.29766,FOL
130248481182000,1.375025,0.919057141160526,7.0159797523843,3.3292560860757,0.15485434,0.73945236,0.0018325958,251.70627,-56.86997,-28.280212,FOL
130248486166000,1.380009,1.18739623153298,7.49994836798514,3.22862897096677,0.18051068,0.64812803,0.20799962,251.73947,-56.8556,-28.208645,FOL
130248491152000,1.384995,0.802502174490058,8.07444001068355,2.99981227485409,0.23304509,0.50854534,0.41813725,251.74098,-57.13546,-27.829966,FOL
130248496178000,1.390021,-0.0116979130596497,8.7124680641013,2.68555954912454,0.226631,0.29657507,0.6010914,251.77213,-57.44891,-27.391932,FOL
130248501167000,1.39501,-0.6127459175,9.03089249659268,2.53239682593458,0.17287487,0.032070424,0.75319684,251.81339,-57.907574,-26.80409,FOL
130248506170000,1.400013,-1.06985752,9.12884502180685,2.49041721401869,0.083383106,-0.08032878,0.8176431,251.85992,-58.372543,-26.192907,FOL
130248511224000,1.405067,-1.40672894155305,9.18229569472436,2.83341209567279,0.10934488,-0.122478485,0.82558435,251.90997,-58.826077,-25.675194,FOL
130248516254000,1.410097,-1.63516448828295,9.1965727051966,3.50444147692156,0.19486602,-0.030848695,0.77457714,251.95212,-59.265938,-25.168335,FOL
130248521163000,1.415006,-2.00846747454355,9.10173285574363,3.97120476573792,0.29016098,0.11026118,0.7147123,251.99316,-59.634373,-24.767015,FOL
130248526187000,1.42003,-2.53462727766261,8.90041979982883,4.26859933736212,0.36468655,0.19853121,0.65209866,252.02824,-59.991974,-24.39245,FOL
130248531206000,1.425049,-3.12653066290258,8.74218288244766,4.69405792735507,0.364992,0.29749137,0.56138515,252.09486,-60.206314,-24.094595,FOL
130248536210000,1.430053,-3.81141121109098,8.64572091143317,5.30176879800725,0.3475823,0.34391713,0.44532076,252.15741,-60.402905,-23.831512,FOL
130248541200000,1.435043,-4.37083005840022,8.57025609559022,5.81875859356119,0.4841107,0.1695151,0.3136793,252.3222,-60.431366,-23.727535,FOL
130248546209000,1.440052,-4.76448939657318,8.52267082144467,6.21674394787627,0.5503896,0.09162979,0.1731803,252.45422,-60.41616,-23.673029,FOL
130248551135000,1.444978,-5.10343328344988,8.49634673426574,6.51597875524476,0.57757306,-0.04184427,0.10170906,252.74445,-60.193317,-23.767096,FOL
130248556195000,1.450038,-5.2486641015207,8.55551486613387,6.43529509224109,0.60231316,-0.18845193,-0.02687807,253.0769,-59.9435,-23.902742,FOL
130248561154000,1.454997,-5.37137226005488,8.62006872677381,6.49529361034888,0.6579019,-0.17745635,-0.13927728,253.46573,-59.56101,-24.14523,FOL
130248566307000,1.46015,-5.46809756464132,8.69744907144257,6.77579729664837,0.72265357,-0.14782938,-0.21960606,253.89577,-59.17699,-24.393276,FOL
130248571933000,1.465776,-5.57678659772404,8.7019228631579,7.05670713688004,0.83077675,-0.23365596,-0.23426682,254.35365,-58.803272,-24.66347,FOL
130248576280000,1.470123,-5.663640028734,8.63086085263158,7.25015313022285,0.82833326,0.0015271631,-0.20861048,254.70702,-58.42714,-24.968323,FOL
130248581102000,1.474945,-5.684736234475,8.64832348962274,7.35952676519783,0.7724391,0.20066923,-0.18417588,255.11499,-58.037064,-25.258244,FOL
130248586202000,1.480045,-5.46002734581331,8.9828899552193,7.12982435031183,0.7657196,0.15332718,-0.15668693,255.51857,-57.67638,-25.529257,FOL
130248591150000,1.484993,-5.19012614587065,9.28434146746269,7.00077145657711,0.9034697,0.106901415,-0.070249505,255.88132,-57.310787,-25.811394,FOL
130248596209000,1.490052,-4.78517861671642,9.53502322328358,7.1020084898806,1.0146471,0.2434298,0.03604105,256.19333,-56.96583,-26.08506,FOL
130248601155000,1.494998,-4.36718587320861,9.81100403601497,7.07666104850327,0.9593639,0.43585235,0.15454891,256.4347,-56.750057,-26.257952,FOL
130248606236000,1.500079,-3.88013319086997,10.1751558362956,6.72616497043966,0.7849618,0.28069258,0.2507602,256.72644,-56.56045,-26.381615,FOL
130248611196000,1.505039,-3.41511861472525,10.5263183838592,6.48208874805859,0.82619524,0.24312437,0.3268129,256.8809,-56.51365,-26.399164,FOL
130248616280000,1.510123,-2.99873231801828,10.8613416399292,6.79796791801828,1.0638218,0.16249016,0.40622538,257.07947,-56.497612,-26.36997,FOL
130248621148000,1.514991,-2.65551841308991,11.1376499087673,7.06922297418633,1.1942415,0.051618114,0.5155703,257.2072,-56.653046,-26.187979,FOL
130248626205000,1.520048,-2.77373622921074,11.0440609479251,7.08400029764036,1.185384,0.17073683,0.6047566,257.28314,-56.835648,-26.010986,FOL
130248631179000,1.525022,-2.9203441138863,10.9677118873253,7.10710517804287,1.212873,0.14294247,0.65179324,257.41837,-57.12276,-25.68366,FOL
130248636188000,1.530031,-3.24670263793103,10.9833590603448,7.18087117586207,1.3646729,-0.0067195175,0.67103547,257.54602,-57.437534,-25.349195,FOL
130248641957000,1.5358,-3.62257852637465,11.0013803302889,7.26582945923579,1.5992452,-0.08032878,0.72418076,257.65784,-57.757275,-25.035055,FOL
130248646212000,1.540055,-3.89981061258155,11.0146721492544,7.32849153164958,1.7269161,-0.061391957,0.74189585,257.7874,-58.075336,-24.727861,FOL
130248651106000,1.544949,-4.21867637753961,11.0299600839236,7.40056395994408,1.7244726,-0.070554934,0.75441855,257.941,-58.41586,-24.40611,FOL
130248656202000,1.550045,-4.52407332828429,11.0443320539527,7.48750350759761,1.7446312,-0.13225232,0.8014552,258.0988,-58.78756,-24.075563,FOL
130248661224000,1.555067,-4.82009772153299,11.0582084803808,7.57538570632814,1.7898352,-0.19425514,0.8381071,258.2593,-59.15691,-23.751888,FOL
130248666199000,1.560042,-4.84993803533558,11.2133607318419,7.54876298044744,1.8341229,-0.24129178,0.88789266,258.48004,-59.42424,-23.539843,FOL
130248671114000,1.564957,-4.80666193481459,11.4056989563796,7.49106151308612,1.9004018,-0.29016098,0.93034774,258.71542,-59.706425,-23.319214,FOL
130248676204000,1.570047,-4.67335647598097,11.4871234649227,7.3665458882283,2.000889,-0.3118467,0.9651671,258.97717,-59.956566,-23.145727,FOL
130248681110000,1.574953,-4.52437877602061,11.5383345796671,7.23153512108601,2.1029036,-0.35827246,0.9935723,259.25528,-60.22423,-22.959848,FOL
130248686190000,1.580033,-4.3257077684252,11.6777582104331,7.13392561082677,2.2461514,-0.39492437,1.0268645,259.52008,-60.550346,-22.747843,FOL
130248691131000,1.584974,-4.12078290586614,11.8361089930118,7.05009250029528,2.379931,-0.43799037,1.0677924,259.79672,-60.89624,-22.526602,FOL
130248696208000,1.590051,-3.8417362867518,13.0467442697526,6.78991766911413,2.545781,-0.49571714,1.1322387,260.06198,-61.318867,-22.262829,FOL
130248701106000,1.594949,-3.55160801598164,14.5348220480846,6.48575094072227,2.6923885,-0.63194007,1.2012665,260.36044,-61.764328,-21.98252,FOL
130248706193000,1.600036,-3.48997241390593,15.7395605184049,5.34333916676892,2.806315,-0.573297,1.4037683,260.57855,-62.319553,-21.621374,FOL
130248711255000,1.605098,-3.50799723695854,16.8255571424986,3.93289577478156,2.805704,-0.42943826,1.9373591,260.77832,-62.96109,-21.154884,FOL
130248716224000,1.610067,-5.37213805276465,17.6222856823129,2.71971202719578,2.7940977,-0.47494772,2.77455,260.8805,-63.919575,-20.404852,FOL
130248721161000,1.615004,-8.33985032153457,18.2511695015939,1.61786442197428,2.9553661,-0.3109304,3.8359282,260.82916,-65.05951,-19.492878,FOL
130248726201000,1.620044,-10.9513790571268,18.6018062223057,1.47551203892699,3.1801646,0.23457226,4.750699,260.54288,-66.54887,-18.393124,FOL
130248731199000,1.625042,-13.4293976005825,18.871645626609,1.59693944214037,3.3060026,0.8900307,5.1758614,260.17316,-68.13963,-17.17826,FOL
130248736205000,1.630048,-15.098706589214,19.0535878129662,1.40275857324154,3.3264668,1.3765849,5.179832,259.82684,-69.59269,-16.300066,FOL
130248741192000,1.635035,-16.3545751026965,19.1905915467585,1.05111544668962,3.4929276,1.7449366,5.134628,259.3547,-71.1355,-15.356884,FOL
130248746208000,1.640051,-16.2118183358396,19.29252560401,1.38342853725982,4.0204096,1.9193386,5.148067,259.03714,-72.34811,-14.848347,FOL
130248751216000,1.645059,-15.024821924812,19.3676518796992,2.22484336887218,4.308738,2.1927009,5.137071,258.62146,-73.49426,-14.350004,FOL
130248756202000,1.650045,-13.5839792631421,18.4542118722553,3.85345353417196,4.757113,2.2971587,5.0546045,258.3514,-74.4926,-14.053669,FOL
130248761253000,1.655096,-11.9895488667033,17.0146276077627,5.91484151620067,5.03017,2.2116377,4.9110513,258.08798,-75.40277,-13.73158,FOL
130248766269000,1.660112,-10.4061667901766,15.5850186846396,7.96194547934777,5.1935763,1.9651535,4.788878,257.78708,-76.36441,-13.205855,FOL
130248771200000,1.665043,-8.8496163477217,14.1796355905567,9.97435968235382,5.224425,1.6328428,4.7174067,257.58365,-77.181526,-12.685144,FOL
130248776194000,1.670037,-7.36121595145121,11.454705921224,11.1683762000191,5.157535,1.2852604,4.676479,257.5152,-77.80775,-12.188058,FOL
130248781441000,1.675284,-5.84519138457132,7.88533087435555,11.9647685050601,5.006346,0.9972375,4.6492953,257.56494,-101.75208,-11.696071,FOL
130248786203000,1.680046,-4.6198123686217,4.58978986017595,11.7165346715543,4.8435507,0.8051204,4.60684,257.41406,-100.99756,-10.81899,FOL
130248791168000,1.685011,-3.44951704426058,1.11376414634059,10.7653591285086,4.6954155,0.7333437,4.5631633,257.33307,-100.33719,-9.966454,FOL
130248796194000,1.690037,-2.519828994565,-2.1048381823693,9.02013361555534,4.566523,0.7119634,4.55736,257.21365,-99.5879,-8.989879,FOL
130248801189000,1.695032,-1.73183956208325,-5.14355200974157,6.86849745679621,4.4425173,0.7351763,4.5414777,257.11105,-98.92442,-8.043092,FOL
130248806193000,1.700036,-0.723697361543749,-8.26179628972798,3.58490909730924,4.346917,0.9080512,4.557971,256.95496,-98.31307,-6.9940877,FOL
130248811329000,1.705172,0.445224160522439,-11.5077269548758,-0.477334674153,4.2604795,1.1691961,4.62089,256.77393,-97.811935,-5.9409003,FOL
130248816290000,1.710133,1.19410904372019,-11.686117165938,-2.54269931911765,4.2003093,1.4095715,4.6621237,256.5825,-97.647484,-4.799962,FOL
130248821212000,1.715055,1.69995174785374,-10.0187099475358,-3.43260777647059,4.2174134,1.4337007,4.651128,256.39328,-97.74028,-3.6510158,FOL
130248826224000,1.720067,2.10916089605783,-8.38003344165783,-4.09688511460241,4.2785,1.3359623,4.5817947,256.328,-98.69554,-2.416195,FOL
130248831210000,1.725053,2.44053410845301,-6.79220351165301,-4.58474010438554,4.2497897,1.1355985,4.365854,256.32114,-99.95632,-1.2169117,FOL
130248836199000,1.730042,2.92584677729677,-5.43590609228208,-4.91166951437806,4.0915756,0.8200866,4.0197988,256.40378,-101.49282,0.0075456523,FOL
130248841194000,1.735037,3.56303740134182,-4.30676687107738,-5.08033774880509,3.8157697,0.6093381,3.604105,256.54047,-103.13752,1.1511059,FOL
130248846136000,1.739979,4.24667909138228,-3.35513024153924,-5.24761034774684,3.535688,0.1151481,3.393051,256.85986,-104.84452,2.275167,FOL
130248851180000,1.745023,5.00978230142785,-2.58713534752405,-5.41881928668354,3.4034357,-0.31642818,2.978579,257.21167,-106.554016,3.2102768,FOL
130248856172000,1.750015,5.71455231172469,-1.98810528027211,-5.57575951980792,3.189022,-0.6200282,2.5842655,257.62952,-108.164474,4.1773496,FOL
130248861176000,1.755019,6.36655709203681,-1.56142577414966,-5.71958397118848,3.0586023,-0.7464773,2.2149973,258.10843,-109.768036,5.0105863,FOL
130248866176000,1.760019,6.88009513238822,-1.31766213315158,-5.80026554700109,3.0014863,-0.7452556,1.8860464,258.57703,-111.31501,5.8578477,FOL
130248871216000,1.765059,7.24854615528899,-1.2694125606325,-5.81342460043621,2.982244,-0.6386596,1.5961909,259.03534,-112.82707,6.6102166,FOL
130248876169000,1.770012,7.50676118342733,-1.31398984050976,-5.82560900275488,2.9538388,-0.4560109,1.3616186,259.4217,-114.30879,7.414522,FOL
130248881208000,1.775051,7.50152718177874,-1.59662609349241,-5.8360768967462,2.8927524,-0.2510656,1.1517864,259.75763,-115.76213,8.161102,FOL
130248886183000,1.780026,7.35228233140044,-1.89891291226378,-5.73103864541476,2.8292224,0.0030543262,0.95081174,259.99472,-117.19466,8.958329,FOL
130248891176000,1.785019,7.01936121881838,-2.23183412416949,-5.47896981651084,2.748588,0.29046643,0.7492262,260.15598,-118.5913,9.730772,FOL
130248897006000,1.790849,6.5473284628266,-2.54092473337292,-5.15448317695962,2.644741,0.5702427,0.5555819,260.24625,-119.973114,10.490346,FOL
130248901195000,1.795038,6.15028526683492,-2.70768287817696,-4.90037563434283,2.509129,0.8249735,0.35002577,260.2517,-121.30612,11.233804,FOL
130248906145000,1.799988,5.69208781116891,-2.86461473639219,-4.71385041528119,2.3448062,1.0491611,0.18234327,260.1897,-122.577774,11.930106,FOL
130248911312000,1.805155,5.23071583823731,-2.96660220859751,-4.69442418904701,2.16399,1.2611313,0.037873644,260.05026,-123.79284,12.622084,FOL
130248916174000,1.810017,4.85089787273447,-3.04545773321779,-4.8051565524017,1.9755383,1.4672983,-0.08827003,259.8483,-124.91612,13.24173,FOL
130248921211000,1.815054,4.54991554699416,-3.09801025030207,-5.13958117586412,1.7898352,1.670411,-0.20769419,259.58218,-125.98117,13.868197,FOL
130248926127000,1.81997,4.33044551731898,-3.12685092661448,-5.51067925440313,1.6136005,1.8463402,-0.3210097,259.2808,-126.991905,14.405309,FOL
130248931216000,1.825059,4.24937734896282,-3.11254476168297,-5.98278309549902,1.4367551,1.96271,-0.4202753,258.93512,-127.94571,14.949107,FOL
130248936128000,1.829971,4.23524875851767,-3.06633901634588,-6.46802849267452,1.3023647,1.9926424,-0.5103779,258.5962,-128.90921,15.384702,FOL
130248941219000,1.835062,4.37531044145361,-2.94028336032749,-7.04228188509049,1.2250903,1.9865338,-0.5870415,258.22992,-129.83426,15.821688,FOL
130248946147000,1.83999,4.54169569251825,-2.78272304149635,-7.57324789963504,1.2113458,1.9141463,-0.6084218,257.90955,-130.8084,16.178856,FOL
130248951192000,1.845035,4.82823535150547,-2.48736678469891,-8.02289503239051,1.2046263,1.7916678,-0.6417139,257.59113,-131.75458,16.513119,FOL
130248956475000,1.850318,5.13336551626466,-2.1590518157557,-8.44207970989157,1.2699889,1.643533,-0.6282749,257.3355,-132.79279,16.809536,FOL
130248961182000,1.855025,5.45756032354503,-1.6702659051892,-8.28247553717637,1.3994923,1.4999796,-0.5687156,257.1118,-133.8442,17.093872,FOL
130248966302000,1.860145,5.76244348872069,-1.14843509707925,-8.03644985722766,1.5427402,1.378112,-0.48899764,256.9342,-134.94763,17.386805,FOL
130248971168000,1.865011,5.90537625672306,-0.682750433214604,-7.5799870890472,1.6688838,1.2638801,-0.3817908,256.80493,-136.08136,17.678087,FOL
130248976192000,1.870035,6.02470880461975,-0.228669907913085,-7.11829011444497,1.717753,1.1362094,-0.26358834,256.68832,-137.14894,18.057903,FOL
130248981179000,1.875022,6.0292207557676,0.114242204967407,-6.69867385208314,1.7266107,1.0262536,-0.124311075,256.62238,-138.2433,18.446411,FOL
130248986163000,1.880006,6.02729259925558,0.447959290384615,-6.30341622121588,1.7061466,0.93492925,0.008246681,256.55573,-139.21437,18.922731,FOL
130248991155000,1.884998,5.94679460847217,0.672506718956044,-6.20173421568593,1.6829338,0.8790351,0.12186762,256.53647,-140.1925,19.404896,FOL
130248996119000,1.889962,5.86674812885502,0.895794666758242,-6.10062254191776,1.6664404,0.89949906,0.22632557,256.51236,-141.06094,19.951696,FOL
130249001789000,1.895632,5.94488690528699,1.21445068926356,-6.17918051629418,1.6615535,0.9639453,0.36010507,256.5297,-141.9373,20.518114,FOL
130249006137000,1.89998,6.03097906041154,1.46862780441567,-6.26937251393128,1.6490307,1.0656544,0.5158757,256.5717,-142.81648,21.114475,FOL
130249011214000,1.905057,6.47920712753623,1.91282832689211,-6.47646600120773,1.6166549,1.2052372,0.73639804,256.62827,-143.65169,21.74456,FOL
130249016107000,1.90995,7.00269607862319,2.37972374476651,-6.70283964160628,1.5790867,1.3274102,1.054048,256.73682,-144.50923,22.430435,FOL
130249021135000,1.914978,8.26303247206877,3.24894428155768,-6.74092499807403,1.5500705,1.368949,1.5149459,256.91864,-145.37091,23.184053,FOL
130249026173000,1.920016,9.71808596355693,4.22351295925404,-6.72732632661593,1.5274686,1.2522738,2.048842,257.21393,-146.27248,23.982794,FOL
130249031205000,1.925048,11.2237243849266,4.77677173530117,-6.56684267407851,1.502423,1.0128145,2.4636195,257.60358,-147.17038,24.892477,FOL
130249036249000,1.930092,12.7581486360503,5.12901394055539,-6.33523147491759,1.459357,0.6585127,2.658791,258.12787,-148.09694,25.775436,FOL
130249041225000,1.935068,14.0707963616307,5.01330284083893,-5.92541595049936,1.4819591,0.42271876,2.663067,258.67892,-148.93188,26.98324,FOL
130249046243000,1.940086,15.301222126203,4.68169864844743,-5.42800986693299,1.5317446,-0.1160644,2.5109615,259.37097,-149.7686,27.991165,FOL
130249051210000,1.945053,16.1823990437182,4.00056773517615,-4.94180632014007,1.7024814,-0.65148777,2.1890357,260.0404,-150.58418,29.219513,FOL
130249056254000,1.950097,16.7052301965195,2.9190267146753,-4.45485639781409,1.8738291,-1.0775663,1.7941113,260.7327,-151.37593,30.235819,FOL
130249061317000,1.95516,16.6499585454364,1.78656293649448,-4.27335385406589,1.9871446,-1.3460416,1.3854424,261.41602,-152.19952,31.384659,FOL
130249066235000,1.960078,16.2280522000597,0.656793353568229,-4.29210530158256,1.9996674,-1.4269812,1.0122037,262.0427,-152.97214,32.33763,FOL
130249071688000,1.965531,15.8231031018816,-0.260644688814468,-4.67619968708199,1.9068159,-1.3634512,0.7012733,262.6526,-153.8289,33.310455,FOL
130249076213000,1.970056,15.5189085761919,-0.85213411147704,-5.17896552407137,1.7373008,-1.2009611,0.47647488,263.17294,-154.60562,34.175983,FOL
130249081205000,1.975048,15.320103200892,-1.27180496803162,-5.89167160622339,1.525636,-0.98868537,0.37415496,263.69995,-155.48456,34.960255,FOL
130249086218000,1.980061,15.2422467277519,-1.48591153943848,-6.74809814590513,1.3045027,-0.77854776,0.39614612,264.16666,-156.28749,35.7247,FOL
130249091151000,1.984994,14.9649516082393,-1.4224697077243,-7.62410764725688,1.0885619,-0.60231316,0.5338962,264.6753,-157.17128,36.409958,FOL
130249096208000,1.990051,14.5141284214696,-1.12991429512775,-8.54973370583284,0.9428705,-0.50793445,0.766025,265.19928,-158.02368,37.10826,FOL
130249101188000,1.995031,13.0884568479117,-0.276982161672577,-9.56174522419228,0.9236283,-0.47219884,1.0274754,265.80008,-158.95506,37.73068,FOL
130249106181000,2.000024,10.8040550811663,1.07010813906619,-10.663909644602,1.0445796,-0.40775254,1.2699889,266.4515,-159.90111,38.37853,FOL
130249111288000,2.005131,9.20819142375479,1.89048361264368,-11.2168984636015,1.2681563,-0.22999077,1.4676038,267.14847,-160.8784,38.885353,FOL
130249116259000,2.010102,8.34296238031241,2.17109839398762,-11.2215754718538,1.5354098,0.076052725,1.6258179,267.88477,-161.90236,39.439327,FOL
130249121184000,2.015027,7.66488124807122,2.31972304113143,-10.9655707771609,1.847562,0.45662177,1.7809776,268.53058,-162.78381,39.54236,FOL
130249126225000,2.020068,7.17504413679525,2.32434419102135,-10.4064173825979,2.1157317,0.84940815,1.9593502,269.19238,-163.72366,39.742245,FOL
130249131215000,2.025058,6.7731911416476,2.16319679221968,-9.796394,2.283109,1.2342533,2.1719313,269.82587,-164.66264,39.88412,FOL
130249136193000,2.030036,6.50541906417724,1.73674498431454,-9.09721127272727,2.316401,1.3903292,2.3802364,270.50488,-165.63835,40.0784,FOL
130249141303000,2.035146,6.41790102798764,1.22672246506525,-8.76201497218407,2.291661,1.6862935,2.511267,271.153,-166.61317,40.397446,FOL
130249146213000,2.040056,6.5390088673592,0.657515839215316,-8.85890105820742,2.1426098,1.9611828,2.526844,271.83246,-167.56332,40.74802,FOL
130249151134000,2.044977,6.79022173094765,0.132521320662691,-9.12023384729717,1.8591684,2.2201898,2.43216,272.5278,-168.50902,41.215836,FOL
130249156180000,2.050023,8.0620411186216,-0.0504742936911862,-10.6711219234119,1.4785993,2.4697282,2.1664336,273.15634,-169.35358,41.72704,FOL
130249161438000,2.055281,9.45661340727003,-0.217097965867953,-12.2973942603858,1.0512991,2.7116308,1.7925841,273.78003,-170.19371,42.30601,FOL
130249166291000,2.060134,11.7580150017619,-0.0188498962435089,-13.9480249355527,0.6209445,2.8887818,1.3906348,274.29465,-170.87982,42.89925,FOL
130249171138000,2.064981,14.0565712614985,0.179153069647626,-15.5966148557122,0.2968805,2.7794368,1.0586295,274.77203,-171.51326,43.438316,FOL
130249176207000,2.07005,15.5124813226542,0.178036279294783,-16.5653235250942,0.24495697,2.20278,0.7357872,275.1281,-172.01859,43.857952,FOL
130249181158000,2.075001,16.7681599141043,0.140412976185281,-17.3789277095814,0.52015173,1.2391402,0.36682457,275.37698,-172.43498,44.105225,FOL
130249186187000,2.08003,17.5071541867529,-0.897256571693122,-16.1185645027435,0.88300574,0.18875736,-0.19211712,275.4888,-172.77289,44.263798,FOL
130249191134000,2.084977,18.1291839368999,-2.11346605185185,-14.4706468710562,1.0952814,-0.7425067,-0.9914343,275.40982,-172.9961,44.15396,FOL
130249196210000,2.090053,18.5171202383256,-2.92507395195972,-13.2513447855662,1.058324,-1.3359623,-1.7266107,275.19177,-173.16121,43.904114,FOL
130249201107000,2.09495,18.827333029223,-3.59642891391055,-12.1956968179485,0.8210029,-1.4587462,-1.9602666,274.8767,-173.25777,43.52463,FOL
130249206177000,2.10002,19.033208708941,-3.78706534770662,-11.5040623770873,0.50335294,-1.17897,-1.7073684,274.6026,-173.42828,43.349724,FOL
130249211214000,2.105057,19.2014467447685,-3.81765412988797,-10.9432694566688,0.15424347,-0.81306165,-1.2250903,274.31827,-173.53267,43.165512,FOL
130249216279000,2.110122,17.8051332843101,-3.77329743898368,-10.1256381424332,-0.06780604,-0.4886922,-0.74372846,274.17896,-173.71597,43.193893,FOL
130249221099000,2.114942,16.2855786719214,-3.72193216858309,-9.31663618397626,-0.20555615,-0.31703907,-0.37507126,274.16028,-173.90552,43.28953,FOL
130249226236000,2.120079,14.094672806654,-3.48258544350035,-8.32144361719295,-0.29565877,-0.2938262,-0.11484267,274.27444,-174.12077,43.498173,FOL
130249231148000,2.124991,11.7798613696583,-3.18269093846997,-7.31867097609324,-0.3744604,-0.31978795,0.051923547,274.4814,-174.35385,43.739548,FOL
130249236192000,2.130035,9.58703035494484,-2.82125835434488,-6.44583950125798,-0.3943135,-0.43157628,0.108123146,274.72156,-174.57965,43.879288,FOL
130249241194000,2.135037,7.48715212908844,-2.44114778759435,-5.64389944184246,-0.38423425,-0.57818395,0.16340645,275.02692,-174.82437,44.00337,FOL
130249246206000,2.140049,5.61951564020202,-2.06203151131313,-4.81428991959596,-0.3173445,-0.7281514,0.19761491,275.2892,-175.02908,43.968555,FOL
130249251192000,2.145035,3.8879767040202,-1.68581978113131,-3.9750481119596,-0.22999077,-0.8857546,0.19211712,275.56412,-175.24394,43.89164,FOL
130249256221000,2.150064,2.61006089666382,-1.37362048374679,-3.23890222249786,-0.12003502,-1.0418307,0.15363261,275.7701,-175.41959,43.6391,FOL
130249261319000,2.155162,1.54738936238,-1.09055079934417,-2.54746965511833,-0.02565634,-1.2165382,0.10354166,275.97583,-175.60889,43.338043,FOL
130249266241000,2.160084,0.74092789091099,-0.870442894402424,-1.96203071107397,0.03756821,-1.3628404,0.0421497,276.09064,-175.75081,42.879395,FOL
130249271209000,2.165052,0.0848225766610949,-0.686534577419557,-1.43018783418303,0.10048734,-1.4703526,-0.041233405,276.18198,-175.9007,42.381588,FOL
130249276225000,2.170068,-0.403906816832069,-0.591874240996303,-0.935741064136992,0.13927728,-1.5717562,-0.13958271,276.16055,-176.00983,41.69141,FOL
130249281212000,2.175055,-0.798882554154505,-0.545406526887527,-0.466416959009535,0.15332718,-1.6630806,-0.25625798,276.10745,-176.1097,40.9746,FOL
130249286208000,2.180051,-1.18078464225167,-0.535416755492616,-0.0922903497026097,0.12797627,-1.7464638,-0.40958515,275.93195,-176.17145,40.073513,FOL
130249291177000,2.18502,-1.55143107790815,-0.549857515921505,0.215779427270888,0.03940081,-1.8396207,-0.6017023,275.71448,-176.19502,39.15132,FOL
130249296207000,2.19005,-1.74720308187102,-0.49786142738629,0.318732990681797,-0.09590584,-1.9349157,-0.7858781,275.53296,-176.14087,38.451656,FOL
130249301194000,2.195037,-1.83092215458068,-0.405329807146416,0.292295384898976,-0.22724187,-2.1084013,-0.9370673,275.30283,-176.04251,37.698914,FOL
130249306195000,2.200038,-1.96642170423747,-0.23747653911215,0.0279564366716228,-0.28221974,-2.3793201,-1.0458013,275.0487,-175.90013,36.92728,FOL
130249311319000,2.205162,-2.16967052985344,0.0283103691121495,-0.540097898035259,-0.269697,-2.758362,-1.1157454,274.76865,-175.72778,36.06939,FOL
130249316305000,2.210148,-2.48986940195531,0.314269062290503,-1.64740466096369,-0.4841107,-3.2085698,-1.1129965,274.48297,-175.47246,35.091923,FOL
130249321211000,2.215054,-2.88827556021548,0.61424551217079,-3.11447705651437,-0.91965765,-3.6480873,-1.0735956,274.20538,-175.16568,34.00533,FOL
130249326900000,2.220743,-3.19260659990256,0.897998967582578,-4.59751201568742,-1.434617,-3.962072,-1.0064005,273.9049,-174.78142,32.660725,FOL
130249331212000,2.225055,-3.3495307962584,1.083089015171,-5.61953080239696,-1.9080375,-4.0646973,-0.90224797,273.65198,-174.31865,31.259352,FOL
130249336196000,2.230039,-3.45258240934376,1.27941327634366,-6.90228974156191,-2.324953,-4.1987824,-0.84604836,273.38556,-173.74184,29.536516,FOL
130249341213000,2.235056,-3.48111659063644,1.46012985718104,-8.29095392635851,-2.456289,-4.1932845,-0.7098254,273.19568,-173.15404,27.849901,FOL
130249346164000,2.240007,-3.12356252206332,1.61305768183253,-10.0651782147155,-2.6398542,-3.9428296,-0.57360244,273.03174,-172.44196,26.115026,FOL
130249351191000,2.245034,-2.34959620153861,1.7412607090147,-12.2968607968241,-2.6810875,-3.3625078,-0.42180246,272.91525,-171.76247,24.505787,FOL
130249356182000,2.250025,-1.25894688723068,1.79046628913817,-14.1779778131054,-2.52043,-2.4468207,-0.29229903,272.8139,-171.10999,22.976051,FOL
130249361401000,2.255244,0.277345043289187,1.7460076614746,-15.7340284917968,-2.134974,-1.3335189,-0.18417588,272.7227,-170.53476,21.703848,FOL
130249366225000,2.260068,1.47994284558824,1.78347640239938,-16.8354103157895,-1.5128077,-0.116675265,-0.043676864,272.64072,-170.14815,20.726686,FOL
130249371188000,2.265031,2.45481654227941,1.91683177064629,-17.5619673947368,-0.7440339,1.0934488,0.09437868,272.5344,-169.92197,20.103207,FOL
130249376234000,2.270077,3.27171462587643,2.07983098161818,-18.170788112162,0.096516706,2.2708917,0.26725355,272.43158,-169.98671,19.987373,FOL
130249381194000,2.275037,3.78935632917652,2.28493440096638,-18.5565784113293,0.91904676,3.3893857,0.45234573,272.316,-170.25262,20.219881,FOL
130249386134000,2.279977,4.08735652854902,2.48136947829412,-18.6676119317647,1.6389514,4.4440446,0.6291912,272.1969,-170.7207,20.836973,FOL
130249391172000,2.285015,4.08262634047059,2.67057705082353,-18.3932602329412,2.2174408,5.4431148,0.80909103,272.09692,-171.35504,21.75153,FOL
130249396670000,2.290513,4.46573338645691,3.64069666089375,-16.2337544017328,2.5836546,6.347195,0.9963212,272.0052,-172.09972,22.924816,FOL
130249401200000,2.295043,5.19372793502052,5.25098900179663,-12.4790433483812,2.680782,7.13063,1.2751812,271.98953,-172.9113,24.32237,FOL
130249406146000,2.299989,6.21349054708048,6.76740203433982,-8.45738879206733,2.5405886,7.482183,1.7079792,272.08752,-173.70815,25.820728,FOL
130249411310000,2.305153,8.31550747711731,7.23567295671752,-4.6175661745818,2.3005185,7.1168857,2.393981,272.38757,-174.5395,27.3016,FOL
130249416245000,2.310088,9.81291367198405,7.16194275922233,-1.60421532781655,2.0335703,6.1544676,2.9639182,272.59143,-174.99234,29.18908,FOL
130249421215000,2.315058,10.1494083035439,5.89361709322034,-0.0727334998459166,1.6597209,4.6514335,2.817616,272.80182,-175.34782,30.776218,FOL
130249426187000,2.32003,10.478142500399,4.65860837597765,1.32918898659218,1.1301007,3.803247,2.0231857,272.8745,-175.47903,32.78345,FOL
130249431198000,2.325041,10.7223022756385,3.78729275656425,1.30525166354749,0.6356053,2.2547035,1.5045611,273.03888,-175.54543,34.15062,FOL
130249436199000,2.330042,10.8925012451876,2.97667934293214,1.25508111125802,0.462425,0.8970556,0.38240165,272.90128,-175.55156,35.472816,FOL
130249441177000,2.33502,10.2297279247521,2.83763595312075,0.907472685125413,0.2434298,-0.15607607,-0.6017023,272.65558,-175.3624,36.425472,FOL
130249446463000,2.340306,9.46658964590982,2.68387142695531,0.490215188926576,-0.06566802,-1.0341948,-1.1392636,272.34036,-175.14662,37.053936,FOL
130249451206000,2.345049,8.09810558714086,2.4754268446229,-0.438722606155227,-0.4361578,-1.7531832,-1.2348641,271.86743,-174.77545,37.410614,FOL
130249456486000,2.350329,6.59475319652166,2.23913764557793,-1.52676981869495,-0.7339546,-2.2602015,-1.105666,271.34763,-174.32211,37.462532,FOL
130249461305000,2.355148,5.45820148874708,1.97366570972497,-3.15278539872371,-0.9388999,-2.5149322,-0.8897252,270.85895,-173.80884,37.384174,FOL
130249466466000,2.360309,4.24098975107855,1.689353474627,-4.89419780970699,-1.0726794,-2.4996605,-0.66248333,270.49915,-173.30757,36.98992,FOL
130249471177000,2.36502,3.33079930920668,1.50914679158664,-6.93531980503132,-1.1695015,-2.2434027,-0.43371433,270.23178,-172.80952,36.607224,FOL
130249476192000,2.370035,2.40333353264092,1.33368036971816,-9.20134425706681,-1.1914927,-1.7449366,-0.23518312,270.03207,-172.33513,36.313118,FOL
130249481199000,2.375042,2.38824280188175,1.45029883522879,-10.4489731429306,-1.1224649,-1.0867293,-0.084910266,269.95792,-171.96246,35.718662,FOL
130249486163000,2.380006,2.50067502834961,1.60672618975835,-11.5439651861183,-0.93187493,-0.36835176,0.008246681,269.90436,-171.64163,35.296543,FOL
130249491168000,2.385011,3.18951445849941,1.98251124349355,-11.4788978898007,-0.6404922,0.32589662,0.06566802,269.89728,-171.45447,34.42791,FOL
130249496239000,2.390082,3.93439001220203,2.38104339255569,-11.3175869820242,-0.2932153,0.906524,0.11942416,269.8811,-171.34795,33.767273,FOL
130249501286000,2.395129,4.74199138003157,2.76412948796369,-10.5329380329519,0.051923547,1.3295482,0.16279559,269.85257,-171.3172,33.22996,FOL
130249506089000,2.399932,5.51799336325967,3.12717136975138,-9.71609396477901,0.3979787,1.6013832,0.1863139,269.8089,-171.37679,32.840496,FOL
130249511130000,2.404973,6.2515692502994,3.37873378560878,-8.72940272255489,0.70341134,1.749518,0.19700404,269.70618,-171.44563,32.70168,FOL
130249516037000,2.40988,6.95037306347305,3.59916185739521,-7.74451101497006,0.90133166,1.7767016,0.19150625,269.59973,-171.57057,32.61391,FOL
130249521087000,2.41493,7.54189216739378,3.71851408169575,-6.96505492033384,0.977079,1.6982054,0.1731803,269.43295,-171.65897,32.874645,FOL
130249526062000,2.419905,8.09768563524279,3.81340569540971,-6.24659018209408,0.93828905,1.632232,0.15118915,269.26147,-171.76202,33.13914,FOL
130249531090000,2.424933,8.56263465365345,3.89455147223382,-5.71022003256785,0.90194255,1.4416419,0.10323623,269.03735,-171.81549,33.586483,FOL
130249536036000,2.429879,8.98290474070981,3.96871669060543,-5.25533982004175,0.7348709,1.1716396,0.05589417,268.81244,-171.82237,33.982597,FOL
130249541081000,2.434924,9.18884955635,3.95308365824,-5.07315354657,0.5213735,0.84329945,0.0125227375,268.5524,-171.77396,34.47006,FOL
130249546041000,2.439884,9.33610278035,3.91508291584,-4.96390126337,0.2434298,0.45814893,-0.03023783,268.29404,-171.66306,34.854965,FOL
130249551108000,2.444951,9.21490172773722,3.77880388239416,-5.14577352347445,-0.012217305,0.1386664,-0.06261369,268.01645,-171.48822,35.26133,FOL
130249556093000,2.449936,9.02905098199513,3.62083085767397,-5.3966719453236,-0.25259277,-0.09162979,-0.07849618,267.74936,-171.25116,35.57692,FOL
130249561145000,2.454988,8.7799707941089,3.53095719172865,-5.77064403207379,-0.44257188,-0.22266038,-0.094989546,267.49063,-170.97284,35.857098,FOL
130249566115000,2.459958,8.51562328146385,3.46487023963106,-6.17660637869682,-0.5403103,-0.24465153,-0.07696902,267.25052,-170.6694,36.100067,FOL
130249571113000,2.464956,8.39836794738381,3.4338287531521,-6.48625477141187,-0.5656612,-0.15057829,-0.050701816,267.04538,-170.37851,36.284847,FOL
130249576153000,2.469996,8.33252530488161,3.41501668182793,-6.76373306898568,-0.52381694,0.032070424,-0.011301007,266.85034,-170.09235,36.487442,FOL
130249581129000,2.474972,8.38709758601656,3.42964213946642,-6.73915584820607,-0.45723262,0.27397305,0.028710667,266.6792,-169.83774,36.647884,FOL
130249586144000,2.479987,8.49510232382705,3.45909792112849,-6.58205814095881,-0.34238997,0.49327368,0.070249505,266.51257,-169.61644,36.8527,FOL
130249591104000,2.484947,8.53361746436962,3.47706325011746,-6.33235410477682,-0.19425514,0.6783658,0.12461651,266.36218,-169.44281,37.07011,FOL
130249596146000,2.489989,8.5477973490603,3.49124283868442,-6.04403560649961,-0.04153884,0.8206975,0.19242255,266.2179,-169.31015,37.335552,FOL
130249601126000,2.494969,8.41747366354665,3.42486146256995,-5.81206255051379,0.10598512,0.9104946,0.25473082,266.07086,-169.21294,37.669693,FOL
130249606125000,2.499968,8.22264388157493,3.32257599232882,-5.60262087819717,0.24648413,0.9434814,0.28313604,265.9285,-169.15666,38.022858,FOL
130249611329000,2.505172,7.9752342150889,3.13234932492071,-5.49916803265738,0.34880406,0.9297369,0.29932398,265.78644,-169.1236,38.42245,FOL
130249616207000,2.51005,7.72829911926958,2.92582174335416,-5.44080155546372,0.40866885,0.9089675,0.28771752,265.64127,-169.11276,38.8216,FOL
130249621210000,2.515053,7.50340888672464,2.70976446289855,-5.43095439292754,0.41447207,0.85154617,0.26267207,265.50806,-169.12088,39.200665,FOL
130249626192000,2.520035,7.29399131095652,2.49244425925466,-5.44675956616149,0.3930918,0.8191703,0.24251351,265.37073,-169.13403,39.573715,FOL
130249631140000,2.524983,7.10048900303095,2.26696242402425,-5.46704293168138,0.36010507,0.72265357,0.20250183,265.26016,-169.17032,39.87646,FOL
130249636165000,2.530008,6.95207028666383,2.00595041429331,-5.50286798060194,0.28680122,0.6010914,0.15302174,265.14316,-169.18623,40.15562,FOL
130249641111000,2.534954,6.84361522994945,1.80530068994944,-5.53585121761375,0.18784106,0.44715336,0.109650314,265.06985,-169.22594,40.356766,FOL
130249646155000,2.539998,6.80454111128413,1.70761529128413,-5.56515670461072,0.10873401,0.24984388,0.054061573,264.98895,-169.24118,40.504,FOL
130249651180000,2.545023,6.82365082791387,1.6922852655077,-5.61933773524299,0.050396383,0.05681047,0.008857546,264.9514,-169.27888,40.58708,FOL
130249656166000,2.550009,6.9368469654682,1.81019805859344,-5.71366818640853,-0.00030543262,-0.11789699,-0.016493361,264.9172,-169.29373,40.61636,FOL
130249661173000,2.555016,7.07976761235145,1.94789691134814,-5.80627549811027,-0.035430185,-0.2669481,-0.03726278,264.89963,-169.31363,40.58809,FOL
130249666183000,2.560026,7.27606142298851,2.12082238563218,-5.8950749908046,-0.043982297,-0.35002577,-0.034208454,264.89114,-169.32784,40.53011,FOL
130249671123000,2.564966,7.48306490753232,2.30208323266595,-6.02603229886286,-0.05131268,-0.38637227,-0.038179077,264.86536,-169.31209,40.444057,FOL
130249676183000,2.570026,7.72797205497133,2.51402208755953,-6.26622969724949,-0.06505715,-0.35460728,-0.03268129,264.84525,-169.2958,40.356678,FOL
130249681135000,2.574978,8.08058171341011,2.68187229718915,-6.43193339221159,-0.079107046,-0.26633725,-0.039095376,264.79117,-169.24823,40.290817,FOL
130249686283000,2.580126,8.82159456064806,2.72517820169822,-6.37419213595549,-0.089186326,-0.090713486,-0.02687807,264.73532,-169.204,40.26145,FOL
130249691156000,2.584999,9.45463454624533,2.75181452221349,-6.27441809710045,-0.095294975,0.11178834,-0.005192355,264.64304,-169.13518,40.267014,FOL
130249696175000,2.590018,9.8184126430116,2.71874378165913,-5.98150567562414,-0.08307768,0.30115658,0.016798794,264.54126,-169.07204,40.318512,FOL
130249701140000,2.594983,10.1501954183052,2.6718250679588,-5.69730437103933,-0.05681047,0.46089783,0.05100725,264.424,-169.02446,40.54737,FOL
130249706183000,2.600026,10.3310788094569,2.54520676498127,-5.43954573342697,-0.01160644,0.56382865,0.093767814,264.30664,-168.99077,40.80937,FOL
130249711279000,2.605122,10.5005359539474,2.40869290061404,-5.18517113412281,0.059864793,0.6072,0.13194689,264.18262,-168.97948,41.19088,FOL
130249716187000,2.61003,10.3871514671053,2.09946285377193,-5.06663281675439,0.14660765,0.5983425,0.16554448,264.06854,-168.98904,41.57992,FOL
130249721709000,2.615552,10.1833583278514,1.77717165090258,-4.97249725261681,0.22937989,0.5684101,0.18570304,263.9709,-169.0387,42.03558,FOL
130249726229000,2.620072,9.85463228741414,1.56779192308987,-4.97877861839025,0.29871312,0.5503896,0.19608775,263.88196,-169.10748,42.483627,FOL
130249731192000,2.625035,9.49368818593402,1.33789112903357,-4.98567561359679,0.3145956,0.48930305,0.1957823,263.8469,-169.2312,42.914505,FOL
130249736193000,2.630036,9.12998045845023,1.10623006292928,-4.99262541674567,0.33261612,0.39706242,0.18417588,263.81625,-169.36673,43.32259,FOL
130249741236000,2.635079,8.7638380674355,0.885909875887412,-5.0027339061767,0.29443705,0.2761111,0.15485434,263.78754,-169.4875,43.69594,FOL
130249746210000,2.640053,8.41002002482408,0.825388390602033,-5.04928883502737,0.21930063,0.0983493,0.11362094,263.76437,-169.59692,44.01842,FOL
130249751453000,2.645296,8.0409906438508,0.768625166844761,-5.10513804782824,0.11301007,-0.10751228,0.071776666,263.83118,-169.75662,44.20231,FOL
130249756210000,2.650053,7.75251349357871,0.800177391926388,-5.23585440215692,0.02107485,-0.28893927,0.03756821,263.8994,-169.89426,44.337807,FOL
130249761485000,2.655328,7.4382444082179,0.838772304778284,-5.3813730571163,-0.06811147,-0.44318274,0.004886922,263.98306,-170.00795,44.359646,FOL
130249766274000,2.660117,7.2378561224505,0.928307461243841,-5.52207126825323,-0.115453534,-0.5311473,-0.021380283,264.0656,-170.10416,44.347366,FOL
130249771138000,2.664981,7.03432957787487,1.01924481790462,-5.66497293853305,-0.1301143,-0.5635232,-0.04062254,264.14838,-170.175,44.234573,FOL
130249776218000,2.670061,6.91529892786116,1.14524587626642,-5.76543553414634,-0.12156218,-0.5354234,-0.05009095,264.22534,-170.23688,44.115395,FOL
130249781134000,2.674977,6.81715524593496,1.27283278062331,-5.85376499647696,-0.09621128,-0.47128254,-0.05955936,264.2926,-170.29468,43.998528,FOL
130249786192000,2.680035,6.86655820161082,1.43512019813144,-5.97179932764175,-0.045814894,-0.3726278,-0.07086037,264.33792,-170.34007,43.832752,FOL
130249791471000,2.685314,6.93170764092415,1.60730087652798,-6.09744443540133,-0.005192355,-0.26267207,-0.06627888,264.37695,-170.38947,43.691776,FOL
130249796164000,2.690007,7.09847014839727,1.78155676580137,-6.16502878631634,0.016798794,-0.15607607,-0.06627888,264.3821,-170.41933,43.541904,FOL
130249801173000,2.695016,7.30517312695744,1.97313519652128,-6.22552745146611,0.03634648,-0.061391957,-0.06780604,264.37833,-170.45703,43.422466,FOL
130249806171000,2.700014,7.53444670967445,2.12146960510392,-6.21951170099319,0.048563786,0.018020526,-0.056505036,264.3437,-170.47362,43.315155,FOL
130249811191000,2.705034,7.76876769735148,2.26294630677763,-6.2018270267243,0.06536258,0.06352998,-0.047036625,264.30176,-170.494,43.22671,FOL
130249816215000,2.710058,8.01946088872832,2.39265255691577,-6.15895136736168,0.051923547,0.07360926,-0.030848695,264.2328,-170.48273,43.173504,FOL
130249821140000,2.714983,8.27262154624277,2.5143644154005,-6.10539809269199,0.03145956,0.059864793,-0.017715093,264.16443,-170.47461,43.127697,FOL
130249826207000,2.72005,8.47415702199504,2.55111822069393,-6.06503491663569,0.020158553,0.018936822,0.0030543262,264.07867,-170.44339,43.12318,FOL
130249831176000,2.725019,8.65106091346551,2.55603221482858,-6.03063690638166,0.0061086523,-0.033292156,0.029626964,264.003,-170.41173,43.11279,FOL
130249836188000,2.730031,8.712979,2.5187001,-6.00465774,-0.031154128,-0.1142318,0.04917465,263.91574,-170.3554,43.13077,FOL
130249841199000,2.735042,8.74635455017387,2.47102067148535,-5.98081807552906,-0.051618114,-0.18967366,0.040927973,263.83325,-170.30048,43.134945,FOL
130249846182000,2.740025,8.68175096162629,2.38226774325854,-6.00977229679309,-0.08093964,-0.25381452,0.03359759,263.76273,-170.24356,43.152843,FOL
130249851164000,2.745007,8.59174676891382,2.28278953954527,-6.05240574200755,-0.09590584,-0.31337386,0.02443461,263.69592,-170.1847,43.149853,FOL
130249856165000,2.750008,8.43292988301219,2.1727714467558,-6.14219399416044,-0.0983493,-0.35063666,0.0125227375,263.6374,-170.1308,43.14498,FOL
130249861245000,2.755088,8.25118504227291,2.05798532092017,-6.24741476765631,-0.113926366,-0.3830125,0.0106901415,263.58533,-170.07263,43.125053,FOL
130249866154000,2.759997,8.03044607396264,1.96438761141593,-6.35257665813176,-0.099265605,-0.39400807,0.010079277,263.55167,-170.0369,43.079834,FOL
130249871182000,2.765025,7.78897521213373,1.87442779230088,-6.46147532668633,-0.080634214,-0.38148534,0.01038471,263.519,-169.99954,43.033146,FOL
130249876173000,2.770016,7.53838684382237,1.81085736359883,-6.55097760718961,-0.0571159,-0.36102137,0.004886922,263.5087,-169.988,42.944412,FOL
130249881168000,2.775011,7.28309375687242,1.75787198694995,-6.63286422183063,-0.037873644,-0.31856623,0.0021380284,263.49603,-169.9803,42.867485,FOL
130249886184000,2.780027,7.06075957451524,1.69506823573407,-6.69694713157895,-0.024740042,-0.27580565,-0.0061086523,263.49704,-169.99149,42.739845,FOL
130249891166000,2.785009,6.85307124196676,1.62898561359319,-6.75358928759398,0.0009162979,-0.22907446,0.003970624,263.49875,-170.01202,42.629078,FOL
130249896189000,2.790032,6.69595591945055,1.59211779010989,-6.78423106791209,0.020158553,-0.1685988,0.0018325958,263.49838,-170.04031,42.476833,FOL
130249901346000,2.795189,6.55780875062937,1.56744868041958,-6.80396635566434,0.01985312,-0.11728613,-0.008552114,263.49408,-170.06946,42.338753,FOL
130249906111000,2.799954,6.47582318458145,1.56430393436591,-6.80254079697243,0.01740966,-0.058948494,-0.004276057,263.50055,-170.11679,42.173386,FOL
130249911147000,2.80499,6.4081336396391,1.56913889825564,-6.79287081870677,0.01038471,-0.023823744,-0.020463986,263.4916,-170.15593,42.01778,FOL
130249916099000,2.809942,6.43027008447761,1.59350248093532,-6.73759904917413,-0.0009162979,-0.0076358155,-0.029321533,263.48892,-170.19647,41.84193,FOL
130249921110000,2.814953,6.49234590373134,1.62692789522388,-6.66119815208955,-0.00061086525,0.010995574,-0.040317107,263.47498,-170.23335,41.679493,FOL
130249926130000,2.819973,6.59996997555644,1.66038168870231,-6.56848386602742,-0.011911872,0.010995574,-0.03634648,263.4614,-170.2639,41.50793,FOL
130249931103000,2.824946,6.72774109062003,1.69350753151828,-6.46910623875199,-0.025961773,-0.0143553335,-0.03481932,263.44257,-170.29044,41.337685,FOL
130249936108000,2.829951,6.8365368326755,1.74849454292587,-6.41370257756505,-0.03390302,-0.04886922,-0.032986723,263.4171,-170.30695,41.196304,FOL
130249941166000,2.835009,6.93641194672558,1.81507803506136,-6.3804109059892,-0.036651913,-0.07849618,-0.032375857,263.39294,-170.3211,41.05245,FOL
130249946101000,2.839944,7.03991135740996,1.9008302661976,-6.37448916773273,-0.04795292,-0.11789699,-0.032375857,263.3615,-170.32571,40.9444,FOL
130249951100000,2.844943,7.1482673634324,1.9997638803582,-6.38391136282228,-0.058643065,-0.16340645,-0.025961773,263.3354,-170.33089,40.82914,FOL
130249956097000,2.84994,7.22375468183194,2.09439438866135,-6.41356217515384,-0.08368854,-0.1872302,-0.017104227,263.29944,-170.31703,40.738724,FOL
130249961147000,2.85499,7.27742080207808,2.18709034044184,-6.45747078657319,-0.089186326,-0.21471913,-0.009468411,263.26938,-170.30617,40.637012,LYI
130249966311000,2.860154,7.31256745771335,2.26393254441778,-6.50400221542671,-0.093767814,-0.22296582,0.002443461,263.2286,-170.27513,40.553318,LYI
130249971208000,2.865051,7.33507758039743,2.32696098195258,-6.54902246079485,-0.10293079,-0.21533,0.011911872,263.19086,-170.24348,40.46872,LYI
130249976712000,2.870555,7.32123645424944,2.38611267175114,-6.61803839150111,-0.096516706,-0.20952678,0.022296581,263.14395,-170.20496,40.38175,LYI
130249981196000,2.875039,7.28794448153891,2.42772748555093,-6.68462233692218,-0.0888809,-0.18845193,0.031154128,263.0984,-170.16705,40.303642,LYI
130249986199000,2.880042,7.25020647951952,2.46095746024024,-6.7577746009009,-0.087659165,-0.15943582,0.028099801,263.04343,-170.1169,40.226925,LYI
130249991176000,2.885019,7.21203732348348,2.48004203825826,-6.82934176846847,-0.07544186,-0.108123146,0.033292156,262.9915,-170.07495,40.165195,LYI
130249996162000,2.890005,7.19562440975482,2.47620015084352,-6.85107973697983,-0.06505715,-0.057726767,0.03756821,262.93103,-170.02623,40.091835,LYI
130250001415000,2.895258,7.20316841411112,2.44602433035165,-6.81713189461648,-0.06414085,-0.007941248,0.04795292,262.87094,-169.9812,40.035053,LYI
130250006205000,2.900048,7.2100474890905,2.41850821000975,-6.78617621882732,-0.050701816,0.044593163,0.038179077,262.8003,-169.93765,39.973904,LYI
130250011528000,2.905371,7.24095318602516,2.32450272102216,-6.69998868414853,-0.03940081,0.08552113,0.03176499,262.7319,-169.89723,39.92575,LYI
130250016164000,2.910007,7.27197593008585,2.23143425745658,-6.61578378241166,-0.02107485,0.09040806,0.029626964,262.6606,-169.86098,39.882908,LYI
130250021188000,2.915031,7.28605511446318,2.13542397728483,-6.529283191748,-0.016493361,0.101098195,0.03573562,262.59113,-169.83098,39.863796,LYI
130250026135000,2.919978,7.29539691162378,2.04200688358474,-6.44520789520852,-0.00061086525,0.09285152,0.03970624,262.52176,-169.80704,39.840954,LYI
130250031210000,2.925053,7.28997454759241,1.93007767801199,-6.40338017936064,0.01038471,0.070554934,0.036957346,262.46582,-169.79907,39.84307,LYI
130250036108000,2.929951,7.28060238851149,1.81761289445554,-6.3752639957043,0.007941248,0.032375857,0.028405234,262.4115,-169.79123,39.83815,LYI
130250041205000,2.935048,7.25138247196396,1.76772791548229,-6.38399979617039,0.005497787,0.008246681,0.028099801,262.3726,-169.80159,39.84872,LYI
130250047253000,2.941096,7.20968226296894,1.73443540030254,-6.40585030185559,-0.002443461,-0.0030543262,0.02107485,262.33038,-169.80704,39.85106,LYI
130250051207000,2.94505,7.17913230960065,1.75352916103267,-6.3867565810004,-0.0061086523,-0.014049901,0.02107485,262.31003,-169.83456,39.853127,LYI
130250056204000,2.950047,7.14052378229125,1.77765954099435,-6.36262625143203,0.002443461,-0.040317107,0.010995574,262.2911,-169.86493,39.835426,LYI
130250061305000,2.955148,7.09996013784536,1.82377171839421,-6.34741271316521,-0.004581489,-0.04795292,0.011911872,262.27533,-169.89243,39.82084,LYI
130250066209000,2.960052,7.06077192193584,1.87166814887818,-6.33435005030595,-0.01282817,-0.07666359,0.010995574,262.25903,-169.91856,39.79276,LYI
130250071208000,2.965051,7.06127178131056,1.95034150718603,-6.35893905826537,-0.004886922,-0.07574729,0.006414085,262.23462,-169.93936,39.770996,LYI
130250076183000,2.970026,7.07955627857623,2.04176356393553,-6.40007896232371,-0.015271631,-0.08277224,0.0015271631,262.2126,-169.9537,39.739674,LYI
130250081209000,2.975052,7.11463040437361,2.12757738917717,-6.43807748480356,-0.022602014,-0.08277224,-0.007941248,262.1773,-169.95712,39.703762,LYI
130250086227000,2.98007,7.16043247437255,2.20900311426453,-6.47370113989198,-0.01985312,-0.07086037,-0.008552114,262.14307,-169.96101,39.670307,LYI
130250091161000,2.985004,7.22579219431257,2.27426665443271,-6.51977317973065,-0.04184427,-0.05681047,-0.011301007,262.09067,-169.93907,39.631588,LYI
130250096234000,2.990077,7.30110739443852,2.335460472648,-6.57155257949811,-0.050701816,-0.033292156,-0.004276057,262.03992,-169.9225,39.600388,LYI
130250101204000,2.995047,7.38730144387097,2.3783846,-6.61454599612903,-0.06078109,-0.004581489,-0.0012217305,261.97635,-169.88437,39.574844,LYI
130250106216000,3.000059,7.48069422551971,2.41279237777778,-6.65386938336918,-0.049480084,0.031154128,0.0027488936,261.91354,-169.8511,39.558914,LYI
130250111272000,3.005115,7.54411038998477,2.40661674603008,-6.62956371001523,-0.042455133,0.062002823,0.01038471,261.8445,-169.80693,39.551952,LYI
130250116619000,3.010462,7.59773575026656,2.38224172572353,-6.57593834973343,-0.048258353,0.0729984,0.019242255,261.7766,-169.76422,39.549835,LYI
130250121207000,3.01505,7.59984774215033,2.32842161027593,-6.52719968220742,-0.006414085,0.087659165,0.020158553,261.70374,-169.72906,39.564217,LYI
130250126183000,3.020026,7.57717659375833,2.25134057689819,-6.47278965518554,-0.0012217305,0.09315695,0.03481932,261.6396,-169.6897,39.58021,LYI
130250131210000,3.025053,7.52182186480844,2.17354659106759,-6.41165465201248,0.0106901415,0.084910266,0.03756821,261.57642,-169.66014,39.610905,LYI
130250136194000,3.030037,7.43449705705984,2.09649508818338,-6.34487672218037,0.025961773,0.08399397,0.047647487,261.52066,-169.63707,39.645763,LYI
130250141176000,3.035019,7.35986424005167,2.04337897991811,-6.32514155432345,0.023823744,0.06688975,0.04520403,261.4759,-169.62292,39.681076,LYI
130250146290000,3.040133,7.29063552151979,2.00279661306298,-6.33230317340125,0.022602014,0.051923547,0.03634648,261.43268,-169.61307,39.71602,LYI
130250151205000,3.045048,7.224100685465,1.96379341926301,-6.33918611391109,0.012217305,0.046120327,0.022907447,261.39706,-169.60974,39.744858,LYI
130250156175000,3.050018,7.1568213090271,1.92435377059856,-6.3461460761357,-0.004886922,0.026267206,0.0143553335,261.36273,-169.60387,39.764748,LYI
130250161245000,3.055088,7.12769531003951,1.92108954014342,-6.3647279268257,-0.010079277,0.007330383,0.011301007,261.32623,-169.59686,39.78221,LYI
130250166299000,3.060142,7.1324175788819,1.94942330112688,-6.3930616631543,-0.013133603,-0.011301007,0.00030543262,261.28577,-169.58366,39.792732,LYI
130250171196000,3.065039,7.13699315278794,1.97687688789697,-6.42051522603542,-0.0030543262,-0.029626964,-0.0106901415,261.26056,-169.58513,39.769344,LYI
130250176177000,3.07002,7.14164721315674,2.00480139590224,-6.44843970974194,-0.010079277,-0.030543262,-0.020463986,261.232,-169.58034,39.745533,LYI
130250181186000,3.075029,7.16802356408129,2.04874549481543,-6.47512882683534,-0.0021380284,-0.035124753,-0.025045475,261.20334,-169.57986,39.71585,LYI
130250186231000,3.080074,7.22313197604728,2.1138735990253,-6.50017805744504,-0.01038471,-0.033292156,-0.026267206,261.17194,-169.57315,39.687923,LYI
130250191136000,3.084979,7.27286346027397,2.16610321424658,-6.5145505460274,-0.007941248,-0.016798794,-0.0143553335,261.1372,-169.56169,39.65369,LYI
130250196208000,3.090051,7.32039137573386,2.20887833816047,-6.51930333757339,0.016187929,-0.00580322,-0.010079277,261.0998,-169.55177,39.618828,LYI
130250201188000,3.095031,7.36970127669503,2.24354113834752,-6.51573274139446,0.0067195175,0.01740966,-0.0076358155,261.05447,-169.52696,39.597645,LYI
130250206174000,3.100017,7.42213041937963,2.26975570968982,-6.50262547853418,0.007941248,0.029321533,-0.005497787,261.01096,-169.51073,39.577213,LYI
130250211211000,3.105054,7.47187391270386,2.29318475596567,-6.48586157339056,0.004886922,0.040011674,0.0027488936,260.96295,-169.48547,39.568405,LYI
130250216222000,3.110065,7.51306659087983,2.30863196995708,-6.4601162167382,0.013133603,0.058337633,0.003970624,260.91193,-169.46251,39.56488,LYI
130250221127000,3.11497,7.54067406752286,2.29895158725433,-6.43587323389765,0.0070249503,0.06963864,0.009468411,260.8601,-169.43362,39.575546,LYI
130250226192000,3.120035,7.55011286602452,2.25175715122592,-6.41227599124343,0.018325957,0.06994407,0.017104227,260.8094,-169.41142,39.588135,LYI
130250231102000,3.124945,7.54478975496122,2.19758199743488,-6.39569115500099,0.027488936,0.07574729,0.02565634,260.7578,-169.38452,39.616646,LYI
130250236212000,3.130055,7.51073118327699,2.12459902447803,-6.39082552863392,0.03390302,0.06780604,0.03023783,260.70932,-169.36066,39.64099,LYI
130250241105000,3.134948,7.47652551014551,2.05936081431134,-6.38459565208292,0.022907447,0.06291912,0.038179077,260.67142,-169.34616,39.67492,LYI
130250246199000,3.140042,7.43763027669922,2.00101811644409,-6.37487191987243,0.01160644,0.0580322,0.032986723,260.63153,-169.33159,39.705246,LYI
130250251098000,3.144941,7.39121861113639,1.95869615952923,-6.37160931114628,0.014660766,0.052534413,0.037873644,260.60883,-169.33597,39.732616,LYI
130250256202000,3.150045,7.32353788511522,1.9441931468104,-6.38127793581248,0.005497787,0.049480084,0.037873644,260.58295,-169.33327,39.75797,LYI
130250261265000,3.155108,7.26846938959522,1.93027050349501,-6.39480416084166,0.0030543262,0.046120327,0.021380283,260.56253,-169.34033,39.776577,LYI
130250266285000,3.160128,7.23846508770506,1.91741149778887,-6.41623583701855,0.0061086523,0.043982297,0.013133603,260.54535,-169.34789,39.794777,LYI
130250271209000,3.165052,7.21293657657393,1.9076317667613,-6.43647601244113,-0.007941248,0.035124753,0.0070249503,260.5246,-169.35248,39.79894,LYI
130250276187000,3.17003,7.23363570276878,1.93151539309308,-6.44762172135533,-0.017104227,0.0106901415,-0.00030543262,260.50208,-169.35675,39.797398,LYI
130250281174000,3.175017,7.25437225205237,1.95544219994656,-6.45878758120971,-0.0106901415,0.0067195175,0.00580322,260.48474,-169.36552,39.78975,LYI
130250286204000,3.180047,7.27528760053772,1.97957531373702,-6.4700497177783,-0.018936822,-0.005192355,0.0015271631,260.4639,-169.36566,39.772263,LYI
130250291198000,3.185041,7.29605325666811,2.0035357054407,-6.48123125058615,-0.02076942,-0.01282817,-0.003970624,260.4422,-169.37212,39.758076,LYI
130250296207000,3.19005,7.31688128461307,2.02756806468054,-6.49244636829431,-0.012217305,-0.010995574,-0.0106901415,260.4187,-169.3778,39.74328,LYI
130250301793000,3.195636,7.34657962952967,2.0523672364358,-6.50314013770589,-0.023823744,-0.02076942,-0.014660766,260.39728,-169.37656,39.722637,LYI
130250306181000,3.200024,7.39244716102401,2.06487660674737,-6.50522502550109,-0.01740966,-0.013439035,-0.0070249503,260.37592,-169.38184,39.708103,LYI
130250311256000,3.205099,7.44549586711649,2.0793444860389,-6.50763633032348,-0.015577064,-0.011301007,-0.004886922,260.34216,-169.37029,39.69331,LYI
130250316179000,3.210022,7.49695572526295,2.09337904165509,-6.50997541478468,-0.023823744,0.01160644,-0.003970624,260.30844,-169.35924,39.68707,LYI
130250321301000,3.215144,7.55014568215708,2.10854399160333,-6.51058210839667,-0.019547688,0.036957346,-0.0018325958,260.2784,-169.34906,39.68089,LYI
130250326147000,3.21999,7.59633676145494,2.12953981715527,-6.48958628284473,-0.025961773,0.06780604,0.004276057,260.24783,-169.33586,39.683086,LYI
130250331157000,3.225,7.64409105515744,2.15124619066232,-6.46787990933768,-0.021685716,0.089186326,0.008552114,260.2093,-169.32564,39.70681,LYI
130250336293000,3.230136,7.68478848279292,2.1630115136662,-6.3902752340362,-0.025961773,0.10781772,0.0125227375,260.17072,-169.31342,39.738083,LYI
130250341160000,3.235003,7.72187624268948,2.17228350204894,-6.30682729018301,-0.023518313,0.10140363,0.016798794,260.1345,-169.30458,39.767845,LYI
130250346183000,3.240026,7.70841180443772,2.16189248266263,-6.25583393182047,-0.004886922,0.096516706,0.023823744,260.09427,-169.29536,39.815376,LYI
130250351103000,3.244946,7.68465090882501,2.14763594529501,-6.21306441896117,0.004581489,0.07238753,0.029321533,260.05777,-169.28542,39.854813,LYI
130250356184000,3.250027,7.62667902969283,2.11439335392491,-6.22117660238908,0.0076358155,0.049480084,0.028405234,260.01688,-169.27443,39.912342,LYI
130250361237000,3.25508,7.56245045591581,2.07769127070535,-6.23952750028441,-0.005192355,0.014966198,0.02687807,259.98138,-169.26308,39.95893,LYI
130250366230000,3.260073,7.5091326154693,2.05159426567334,-6.28146912650659,0.0015271631,-0.01038471,0.016187929,259.94055,-169.26028,40.003716,LYI
130250371725000,3.265568,7.45419586145962,2.02662296644206,-6.33640608911455,-0.0012217305,-0.014966198,0.01160644,259.90295,-169.25356,40.04401,LYI
130250376197000,3.27004,7.41091134695912,2.00859913878365,-6.34639617148554,-0.017104227,-0.016187929,0.01160644,259.888101654859,-169.251644847203,40.0533540541398,LYI
130250381182000,3.275025,7.36331379162512,1.98956011665005,-6.34163631655035,-0.022296581,-0.013744468,0.009162978,259.87155,-169.24951,40.06377,LYI
130250386201000,3.280044,7.31746568066412,1.96997888689285,-6.33053094759204,-0.026572637,-0.01038471,0.008552114,259.83954,-169.24794,40.082256,LYI
130250391168000,3.285011,7.27331669811282,1.95035716240074,-6.31581470544498,-0.037873644,-0.003970624,-0.002443461,259.80792,-169.24422,40.08569,LYI
130250396260000,3.290103,7.24898505094493,1.95432638467791,-6.30429260792522,-0.03726278,0.0036651916,-0.002443461,259.78275,-169.24672,40.083736,LYI
130250401212000,3.295055,7.23452940721398,1.96878207872384,-6.29465542824629,-0.043982297,0.0027488936,-0.0012217305,259.7544,-169.2433,40.080578,LYI
130250406220000,3.300063,7.2369247727239,1.99534623693677,-6.29517978676062,-0.04337143,-0.008246681,-0.0030543262,259.72787,-169.24344,40.07161,LYI
130250411356000,3.305199,7.24604524400148,2.02726771974782,-6.29974009382533,-0.04153884,-0.0015271631,0.009162978,259.70544,-169.24518,40.06859,LYI
130250416234000,3.310077,7.26445323403102,2.06355623630843,-6.31042510948921,-0.036651913,0.01740966,0.013744468,259.67487,-169.24536,40.062237,LYI
130250421203000,3.315046,7.29025689914326,2.10484220826375,-6.32590725466869,-0.032375857,0.024129177,0.016187929,259.6485,-169.24759,40.055344,LYI
130250426208000,3.320051,7.32484313786965,2.13696161036495,-6.33368379940659,-0.034208454,0.03573562,0.011911872,259.6153,-169.2411,40.055923,LYI
130250431210000,3.325053,7.36274475274454,2.16538796993374,-6.33842147653051,-0.025350908,0.041233405,0.01038471,259.5841,-169.23883,40.05712,LYI
130250436202000,3.330045,7.41387612450436,2.19711394195083,-6.34315731800159,-0.020463986,0.049785517,0.01160644,259.5483,-169.22572,40.060745,LYI
130250441187000,3.33503,7.47066499940523,2.230240670341,-6.3478898066019,-0.01863139,0.052839845,0.014966198,259.513,-169.21417,40.064423,LYI
130250446181000,3.340024,7.5049514173516,2.24256164505327,-6.36054489878234,-0.030543262,0.042455133,0.0076358155,259.46762,-169.19785,40.07104,LYI
130250451204000,3.345047,7.52857009754014,2.24492351800462,-6.3770779847793,-0.033292156,0.027794369,0.013744468,259.4288,-169.18716,40.078228,LYI
130250456203000,3.350046,7.55207592717631,2.24727410587715,-6.39353207534247,-0.03359759,0.024129177,0.013744468,259.38153,-169.16461,40.095467,LYI
130250461221000,3.355064,7.57567109683311,2.24963362777041,-6.41004870395738,-0.046120327,0.016187929,0.013744468,259.33868,-169.14037,40.107513,LYI
130250466288000,3.360131,7.60261953278412,2.23869052736476,-6.38977758657072,-0.0421497,0.01038471,0.004581489,259.2931,-169.11829,40.118153,LYI
130250471206000,3.365049,7.630668583067,2.2199912906799,-6.34770430402978,-0.04153884,0.010079277,0.004886922,259.2516,-169.09499,40.128525,LYI
130250476191000,3.370034,7.63680491346359,2.20126822692719,-6.31380806903859,-0.04550946,0.009773844,0.0076358155,259.2048,-169.0759,40.14516,LYI
130250481211000,3.375054,7.62745806093127,2.18257452186255,-6.28576756024108,-0.034208454,-0.0021380284,0.013744468,259.16095,-169.06126,40.158337,LYI
130250486188000,3.380031,7.5973549732293,2.16362187236802,-6.27796520997061,-0.03634648,-0.0067195175,0.006414085,259.1144,-169.04375,40.184677,LYI
130250491163000,3.385006,7.54907776277232,2.14431106884183,-6.28762051091296,-0.022907447,-0.01282817,0.0067195175,259.0745,-169.0348,40.20765,LYI
130250496222000,3.390065,7.49804052190213,2.1302953777427,-6.28662943342541,-0.027794369,-0.007941248,0.004581489,259.03275,-169.02228,40.23457,LYI
130250501213000,3.395056,7.44616829469219,2.1208640816101,-6.27719823577348,-0.033292156,-0.011911872,0.008246681,258.995,-169.01378,40.25721,LYI
130250506203000,3.400046,7.40190788490696,2.12150370503101,-6.27029394748449,-0.029932396,-0.010079277,0.008552114,258.95837,-169.00774,40.273933,LYI
130250511459000,3.405302,7.36226200679334,2.13141522630698,-6.26533818684651,-0.03756821,-0.017715093,0.005192355,258.9233,-168.99823,40.28657,LYI
130250516221000,3.410064,7.33822337438892,2.13323214147452,-6.27521106761009,-0.03634648,-0.015577064,0.005192355,258.88992,-168.99266,40.29487,LYI
130250521209000,3.415052,7.32404146119743,2.12850486998516,-6.2988473756952,-0.047647487,-0.013439035,0.00030543262,258.8545,-168.9813,40.300327,LYI
130250526193000,3.420036,7.32084800897611,2.13647022244027,-6.30694806926501,-0.04520403,-0.0033597588,0.0033597588,258.82068,-168.97101,40.301235,LYI
130250531197000,3.42504,7.3295556145362,2.15823923634051,-6.29824041824294,-0.040927973,0.0076358155,0.0036651916,258.78403,-168.95749,40.302567,LYI
130250536197000,3.43004,7.35451882725607,2.18112167202156,-6.28621285239892,-0.034513887,0.028405234,-0.0015271631,258.74664,-168.94623,40.302914,LYI
130250541188000,3.435031,7.42151306061456,2.20688868485175,-6.26559934975741,-0.022602014,0.030848695,0.007941248,258.71564,-168.94005,40.302425,LYI
130250546155000,3.439998,7.47027429513708,2.21784244194517,-6.23973634680809,-0.011301007,0.03359759,0.009468411,258.67377,-168.928,40.30943,LYI
130250551209000,3.445052,7.49448939779868,2.20815640088053,-6.20583520308185,0.009468411,0.03726278,0.020463986,258.63867,-168.92424,40.31864,LYI
130250556131000,3.449974,7.5160220374839,2.19095714377415,-6.1827146220109,0.022907447,0.030543262,0.027183503,258.60287,-168.91217,40.337997,LYI
130250561300000,3.455143,7.53563668996533,2.16153516505201,-6.17290739817732,0.019242255,0.01038471,0.018936822,258.56683,-168.90027,40.353844,LYI
130250566159000,3.460002,7.54274640606481,2.12443019391537,-6.18634993023486,0.031154128,0.003970624,0.023518313,258.5396,-168.8973,40.38156,LYI
130250571206000,3.465049,7.5331667589337,2.07174203466455,-6.23424806586067,0.02565634,0.0036651916,0.026572637,258.51044,-168.88806,40.404152,LYI
130250576112000,3.469955,7.52039344733995,2.03113906364441,-6.27195251814338,0.016187929,-0.0015271631,0.021380283,258.48447,-168.8867,40.428688,LYI
130250581208000,3.475051,7.50119662641361,2.00714291220376,-6.29594861947094,0.015271631,0.0033597588,0.021991149,258.46094,-168.88759,40.45598,LYI
130250586101000,3.479944,7.49059466971494,1.98738069489191,-6.32030591021619,0.002443461,-0.012217305,0.0076358155,258.44382,-168.8915,40.466347,LYI
130250591168000,3.485011,7.49523639845035,1.97345521786876,-6.34815686426248,-0.013744468,-0.022907447,0.009162978,258.43182,-168.89735,40.480244,LYI
130250596196000,3.490039,7.49484526507745,1.97209878652183,-6.36731173049688,-0.027794369,-0.030848695,0.009162978,258.42053,-168.90274,40.482574,LYI
130250601189000,3.495032,7.48041638901629,2.00576592963186,-6.36250213862402,-0.042455133,-0.03145956,0.005497787,258.40887,-168.90396,40.483795,LYI
130250606196000,3.500039,7.46146697966382,2.0459611097272,-6.35538168049049,-0.043066,-0.043066,0.004276057,258.40503,-168.90747,40.477695,LYI
130250611301000,3.505144,7.43003261510058,2.104339483292,-6.34190976977129,-0.04337143,-0.04917465,0.0076358155,258.4011,-168.90807,40.473087,LYI
130250616188000,3.510031,7.39972093870458,2.15568178894155,-6.33161958341232,-0.038789943,-0.054367006,0.009773844,258.3912,-168.903,40.461178,LYI
130250621207000,3.51505,7.36649999533965,2.16517348704581,-6.34585713056872,-0.047036625,-0.051618114,0.01160644,258.3823,-168.8958,40.4503,LYI
130250626889000,3.520732,7.33143400735809,2.17569519705676,-6.36339969264191,-0.03970624,-0.043982297,0.010079277,258.36212,-168.87973,40.433968,LYI
130250631207000,3.52505,7.31332231219341,2.18293987512264,-6.38151138780659,-0.020463986,-0.03481932,0.018020526,258.34583,-168.86697,40.420055,LYI
130250636103000,3.529946,7.29278621688858,2.19115431324457,-6.40204748311142,-0.029932396,-0.019547688,0.021685716,258.3255,-168.84682,40.401157,LYI
130250641205000,3.535048,7.29736421467689,2.17426037064622,-6.39558666204819,-0.022602014,0.00030543262,0.005192355,258.29953,-168.83234,40.385696,LYI
130250646121000,3.539964,7.30908370805536,2.15082138388928,-6.38152329446878,-0.0067195175,0.029321533,0.017715093,258.28323,-168.82411,40.379803,LYI
130250651199000,3.545042,7.32118940117495,2.1266099976501,-6.36699648800657,-0.00030543262,0.046120327,0.01740966,258.25897,-168.80522,40.362865,LYI
130250656130000,3.549973,7.33294465378871,2.10309949242258,-6.3528902094195,0.00061086525,0.040011674,0.01038471,258.23642,-168.78992,40.348427,LYI
130250661520000,3.555363,7.35739849828516,2.09143954341989,-6.34158135867712,-0.0018325958,0.038789943,0.014049901,258.21567,-168.77747,40.341022,LYI
130250666185000,3.560028,7.38147661807937,2.08487275023028,-6.33282567251837,-0.004581489,0.01985312,0.013133603,258.1932,-168.7632,40.326496,LYI
130250671188000,3.565031,7.40729930475257,2.07783016366487,-6.32343559795198,-0.004886922,0.009468411,0.009162978,258.17828,-168.75572,40.32744,LYI
130250676116000,3.569959,7.43273488339049,2.07089315255267,-6.3141862900441,-0.009468411,-0.0030543262,0.009468411,258.16672,-168.74751,40.32291,LYI
130250681206000,3.575049,7.44795240468926,2.06181672458278,-6.30772899765537,0.00061086525,-0.013744468,0.008246681,258.15405,-168.74149,40.3158,LYI
130250686150000,3.579993,7.45764774712809,2.05212128090509,-6.30288132643596,-0.018325957,-0.03359759,0.0030543262,258.14224,-168.7277,40.302685,LYI
130250691165000,3.585008,7.47322761292586,2.04621279676853,-6.29831512944326,-0.019242255,-0.03359759,-0.00030543262,258.13205,-168.72217,40.306396,LYI
130250696838000,3.590681,7.49329194175976,2.04119671456006,-6.29329894247992,-0.024129177,-0.032375857,0.005497787,258.12518,-168.71265,40.305374,LYI
130250701205000,3.595048,7.48970529404204,2.03688171874523,-6.2800497371746,-0.023823744,-0.03848451,0.0076358155,258.11786,-168.70483,40.304737,LYI
130250706263000,3.600106,7.47387702099989,2.03160566445921,-6.25894563021457,-0.034208454,-0.028099801,0.005192355,258.10934,-168.69406,40.309116,LYI
130250711330000,3.605173,7.45903362435233,2.03390817568752,-6.24277947293742,-0.034208454,-0.027794369,0.003970624,258.10413,-168.6876,40.313686,LYI
130250716223000,3.610066,7.4450264611399,2.03857729509765,-6.22877211470705,-0.032986723,-0.03023783,0.0070249503,258.09894,-168.67972,40.32041,LYI
130250721201000,3.615044,7.43491104538496,2.05866333660513,-6.24059415929761,-0.047647487,-0.031154128,0.013439035,258.09186,-168.67107,40.331047,LYI
130250726203000,3.620046,7.4262835525439,2.08454536470059,-6.26216244097253,-0.05375614,-0.040011674,0.009162978,258.08313,-168.66321,40.338116,LYI
130250731217000,3.62506,7.4113375065775,2.11335212383249,-6.30219933245999,-0.050396383,-0.03573562,0.006414085,258.0747,-168.6542,40.34863,LYI
130250736204000,3.630047,7.39039505875904,2.14476595957027,-6.35979130997588,-0.05131268,-0.030848695,0.017104227,258.07053,-168.64494,40.357483,LYI
130250741168000,3.635011,7.37416385357776,2.17388989284447,-6.40363102379263,-0.04886922,-0.029321533,0.022296581,258.0598,-168.63087,40.359432,LYI
130250746205000,3.640048,7.35990059467771,2.20241641064459,-6.44166638085945,-0.03573562,-0.027794369,0.015882496,258.04843,-168.61902,40.362694,LYI
130250751229000,3.645072,7.35773071049859,2.23007283306771,-6.44105200428914,-0.030848695,-0.026267206,0.011911872,258.03738,-168.60358,40.3546,LYI
130250756407000,3.65025,7.36204929552798,2.25814397396908,-6.41945885366863,-0.017104227,-0.013133603,0.012217305,258.0244,-168.59277,40.350212,LYI
130250761234000,3.655077,7.36607513753973,2.28431226232963,-6.39932943342042,-0.0012217305,-0.0070249503,0.013133603,258.00806,-168.57854,40.334534,LYI
130250767713000,3.661556,7.37147878999347,2.31943642646636,-6.37231088902678,0.0009162979,0.0033597588,0.013133603,257.98993,-168.5645,40.323963,LYI
130250771263000,3.665106,7.37517104546593,2.3353676072405,-6.35934304729358,0.004276057,0.00580322,0.01282817,257.9688,-168.55798,40.314285,LYI
130250776198000,3.670041,7.38937013589705,2.31643550313955,-6.3640760609634,-0.01038471,-0.0067195175,0.013133603,257.94855,-168.54823,40.303593,LYI
130250781180000,3.675023,7.40370445576085,2.29732309328526,-6.36885415095388,-0.008857546,-0.006414085,0.01038471,257.91302,-168.52882,40.304646,LYI
130250786182000,3.680025,7.41809632006409,2.27813395757849,-6.37365142235742,-0.008552114,-0.011301007,0.0033597588,257.87814,-168.50569,40.300583,LYI
130250791242000,3.685085,7.42949492395551,2.25661461881575,-6.37674858385933,-0.01038471,-0.019242255,0.01038471,257.8472,-168.48619,40.294853,LYI
130250796212000,3.690055,7.40088244324216,2.20892731694219,-6.3576736133153,-0.02565634,-0.016493361,0.004886922,257.80896,-168.46056,40.289413,LYI
130250801330000,3.695173,7.37507356222337,2.16202704312918,-6.33798092424087,-0.011911872,-0.018325957,0.007330383,257.78183,-168.45435,40.289047,LYI
130250806139000,3.699982,7.38455494009264,2.13832409346372,-6.31901866351004,-0.022602014,-0.022296581,0.002443461,257.7503,-168.43738,40.287876,LYI
130250811118000,3.704961,7.39302992969027,2.11461894104527,-6.30286432387084,-0.0143553335,-0.022907447,0.009773844,257.73126,-168.43822,40.28767,LYI
130250816098000,3.709941,7.39061225543671,2.0976955242054,-6.31495244269276,-0.02443461,-0.02321288,0.009162978,257.70807,-168.43044,40.28563,LYI
130250821086000,3.714929,7.38819069736909,2.08074492115375,-6.32705998017945,-0.027488936,-0.025350908,0.004886922,257.68768,-168.4326,40.2893,LYI
130250826093000,3.719936,7.38575991524307,2.06372975084909,-6.33921363699498,-0.021991149,-0.0143553335,0.0036651916,257.66702,-168.43481,40.2967,LYI
130250831084000,3.724927,7.38597414216506,2.05040351807074,-6.34974530265809,-0.02321288,-0.010995574,0.004886922,257.64508,-168.43695,40.2985,LYI
130250836078000,3.729921,7.40032723002787,2.05655484144051,-6.35179572237085,-0.021685716,-0.003970624,0.00580322,257.62125,-168.44043,40.30424,LYI
130250841114000,3.734957,7.41480102868167,2.06275789800643,-6.35386338630225,-0.03726278,0.009773844,0.010079277,257.60492,-168.44785,40.30936,LYI
130250846304000,3.740147,7.42971743356913,2.0691506429582,-6.35599427903537,-0.03359759,0.019547688,0.008246681,257.5865,-168.45842,40.31497,LYI
130250851297000,3.74514,7.44406764736549,2.07530073458521,-6.35804428817149,-0.02443461,0.022296581,0.009162978,257.56927,-168.46921,40.320496,LYI
130250856145000,3.749988,7.46089284360468,2.07689984454941,-6.35393107819766,-0.009773844,0.019242255,0.0009162979,257.54785,-168.47958,40.32622,LYI
130250861195000,3.755038,7.48119949977431,2.07436151252821,-6.34377775011284,-0.015271631,0.03481932,0.01038471,257.53116,-168.49074,40.339153,LYI
130250866096000,3.759939,7.50090700905894,2.07189807386763,-6.33392399547053,-0.012217305,0.022907447,0.009773844,257.50684,-168.50374,40.344555,LYI
130250871145000,3.764988,7.52120964410854,2.06936024448643,-6.32377267794573,-0.0067195175,0.007941248,0.015882496,257.48734,-168.5187,40.354393,LYI
130250876237000,3.77008,7.51154939303944,2.06542607860789,-6.31752837860789,0.007941248,0.0067195175,0.0143553335,257.46484,-168.5343,40.36396,LYI
130250881530000,3.775373,7.48802735016241,2.06072167003248,-6.31282397003248,0.006414085,0.01160644,0.017715093,257.44727,-168.54921,40.37186,LYI
130250886102000,3.779945,7.46255247221428,2.06143247539796,-6.31353477539796,-0.0030543262,0.007330383,0.009773844,257.4242,-168.56607,40.383575,LYI
130250891120000,3.784963,7.43048739959966,2.06601320005719,-6.31811550005719,-0.013439035,-0.005192355,0.011301007,257.4063,-168.58423,40.395004,LYI
130250896106000,3.789949,7.39763902134048,2.07414375565684,-6.33179953399464,-0.0012217305,0.00061086525,0.005192355,257.38208,-168.60207,40.405506,LYI
130250901106000,3.794949,7.36340559864164,2.08698137853441,-6.35747460101877,-0.0036651916,-0.005497787,0.00061086525,257.36148,-168.61465,40.40943,LYI
130250906152000,3.799995,7.33736350617,2.10088964773,-6.37764346461,-0.015271631,-0.015577064,0.002443461,257.3403,-168.6262,40.40684,LYI
130250911189000,3.805032,7.34492397975027,2.11853075275064,-6.37512330674991,-0.015577064,-0.013133603,-0.0027488936,257.31442,-168.63702,40.405315,LYI
130250916088000,3.809931,7.35227731706807,2.13568853982551,-6.37267219431064,-0.01160644,-0.013744468,-0.0021380284,257.29147,-168.64514,40.388752,LYI
130250921113000,3.814956,7.35981977879944,2.15328761719868,-6.37015804040019,-0.016187929,-0.01038471,-0.0030543262,257.26563,-168.6498,40.37399,LYI
130250926104000,3.819947,7.3645644,2.16176266403357,-6.36251979177981,-0.0125227375,-0.004886922,0.0036651916,257.2355,-168.66663,40.357544,LYI
130250931116000,3.824959,7.3645644,2.15465346804246,-6.34593169254505,-0.009468411,-0.005497787,0.00061086525,257.2019,-168.6798,40.340096,LYI
130250936073000,3.829916,7.3645644,2.14762228597383,-6.32952562552456,-0.01282817,-0.005497787,0.009162978,257.185320323939,-168.685367987163,40.3365817052452,LYI
130250941087000,3.83493,7.3645644,2.14051025311281,-6.31293090693656,-0.0061086523,0.009162978,0.0125227375,257.16855,-168.691,40.333027,LYI
130250946084000,3.839927,7.36162774677578,2.13856468388878,-6.29566563222244,-0.007330383,0.012217305,0.016187929,257.13248,-168.69934,40.32215,LYI
130250951777000,3.84562,7.3508763854861,2.14931615744429,-6.27416268511142,-0.002443461,0.008857546,0.021685716,257.10086,-168.71187,40.314857,LYI
130250956148000,3.849991,7.35327728104551,2.15084844578738,-6.26978704333117,0.00061086525,0.009773844,0.022907447,257.06952,-168.72452,40.31579,LYI
130250961166000,3.855009,7.38000239836871,2.13748584061544,-6.29205800544073,-0.0018325958,0.005192355,0.018325957,257.03915,-168.73651,40.31435,LYI
130250966133000,3.859976,7.40318297670419,2.12573982329581,-6.31298396022513,0.004886922,0.005192355,0.018936822,257.023493314612,-168.741969665029,40.3135006634239,LYI
130250971137000,3.86498,7.40549817585391,2.12342462414609,-6.32687515512344,0.0012217305,-0.006414085,0.0143553335,257.00772,-168.74747,40.312645,LYI
130250976140000,3.869983,7.40781291233393,2.12110988766607,-6.34076357400358,-0.002443461,-0.015882496,0.0106901415,256.9752,-168.75525,40.310055,LYI
130250981144000,3.874987,7.41012811148365,2.11879468851635,-6.35465476890188,0.004581489,-0.020463986,0.0030543262,256.9442,-168.76825,40.306812,LYI
130250986378000,3.880221,7.41185976143699,2.11725925141734,-6.36739922287398,-0.003970624,-0.01740966,0.004276057,256.91544,-168.77766,40.303658,LYI
130250991122000,3.884965,7.39910861375246,2.13426078166339,-6.34189692750491,0.004581489,-0.011911872,0.0021380284,256.88834,-168.78522,40.296093,LYI
130250996093000,3.889936,7.38574732472635,2.15207583369819,-6.31517434945271,-0.0033597588,-0.02687807,-0.003970624,256.8642,-168.7887,40.279995,LYI
130251001181000,3.895024,7.38783142926249,2.15066817073751,-6.31728582241772,-0.004276057,-0.026572637,-0.005497787,256.8391,-168.79564,40.27022,LYI
130251006200000,3.900043,7.3925960961142,2.1459035038858,-6.32443279781919,-0.009773844,-0.021685716,-0.002443461,256.8146,-168.79936,40.257957,LYI
130251011273000,3.905116,7.39741202656622,2.14108757343378,-6.33165666835349,-0.013744468,-0.023823744,0.0021380284,256.7837,-168.80014,40.247982,LYI
130251016127000,3.90997,7.40202005463918,2.13647954536082,-6.33856868640464,-0.022907447,-0.022296581,-0.008857546,256.74768,-168.7961,40.239788,LYI
130251021891000,3.915734,7.41643029841947,2.14466713227965,-6.35792431175216,-0.01863139,-0.020158553,-0.0076358155,256.7209,-168.79416,40.233074,LYI
130251026133000,3.919976,7.42824784489479,2.15254549659653,-6.37368108151847,-0.0125227375,-0.002443461,0.00061086525,256.69125,-168.78993,40.231113,LYI
130251031210000,3.925053,7.44264206738764,2.15110157753745,-6.38551338335152,-0.020158553,0.01282817,0.0033597588,256.6612,-168.7864,40.230404,LYI
130251036107000,3.92995,7.45660106816152,2.14644857727949,-6.39481943245362,-0.019547688,0.01282817,0.00580322,256.63394,-168.78732,40.231045,LYI
130251041182000,3.935025,7.48174720649184,2.1416356531618,-6.38303037537853,-0.012217305,0.028405234,0.0021380284,256.60278,-168.78511,40.241158,LYI
130251046126000,3.939969,7.50986053715982,2.13695008174171,-6.36428804077189,-0.008552114,0.025350908,0.006414085,256.57742,-168.78415,40.246822,LYI
130251051204000,3.945047,7.53877335719243,2.13912471402796,-6.36599312805591,-0.0106901415,0.023518313,0.009162978,256.5501,-168.78394,40.257748,LYI
130251056242000,3.950085,7.56747252622187,2.14390789221771,-6.37555948443541,0.0033597588,0.024129177,0.020463986,256.52774,-168.79027,40.26921,LYI
130251061285000,3.955128,7.55853801519035,2.13851840607614,-6.36143731519035,0.004886922,0.01863139,0.016798794,256.50662,-168.78732,40.284084,LYI
130251066111000,3.959954,7.53659856925852,2.12974262770341,-6.33949786925852,-0.004886922,-0.004276057,0.013133603,256.4914,-168.78697,40.29472,LYI
130251071201000,3.965044,7.49507953621156,2.12311570886507,-6.32146285724732,-0.0021380284,-0.006414085,0.01282817,256.47906,-168.7853,40.310234,LYI
130251076206000,3.970049,7.44226457828308,2.11831435816889,-6.307058855294,0.010079277,-0.011301007,0.010079277,256.4671,-168.78246,40.31798,LYI
130251081212000,3.975055,7.40070997825371,2.1134293878089,-6.30458398039539,-0.004886922,-0.014966198,0.0033597588,256.45734,-168.77129,40.324146,LYI
130251086216000,3.980059,7.36616970337727,2.10849504810544,-6.30951826857496,-0.007330383,-0.022907447,0.002443461,256.4496,-168.7661,40.327965,LYI
130251091760000,3.985603,7.33997387119457,2.11440446440272,-6.31862256440272,-0.010079277,-0.014049901,0.0018325958,256.44162,-168.7524,40.329597,LYI
130251096175000,3.990018,7.32308151322413,2.12285064338793,-6.32706874338793,-0.020158553,-0.01985312,0.0036651916,256.43646,-168.73718,40.325294,LYI
130251101189000,3.995032,7.31507433189439,2.13408154052806,-6.32545111245357,-0.017715093,-0.016798794,0.002443461,256.4296,-168.72394,40.319134,LYI
130251106177000,4.00002,7.31267652653348,2.1460705673326,-6.31825772140849,-0.020463986,-0.030543262,-0.00580322,256.42307,-168.70679,40.30668,LYI
130251111161000,4.005004,7.31028064403172,2.15804997984138,-6.31107009892079,-0.01038471,-0.029626964,-0.0012217305,256.41806,-168.69348,40.29497,LYI
130251116178000,4.010021,7.30786889794197,2.17010871029013,-6.30383488583476,-0.016493361,-0.03176499,0.00030543262,256.41064,-168.67438,40.278336,LYI
130251121161000,4.015004,7.33835407824337,2.17677615256758,-6.33563040114601,-0.003970624,-0.02321288,-0.0009162979,256.40274,-168.66214,40.26559,LYI
130251126158000,4.020001,7.38440498941475,2.1809625990377,-6.38586771507305,-0.0070249503,-0.01863139,0.004276057,256.39835,-168.64708,40.252277,LYI
130251131171000,4.025014,7.41720516869548,2.17780387756543,-6.41075237756543,0.002443461,-0.013133603,0.011911872,256.38855,-168.63374,40.240097,LYI
130251136190000,4.030033,7.42932406315365,2.16326120421562,-6.39620970421562,0.011911872,-0.01863139,0.01985312,256.3814,-168.62114,40.226997,LYI
130251141150000,4.034993,7.4413004960113,2.14888948478645,-6.38183798478645,0.016187929,-0.0033597588,0.013133603,256.37125,-168.61047,40.220943,LYI
130251146146000,4.039989,7.4533638545913,2.13441345449044,-6.36736195449044,0.007330383,0.007941248,0.018325957,256.36917,-168.60292,40.214115,LYI
130251151152000,4.044995,7.45431853270142,2.12805582243286,-6.35599276635071,0.0070249503,0.017104227,0.014660766,256.36258,-168.59236,40.2119,LYI
130251156179000,4.050022,7.44005829170616,2.13280923609795,-6.34886264585308,-0.0106901415,0.007330383,0.004581489,256.35635,-168.57617,40.207565,LYI
130251161420000,4.055263,7.42519099052133,2.13776500315956,-6.34142899526066,-0.008552114,0.01160644,0.0125227375,256.3564,-168.57228,40.220573,LYI
130251166182000,4.060025,7.41168248293839,2.14226783902054,-6.3346747414692,-0.01985312,0.008552114,0.012217305,256.35153,-168.55847,40.22742,LYI
