timestamp,rel_time,acc_x,acc_y,acc_z,gyro_x,gyro_y,gyro_z,azimuth,pitch,roll,label
5709145663000,0,0.827373227724463,9.77006979202237,1.18956519602591,-0.035124753,-0.030848695,-0.009162978,220.68243,-128.24557,-27.89456,STD
5709150662000,0.004999,0.829722095507801,9.77711651309979,1.18486748008046,-0.044593163,-0.030848695,-0.002443461,221.00432,-127.5677,-27.500507,STD
5709155625000,0.009962,0.832054048060053,9.78411248763615,1.18020359445589,-0.034208454,-0.030543262,-0.011301007,221.31213,-126.906006,-27.11069,STD
5709160657000,0.014994,0.823296342017656,9.79738279862678,1.18041876256008,-0.022296581,-0.032375857,-0.003970624,221.63383,-126.213615,-26.699068,STD
5709165639000,0.019976,0.804576712801373,9.81610231544875,1.18509866619912,-0.027794369,-0.03481932,-0.009468411,221.94273,-125.53348,-26.294516,STD
5709170618000,0.024955,0.801666562192308,9.82354008786982,1.18526023514793,-0.019547688,-0.027183503,-0.007941248,222.26407,-124.810875,-25.852226,STD
5709175712000,0.030049,0.816099758115385,9.8187289204142,1.18044916816568,-0.01985312,-0.032986723,-0.01863139,222.57642,-124.100655,-25.41924,STD
5709180607000,0.034944,0.829594646081307,9.81023780564322,1.17994372591424,-0.010995574,-0.028405234,-0.016187929,222.9235,-123.30383,-24.92743,STD
5709185689000,0.040026,0.843146539164656,9.79668612010395,1.18446101731947,-0.015577064,-0.018936822,-0.0076358155,223.25554,-122.52108,-24.441696,STD
5709190621000,0.044958,0.850815543104369,9.78597671135562,1.1814430565431,-0.02076942,-0.02321288,-0.017715093,223.64587,-121.57785,-23.847141,STD
5709195663000,0.05,0.845657309411388,9.78081836993911,1.16081006790941,-0.015882496,-0.022907447,-0.019547688,224.01268,-120.656906,-23.256237,STD
5709200655000,0.054992,0.837317858371711,9.77451929092105,1.14989694181579,-0.0106901415,-0.013744468,-0.019242255,224.48288,-119.37959,-22.415459,STD
5709205716000,0.060053,0.82456305625,9.76654755,1.15149129,-0.019242255,-0.023518313,-0.016493361,224.91954,-118.15242,-21.600626,STD
5709210613000,0.06495,0.812221569194079,9.7588341306579,1.15303397386842,-0.0061086523,-0.012217305,-0.014049901,225.37845,-116.69156,-20.597086,STD
5709215641000,0.069978,0.799549934128289,9.75091436907895,1.15461792618421,-0.0036651916,-0.013744468,-0.01282817,225.7976,-115.29771,-19.633572,STD
5709220592000,0.074929,0.787072355526316,9.74311589263158,1.15617762147368,-0.01038471,-0.018020526,-0.010079277,226.19095,-113.819824,-18.590418,STD
5709225708000,0.080045,0.774178941644737,9.73505751947368,1.15778929610526,-0.01160644,-0.01740966,-0.0125227375,226.54086,-112.41748,-17.591913,STD
5709231301000,0.085638,0.767193527350155,9.72688888508836,1.15984262735016,-0.013439035,-0.010079277,-0.0012217305,226.84232,-110.99033,-16.55582,STD
5709235701000,0.090038,0.769112745787029,9.7211311696575,1.16176184578703,-0.009468411,-0.007330383,-0.005497787,227.10934,-109.63714,-15.569638,STD
5709241050000,0.095387,0.771445904745855,9.71413161969393,1.16409500474586,-0.0061086523,-0.009773844,-0.003970624,227.30156,-108.618744,-14.827635,STD
5709245683000,0.10002,0.773466754522682,9.70806900705957,1.16611585452268,-0.007330383,-0.010995574,0.00061086525,227.47592,-107.6336,-14.106927,STD
5709251056000,0.105393,0.774857402441182,9.7014778027596,1.16767930159208,-0.003970624,-0.0018325958,0.01160644,227.63313,-106.67967,-13.404184,STD
5709255668000,0.110005,0.755324281160446,9.70538450044224,1.15205279640899,-0.013744468,-0.0076358155,0.00030543262,227.78009,-105.75797,-12.7273245,STD
5709260592000,0.114929,0.734469751848576,9.70955548469839,1.13536916424907,-0.0125227375,-0.005192355,0.008857546,227.92145,-104.85538,-12.059224,STD
5709265639000,0.119976,0.737230605381798,9.69835765821358,1.09562104757209,-0.015882496,-0.005192355,0.007330383,227.984342151647,-104.417188600635,-11.7357561800318,STD
5709270668000,0.125005,0.750801111777966,9.68026374415328,1.04586247688551,-0.025350908,0.012217305,0.015271631,228.04701,-103.98056,-11.413442,STD
5709275660000,0.129997,0.733754380016687,9.66972327544848,1.22148333374009,-0.019242255,0.01160644,0.01985312,228.1659,-103.135155,-10.784819,STD
5709280676000,0.135013,0.693673254609929,9.66471303014184,1.56718330195035,-0.025961773,0.0106901415,0.021991149,228.26793,-102.32403,-10.181976,STD
5709285658000,0.139995,0.688868830675284,9.67042760889607,1.57555971075892,-0.017104227,0.008552114,0.026572637,228.35715,-101.53708,-9.586784,STD
5709290693000,0.14503,0.702617589312361,9.6818849077603,1.40599156793233,-0.016187929,0.013439035,0.02565634,228.43619,-100.773476,-9.009652,STD
5709295666000,0.150003,0.716197048438911,9.69320112369909,1.2385114538754,-0.022907447,0.022602014,0.023823744,228.52463,-99.959206,-8.417682,STD
5709301539000,0.155876,0.732234081105356,9.7065653175878,1.04072124477498,-0.024740042,0.021685716,0.022602014,228.60269,-99.175545,-7.844351,STD
5709305704000,0.160041,0.707208210491706,9.72166981285388,1.10628814436277,-0.025045475,0.034513887,0.024740042,228.66331,-98.41981,-7.288011,STD
5709310690000,0.165027,0.64080319942982,9.74538587761995,1.39088111966822,-0.02443461,0.030848695,0.025045475,228.7189,-97.69335,-6.7503414,STD
5709315628000,0.169965,0.605497149470782,9.77603261098738,1.38309443958002,-0.03481932,0.03145956,0.022907447,228.75076,-97.06515,-6.262325,STD
5709320651000,0.174988,0.610598885222187,9.81684681662955,0.985158763302577,-0.03604105,0.030848695,0.02443461,228.77982,-96.45812,-5.7871914,STD
5709325627000,0.179964,0.625671154648611,9.82262550133439,0.847820492756746,-0.025045475,0.038179077,0.02076942,228.79942,-95.82899,-5.3092985,STD
5709330656000,0.184993,0.649473560276762,9.79882312553128,0.928748640079075,-0.03390302,0.030543262,0.019547688,228.81697,-95.22456,-4.8454957,STD
5709335632000,0.189969,0.670405320580526,9.79470111513445,0.976863120580526,-0.033292156,0.04550946,0.024740042,228.8142,-94.7182,-4.4326234,STD
5709340673000,0.19501,0.689151713668576,9.8087607142025,0.995609513668576,-0.03756821,0.040011674,0.018020526,228.81728,-94.23436,-4.0350227,STD
5709345654000,0.199991,0.707942598147963,9.81401802933227,1.03869859112023,-0.037873644,0.04184427,0.01863139,228.80688,-93.74692,-3.6272707,STD
5709350642000,0.204979,0.727071271048153,9.80923576123736,1.11043116443087,-0.03970624,0.050701816,0.023518313,228.79387,-93.28772,-3.232011,STD
5709355611000,0.209948,0.741698532332382,9.80236570188048,1.15778568703357,-0.035430185,0.050701816,0.021685716,228.78088,-92.85636,-2.8434749,STD
5709360673000,0.21501,0.751244217396869,9.79282031584129,1.1768771070001,-0.035124753,0.04886922,0.02076942,228.764,-87.53475,-2.464682,STD
5709365609000,0.219946,0.758583627879059,9.78245720661486,1.2056673667115,-0.03848451,0.04734206,0.022296581,228.74432,-87.880005,-2.0843742,STD
5709370858000,0.225195,0.763591486580992,9.76993762522415,1.25073788586372,-0.032986723,0.05375614,0.015882496,228.7209,-88.141335,-1.7181317,STD
5709375591000,0.229928,0.768107050542937,9.75864877425782,1.29137777291791,-0.024740042,0.048563786,0.01985312,228.69907,-88.29923,-1.3553195,STD
5709380672000,0.235009,0.772954627236501,9.74652989579598,1.33500576068938,-0.032375857,0.03481932,0.023518313,228.67616,-88.32492,-1.0053685,STD
5709385603000,0.23994,0.777393403771168,9.73459686821972,1.37495469853864,-0.032375857,0.0421497,0.01985312,228.65315,-88.228264,-0.6662504,STD
5709390652000,0.244989,0.781549950812344,9.7221269276197,1.41236378249807,-0.024740042,0.044898596,0.022907447,228.63367,-88.036316,-0.33423722,STD
5709395644000,0.249981,0.784427007429548,9.71349548725653,1.44696905483838,-0.020463986,0.042455133,0.027794369,228.618,-87.75852,-0.006929226,STD
5709400718000,0.255055,0.774358035032118,9.74370239919188,1.4570379378678,-0.016798794,0.03848451,0.025350908,228.59999,-87.44417,0.30909482,STD
5709405625000,0.259962,0.7661445,9.76936512627971,1.46286640191782,-0.017104227,0.04520403,0.024129177,228.57616,-87.0977,0.6220085,STD
5709410660000,0.264997,0.7661445,9.7760661755223,1.44723037933478,-0.008857546,0.04520403,0.028405234,228.55339,-86.74489,0.92615926,STD
5709415621000,0.269958,0.7661445,9.782668738639,1.43182416125446,-0.0067195175,0.040317107,0.030543262,228.51837,-86.38901,1.219197,STD
5709420722000,0.275059,0.7661445,9.78945762685876,1.41598317789874,-0.0125227375,0.0421497,0.029626964,228.48007,-86.034706,1.5031041,STD
5709425596000,0.279933,0.7661445,9.79594440223283,1.40084713538241,-0.009162978,0.048563786,0.03023783,228.44034,-85.68591,1.7800063,STD
5709430646000,0.284983,0.748926952198096,9.80137747684244,1.34225666964381,-0.0143553335,0.04795292,0.023518313,228.4012,-85.34026,2.045733,STD
5709436062000,0.290399,0.726866538172398,9.8061646342911,1.27128839543099,-0.0076358155,0.049480084,0.02565634,228.35852,-85.00423,2.3053617,STD
5709440662000,0.294999,0.710266150042393,9.79786470023551,1.22978742510598,-0.005192355,0.042760566,0.027488936,228.31976,-84.68235,2.5522678,STD
5709445592000,0.299929,0.692474864503062,9.78896933612812,1.18530921125765,-0.009162978,0.044593163,0.021991149,228.28091,-84.38575,2.781312,STD
5709450632000,0.304969,0.681518929943559,9.78349133131993,1.14590257794831,-0.01282817,0.03604105,0.015577064,228.24663,-84.09657,3.0040588,STD
5709455600000,0.309937,0.672096701524904,9.77878011872463,1.1082136150807,-0.010995574,0.029321533,0.017715093,228.21101,-83.81428,3.2208612,STD
5709460661000,0.314998,0.650985738956912,9.7624074948333,1.0664294406512,-0.017715093,0.03756821,0.016187929,228.17601,-83.55025,3.4215758,STD
5709465609000,0.319946,0.627888607122246,9.74392991284851,1.02485461589004,-0.014966198,0.04153884,0.013744468,228.14404,-83.29521,3.617068,STD
5709470653000,0.32499,0.637084245985108,9.72866892946018,0.989605849642402,-0.009773844,0.033292156,0.009773844,228.11545,-83.05785,3.8002412,STD
5709475626000,0.329963,0.655748109383756,9.71467076516116,0.956944124017831,-0.024129177,0.037873644,0.004886922,228.08224,-82.82286,3.9768116,STD
5709480638000,0.334975,0.657983129699158,9.71651525824308,0.925571272888087,-0.020158553,0.043066,0.010995574,228.05338,-82.60764,4.1454544,STD
5709485597000,0.339934,0.654173153670277,9.72413536943442,0.895091444765343,-0.02076942,0.03604105,0.0143553335,228.02707,-82.39438,4.307688,STD
5709490663000,0.345,0.657633928065961,9.73131823239052,0.867642783160424,-0.035430185,0.038789943,0.01038471,227.99992,-82.187096,4.467846,STD
5709495661000,0.349998,0.683769587343016,9.73654547340832,0.85196138759419,-0.023823744,0.047647487,0.018936822,227.97284,-81.98815,4.628255,STD
5709500673000,0.35501,0.708962442619543,9.74355509355509,0.82896124033264,-0.040011674,0.03940081,0.017715093,227.95049,-81.79146,4.7814245,STD
5709505671000,0.360008,0.732655565280665,9.75303204573805,0.795790868607069,-0.032070424,0.041233405,0.007330383,227.92322,-81.6078,4.9297323,STD
5709510598000,0.364935,0.750410800619253,9.75705601398011,0.756911928738975,-0.03359759,0.047647487,0.017104227,227.9035,-81.41878,5.0833735,STD
5709515637000,0.369974,0.759466438675174,9.75252810039407,0.707105872152374,-0.028710667,0.04184427,0.014966198,227.8879,-81.24137,5.2271547,STD
5709520612000,0.374949,0.76366741911659,9.75414326522855,0.656752542208526,-0.03604105,0.033292156,0.014049901,227.8752,-81.06609,5.374034,STD
5709525660000,0.379997,0.753735485598356,9.7740075470981,0.602126856004109,-0.02565634,0.027488936,0.01740966,227.8638,-80.89988,5.5178537,STD
5709530647000,0.384984,0.754018552054601,9.7804693552836,0.5671398963502,-0.022602014,0.03023783,0.018936822,227.85774,-80.74253,5.658094,STD
5709535666000,0.390003,0.776643174031537,9.75784475693104,0.573927285305719,-0.024129177,0.028405234,0.027183503,227.85481,-80.5885,5.798104,STD
5709540655000,0.394992,0.799132562165215,9.73535539228054,0.58067410409414,-0.044593163,0.02321288,0.025961773,227.85114,-80.44792,5.9292326,STD
5709545660000,0.399997,0.821694075015298,9.71279390298894,0.587442560305013,-0.03940081,0.013744468,0.02565634,227.84952,-80.31433,6.060032,STD
5709550742000,0.405079,0.845081511289653,9.69056772131634,0.597245805721909,-0.042455133,0.009468411,0.027488936,227.84834,-80.179245,6.1866927,STD
5709556371000,0.410708,0.877045853708864,9.67458523302698,0.645192302662318,-0.03145956,0.027488936,0.02321288,227.8443,-80.05285,6.3079925,STD
5709560818000,0.415155,0.902094083994296,9.66518460618483,0.687762566099278,-0.03634648,0.02443461,0.0290161,227.84119,-79.91271,6.4426107,STD
5709565634000,0.419971,0.926756004094109,9.69395699795027,0.790520559361911,-0.043982297,0.01985312,0.02687807,227.83461,-79.779945,6.569909,STD
5709570602000,0.424939,0.95219629044292,9.72363748845914,0.896521745102932,-0.037873644,0.023518313,0.03023783,227.82428,-79.6384,6.7041125,STD
5709575658000,0.429995,0.954196062741965,9.75094378716216,0.975127409619248,-0.03359759,0.023823744,0.028710667,227.8172,-79.49978,6.833244,STD
5709580638000,0.434975,0.949841359217495,9.77707196283784,1.04480237044832,-0.040011674,0.024129177,0.0290161,227.80956,-79.362785,6.960396,STD
5709585647000,0.439984,0.945157592278326,9.78160436149853,1.11679629658964,-0.043676864,0.015882496,0.031154128,227.79504,-79.2073,7.092501,STD
5709590679000,0.445016,0.940251712445282,9.77179239692558,1.19038454531202,-0.047036625,0.024129177,0.029932396,227.77647,-79.05558,7.2192793,STD
5709595653000,0.44999,0.941255131414986,9.75743073131277,1.25171958688117,-0.03604105,0.007330383,0.037873644,227.75975,-78.89743,7.346731,STD
5709600737000,0.455074,0.945582609079193,9.74012091103013,1.30797684170296,-0.032070424,0.012217305,0.028710667,227.73576,-78.74529,7.463992,STD
5709605600000,0.459937,0.949719253003549,9.71388205430346,1.35852235713398,-0.040011674,0.007330383,0.02687807,227.71152,-78.582855,7.5837398,STD
5709610672000,0.465009,0.954029260385981,9.67078220550133,1.40593223582076,-0.044898596,0.00061086525,0.025961773,227.68713,-78.42837,7.6972947,STD
5709615661000,0.469998,0.961563034856473,9.62909151298575,1.45321551390353,-0.035430185,-0.01282817,0.025961773,227.66016,-78.26799,7.810383,STD
5709620665000,0.475002,0.989637028529584,9.59165922827573,1.50468450230424,-0.035124753,-0.006414085,0.020463986,227.63002,-78.110985,7.9173098,STD
5709626078000,0.480415,1.02002184877547,9.55358604976489,1.55713643032915,-0.03023783,-0.0027488936,0.014660766,227.5991,-77.94999,8.02485,STD
5709630655000,0.484992,1.04578581226489,9.53211611755486,1.5871943354232,-0.032375857,-0.004276057,0.015271631,227.56807,-77.79251,8.128899,STD
5709635782000,0.490119,1.0729237067517,9.51041162692361,1.61896226012755,-0.033292156,0.004886922,0.026572637,227.52884,-77.62398,8.239275,STD
5709640667000,0.495004,1.07724762818984,9.51905965039974,1.62544814228476,-0.03573562,-0.0009162979,0.028405234,227.49503,-77.46167,8.344116,STD
5709645590000,0.499927,1.08160518504552,9.52777494611581,1.63198447756828,-0.027488936,0.0015271631,0.031154128,227.45183,-77.293884,8.455007,STD
5709650661000,0.504998,1.08609374300106,9.53675224950321,1.63871731450159,-0.034513887,0.004276057,0.036651913,227.41045,-77.12709,8.56336,STD
5709655640000,0.509977,1.09050086784047,9.54556668325708,1.64532800176071,-0.030848695,-0.0061086523,0.048563786,227.37216,-76.96796,8.670881,STD
5709660661000,0.514998,1.09347387366325,9.55151263969929,1.63346771069402,-0.03481932,0.00030543262,0.0571159,227.33409,-76.81219,8.772241,STD
5709665642000,0.519979,1.09584876367619,9.55626227093498,1.61446859059046,-0.04337143,0.010995574,0.06383542,227.29759,-76.65927,8.87311,STD
5709670667000,0.525004,1.09824463244051,9.56105385835906,1.59530164047595,-0.04428773,0.014660766,0.067500606,227.26057,-76.50805,8.973595,STD
5709675649000,0.529986,1.10061999924325,9.56580444314448,1.57629870605397,-0.048258353,0.014660766,0.077579886,227.22131,-76.356834,9.073788,STD
5709680646000,0.534983,1.09537314587295,9.56127053256331,1.54973747944025,-0.041233405,0.018020526,0.079107046,227.17389,-76.21491,9.168768,STD
5709687164000,0.541501,1.08428090555309,9.55017863971568,1.51091458040871,-0.05222898,0.030848695,0.07971791,227.124,-76.071304,9.262285,STD
5709690660000,0.544997,1.06895049672131,9.55248642195296,1.47930599650748,-0.0421497,0.038789943,0.080634214,227.08008,-75.94384,9.353265,STD
5709695977000,0.550314,1.03784168852459,9.5628556818043,1.42227322659607,-0.03970624,0.04153884,0.081855945,227.03471,-75.81645,9.440907,STD
5709700681000,0.555018,1.01194127256858,9.56978545885287,1.37010426633416,-0.052534413,0.02443461,0.08246681,227.00331,-75.69853,9.522969,STD
5709705642000,0.559979,0.986184737384799,9.5749368734685,1.31343994271929,-0.04795292,0.022296581,0.0870483,226.96718,-75.58728,9.602908,STD
5709710661000,0.564998,0.962071809781567,9.58861691818356,1.26039152460241,-0.045814894,0.028405234,0.0870483,226.93533,-75.48926,9.67402,STD
5709715633000,0.56997,0.939262890774095,9.60686393906879,1.21021190754934,-0.05467244,0.023518313,0.08155051,226.90784,-75.39286,9.743368,STD
5709720638000,0.574975,0.921003853006621,9.64160199919743,1.15573847330457,-0.061086524,0.02687807,0.08552113,226.88075,-75.30932,9.807812,STD
5709725669000,0.580006,0.90650319168138,9.68993755377207,1.0977357573435,-0.0571159,0.02076942,0.07880162,226.85912,-75.23148,9.866677,STD
5709730657000,0.584994,0.887019541869232,9.758403251129,1.03564151419596,-0.057421334,0.016798794,0.08155051,226.84007,-75.159294,9.924642,STD
5709735673000,0.59001,0.863439486404869,9.8432916398979,0.96961736775967,-0.06169739,0.019547688,0.07696902,226.822,-75.091675,9.977098,STD
5709740665000,0.595002,0.850024643457515,9.9017541558084,0.931593582785832,-0.05100725,0.01740966,0.06658431,226.81308,-75.04134,10.02418,STD
5709745701000,0.600038,0.845599174123692,9.93715772563773,0.918317179405395,-0.057421334,0.011301007,0.067500606,226.80443,-74.98672,10.071889,STD
5709750623000,0.60496,0.835962943355028,9.96837406193576,0.91319468300021,-0.059253927,0.007330383,0.059253927,226.80511,-74.953705,10.108318,STD
5709755631000,0.609968,0.815824096208272,9.99354759458325,0.923264090802016,-0.046120327,0.014049901,0.048258353,226.80475,-74.92377,10.143053,STD
5709760614000,0.614951,0.806480264423039,10.0219625097798,0.933007258846078,-0.04337143,0.019547688,0.0421497,226.80782,-74.89679,10.174588,STD
5709765956000,0.620293,0.811508696268921,10.0571614801946,0.943064122537842,-0.048258353,0.024129177,0.027794369,226.81041,-74.87531,10.199704,STD
5709770687000,0.625024,0.820392959495268,10.0732094516299,0.967197053470032,-0.03848451,0.014660766,0.02565634,226.81384,-74.856674,10.223381,STD
5709775719000,0.630056,0.835984808696918,10.0693116155059,1.01397261328561,-0.03573562,0.0033597588,0.014966198,226.81787,-74.84047,10.240014,STD
5709781405000,0.635742,0.855579471443688,10.0645031694884,1.06482763864557,-0.03970624,0.010079277,0.0012217305,226.81932,-74.82586,10.254163,STD
5709785693000,0.64003,0.889586471811741,10.0569459048583,1.08372040566802,-0.032070424,0.01985312,-0.0018325958,226.8231,-74.8146,10.2684355,STD
5709790680000,0.645017,0.92913705736106,10.0481567073979,1.10569294044902,-0.036957346,0.015271631,-0.010995574,226.82492,-74.79397,10.280199,STD
5709795646000,0.649983,0.954109788539127,10.0287558561117,1.1161038431665,-0.024129177,0.011911872,-0.027488936,226.82425,-74.78114,10.288116,STD
5709800672000,0.655009,0.974818102631579,10.0057466315789,1.12300661052632,-0.012217305,0.01282817,-0.029626964,226.8234,-74.766556,10.297248,STD
5709805660000,0.659997,0.995369847695875,9.98291137253215,1.12985718824036,-0.007941248,0.01038471,-0.03726278,226.82077,-74.75021,10.308399,STD
5709810622000,0.664959,1.01581446658301,9.96019514250203,1.13667205724939,-0.010079277,0.0027488936,-0.026267206,226.81851,-74.73225,10.324087,STD
5709815625000,0.669962,1.04085026461523,9.94761328776055,1.15308330852514,0.00030543262,-0.013133603,-0.03176499,226.81927,-74.72075,10.335044,STD
5709820686000,0.675023,1.0695778764793,9.94282526079226,1.17702299341104,0.0036651916,-0.009773844,-0.03481932,226.81604,-74.705124,10.348762,STD
5709825670000,0.680007,1.09296908085193,9.92184287750943,1.20640639149088,0.009773844,-0.014966198,-0.027183503,226.82318,-74.68243,10.37393,STD
5709830650000,0.684987,1.11240960423927,9.88782226607561,1.24042730741873,0.0061086523,-0.019242255,-0.027183503,226.82971,-74.66101,10.395353,STD
5709835683000,0.69002,1.12899273359305,9.87652350374588,1.29992881249625,0.019242255,-0.025961773,-0.04184427,226.84334,-74.637924,10.420242,STD
5709840669000,0.695006,1.14330197087204,9.88129334911597,1.37624474465088,0.022296581,-0.03726278,-0.034513887,226.85817,-74.60844,10.451144,STD
5709845659000,0.699996,1.15475000715061,9.87773170618404,1.41885691430121,0.02687807,-0.03940081,-0.040927973,226.87108,-74.579704,10.477693,STD
5709850679000,0.705016,1.16423334613867,9.86824821866062,1.43782359227735,0.0290161,-0.04153884,-0.04153884,226.88635,-74.54942,10.507834,STD
5709855661000,0.709998,1.16019941351737,9.86138725710502,1.46516367365794,0.025350908,-0.040011674,-0.046120327,226.89374,-74.5095,10.5362015,STD
5709860649000,0.714986,1.14560149826831,9.8565212006723,1.49922530653968,0.04642576,-0.046731193,-0.054061573,226.90427,-74.47713,10.563244,STD
5709865631000,0.719968,1.12593425794538,9.85727520565652,1.5241000222665,0.06352998,-0.040927973,-0.056505036,226.91035,-74.43743,10.592441,STD
5709870630000,0.724967,1.10266940071921,9.8619282742735,1.5427119566333,0.06291912,-0.043676864,-0.06078109,226.92126,-74.40147,10.619005,STD
5709875617000,0.729954,1.07295719964832,9.86536427822081,1.5514427,0.059253927,-0.04153884,-0.07269296,226.92896,-74.369064,10.637269,STD
5709881421000,0.735758,1.03165960795978,9.86811750562187,1.5514427,0.06719518,-0.053450707,-0.07391469,226.94092,-74.33871,10.657706,STD
5709886967000,0.741304,0.992197781029273,9.87074834627768,1.5514427,0.07971791,-0.054367006,-0.079107046,226.94585,-74.31322,10.667461,STD
5709890654000,0.744991,0.965963421870821,9.8724973382535,1.5514427,0.083383106,-0.0580322,-0.081855945,226.95473,-74.28811,10.678047,STD
5709895630000,0.749967,0.933887095264372,9.86539484719574,1.53959539717066,0.08246681,-0.0571159,-0.08857546,226.96747,-74.26949,10.683178,STD
5709900821000,0.755158,0.903960422988362,9.84793752513294,1.51465648841678,0.087659165,-0.06505715,-0.09437868,226.98363,-74.25387,10.688321,STD
5709905576000,0.759913,0.876547337518812,9.8319464701515,1.49181223661082,0.09437868,-0.069027774,-0.09896017,226.99284,-74.24922,10.677546,STD
5709910602000,0.764939,0.847571907956256,9.81504404274104,1.46766603060098,0.099265605,-0.06352998,-0.094989546,227.00119,-74.24487,10.66771,STD
5709915564000,0.769901,0.830836734964743,9.79492272380574,1.43925641332804,0.089491755,-0.06383542,-0.10629055,227.01172,-74.24511,10.651736,STD
5709920612000,0.774949,0.826035474827689,9.77091652338862,1.40564773274407,0.09743301,-0.060170226,-0.10629055,227.01842,-74.247086,10.639796,STD
5709925558000,0.779895,0.825848744387185,9.76100942186735,1.37293337487998,0.10598512,-0.064446285,-0.10629055,227.02893,-74.26276,10.615106,STD
5709930572000,0.784909,0.830553189940237,9.76571394601744,1.34000239355344,0.10445796,-0.060170226,-0.10293079,227.03552,-74.27693,10.591233,STD
5709935547000,0.789884,0.831120536649495,9.77040470210026,1.31129109401129,0.105374254,-0.059864793,-0.102319926,227.04774,-74.29753,10.567883,STD
5709940580000,0.794917,0.826345409340202,9.7751799191599,1.28741548239548,0.11209377,-0.056505036,-0.106901415,227.05772,-74.31894,10.544123,STD
5709945531000,0.799868,0.82164808064791,9.77987733614028,1.26392886345849,0.11453723,-0.058337633,-0.101098195,227.07259,-74.3412,10.525468,STD
5709951210000,0.805547,0.816260052038835,9.78526546601942,1.23698874854369,0.113926366,-0.05497787,-0.1142318,227.08612,-74.36821,10.500257,STD
5709955545000,0.809882,0.81757924412826,9.79814888183603,1.20630255954006,0.11178834,-0.055588737,-0.1133155,227.09991,-74.39103,10.481425,STD
5709960605000,0.814942,0.826639487037487,9.82532917537627,1.15647128030289,0.11056661,-0.05589417,-0.110872045,227.11308,-74.415535,10.4597,STD
5709965561000,0.819898,0.83445227828877,9.84178180427808,1.11667616513369,0.12339478,-0.059253927,-0.11789699,227.13254,-74.45164,10.434902,STD
5709970613000,0.82495,0.839380416165011,9.82946145958747,1.10189175150497,0.110872045,-0.064751714,-0.12675454,227.15237,-74.48128,10.410993,STD
5709975559000,0.829896,0.844205152890247,9.81739961777438,1.08741754132926,0.109650314,-0.062002823,-0.12950343,227.18095,-74.52417,10.387232,STD
5709980584000,0.834921,0.849106952737459,9.80514511815635,1.07271214178762,0.11942416,-0.053145275,-0.13775012,227.20975,-74.56847,10.360159,STD
5709985581000,0.839918,0.856989495190591,9.800175525012,1.05216697707873,0.12064589,-0.04734206,-0.14019357,227.23796,-74.609085,10.334711,STD
5709990607000,0.844944,0.870854031069611,9.80941873230917,1.01981639094815,0.111177474,-0.04734206,-0.14508049,227.26552,-74.650536,10.306837,STD
5709995568000,0.849905,0.88453926037638,9.81854239951992,0.987884186850696,0.12370021,-0.053450707,-0.15210545,227.2958,-74.70233,10.278671,STD
5710000825000,0.855162,0.899041024227556,9.82821043389342,0.954046735340855,0.11759156,-0.04153884,-0.15271631,227.32043,-74.746765,10.250689,STD
5710005643000,0.85998,0.910657316620868,9.834950662478,0.934114199161451,0.122478485,-0.04550946,-0.16249016,227.3559,-74.79883,10.219062,STD
5710010661000,0.864998,0.915356745264522,9.8326008978584,0.962310822547917,0.12950343,-0.049480084,-0.16035213,227.38683,-74.8467,10.190763,STD
5710015780000,0.870117,0.920150761850186,9.83020383825543,0.991074974623509,0.13561209,-0.05131268,-0.15454891,227.42856,-74.903244,10.166443,STD
5710021132000,0.875469,0.925162986262468,9.82769767240368,1.02114837605124,0.1386664,-0.05589417,-0.15302174,227.47176,-74.959625,10.14269,STD
5710025632000,0.879969,0.930601768010778,9.82415249276733,1.04428487896379,0.14172074,-0.052534413,-0.1518,227.51231,-75.014824,10.120889,STD
5710030652000,0.884989,0.948782953129432,9.80597142630235,1.04883016931077,0.15851954,-0.052534413,-0.15393804,227.55469,-75.07255,10.099719,STD
5710036139000,0.890476,0.967085603008603,9.78663751504301,1.05465207893978,0.16065755,-0.050701816,-0.15790866,227.58908,-75.117645,10.079895,STD
5710040672000,0.895009,0.965066926682167,9.77654413341084,1.06878281322483,0.17104226,-0.05681047,-0.1518,227.62485,-75.16527,10.063357,STD
5710045592000,0.899929,0.962875908035341,9.7655890401767,1.08411994375262,0.17684549,-0.050396383,-0.14385876,227.65692,-75.2078,10.050183,STD
5710050654000,0.904991,0.960621652671472,9.75431776335736,1.0998997312997,0.17684549,-0.051923547,-0.15332718,227.6932,-75.252426,10.035068,STD
5710055645000,0.909982,0.958399015666124,9.74320457833062,1.11545819033713,0.18295415,-0.053145275,-0.15485434,227.72629,-75.29539,10.024461,STD
5710060663000,0.915,0.951817864846279,9.74254416504854,1.11169217022654,0.18600847,-0.055588737,-0.15241088,227.76006,-75.337715,10.012912,STD
5710065649000,0.919986,0.94323281460356,9.74683632038835,1.09881462847896,0.18387043,-0.055588737,-0.15271631,227.79327,-75.38,10.000556,STD
5710070633000,0.92497,0.936392973199525,9.74812205073504,1.08962192319952,0.19608775,-0.04917465,-0.15302174,227.81766,-75.42281,9.986448,STD
5710075660000,0.929997,0.931627089558482,9.74573930797406,1.08485603955848,0.18997909,-0.039095376,-0.1572978,227.84088,-75.46124,9.971396,STD
5710080644000,0.934981,0.926901972377865,9.74337694674058,1.08013092237786,0.183565,-0.045814894,-0.16432275,227.86797,-75.50509,9.9546585,STD
5710086842000,0.941179,0.921025913733109,9.7404391628471,1.07425486373311,0.18081611,-0.04428773,-0.15454891,227.88885,-75.544876,9.9409895,STD
5710090668000,0.945005,0.900803283083368,9.74992975341332,1.06847569863467,0.17501289,-0.050701816,-0.15454891,227.91621,-75.58762,9.921738,STD
5710095662000,0.949999,0.856281241037443,9.77466420686802,1.05858191725279,0.18448131,-0.06169739,-0.16218472,227.94398,-75.63152,9.903759,STD
5710100664000,0.955001,0.825215918039332,9.78863494351619,1.04206840229188,0.18784106,-0.053145275,-0.16279559,227.96762,-75.67291,9.885977,STD
5710105656000,0.959993,0.808721650288334,9.79099106712997,1.01850517319237,0.19303341,-0.05955936,-0.16462818,227.99875,-75.71729,9.867648,STD
5710110656000,0.964993,0.79220094941594,9.79335096658288,0.994904182507763,0.1740966,-0.06780604,-0.1600467,228.02661,-75.765114,9.840583,STD
5710115648000,0.969985,0.775706681664942,9.79570709019666,0.971340953408251,0.19333886,-0.0571159,-0.15515977,228.05055,-75.820816,9.813287,STD
5710120598000,0.974935,0.759542214811266,9.81122075397586,0.933157906744587,0.19394971,-0.05100725,-0.14782938,228.07762,-75.869736,9.786782,STD
5710125669000,0.980006,0.743258076585553,9.8461153358881,0.872673916181261,0.20433442,-0.03573562,-0.14508049,228.0986,-75.92321,9.76016,STD
5710130641000,0.984978,0.727291849952098,9.88032867867408,0.813370741051926,0.19730948,-0.02565634,-0.13164146,228.12964,-75.98057,9.731002,STD
5710135683000,0.99002,0.711100837344319,9.91502370569075,0.753232645918758,0.20738874,-0.016493361,-0.13408493,228.15681,-76.04458,9.698368,STD
5710140724000,0.995061,0.687395936042447,9.95113482001665,0.698273951995422,0.21594086,-0.0070249503,-0.12064589,228.16948,-76.100746,9.674873,STD
5710145657000,0.999994,0.643161491017478,9.99045460726176,0.658954436753017,0.22143865,0.01985312,-0.111177474,228.1747,-76.1581,9.649043,STD
5710150641000,1.004978,0.590953739421454,10.0267521876462,0.613244741683782,0.23426682,0.036651913,-0.115453534,228.19254,-76.23975,9.617708,STD
5710155668000,1.010005,0.522423339540417,10.0561221859685,0.554504392356889,0.22510384,0.050701816,-0.12156218,228.20294,-76.31437,9.588248,STD
5710160638000,1.014975,0.457478680031871,10.0819210512036,0.500058208189214,0.24220806,0.059864793,-0.13072516,228.21165,-76.40747,9.548884,STD
5710165635000,1.019972,0.397273228914703,10.1019895195421,0.451893859030445,0.2510656,0.07727446,-0.13194689,228.2138,-76.49428,9.510112,STD
5710171000000,1.025337,0.328857736046325,10.1239505979955,0.400055421544766,0.25717425,0.0842994,-0.14508049,228.21893,-76.60179,9.454764,STD
5710175658000,1.029995,0.189765814271715,10.1517689209354,0.352366763599109,0.2779437,0.10140363,-0.15607607,228.21608,-76.711044,9.399826,STD
5710180646000,1.034983,0.0408198061541203,10.1815580567929,0.301299561831626,0.2764165,0.089491755,-0.17654006,228.21562,-76.842186,9.324237,STD
5710185650000,1.039987,-0.0572488063076477,10.1829867106255,0.290671781392246,0.29718593,0.08368854,-0.1957823,228.20894,-76.980446,9.246769,STD
5710190674000,1.045011,-0.136329917907764,10.1736828629991,0.295323617772406,0.30451632,0.06688975,-0.21105394,228.20947,-77.11551,9.167758,STD
5710195660000,1.049997,-0.193522896701291,10.1398509997088,0.27845071077177,0.3145956,0.03481932,-0.226631,228.21107,-77.286285,9.054253,STD
5710200677000,1.055014,-0.240165776698379,10.0932083875837,0.250464977903116,0.31429017,0.0125227375,-0.2452624,228.21516,-77.455894,8.938709,STD
5710205660000,1.059997,-0.246944515889608,10.0428201589668,0.236512861918722,0.32650748,-0.007330383,-0.27152961,228.22418,-77.64221,8.8036995,STD
5710210686000,1.065023,-0.227481102250303,9.98929595182976,0.231647000887586,0.32986724,-0.01740966,-0.29657507,228.237,-77.82567,8.667581,STD
5710215633000,1.06997,-0.19725535368134,9.94356848110635,0.224090561671212,0.3387248,-0.025350908,-0.30451632,228.25381,-78.01998,8.524115,STD
5710220670000,1.075007,-0.159671891989677,9.90128721240748,0.214694697474679,0.33078352,-0.03023783,-0.3304781,228.27374,-78.21558,8.372281,STD
5710225661000,1.079998,-0.135515342931687,9.87241577155945,0.1889917320952,0.33536503,-0.02443461,-0.3286455,228.29298,-78.4036,8.23391,STD
5710230648000,1.084985,-0.121247407805218,9.85339147400916,0.150943906746664,0.33322698,-0.026572637,-0.33078352,228.31633,-78.590096,8.091069,STD
5710235652000,1.089989,-0.0952746547257083,9.81969661563484,0.122848425902623,0.33658674,-0.013439035,-0.34025195,228.33307,-78.77156,7.9568872,STD
5710240658000,1.094995,-0.0600605449788038,9.77442146915005,0.102726072973347,0.33841935,-0.0009162979,-0.34238997,228.34962,-78.94686,7.827456,STD
5710245658000,1.099995,-0.0398799637843873,9.74542589466508,0.0744238815345151,0.3408628,0.025045475,-0.3390302,228.36331,-79.12197,7.702505,STD
5710250696000,1.105033,-0.0275445414319073,9.72486687029146,0.0415294210692006,0.32742378,0.042760566,-0.3313944,228.37502,-79.28948,7.581079,STD
5710255661000,1.109998,-0.0153264745575014,9.69786978308995,0.00996847962573403,0.33169982,0.063224554,-0.31887165,228.37936,-79.45829,7.4670677,STD
5710260663000,1.115,-0.00287956201434288,9.65555046645533,-0.0199041095420672,0.33444872,0.07360926,-0.31337386,228.38104,-79.61972,7.3558683,STD
5710265628000,1.119965,0.00947528020412618,9.61354418754872,-0.0495557299375357,0.33261612,0.090713486,-0.3036,228.38055,-79.781555,7.2505164,STD
5710270671000,1.125008,0.0220242166205893,9.57087799126955,-0.0796731763935977,0.3481932,0.103847094,-0.29535335,228.37773,-79.9424,7.148846,STD
5710276270000,1.130607,0.0507917379811601,9.54256155964303,-0.115071718241349,0.3463606,0.1255328,-0.27550024,228.36658,-80.090935,7.0549846,STD
5710280646000,1.134983,0.0840356524045612,9.53425041398116,-0.144160144880516,0.35155296,0.16676621,-0.26267207,228.34592,-80.23971,6.962899,STD
5710287013000,1.14135,0.0869417033515409,9.54962650947468,-0.16510611527952,0.35155296,0.16890424,-0.20922135,228.33737,-80.37861,6.893202,STD
5710290664000,1.145001,0.0680787056133252,9.57084731606986,-0.167463988150246,0.34697145,0.16523905,-0.19120082,228.31964,-80.518265,6.81812,STD
5710295590000,1.149927,0.0426283832746645,9.59947883984085,-0.170645275951177,0.34116822,0.17531833,-0.15424347,228.30177,-80.637955,6.772696,STD
5710300670000,1.155007,-0.0160481552323193,9.61735297388242,-0.210444309181258,0.32467487,0.17989981,-0.13958271,228.28703,-80.75191,6.7279296,STD
5710305670000,1.160007,-0.109727182914996,9.62203701966155,-0.290071483200626,0.29046643,0.18875736,-0.124005646,228.26743,-80.85004,6.6947556,STD
5710310619000,1.164956,-0.18723892197366,9.72994168781302,-0.331429284340568,0.24129178,0.15851954,-0.102319926,228.25386,-80.94505,6.659312,STD
5710315630000,1.169967,-0.24510034687442,9.97919083555927,-0.322527523088481,0.21471913,0.13958271,-0.07941248,228.23453,-81.0314,6.629162,STD
5710320619000,1.174956,-0.318365998760004,10.1972308242326,-0.313446138346672,0.17623462,0.11453723,-0.06352998,228.22578,-81.128586,6.5845013,STD
5710325664000,1.180001,-0.435837344145477,10.3342809503596,-0.303656865527302,0.15454891,0.10354166,-0.052534413,228.21814,-81.217354,6.5463495,STD
5710330656000,1.184993,-0.536449138925092,10.4460318562311,-0.305325465750756,0.14782938,0.08857546,-0.06566802,228.21797,-81.31406,6.491292,STD
5710335708000,1.190045,-0.601456924104804,10.5029135240175,-0.333766359039301,0.16035213,0.07086037,-0.09132435,228.22182,-81.408195,6.437551,STD
5710341269000,1.195606,-0.670735214416225,10.5625005749132,-0.366429662599123,0.1826487,0.05681047,-0.12644911,228.21953,-81.52144,6.3562803,STD
5710346076000,1.200413,-0.679146630020099,10.5456778315366,-0.425309611350265,0.20250183,0.061086524,-0.16340645,228.21768,-81.63961,6.2692175,STD
5710350639000,1.204976,-0.687131087977343,10.5297089989951,-0.481200854568792,0.24770586,0.06536258,-0.20769419,228.21571,-81.79417,6.1540318,STD
5710355669000,1.210006,-0.672194795567429,10.4867733374889,-0.52919746539626,0.28344148,0.06811147,-0.24801129,228.2135,-81.95391,6.032262,STD
5710360642000,1.214979,-0.648634131740378,10.4349398869101,-0.571606616001781,0.310625,0.089491755,-0.2669481,228.20497,-82.121284,5.9065056,STD
5710365634000,1.219971,-0.635020989605625,10.3599406055271,-0.613997854223053,0.32284227,0.1142318,-0.3036,228.20221,-82.312035,5.7647977,STD
5710370660000,1.224997,-0.625553459823958,10.2747324074548,-0.656601834628246,0.3313944,0.14538592,-0.33628133,228.1914,-82.505554,5.6216254,STD
5710375658000,1.229995,-0.641296690649073,10.1562959163675,-0.811408381236053,0.32803464,0.18753563,-0.35918877,228.17694,-82.701,5.479096,STD
5710380662000,1.234999,-0.669193672649656,10.021460764723,-1.02063563700398,0.3381139,0.22876903,-0.3549127,228.15353,-82.89667,5.337956,STD
5710385693000,1.24003,-0.716451278819684,9.97383569373709,-1.11739191586373,0.34605515,0.2843578,-0.35643986,228.11626,-83.0969,5.1931643,STD
5710390700000,1.245037,-0.77538239134795,9.98090732435355,-1.14332161374496,0.3491095,0.28038713,-0.36560285,228.0842,-83.293686,5.051468,STD
5710395647000,1.249984,-0.833607319184446,9.98789421403992,-1.16894059026153,0.36468655,0.2855795,-0.35979962,228.05698,-83.51618,4.9118705,STD
5710400707000,1.255044,-0.893162228190444,9.99504069914463,-1.19514475868155,0.36102137,0.28924468,-0.36102137,228.03145,-83.73349,4.7713575,STD
5710405658000,1.259995,-0.954411578959603,10.1356434472569,-1.15816336975927,0.36774087,0.26725355,-0.33200526,228.01088,-83.94205,4.6450353,STD
5710410662000,1.264999,-1.01877677621139,10.3881533834074,-1.06904233138754,0.38789943,0.21502456,-0.3494149,227.99876,-84.15728,4.5089746,STD
5710416117000,1.270454,-1.00858582231144,10.4769803097218,-0.960514968448523,0.4089743,0.16187929,-0.37110063,227.98445,-84.39075,4.358614,STD
5710420634000,1.274971,-0.963098475102763,10.4645744281617,-0.865405135623745,0.42424592,0.115453534,-0.36560285,227.98264,-84.61859,4.2154803,STD
5710425649000,1.279986,-0.91159199005064,10.5215377080727,-0.79443941944792,0.44135013,0.069027774,-0.35155296,227.98242,-84.84832,4.059304,STD
5710430637000,1.284974,-0.859416425379803,10.6448618105451,-0.756493542526065,0.4905248,0.030848695,-0.39400807,227.99341,-85.09173,3.8931837,STD
5710435697000,1.290034,-0.738158829758942,10.659358348367,-0.770672280948678,0.5204572,0.014660766,-0.40622538,227.99852,-85.30001,3.7524762,STD
5710440746000,1.295083,-0.550160006738919,10.5653590031104,-0.836471871704899,0.5403103,0.01985312,-0.3717115,228.00783,-85.50786,3.6172216,FOL
5710445648000,1.299985,-0.429801047754907,10.5051795662997,-0.838995190952609,0.5519168,0.02321288,-0.36713,228.0213,-85.71526,3.480393,FOL
5710450662000,1.304999,-0.383828706636668,10.4821934125419,-0.765439450923887,0.5552765,0.027488936,-0.3857614,228.03238,-85.915764,3.3503528,FOL
5710455606000,1.309943,-0.325926615142612,10.4169339813031,-0.689845260087761,0.5491679,0.037873644,-0.3817908,228.06142,-86.08093,3.2679453,FOL
5710460668000,1.315005,-0.242687049478203,10.2689524496804,-0.606605708909663,0.5448918,0.028099801,-0.33444872,228.0943,-86.23374,3.1955261,FOL
5710465609000,1.319946,-0.199293419083187,10.1473723418626,-0.564450238765151,0.50488013,0.04642576,-0.30757064,228.109,-86.36756,3.1255758,FOL
5710470650000,1.324987,-0.269310360644359,10.0923589631203,-0.639468392302911,0.49510628,0.07880162,-0.3036,228.12204,-86.49309,3.0647054,FOL
5710475606000,1.329943,-0.390038341802873,10.043564752947,-0.763533813917781,0.46609017,0.058948494,-0.26816985,228.14462,-86.568855,3.0381,FOL
5710480689000,1.335026,-0.626320325423477,10.0049880809807,-0.999815772362556,0.42180246,0.06627888,-0.2312125,228.15028,-86.6356,3.013807,FOL
5710487453000,1.34179,-0.746634552745544,9.965386600419,-0.926811936845395,0.40133846,0.08246681,-0.23304509,228.16075,-86.71671,2.976743,FOL
5710490645000,1.344982,-0.709728372639017,9.95236096900078,-0.705374894743271,0.3539964,0.05100725,-0.22510384,228.18256,-86.773346,2.9543293,FOL
5710495656000,1.349993,-0.65179075718983,9.93191252318727,-0.357749262545984,0.3408628,0.10476339,-0.23793201,228.17932,-86.89137,2.8826404,FOL
5710500709000,1.355046,-0.736962847758773,10.0387046660781,-0.134041477932355,0.3408628,0.11026118,-0.26328292,228.19876,-87.00132,2.8120759,FOL
5710505561000,1.359898,-0.957451322139704,10.2643210598102,-0.0417439716869344,0.32284227,0.06291912,-0.3115413,228.2181,-87.11276,2.733103,FOL
5710510587000,1.364924,-1.09905437923144,10.4508840247176,0.0829364236985614,0.2968805,0.083383106,-0.35308012,228.17155,-87.18274,2.663208,FOL
5710515563000,1.3699,-1.19567871909819,10.6119244310128,0.220971157118664,0.29810223,0.07971791,-0.38881573,228.14568,-87.2633,2.5830724,FOL
5710520581000,1.374918,-1.01329775664647,10.4121919273026,0.602125396016018,0.26145032,0.1414153,-0.41080686,228.06403,-87.37544,2.4564579,FOL
5710525578000,1.379915,-0.639850453235445,9.96503764760242,1.1475550010268,0.21105394,0.08857546,-0.40530908,228.01654,-87.48406,2.3309717,FOL
5710530560000,1.384897,-0.339528663527461,9.32652979045947,1.4337762612233,0.129198,-0.080634214,-0.4184427,227.96196,-87.60055,2.1748886,FOL
5710535608000,1.389945,-0.0754326479504439,8.57196976002341,1.57997222095405,0.027183503,-0.052839845,-0.3857614,227.86623,-87.68528,2.035999,FOL
5710540580000,1.394917,0.160341768830799,7.627505198872,1.61523198470819,-0.09101892,0.06169739,-0.3555236,227.75954,-87.606094,1.9866341,FOL
5710545600000,1.399937,0.381975103661599,6.53820089774399,1.57750718941638,-0.2666427,0.094989546,-0.31490102,227.6669,-87.474686,1.9474366,FOL
5710550720000,1.405057,0.619145463568997,5.58227506931704,1.39545946979772,-0.47861293,0.15851954,-0.30543262,227.532,-87.24334,1.953799,FOL
5710555639000,1.409976,0.855017252238133,4.77559364910875,1.1171307655718,-0.63346726,0.15485434,-0.28710666,227.40625,-86.96958,1.9677918,FOL
5710560638000,1.414975,1.02862961708909,4.39032416415131,0.720075464073925,-0.6759224,0.14782938,-0.26908615,227.27846,-86.67838,1.9973106,FOL
5710565620000,1.419957,1.15230614086022,4.33077630215054,0.239111238817204,-0.7602218,0.0983493,-0.26908615,227.16397,-86.34098,2.0215988,FOL
5710570642000,1.424979,1.24871912864666,4.41198943662948,-0.108593997764188,-0.75869465,0.0571159,-0.23884831,227.10521,-86.05658,2.0789511,FOL
5710576424000,1.430761,1.32546094501421,4.67674886336359,-0.342656711173238,-0.7012733,0.056199603,-0.22571471,227.04898,-85.77082,2.129313,FOL
5710583043000,1.43738,1.42757708373766,5.00162752379497,-0.541758849739573,-0.6261369,0.160963,-0.22602014,227.02411,-85.52126,2.2458699,FOL
5710585695000,1.440032,1.55371655506527,5.2619922379879,-0.210238511829354,-0.59650993,0.1554652,-0.21685717,227.03137,-85.28072,2.3666162,FOL
5710590696000,1.445033,1.79158363504616,5.75297411418657,0.414924840315823,-0.61208695,0.31856623,-0.19639318,227.0006,-85.087944,2.510421,FOL
5710595636000,1.449973,2.02654931693091,6.23796720925183,1.03246272465839,-0.6056729,0.4538729,-0.2321288,226.98286,-84.92162,2.6376405,FOL
5710601390000,1.455727,2.39583015455303,6.62165040231298,2.07127037695353,-0.6062838,0.46181414,-0.23762658,226.95747,-84.74886,2.7746327,FOL
5710605660000,1.459997,2.73241528468431,6.78781274988539,3.05120183267347,-0.6621779,0.6038403,-0.258396,226.8604,-84.578,2.8874052,FOL
5710610662000,1.464999,2.89490293477012,6.9395833783046,3.76950550542385,-0.7489208,0.5222898,-0.2941316,226.78369,-84.3208,2.9713233,FOL
5710617044000,1.471381,2.85648393663793,7.08777117176724,4.23053376955819,-0.85062987,0.4978552,-0.32436943,226.65245,-84.051956,3.0447257,FOL
5710620714000,1.475051,2.76102633700264,7.25964931840633,4.38492923108179,-0.97310835,0.2843578,-0.34697145,226.53908,-83.63012,3.1060965,FOL
5710625663000,1.48,2.51091756183641,7.63481240280739,4.40994009292876,-1.0760391,0.105374254,-0.3998113,226.42896,-83.194855,3.1518857,FOL
5710630633000,1.48497,2.52772285388898,8.01354293531297,4.33828859967943,-1.1716396,-0.15241088,-0.44806966,226.36685,-82.680885,3.176056,FOL
5710635650000,1.489987,2.9168316226084,8.39859848945504,4.13157452926438,-1.1808025,-0.3631594,-0.46853364,226.34924,-82.16479,3.2010162,FOL
5710640760000,1.495097,3.31321910743276,8.79833160586797,3.91213728616137,-1.1068878,-0.5207626,-0.47403142,226.37273,-81.66061,3.181638,FOL
5710645695000,1.500032,3.69685799559902,9.27903583863081,3.58858633056235,-0.9663888,-0.5662721,-0.48258355,226.4302,-81.17663,3.1632972,FOL
5710651000000,1.505337,4.05650977756569,9.77527433325848,3.25179785695037,-0.763887,-0.7110472,-0.4633413,226.62852,-80.77189,3.2590036,FOL
5710655665000,1.510002,3.77157989557602,9.97793584549742,3.08124124556479,-0.5439755,-0.5925393,-0.43218717,226.76476,-80.41645,3.347536,FOL
5710660595000,1.514932,3.47046428609926,10.192109748035,2.90099599494723,-0.43860126,-0.5403103,-0.4175264,227.01874,-80.147545,3.532094,FOL
5710665627000,1.519964,3.1631186984954,10.4107148347631,2.71702153224792,-0.25717425,-0.64965516,-0.41080686,227.27893,-79.95951,3.7209902,FOL
5710671542000,1.525879,2.80184104534022,10.667680074826,2.50076379240961,-0.10415252,-0.31490102,-0.36071593,227.39108,-79.7886,3.898786,FOL
5710675659000,1.529996,2.3880689820979,10.5720944351648,2.39062161378621,0.06963864,-0.321926,-0.37904188,227.6333,-79.67558,4.077069,FOL
5710680633000,1.53497,1.79322588727273,10.2960866285714,2.28117050779221,0.09101892,-0.40011674,-0.4370741,227.79619,-79.56273,4.240926,FOL
5710687017000,1.541354,1.23737635763671,9.94726191011942,2.40507875424261,0.129198,-0.112399206,-0.48472157,227.81984,-79.611305,4.2658377,FOL
5710690664000,1.545001,0.984921283134297,9.74968856955793,2.55874712025979,0.09285152,-0.103847094,-0.537256,227.94499,-79.6527,4.287858,FOL
5710695653000,1.54999,-0.0592578363164271,10.1965389529167,2.3221278889389,0.05375614,-0.030848695,-0.6160576,227.93582,-79.74681,4.1687965,FOL
5710700647000,1.554984,-1.49148858319197,11.0409757701229,1.83781855187814,-0.029626964,-0.013439035,-0.63804877,227.9398,-79.81504,4.056648,FOL
5710705592000,1.559929,-2.38233652317299,11.5151268805735,1.52162430446809,-0.043982297,-0.30940324,-0.7415904,227.98213,-79.88155,3.8519244,FOL
5710710660000,1.564997,-2.16233398681776,11.2232864990749,1.54856342021277,-0.13622294,-0.23273966,-0.7101309,227.90916,-79.88671,3.6669397,FOL
5710715669000,1.570006,-1.94907303360184,11.0203034487917,1.45554237383199,-0.1337795,-0.41050145,-0.7837401,227.96217,-80.04798,3.199957,FOL
5710720679000,1.575016,-1.75582871455696,11.2273512594937,0.788389399177215,-0.13316862,-0.32070425,-0.79290307,227.912,-80.14969,2.7595491,FOL
5710725625000,1.579962,-1.53772485403451,11.3950617118628,0.168419803223511,0.009468411,-0.37140608,-0.820392,227.96007,-80.26374,2.362147,FOL
5710730629000,1.584966,-0.995859999923969,11.1334713806414,-0.00441640083146505,0.074830994,-0.035430185,-0.7816021,227.86852,-80.33337,1.9716002,FOL
5710735914000,1.590251,-0.426190079731233,10.8770047228916,-0.132305492100093,0.17684549,0.106595986,-0.81183994,227.93529,-80.54007,1.6284441,FOL
5710740898000,1.595235,0.0825256224003708,10.8504634216867,0.34102130186469,0.28008172,0.40103304,-0.73761976,227.85565,-80.74263,1.3130034,FOL
5710745591000,1.599928,0.561539023303985,10.8254717831325,0.786712041045412,0.42088616,0.48197266,-0.6826419,227.84703,-80.99204,1.0975147,FOL
5710750691000,1.605028,0.922059016064036,11.3854339027858,0.750226737759721,0.49571714,0.49296826,-0.64843345,227.77315,-81.238525,0.89372724,FOL
5710755637000,1.609974,1.24736849256046,12.0177253183401,0.635681166918166,0.49571714,0.6407976,-0.59620446,227.63582,-81.48991,0.7076256,FOL
5710760674000,1.615011,1.46294336761905,12.0943415397473,1.39770379708844,0.54641896,0.71837753,-0.5500842,227.5277,-81.68203,0.6253828,FOL
5710765648000,1.619985,1.6481135447619,12.0341609735666,2.3605889212517,0.61544675,0.7174612,-0.54153204,227.40369,-81.87136,0.5467582,FOL
5710770740000,1.625077,1.9206112693574,11.6806172389925,3.03410031326854,0.52870387,0.7651087,-0.50579643,227.27946,-82.060265,0.5434539,FOL
5710775688000,1.630025,2.21195735039667,11.2435980438318,3.58859775662436,0.50823987,0.752586,-0.514654,227.17836,-82.27941,0.5317941,FOL
5710780633000,1.63497,2.16985385110978,11.015196447328,3.85098240950999,0.5421429,0.7305948,-0.5357288,227.0232,-82.3447,0.5181366,FOL
5710785668000,1.640005,2.00519890630015,10.8587744625235,4.0115210247567,0.537256,0.71776664,-0.55680364,226.87254,-82.3914,0.49961242,FOL
5710790666000,1.645003,1.81990035703381,10.8624842375136,3.99598260811341,0.54825157,0.6627888,-0.59406644,226.73642,-82.39375,0.46578473,FOL
5710795657000,1.649994,1.60097887764449,11.1126797474373,3.7092998946783,0.54458636,0.59406644,-0.65301496,226.61116,-82.38989,0.42086804,FOL
5710800655000,1.654992,1.56716349504733,11.1630624726457,3.73013712030892,0.52839845,0.5907067,-0.67347896,226.46523,-82.351814,0.3390765,FOL
5710805629000,1.659966,1.68108886341804,11.0538842878924,3.99596279809666,0.5516113,0.5174029,-0.7199047,226.36389,-82.323845,0.24043185,FOL
5710810610000,1.664947,1.76554256231454,11.0210572878338,4.24164422551929,0.6227771,0.44440445,-0.7632761,226.28741,-82.32814,0.121913835,FOL
5710815629000,1.669966,1.82535475447497,11.0532635387193,4.47169107779267,0.72082096,0.3390302,-0.799928,226.24326,-82.34501,-0.0012891981,FOL
5710820637000,1.674974,1.93077988139558,11.0376610399028,4.66091257149078,0.8005389,0.23823744,-0.8362745,226.2038,-82.347885,-0.1281003,FOL
5710825660000,1.679997,2.09154981233543,10.964583867936,4.80219535831477,0.8894198,0.11575896,-0.90010995,226.2035,-82.378136,-0.26494223,FOL
5710830648000,1.684985,2.17168764067665,10.9496115932335,4.80716782642427,0.9810496,0.10476339,-0.9285152,226.19101,-82.40857,-0.4071117,FOL
5710835788000,1.690125,2.16690203383239,10.9974676616761,4.6635994212133,1.0488557,0.08552113,-0.9633345,226.21866,-82.45256,-0.55996996,FOL
5710840678000,1.695015,2.13532913209592,10.8922725759005,4.58521678395706,1.1954633,0.08979719,-1.0048733,226.2404,-82.529076,-0.7029517,FOL
5710845677000,1.700014,2.06808292715963,10.5896653057088,4.58041349076954,1.2980887,0.09865474,-1.0348058,226.26747,-82.60677,-0.8478519,FOL
5710850631000,1.704968,1.90687716912752,10.3187844697987,4.43168330402685,1.3151928,0.106595986,-1.044885,226.30153,-82.72127,-1.0001646,FOL
5710855628000,1.709965,1.61925639633377,10.0838939350897,4.09133214298307,1.3414601,0.122478485,-1.0845913,226.3326,-82.857025,-1.1655326,FOL
5710860622000,1.714959,1.42018723993112,9.82432190047353,3.88356546338356,1.3710871,0.1908954,-1.1178834,226.34142,-82.98537,-1.3457309,FOL
5710865663000,1.72,1.33705908839432,9.52921702978907,3.85031422012914,1.4486669,0.2302962,-1.1780536,226.35616,-83.12073,-1.5392793,FOL
5710870668000,1.725005,1.25043384048437,9.22740777295042,3.81383684380625,1.5244142,0.2669481,-1.2486086,226.3626,-83.27316,-1.7807992,FOL
5710875621000,1.729958,1.13400300243823,8.86259148208149,3.75174035902471,1.5619824,0.2733622,-1.3298537,226.36833,-83.41373,-2.0361886,FOL
5710880665000,1.735002,1.01543301513664,8.49107252970054,3.68850299394534,1.5931365,0.27885997,-1.4162911,226.3587,-83.54464,-2.3296306,FOL
5710887152000,1.741489,0.924134657201859,8.34617513939081,3.60563556303562,1.6374242,0.3286455,-1.5351044,226.33772,-83.65191,-2.6492624,FOL
5710890653000,1.74499,0.886053862684564,8.32886534228188,3.56063095812081,1.7067575,0.3463606,-1.575116,226.32411,-83.74569,-2.9620695,FOL
5710895647000,1.749984,0.857666434652977,8.28423177312667,3.48467083335966,1.7336355,0.3494149,-1.6282613,226.29745,-83.78441,-3.3337016,FOL
5710900658000,1.754995,0.838715168071873,8.232115691085,3.40412799986178,1.781894,0.3173445,-1.6676621,226.27611,-83.80565,-3.7032359,FOL
5710905685000,1.760022,0.864415899535917,8.1745114393882,3.31033707022028,1.8353447,0.31215215,-1.707063,226.24646,-83.791046,-4.089751,FOL
5710910679000,1.765016,0.908181639009086,8.11511512297536,3.21186414824498,1.920255,0.31490102,-1.7418822,226.22388,-83.74908,-4.4758115,FOL
5710915694000,1.770031,0.952131415432381,8.05546904231649,3.11297714309759,1.9898936,0.32589662,-1.7742581,226.19864,-83.67464,-4.8731422,FOL
5710920702000,1.775039,0.996019846205634,7.9959062164063,3.01422816567423,2.065641,0.29749137,-1.8002199,226.168816816615,-83.563173869796,-5.24232769687995,FOL
5710926431000,1.780768,1.04622687893326,7.92776815138244,2.90126233267534,2.1343632,0.35033122,-1.8078557,226.1347,-83.43566,-5.6646647,FOL
5710930678000,1.785015,1.08344616118047,7.87725630600693,2.81751894067913,2.2033908,0.3707952,-1.8102992,226.10266,-83.26914,-6.056046,FOL
5710935625000,1.789962,1.22271411206005,7.72313176946952,2.91841505093823,2.2247713,0.32375857,-1.8127426,226.08745,-83.08836,-6.4427924,FOL
5710940668000,1.795005,1.43335621691855,7.49779360864185,3.16334771435237,2.2870796,0.29565877,-1.8078557,226.05928,-82.88238,-6.8170724,FOL
5710945660000,1.799997,1.5356600483831,7.21817350247067,3.19417146839645,2.3603833,0.26511553,-1.817935,226.03271,-82.64205,-7.1852775,FOL
5710950655000,1.804992,1.57216576501956,6.90331201215301,3.09378083103119,2.447737,0.24098633,-1.8176296,226.01071,-82.37916,-7.5392,FOL
5710955662000,1.809999,1.61757301991267,6.53918152924452,2.95183767812754,2.489276,0.19914207,-1.8399261,225.98807,-82.08247,-7.890669,FOL
5710961263000,1.8156,1.67748739693339,6.08165353858652,2.75030757843217,2.5943446,0.2556471,-1.8524488,225.94214,-81.767624,-8.230917,FOL
5710965622000,1.819959,1.67778507504521,5.79882804699724,2.62431669180546,2.6875017,0.33200526,-1.8704693,225.8979,-98.58841,-8.58057,FOL
5710970674000,1.825011,1.64555185334539,5.5225435093747,2.49998868834111,2.7586675,0.37598756,-1.883603,225.8446,-98.96929,-8.92373,FOL
5710975661000,1.829998,1.61061825502383,5.22653820503904,2.35621400770557,2.8634307,0.3707952,-1.9138408,225.77623,-99.39818,-9.276798,FOL
5710980701000,1.835038,1.57146824224881,4.89865669474805,2.18493259961472,2.9767463,0.39858958,-1.9443841,225.68266,-99.8563,-9.6246805,FOL
5710985627000,1.839964,1.56826748593341,4.54797299925178,2.0804959701459,3.0757065,0.514654,-1.9336939,225.55782,-100.3615,-9.978163,FOL
5710990669000,1.845006,1.60439634908343,4.15507128239805,2.04436701268238,3.1929927,0.54458636,-1.9740111,225.44553,-100.917496,-10.346298,FOL
5710995671000,1.850008,1.61963641105824,3.81860585360505,1.99039170222406,3.3215797,0.569021,-2.022575,225.29143,-101.53307,-10.7240095,FOL
5711000734000,1.855071,1.5945576180511,3.58286498984173,1.90010799502431,3.4553592,0.591623,-2.0616703,225.12433,-102.18612,-11.100361,FOL
5711005592000,1.859929,1.52653411068886,3.45284126468793,1.75142750495608,3.5983016,0.59956425,-2.1068742,224.94029,-102.90694,-11.496449,FOL
5711010661000,1.864998,1.38738567833565,3.46630722840499,1.50006270829404,3.7458258,0.58032197,-2.1890357,224.74974,-103.67818,-11.90467,FOL
5711015602000,1.869939,1.20376348780455,3.43027732844873,1.2347992451346,3.8826594,0.5290093,-2.2382102,224.55399,-104.50882,-12.32328,FOL
5711020692000,1.875029,0.851457023857756,3.22604175821724,0.892704487723892,4.044539,0.4908302,-2.2797492,224.35036,-105.39332,-12.753288,FOL
5711025592000,1.879929,0.501394128594122,3.02367716163622,0.602258702001588,4.1685443,0.45662177,-2.3017402,224.14671,-106.3561,-13.207681,FOL
5711031301000,1.885638,0.0671289258766878,2.77397461608419,0.357984513073868,4.2293253,0.4437936,-2.3301454,223.93771,-107.35144,-13.665041,FOL
5711035716000,1.890053,-0.240371708354701,2.56166281570513,0.172136972724359,4.26445,0.4541783,-2.3377812,223.72202,-108.453445,-14.175869,FOL
5711040759000,1.895096,-0.537060871939103,2.28217299399038,-0.0342554933894231,4.2562037,0.4841107,-2.345417,223.49509,-109.562546,-14.680516,FOL
5711045681000,1.900018,-0.816398359327491,2.01801352117689,-0.241253820045609,4.209778,0.52198434,-2.3377812,223.2854,-110.73825,-15.247568,FOL
5711050650000,1.904987,-0.97385897486675,1.85629723398319,-0.51787383292792,4.154495,0.6365216,-2.3261747,223.03992,-111.89401,-15.787853,FOL
5711055642000,1.909979,-1.13204842803076,1.69383241094616,-0.795774236290467,4.1453314,0.7504479,-2.2815816,222.85236,-113.08167,-16.371178,FOL
5711060660000,1.914997,-1.2606171584011,1.50579642278828,-1.03074104204957,4.139834,0.8509353,-2.2046127,222.63672,-114.20836,-16.898127,FOL
5711065609000,1.919946,-1.38134662426766,1.31541527299892,-1.25362631423533,4.1621304,0.95386606,-2.0955732,222.39468,-115.28498,-17.36118,FOL
5711070641000,1.924978,-2.27140942199178,0.976630420990407,-1.58916727099132,4.2082505,0.9773844,-1.9269744,222.04233,-116.49463,-17.835045,FOL
5711075596000,1.929933,-3.35530804369118,0.603769332973047,-1.9490215994518,4.272697,0.95264435,-1.6985108,221.69327,-117.661194,-18.237795,FOL
5711080960000,1.935297,-4.65567672112166,-0.269071062429681,-2.66003870805867,4.370741,0.90224797,-1.4150693,221.29784,-118.94441,-18.635872,FOL
5711087094000,1.941431,-6.23198606060397,-1.59702296115444,-3.6990849597239,4.4727554,0.80878556,-0.94134337,220.97224,-120.15309,-18.913103,FOL
5711090607000,1.944944,-7.1592295164768,-2.89740749749379,-4.40248855015534,4.624861,0.7959574,-0.8011498,220.59929,-121.62503,-19.424076,FOL
5711095650000,1.949987,-8.5446839339478,-5.96341288811102,-5.65289857222452,4.653877,0.82863873,-0.5751296,220.31357,-122.977005,-19.77665,FOL
5711101209000,1.955546,-9.73976281101614,-8.84941961704653,-7.00983372148623,4.629442,0.84665924,-0.47403142,219.98824,-124.71545,-20.410349,FOL
5711105665000,1.960002,-10.3273948135486,-10.6123159772871,-8.07365057814973,4.3789873,0.97035944,-0.30207285,219.67307,-126.32655,-20.917934,FOL
5711110633000,1.96497,-10.9825464716683,-12.5777713448085,-9.25970132857708,3.8081338,1.0567969,0.0015271631,219.3632,-128.2739,-21.642155,FOL
5711115745000,1.970082,-11.2763809062652,-13.9623472540068,-11.2597294672171,3.0060678,1.0409144,0.4269948,219.10585,-129.9624,-22.210226,FOL
5711120610000,1.974947,-11.480033728509,-15.152583326372,-13.3188824205925,2.0277672,1.2098186,0.95447695,218.86458,-131.32869,-22.571527,FOL
5711125661000,1.979998,-11.2168604041087,-15.3627634456008,-14.3043102582781,0.91965765,1.4388931,1.5745052,218.59093,-132.86519,-22.939163,FOL
5711130806000,1.985143,-10.7973200398703,-15.2495539754021,-14.9402799602649,0.011911872,1.6389514,2.2482896,218.41708,-134.01399,-23.07021,FOL
5711135927000,1.990264,-10.3797367152318,-15.1368725960265,-15.5732830397351,-0.5348125,1.9373591,2.9535334,218.17812,-135.26614,-22.91598,FOL
5711140666000,1.995003,-11.196839657864,-13.8542505321559,-14.7624024648451,-0.74036866,2.3900104,3.5698965,218.01929,-136.18745,-22.509455,FOL
5711145664000,2.000001,-12.2734402514995,-12.2911855718094,-13.657889431856,-0.6936375,2.649017,3.7904189,217.9474,-136.91501,-21.974712,FOL
5711150722000,2.005059,-12.757549591623,-10.5718573589529,-12.5957868219895,-0.6243043,3.2262847,3.9758165,217.82121,-137.58694,-20.999214,FOL
5711155669000,2.010006,-12.4003658314136,-8.7016031379267,-11.6333751675393,-0.45234573,3.7394116,3.8380663,217.69855,-138.27618,-19.990084,FOL
5711160722000,2.015059,-11.8366260918408,-6.74692556087899,-11.1642811567797,-0.34788775,4.157854,3.5918877,217.52869,-138.73996,-19.14955,FOL
5711165639000,2.019976,-11.0988280130075,-4.80266478265668,-11.1967625254237,-0.32895094,4.5390344,3.320358,217.2682,-139.24112,-18.233292,FOL
5711170688000,2.025025,-10.3261257756874,-2.59814190698263,-11.4822443581766,-0.3042109,4.830417,3.069598,216.95074,-139.57965,-17.288078,FOL
5711175656000,2.029993,-9.54906771821377,-0.198115357757908,-12.0429068324375,-0.204029,5.0258937,2.7974575,216.54773,-139.98587,-16.3416,FOL
5711180669000,2.035006,-8.3033091078227,2.27696860556482,-12.1902958439628,0.0018325958,5.0695705,2.3924537,216.08095,-140.31313,-15.31456,FOL
5711185693000,2.04003,-6.65204798457691,4.80400003032514,-11.973024423093,0.2657264,4.7891836,1.8023579,215.5689,-140.73877,-14.413942,FOL
5711190673000,2.04501,-5.01524854314298,7.30889981044185,-11.7576558570238,0.5870415,3.765068,1.1475104,215.13335,-141.1236,-13.624888,FOL
5711195685000,2.050022,-3.34622472074267,9.98545862121652,-10.9069759545499,0.9975429,1.8289305,0.52870387,214.81972,-141.65294,-13.218677,FOL
5711200654000,2.054991,-1.68037532715405,12.7189242132289,-9.73812021322889,1.3881912,-0.40042216,-0.05100725,214.62509,-142.31062,-13.228498,FOL
5711205559000,2.059896,-0.810703385233031,13.711896987759,-9.62440362765264,1.5238034,-1.8188512,-0.64751714,214.61081,-142.70778,-13.354748,FOL
5711210613000,2.06495,-0.497466422117594,13.4520803634676,-10.2897286379371,1.3625349,-1.7867808,-1.1795808,214.62018,-143.1586,-13.726531,FOL
5711215562000,2.069899,-0.190737152141675,13.1976615914815,-10.9412311064566,1.0870347,-0.977079,-1.568702,214.60399,-143.27345,-14.061379,FOL
5711220588000,2.074925,0.120764426136557,12.9392843944715,-11.6028701056038,0.84513205,-0.42363504,-1.7993035,214.54797,-143.38924,-14.493977,FOL
5711225578000,2.079915,0.93530614382691,10.9712399750217,-10.5998939881773,0.679893,-0.43463063,-1.9960022,214.35945,-143.49298,-14.9168625,FOL
5711230583000,2.08492,2.11126554643002,7.78133462410895,-8.41464688472906,0.42088616,-0.6453791,-2.2953262,214.03403,-143.53848,-15.309484,FOL
5711235593000,2.08993,2.85047038148639,5.717520783403,-7.38777171328372,-0.043676864,-0.4370741,-2.4959953,213.60522,-143.6536,-15.468057,FOL
5711240584000,2.094921,3.17695169313895,4.71858533724131,-7.45111879396473,-0.63316184,-0.27305678,-2.4275784,213.21796,-143.66475,-15.686957,FOL
5711245578000,2.099915,3.26675412648685,3.99695711405841,-7.43846933064907,-0.8671232,-0.10293079,-2.3350325,212.73506,-143.8136,-15.811032,FOL
5711250789000,2.105126,3.16023389492578,3.47888118269137,-7.36100000698554,-1.1297953,-0.30757064,-2.1798725,212.3239,-143.78096,-15.95655,FOL
5711255596000,2.109933,2.97059849527488,2.92841861481145,-7.60998469922762,-1.2116512,-0.72295904,-2.0952678,211.9049,-143.83745,-16.055893,FOL
5711260606000,2.114943,2.68285045411177,2.2831655323035,-8.18548096365289,-1.2663237,-1.1142182,-2.0039434,211.55962,-143.81409,-16.165222,FOL
5711265576000,2.119913,2.2132001957913,1.57698812475865,-9.2673843778067,-1.4343116,-1.4062119,-1.9022343,211.27238,-143.78615,-16.343382,FOL
5711270615000,2.124952,1.28144618858878,0.697579838778609,-11.628176374878,-1.6792686,-1.3249667,-1.754405,211.02173,-143.71036,-16.49654,FOL
5711275591000,2.129928,0.543222274033614,-0.255596118487395,-13.6613545378151,-1.831374,-0.9611965,-1.6010778,210.73427,-143.77052,-16.649183,FOL
5711280602000,2.134939,0.0233413636286322,-1.31965137586818,-15.3424646243799,-1.5195273,-0.5140431,-1.3393221,210.48006,-143.86163,-16.716066,FOL
5711286981000,2.141318,-2.75058700165881,0.552344378033875,-17.0360489584425,-0.46395215,0.3191771,-0.8378017,210.12254,-144.31448,-16.560116,FOL
5711290609000,2.144946,-5.1682131697084,2.90020204407194,-17.8217022725685,2.1050417,0.36346483,-0.68508536,209.8159,-145.25429,-16.499502,FOL
5711295547000,2.149884,-8.15056585583433,5.62457160364795,-18.731909662047,3.1129694,-0.44532076,-0.38026363,209.63199,-146.19563,-16.343378,FOL
5711300855000,2.155192,-9.79845992831541,6.17117058767025,-18.9060112164875,5.2198434,-2.3432791,-0.20830505,209.64018,-148.08578,-16.44468,FOL
5711305713000,2.16005,-11.3066493412983,6.67143017025886,-19.0653528426125,7.286706,-4.208556,-0.3417791,209.74332,-149.9095,-17.209589,FOL
5711310629000,2.164966,-12.4507789142857,6.185522786,-19.1676782657143,8.203615,-5.4586916,-0.80848014,209.98897,-151.93713,-18.287855,FOL
5711316694000,2.171031,-13.6507424967033,5.03662174933333,-19.2612920961172,7.377725,-6.085745,-1.2186762,210.36853,-153.97746,-19.650082,FOL
5711321277000,2.175614,-14.4843070898258,4.11492448838327,-19.2748511836934,5.4788504,-6.2711425,-1.3854424,210.71823,-155.86734,-21.431747,FOL
5711325708000,2.180045,-14.5316212151916,2.6688873385784,-18.6952535339373,3.4132094,-6.4311895,-1.4926492,211.0165,-157.4604,-23.34849,FOL
5711330717000,2.185054,-14.5851072124739,1.03422245855749,-18.040050503554,1.7201965,-6.8645983,-1.6050484,211.2236,-158.79712,-25.53483,FOL
5711335688000,2.190025,-14.5052068977262,-0.607655710041763,-17.1516565870998,0.41813725,-7.500509,-1.6667458,211.4381,-159.68147,-27.755968,FOL
5711340711000,2.195048,-13.0810519071926,-2.46486117517401,-13.8479737795824,-0.66431594,-7.7802854,-1.6584991,211.64084,-160.19112,-29.937544,FOL
5711345590000,2.199927,-11.6977247722506,-4.26882403887703,-10.6390013690951,-1.6560557,-7.998059,-1.6398678,211.78377,-160.641,-32.33467,FOL
5711350699000,2.205036,-10.6851775152253,-4.51106866248477,-8.99954655550142,-2.118786,-7.603745,-1.6123788,211.87564,-160.97108,-34.588142,FOL
5711355546000,2.209883,-9.76170151187576,-4.60058923973812,-7.59077505795777,-2.8814514,-6.6196413,-1.63437,211.90419,-161.03436,-36.694958,FOL
5711360605000,2.214942,-9.36131808444799,-4.83310194370134,-4.95100260874426,-3.3863316,-5.1477613,-1.7672331,211.68222,-161.19202,-38.670837,FOL
5711365562000,2.219899,-9.0059163256139,-5.07003644959074,-2.28785698123378,-3.6047158,-3.440393,-1.999362,211.21127,-161.31395,-40.322376,FOL
5711370586000,2.224923,-11.0564811465123,-7.05789793326199,-0.910988338350034,-3.6545014,-1.7143933,-2.3032675,210.44254,-161.40378,-41.614304,FOL
5711375527000,2.229864,-13.2339196162078,-9.129457007491,0.354964186753575,-3.6673295,0.18081611,-3.057075,209.10362,-161.62668,-42.498123,FOL
5711380559000,2.234896,-14.8040705963885,-10.3406287061981,-2.8465429537101,-3.7546833,1.783421,-4.074166,207.20538,-161.87328,-43.16383,FOL
5711385565000,2.239902,-16.2734329868228,-11.4169138199122,-6.67437532732064,-3.6774087,3.3509014,-5.2057934,204.69571,-162.33386,-43.45298,FOL
5711390661000,2.244998,-14.8455357425259,-8.55530987484238,-8.37357650673175,-3.098614,5.5594845,-5.9794545,201.22241,-163.20238,-43.522495,FOL
5711395537000,2.249874,-12.927152528371,-5.0699286628432,-9.58443774179378,-1.1976013,7.2219543,-5.9421916,197.61392,-164.36479,-43.31701,FOL
5711400743000,2.25508,-11.1842255625402,-1.7971944794688,-4.18120421634041,1.1731668,7.5695367,-5.343849,193.83119,-166.09464,-42.815266,FOL
5711405665000,2.260002,-9.58136660490764,1.23090889740833,1.91399096553626,2.9724703,6.1700444,-4.59279,190.3475,-167.9648,-42.21365,FOL
5711410675000,2.265012,-7.51962492836971,3.68191963080873,5.72327922849807,3.7586539,3.34632,-3.775758,187.82288,-169.57253,-41.45418,FOL
5711415663000,2.27,-5.29162623883611,5.86494965412067,8.53996035472828,3.887852,0.03573562,-2.9248228,185.87904,-171.21637,-41.11418,FOL
5711420657000,2.274994,-2.68056815615301,7.7905680410929,8.47081442168306,3.8234055,-2.535396,-2.0668626,184.7546,-172.3844,-41.59991,FOL
5711425633000,2.27997,0.564083273967213,9.26967071737705,3.51790344236066,3.9898663,-3.897931,-1.1899655,184.109,-173.44714,-42.616997,FOL
5711430638000,2.284975,3.01024543631579,10.2594758148178,-0.30170818042915,4.623639,-4.419305,-0.2941316,184.17819,-174.14479,-44.08898,FOL
5711435707000,2.290044,4.77122404,10.8255049815385,-3.15150617815385,5.2974234,-4.5161266,0.55924714,184.66684,-174.69064,-45.798935,FOL
5711440728000,2.295065,6.28298959756435,11.2279386183227,-5.91440856346526,5.656001,-4.488638,1.1911873,185.73479,-174.98868,-46.930157,FOL
5711446660000,2.300997,5.08274963243842,9.67129512870191,-8.40923055324292,5.5713964,-4.1508293,1.2654073,186.95735,-175.23584,-47.987896,FOL
5711450671000,2.305008,4.27119155756989,8.61875011237199,-10.096137330215,5.3139167,-3.7965274,1.0906999,188.49538,-175.33133,-48.491676,FOL
5711455634000,2.309971,1.55931223539502,6.92405463162143,-10.052105493593,4.377155,-3.8835757,0.7666359,190.02518,-175.28116,-49.021732,FOL
5711461260000,2.315597,-1.87204822384486,4.88505251605818,-9.7659531089344,2.9287934,-3.6664133,0.40194935,191.43677,-175.12306,-49.367718,FOL
5711465642000,2.319979,-7.70163708964084,1.83323781638468,-9.91958194479074,0.818254,-2.948952,0.29901853,192.58865,-174.84308,-49.454994,FOL
5711470617000,2.324954,-14.3201228512417,-1.63156778171564,-10.0940008079549,0.27763826,-1.6420058,0.12675454,193.25262,-174.78883,-49.535664,FOL
5711476318000,2.330655,-16.1871339373394,-2.85540661541807,-7.99997485566318,-0.6249151,0.060170226,0.061086524,193.8447,-174.2786,-49.285564,FOL
5711480616000,2.334953,-17.1390716969757,-3.55918929033406,-6.2384841158727,-1.2699889,1.5039502,0.07666359,194.30975,-173.74196,-48.736187,FOL
5711487042000,2.341379,-17.7156048645418,-5.14037963027888,-4.05419430358566,-1.6643023,2.0803015,0.18692477,194.05463,-173.62599,-48.61968,FOL
5711490602000,2.344939,-17.9809477312147,-6.05012745460947,-2.87278569281942,-1.9349157,1.9538525,0.18661933,193.71355,-173.43085,-48.312,FOL
5711495649000,2.349986,-17.3274672027193,-7.13095421504107,-2.29085168469455,-1.9520199,1.4709635,0.108123146,193.26588,-173.28809,-48.272564,FOL
5711500705000,2.355042,-16.2485134132754,-8.12761526717968,-2.15826838430743,-1.8848248,0.86498517,-0.030848695,192.8195,-173.12144,-48.31199,FOL
5711505661000,2.359998,-15.1725773775266,-8.88757953073557,-3.57816571140863,-1.6884315,0.29168814,-0.1301143,192.21686,-173.12454,-48.69721,FOL
5711510668000,2.365005,-14.0734696694103,-9.51207210210461,-6.03617019383205,-1.3607023,-0.02321288,-0.16462818,191.62114,-173.17339,-49.174145,FOL
5711515632000,2.369969,-12.9661715418737,-9.28911840530094,-7.45727250174857,-0.85918194,0.007330383,-0.09865474,190.9058,-173.43523,-49.651463,FOL
5711520692000,2.375029,-11.8289591270017,-8.65584725124241,-8.41609896134732,-0.20830505,0.226631,0.13591751,190.265,-173.74359,-50.14664,FOL
5711525657000,2.379994,-10.7907040016717,-7.81603120954407,-9.27522779604863,0.3549127,0.4728097,0.49632803,189.61607,-174.21654,-50.31065,FOL
5711530752000,2.385089,-9.80197382512664,-6.73831523193516,-10.0760993345491,0.73639804,0.7819075,0.83016586,189.0578,-174.7117,-50.37924,FOL
5711535741000,2.390078,-9.15596394431169,-5.59183243503377,-10.3145136712208,0.95203346,1.1630874,1.0873401,188.7349,-175.1421,-50.13275,FOL
5711540668000,2.395005,-8.77848433480519,-4.3858591681039,-10.108615492987,1.0317514,1.3344351,1.1701124,188.49942,-175.57239,-49.85414,FOL
5711545658000,2.399995,-8.73768841726757,-3.05501427782906,-9.42050972709355,1.026559,1.5848899,1.2351695,188.52286,-175.85698,-49.27337,FOL
5711550659000,2.404996,-8.91727196644553,-1.65057706735891,-8.42128723242957,0.91507614,1.7272215,1.1881329,188.5497,-176.14049,-48.68415,FOL
5711555663000,2.41,-9.01259308205655,-0.235361957501285,-7.14052710769152,0.6374379,1.7574593,1.0167851,188.7157,-176.25435,-48.046913,FOL
5711560660000,2.414997,-9.03227638066838,1.18676481971208,-5.61014162289974,0.15210545,1.572978,0.7657196,188.83844,-176.33513,-47.443794,FOL
5711565628000,2.419965,-8.87851903212357,2.1784136358192,-4.64900287088032,-0.39645153,1.1963795,0.4868596,189.02425,-176.19687,-47.009453,FOL
5711570677000,2.425014,-8.59443874320099,2.87486967206482,-4.08542323308064,-0.89461213,0.7281514,0.18875736,189.10468,-176.03448,-46.669926,FOL
5711575635000,2.429972,-8.18534816628991,3.28791062754313,-3.81678282861392,-1.2250903,0.31703907,-0.05955936,189.23691,-175.62749,-46.56507,FOL
5711580681000,2.435018,-7.61998023791394,3.3981094440809,-3.86948666264129,-1.3307699,0.064446285,-0.22143865,189.28355,-175.22731,-46.560764,FOL
5711585633000,2.43997,-7.07067609905307,3.28544833888341,-3.91260547910831,-1.258077,-0.04642576,-0.28405234,189.33961,-174.8133,-46.69641,FOL
5711590674000,2.445011,-6.51828960414283,2.89973019238509,-3.94593912890116,-1.0861185,-0.07360926,-0.3005457,189.3533,-174.4328,-46.884895,FOL
5711595588000,2.449925,-6.02655808488728,2.46456403975927,-4.04968832199083,-0.84299403,-0.052839845,-0.28252518,189.38426,-174.09482,-47.036377,FOL
5711600664000,2.455001,-5.58539185932365,1.9305206885556,-4.25866178194497,-0.59498274,-0.030543262,-0.24984388,189.41527,-173.79819,-47.19518,FOL
5711605591000,2.459928,-5.22769678575228,1.4218274100019,-4.50906586420023,-0.3747658,-0.0009162979,-0.21899518,189.42978,-173.57974,-47.28789,FOL
5711610662000,2.464999,-5.01089323237082,0.919027789475684,-4.86886733073708,-0.19547687,0.05131268,-0.18051068,189.45647,-173.39719,-47.366657,FOL
5711615602000,2.469939,-4.84054111729285,0.447936303695317,-5.24495018579516,-0.06383542,0.13347405,-0.15454891,189.44753,-173.28754,-47.353687,FOL
5711620667000,2.475004,-4.81557637617087,0.0335213038960371,-5.72427358028821,0.033292156,0.2312125,-0.13469578,189.44566,-173.20274,-47.321613,FOL
5711625598000,2.479935,-4.80326043967997,-0.319295421805752,-6.19280205356492,0.09254608,0.34116822,-0.11942416,189.40605,-173.18655,-47.199886,FOL
5711630647000,2.484984,-4.82284855521572,-0.544558919210047,-6.67760827101479,0.10323623,0.41874814,-0.09773844,189.37546,-173.17464,-47.060566,FOL
5711635661000,2.489998,-4.85393095532884,-0.750567053526149,-7.2175334568542,0.10842858,0.44318274,-0.090713486,189.28844,-173.2406,-46.856678,FOL
5711640760000,2.495097,-4.91197223192353,-0.919854358577655,-7.89951995937005,0.09101892,0.5021312,-0.08093964,189.20927,-173.2975,-46.622417,FOL
5711646196000,2.500533,-5.06141918082902,-1.11325164976684,-8.45102398756477,0.093767814,0.5757405,-0.059864793,189.11667,-173.38779,-46.32528,FOL
5711650648000,2.504985,-5.30810380880829,-1.28998094064767,-8.65352616787565,0.07360926,0.6582073,-0.03359759,189.03299,-173.46515,-46.011703,FOL
5711656003000,2.51034,-5.60620574361613,-1.49978647017117,-8.88998583921055,0.08674286,0.75961095,0.004276057,188.95567,-173.56458,-45.599293,FOL
5711660662000,2.514999,-5.89417386633617,-1.62498998094659,-8.94841399607146,0.11453723,0.84696466,0.055588737,188.89941,-173.65291,-45.171696,FOL
5711665628000,2.519965,-6.20111735151062,-1.75844364793752,-9.01069221606959,0.15821409,0.90102625,0.122783914,188.81943,-173.77504,-44.73408,FOL
5711670650000,2.524987,-6.43836893728643,-1.86159651298492,-8.88883984582915,0.18478674,0.8924741,0.19761491,188.77127,-173.88525,-44.294243,FOL
5711675592000,2.529929,-6.65717437306533,-1.95672931762814,-8.73187075045226,0.2098322,0.838718,0.2733622,188.7586,-173.98856,-43.856533,FOL
5711680659000,2.534996,-6.86941852626982,-1.88348901022641,-8.43731785892479,0.23884831,0.7318166,0.34238997,188.75204,-174.10846,-43.47511,FOL
5711687127000,2.541464,-7.13729634331383,-1.74692387870771,-8.0276223546765,0.24648413,0.5525276,0.4007276,188.78474,-174.21448,-43.13356,FOL
5711690663000,2.545,-7.15540781325301,-1.55193717986231,-7.90937085111876,0.19975294,0.49754974,0.40378192,188.7929,-174.32452,-42.835495,FOL
5711695654000,2.549991,-7.09982113988929,-1.20062960062102,-7.80931489478532,0.18203785,0.39584067,0.38515055,188.83139,-174.4332,-42.604267,FOL
5711700680000,2.555017,-7.04384465815695,-0.846858433867516,-7.70855728377913,0.11789699,0.321926,0.36468655,188.8674,-174.50072,-42.457417,FOL
5711705633000,2.55997,-6.98868120530772,-0.498225606782342,-7.60926312394753,0.00580322,0.269697,0.3371976,188.89932,-174.558,-42.336285,FOL
5711710640000,2.564977,-6.92422982798208,-0.142286283434758,-7.52242515755087,-0.10476339,0.23548855,0.30879238,188.92041,-174.60577,-42.231197,FOL
5711715752000,2.570089,-6.81913347293261,0.236974585417211,-7.49500863412358,-0.25534168,0.24190263,0.27366763,188.92996,-174.62718,-42.132206,FOL
5711720637000,2.574974,-6.72100769692873,0.600108611342057,-7.46693664410079,-0.36987892,0.25870144,0.23060162,189.03545,-174.50502,-42.04319,FOL
5711725659000,2.579996,-6.674197682178,0.990192371731373,-7.39412117421867,-0.48899764,0.29168814,0.16829337,189.11563,-174.3646,-41.951565,FOL
5711730666000,2.585003,-6.64209283556291,1.35431276205298,-7.31616034470199,-0.5656612,0.32498032,0.13225232,189.25562,-174.13487,-41.839745,FOL
5711735647000,2.589984,-6.66917057886471,1.61606487754021,-7.2168751602649,-0.6096435,0.34208453,0.110872045,189.37012,-173.90517,-41.72829,FOL
5711740645000,2.594982,-6.69725767846029,1.86642738540336,-7.11627653604641,-0.61636305,0.37904188,0.06872234,189.48035,-173.629,-41.598118,FOL
5711745658000,2.599995,-6.73611701715082,1.97437000289594,-7.00401617417933,-0.6017023,0.41050145,0.021380283,189.57219,-173.36545,-41.470474,FOL
5711751671000,2.606008,-6.78188640003116,2.09671795369274,-6.86650184721097,-0.56016344,0.43249258,-0.04153884,189.65228,-173.08998,-41.353382,FOL
5711755666000,2.610003,-6.80175724037603,2.08876953455905,-6.73932830301236,-0.4529566,0.42302418,-0.062308256,189.72377,-172.84457,-41.241417,FOL
5711760590000,2.614927,-6.82624885936429,2.07897278466812,-6.58258173689623,-0.40622538,0.398895,-0.1133155,189.76035,-172.60753,-41.156113,FOL
5711765653000,2.61999,-6.81521858439419,1.991201881197,-6.52620676330052,-0.32406402,0.3368922,-0.16676621,189.78662,-172.41492,-41.089455,FOL
5711770642000,2.624979,-6.80124690424018,1.89805697400331,-6.47963433401891,-0.2434298,0.27214047,-0.2275473,189.78923,-172.25134,-41.037075,FOL
5711775661000,2.629998,-6.75505556993677,1.72085157602031,-6.50626846045219,-0.16920967,0.1994475,-0.28252518,189.7699,-172.11865,-41.031017,FOL
5711780639000,2.634976,-6.70481535054608,1.5335927889155,-6.54280673245833,-0.11759156,0.12034045,-0.344528,189.72835,-172.01671,-41.05048,FOL
5711785646000,2.639983,-6.60194752851091,1.30549057470875,-6.66282846246558,-0.087659165,0.03634648,-0.39492437,189.66563,-171.9486,-41.099678,FOL
5711790599000,2.644936,-6.48640199100826,1.06937599735226,-6.80349261332345,-0.08674286,-0.022907447,-0.43127087,189.5886,-171.89722,-41.167103,FOL
5711795649000,2.649986,-6.31133620223679,0.897962322551099,-6.92290756136714,-0.09987647,-0.05497787,-0.44593164,189.47662,-171.88188,-41.237427,FOL
5711800645000,2.654982,-6.13143030003856,0.736508336164674,-7.03823168597185,-0.12095132,-0.06780604,-0.44929138,189.35947,-171.87054,-41.319992,FOL
5711805667000,2.660004,-5.91432858683249,0.65204539306599,-7.15520073701523,-0.15088372,-0.0580322,-0.43096542,189.22792,-171.88062,-41.372486,FOL
5711810593000,2.66493,-5.69401751270051,0.584994131360406,-7.27014587139086,-0.16676621,-0.03573562,-0.40225476,189.1014,-171.88751,-41.42466,FOL
5711815634000,2.669971,-5.5119472825,0.616336685388889,-7.34864570944445,-0.1826487,-0.00061086525,-0.35888332,188.98192,-171.89668,-41.42744,FOL
5711820987000,2.675324,-5.32682492958333,0.668550689990741,-7.42459337953704,-0.19394971,0.0421497,-0.30634892,188.8774,-171.89584,-41.42074,FOL
5711825691000,2.680028,-5.19830012647028,0.771574432325388,-7.48698939138128,-0.1872302,0.082161374,-0.23640485,188.79346,-171.89606,-41.35747,FOL
5711830625000,2.684962,-5.07533762548142,0.899455243327782,-7.55092955293016,-0.16676621,0.10170906,-0.1685988,188.72989,-171.8871,-41.28733,FOL
5711835638000,2.689975,-5.02811449110501,1.03458039829216,-7.59585725058453,-0.1423316,0.13988814,-0.122478485,188.70082,-171.86456,-41.16502,FOL
5711840647000,2.694984,-5.00373196025211,1.17112269836841,-7.63486960546915,-0.11942416,0.16829337,-0.044898596,188.71007,-171.82814,-41.037334,FOL
5711845658000,2.699995,-5.06276190088286,1.2996782535451,-7.66351496696095,-0.08368854,0.19364429,0.024129177,188.7517,-171.77388,-40.872566,FOL
5711850634000,2.704971,-5.14083396859925,1.42546063679803,-7.68953898953309,-0.02107485,0.21624629,0.08979719,188.8195,-171.71843,-40.699867,FOL
5711855653000,2.70999,-5.26593970659517,1.55669681147453,-7.68086019292225,0.02443461,0.21991149,0.13988814,188.91908,-171.64456,-40.51573,FOL
5711860704000,2.715041,-5.42156142284182,1.6915690738874,-7.64973574134048,0.07513642,0.21838433,0.17073683,189.03346,-171.57942,-40.327568,FOL
5711865630000,2.719967,-5.58578250371545,1.79438217925295,-7.61406901674428,0.122478485,0.16707164,0.18692477,189.1672,-171.50089,-40.157776,FOL
5711870653000,2.72499,-5.7573622713762,1.88970431663529,-7.57593990300208,0.17073683,0.103847094,0.18509217,189.30441,-171.43437,-39.99424,FOL
5711875628000,2.729965,-5.92705766637002,1.90849955335707,-7.56910797705923,0.17928895,0.03604105,0.18142697,189.44727,-171.35326,-39.868427,FOL
5711880681000,2.735018,-6.09932084692969,1.89892933224562,-7.57389316256304,0.1853976,-0.031154128,0.16401732,189.58607,-171.28789,-39.762962,FOL
5711887005000,2.741342,-6.28733907693831,1.8220588105753,-7.57061960065353,0.1600467,-0.0842994,0.10781772,189.6988,-171.21925,-39.701817,FOL
5711890644000,2.744981,-6.39086410476285,1.76684542636895,-7.56716869432617,0.129198,-0.1301143,0.08277224,189.81789,-171.15082,-39.657204,FOL
5711895639000,2.749976,-6.497081396308,1.67504118878578,-7.56891219190523,0.062308256,-0.17989981,0.04428773,189.91107,-171.0852,-39.65974,FOL
5711900687000,2.755024,-6.5877556851925,1.57482229299112,-7.57368461994077,-0.0009162979,-0.22082779,-0.01160644,189.98874,-171.02379,-39.674526,FOL
5711905666000,2.760003,-6.6207198775886,1.44117962402495,-7.57840044616908,-0.065973446,-0.25778514,-0.07422013,190.03574,-170.96751,-39.72583,FOL
5711910667000,2.765004,-6.62546107509404,1.28946749198179,-7.58314144565433,-0.12492194,-0.28405234,-0.13469578,190.0633,-170.91087,-39.787483,FOL
5711915674000,2.770011,-6.61200691517529,1.13848958880853,-7.60300310178965,-0.17684549,-0.28771752,-0.17501289,190.06091,-170.86337,-39.867764,FOL
5711935645000,2.789982,-6.50455201720344,0.603711433637728,-7.69170394912983,-0.21777347,-0.16401732,-0.23304509,189.87006,-170.74603,-40.16943,FOL
5711940686000,2.795023,-6.45626571114223,0.569911004268854,-7.67721795647129,-0.20280726,-0.119729586,-0.21074851,189.79958,-170.73718,-40.215626,LYI
5711945704000,2.800041,-6.41661782920792,0.54731357180198,-7.63845737386139,-0.1704314,-0.08093964,-0.1853976,189.71048,-170.75171,-40.24792,LYI
5711950794000,2.805131,-6.38283358415842,0.532834588039604,-7.58054123722772,-0.129198,-0.057421334,-0.15454891,189.63104,-170.7658,-40.270527,LYI
5711955582000,2.809919,-6.34521461416838,0.529320165092402,-7.52235545379877,-0.093767814,-0.037873644,-0.118507855,189.55052,-170.78598,-40.274788,LYI
5711960603000,2.81494,-6.3007827850924,0.534257034989733,-7.45817614513347,-0.03268129,-0.035124753,-0.08735373,189.481,-170.81502,-40.27613,LYI
5711965560000,2.819897,-6.25776898945123,0.495274029080083,-7.38236943602262,0.0125227375,-0.049785517,-0.050396383,189.43188,-170.83946,-40.27863,LYI
5711970579000,2.824916,-6.21484012821276,0.423725950259006,-7.29651181315868,0.07788532,-0.077579886,-0.019547688,189.39409,-170.87602,-40.28281,LYI
5711975583000,2.82992,-6.144423468683,0.309816300168453,-7.20227199663093,0.12461651,-0.115453534,0.011911872,189.3741,-170.90825,-40.29293,LYI
5711980612000,2.834949,-6.052230125201,0.16230707574464,-7.1008592851072,0.18173242,-0.13988814,0.042760566,189.36708,-170.95003,-40.30497,LYI
5711985602000,2.839939,-5.96685171086845,0.0294821998166272,-7.05325530237973,0.2134974,-0.18906279,0.07238753,189.36653,-171.0019,-40.33905,LYI
5711990581000,2.844918,-5.88825629546719,-0.0884110822931905,-7.06307963313073,0.24617869,-0.22296582,0.09590584,189.3761,-171.05983,-40.373146,LYI
5711995580000,2.849917,-5.89574637818708,-0.178121217627772,-7.08245564792671,0.2602286,-0.25503623,0.11881329,189.38567,-171.13304,-40.420002,LYI
5712000798000,2.855135,-5.98248609288332,-0.245585529623915,-7.11136925515911,0.258396,-0.27550024,0.13530666,189.40318,-171.20442,-40.47044,LYI
5712006080000,2.860417,-6.05227207870682,-0.284842568673162,-7.16309201507529,0.25625798,-0.2742785,0.13500121,189.40694,-171.29773,-40.511707,LYI
5712010660000,2.864997,-6.09889238145261,-0.296497601764393,-7.22525210772365,0.23732115,-0.2706133,0.13652839,189.41872,-171.38113,-40.555237,LYI
5712015612000,2.869949,-6.15900608932395,-0.300376004735393,-7.28952318494953,0.21166481,-0.2687807,0.13133603,189.4168,-171.47218,-40.608215,LYI
5712020647000,2.874984,-6.25734230391557,-0.270875099285204,-7.3436081312124,0.19058995,-0.26267207,0.12339478,189.41386,-171.55798,-40.657303,LYI
5712025607000,2.879944,-6.36269349517234,-0.236988005945587,-7.39212426957144,0.16523905,-0.24770586,0.112704635,189.41003,-171.63963,-40.702892,LYI
5712030711000,2.885048,-6.49767970411169,-0.186993101758208,-7.42712068057686,0.15271631,-0.23426682,0.09101892,189.39897,-171.72093,-40.746628,LYI
5712035674000,2.890011,-6.62038769907659,-0.140085292933188,-7.45338429404309,0.14110987,-0.22204952,0.083383106,189.38722,-171.79169,-40.791527,LYI
5712040808000,2.895145,-6.72721519581749,-0.0955738615209125,-7.46228648086185,0.13347405,-0.21074851,0.057421334,189.36008,-171.86618,-40.83368,LYI
5712045622000,2.899959,-6.82751008591324,-0.0554554772313395,-7.46750257471195,0.11453723,-0.18325958,0.037873644,189.32887,-171.9286,-40.88002,LYI
5712050656000,2.904993,-6.93377307990181,-0.0313047686728785,-7.43852184528604,0.11056661,-0.16982053,0.014049901,189.28719,-171.99641,-40.92737,LYI
5712055644000,2.909981,-7.03666247177456,-0.00593358121502901,-7.40556676461921,0.1001819,-0.16279559,-0.004276057,189.23756,-172.05353,-40.982643,LYI
5712060657000,2.914994,-7.11624217331246,0.0338561592208306,-7.33040851153882,0.09315695,-0.15851954,-0.027794369,189.17737,-172.11414,-41.035175,LYI
5712065658000,2.919995,-7.19563137885625,0.0735506519237499,-7.25543017049452,0.0842994,-0.16432275,-0.043066,189.11362,-172.17067,-41.108505,LYI
5712070645000,2.924982,-7.2473687094281,0.0956185469557492,-7.1964315400414,0.079107046,-0.16310102,-0.043676864,189.04694,-172.2263,-41.177578,LYI
5712076199000,2.930536,-7.30242550711636,0.118558936496334,-7.13219844971103,0.06536258,-0.16615535,-0.043066,188.97691,-172.27904,-41.248703,LYI
5712080724000,2.935061,-7.30824330479452,0.13012322307363,-7.09588099768836,0.04795292,-0.17623462,-0.035430185,188.91347,-172.31534,-41.341335,LYI
5712087118000,2.941455,-7.29076783127854,0.141773544833524,-7.05510458868912,0.03756821,-0.18478674,-0.02107485,188.85362,-172.34758,-41.432224,LYI
5712090687000,2.945024,-7.2679048466966,0.150333837923577,-7.04407511115184,0.03756821,-0.18448131,-0.005192355,188.79562,-172.37488,-41.53945,LYI
5712095663000,2.95,-7.22860434124439,0.163434045925044,-7.03534164523046,0.024129177,-0.18081611,-0.004581489,188.73795,-172.39644,-41.646008,LYI
5712100613000,2.95495,-7.1942895693151,0.175370275895102,-7.02788212322237,0.029321533,-0.16157386,-0.004276057,188.68594,-172.41614,-41.747066,LYI
5712105668000,2.960005,-7.16994529329176,0.185107932922659,-7.02301329852157,0.021380283,-0.14569137,0.007941248,188.63875,-172.4273,-41.84539,LYI
5712110589000,2.964926,-7.14624634525797,0.194587460169466,-7.01827353861008,0.020158553,-0.12980886,-0.0030543262,188.60167,-172.43814,-41.93546,LYI
5712115659000,2.969996,-7.12182983102685,0.204354012321734,-7.01339026635824,0.014966198,-0.11636983,-0.0027488936,188.57228,-172.4418,-42.018837,LYI
5712120701000,2.975038,-7.09879067045649,0.209089812143334,-7.00702252762794,0.002443461,-0.11728613,-0.011911872,188.54343,-172.44923,-42.10485,LYI
5712125662000,2.979999,-7.07841539477747,0.204561978882112,-6.99796687056133,0.013744468,-0.11942416,-0.0067195175,188.51906,-172.45757,-42.185066,LYI
5712130647000,2.984984,-7.05794154892786,0.200012241166492,-6.98886740463166,0.015882496,-0.11301007,-0.010079277,188.49274,-172.46085,-42.256355,LYI
5712135664000,2.990001,-7.03733627618412,0.195433297511674,-6.97970952688459,0.027183503,-0.11789699,-0.012217305,188.46935,-172.46724,-42.32971,LYI
5712140621000,2.994958,-7.01840716735773,0.187360586292575,-6.97330706170933,0.05131268,-0.12644911,-0.022907447,188.43587,-172.48196,-42.40129,LYI
5712145957000,3.000294,-7.00759665938227,0.154928706783372,-6.98411779545166,0.057421334,-0.13500121,-0.020158553,188.40689,-172.49289,-42.472332,LYI
5712150632000,3.004969,-7.00422431408832,0.123339149264844,-6.99822640326424,0.062308256,-0.13500121,-0.018020526,188.37434,-172.51138,-42.539135,LYI
5712155672000,3.010009,-7.01872328434965,0.0798422041642135,-7.02722424285571,0.07696902,-0.13958271,-0.016493361,188.34346,-172.53235,-42.60815,LYI
5712160629000,3.014966,-7.03690871956989,0.0446557215903226,-7.04745351967742,0.084910266,-0.13408493,-0.014660766,188.30676,-172.55548,-42.66944,LYI
5712165638000,3.019975,-7.06699754917563,0.0317605008231183,-7.04315520521505,0.07971791,-0.13622294,-0.008857546,188.27316,-172.57726,-42.73262,LYI
5712170943000,3.02528,-7.09878456565534,0.0153995986140777,-7.03994089805825,0.07513642,-0.13561209,-0.004886922,188.24106,-172.61101,-42.795597,LYI
5712175663000,3.03,-7.12621338402104,-0.0280292068309061,-7.05136952265372,0.06627888,-0.13469578,0.0018325958,188.21252,-172.64021,-42.85726,LYI
5712180673000,3.03501,-7.15532744758293,-0.0741263075256877,-7.06350032969256,0.061391957,-0.14080444,0.017104227,188.18793,-172.67072,-42.92644,LYI
5712185664000,3.040001,-7.18433109852852,-0.120048588876517,-7.07558513167476,0.04734206,-0.118507855,0.01282817,188.15651,-172.6991,-42.986485,LYI
5712190682000,3.045019,-7.21279879725745,-0.161635238832976,-7.0859591337012,0.03604105,-0.112704635,0.018936822,188.1348,-172.72435,-43.051014,LYI
5712195660000,3.049997,-7.23243032865261,-0.145929968618844,-7.07418010826882,0.018325957,-0.08032878,0.010079277,188.10239,-172.74846,-43.101402,LYI
5712200632000,3.054969,-7.25203819809751,-0.130243628019272,-7.06241528013507,-0.004276057,-0.074830994,0.0012217305,188.0628,-172.78204,-43.164555,LYI
5712205669000,3.060006,-7.28967444900623,-0.103180079795313,-7.04896994529813,-0.015882496,-0.06627888,-0.006414085,188.01846,-172.81473,-43.21691,LYI
5712210659000,3.064996,-7.33692870788095,-0.0701020739117967,-7.03479366763572,-0.019547688,-0.054061573,-0.016187929,187.96983,-172.84567,-43.266148,LYI
5712215658000,3.069995,-7.37075630603271,-0.0394393952097375,-7.00910193594523,-0.018325957,-0.053450707,-0.03359759,187.91653,-172.8745,-43.320885,LYI
5712220660000,3.074997,-7.39626570693039,-0.0102856866583492,-6.97630411304679,-0.017104227,-0.052839845,-0.03604105,187.86513,-172.90077,-43.370975,LYI
5712226049000,3.080386,-7.4215290733364,0.0199801705685103,-6.94368093011593,-0.025045475,-0.050701816,-0.040927973,187.80484,-172.92592,-43.428696,LYI
5712230684000,3.085021,-7.41472842219499,0.0313147554650937,-6.95048162859915,-0.03268129,-0.051618114,-0.04337143,187.74557,-172.95058,-43.48607,LYI
5712235648000,3.089985,-7.40744504953782,0.0434538880274756,-6.95776505195853,-0.030543262,-0.052839845,-0.04886922,187.69012,-172.96863,-43.552742,LYI
5712240622000,3.094959,-7.40014700449415,0.055617474926204,-6.96506314780655,-0.03756821,-0.06688975,-0.038179077,187.64151,-172.98003,-43.62147,LYI
5712245710000,3.100047,-7.39132399931068,0.0701912531610044,-6.97388619245692,-0.028099801,-0.062002823,-0.04153884,187.58469,-172.99866,-43.684994,LYI
5712250668000,3.105005,-7.36794547917282,0.107596909793205,-6.9972646149483,-0.041233405,-0.057421334,-0.043066,187.53412,-173.00836,-43.75076,LYI
5712255869000,3.110206,-7.34258087278912,0.146886523559424,-7.02303342989196,-0.04062254,-0.041233405,-0.052839845,187.46904,-173.0335,-43.80788,LYI
5712260615000,3.114952,-7.31075200136054,0.183262291836735,-7.05940926938776,-0.04642576,-0.03573562,-0.043676864,187.41205,-173.0505,-43.864857,LYI
5712265797000,3.120134,-7.27771369466005,0.223234326440035,-7.09608385421652,-0.050396383,-0.019547688,-0.03481932,187.35846,-173.06339,-43.90636,LYI
5712270667000,3.125004,-7.26864083871219,0.264062211363681,-7.09154752098045,-0.044593163,-0.0030543262,-0.027183503,187.30838,-173.0751,-43.945183,LYI
5712275990000,3.130327,-7.25763495576291,0.307589709686306,-7.08593148427975,-0.027794369,0.031154128,-0.027183503,187.26683,-173.08179,-43.963085,LYI
5712280748000,3.135085,-7.22929007877011,0.327836067308273,-7.06973432714832,-0.03604105,0.043982297,-0.022907447,187.23085,-173.0821,-43.98159,LYI
5712287457000,3.141794,-7.18928147039647,0.349024208596067,-7.04756275511621,-0.028099801,0.043982297,-0.02565634,187.19807,-173.08336,-43.99267,LYI
5712290628000,3.144965,-7.17011984670312,0.313894474008834,-7.04117553610264,-0.0033597588,0.048258353,-0.017104227,187.17079,-173.08344,-43.99834,LYI
5712295680000,3.150017,-7.13959177262593,0.257926192982438,-7.0309994937007,-0.013133603,0.036651913,-0.0076358155,187.13402,-173.08713,-44.006927,LYI
5712300630000,3.154967,-7.13088317048356,0.229806310394584,-7.01786161145068,0.005192355,0.021685716,0.005192355,187.10283,-173.09892,-44.01484,LYI
5712305686000,3.160023,-7.12620035609284,0.20639222377176,-7.00381316827853,0.007941248,0.02076942,0.0009162979,187.06924,-173.10692,-44.022507,LYI
5712310658000,3.164995,-7.12862400105243,0.166317907676116,-6.98324813107045,0.004581489,0.0125227375,-0.005497787,187.03717,-173.12148,-44.034042,LYI
5712315633000,3.16997,-7.133141359543,0.121144294468569,-6.96066138578743,-0.0067195175,-0.009162978,-0.005192355,187.00769,-173.13414,-44.049458,LYI
5712320713000,3.17505,-7.16693654020546,0.060243510073522,-6.96886928646389,-0.0021380284,-0.008857546,-0.016187929,186.97203,-173.15198,-44.063217,LYI
5712325664000,3.180001,-7.21469032890523,-0.00661184397018833,-6.99274613094974,-0.012217305,-0.0036651916,-0.017715093,186.94176,-173.16232,-44.080975,LYI
5712331225000,3.185562,-7.21250988460949,-0.0682851638973966,-6.99704979201761,-0.016187929,-0.004581489,-0.0143553335,186.90198,-173.18277,-44.1053,LYI
5712335683000,3.19002,-7.19207852243492,-0.113234194816233,-6.9929636049196,-0.032070424,-0.0036651916,-0.008552114,186.8628,-173.19809,-44.127277,LYI
5712340737000,3.195074,-7.17139491956011,-0.131272720253747,-6.98686510550603,-0.04062254,-0.0027488936,-0.0067195175,186.81291,-173.22441,-44.154114,LYI
5712345666000,3.200003,-7.15289610295875,-0.126648041455864,-6.97992804626237,-0.035124753,0.0143553335,-0.004581489,186.76521,-173.24847,-44.17542,LYI
5712350646000,3.204983,-7.13420588046439,-0.121975511447046,-6.9729192097776,-0.040011674,0.020463986,-0.0027488936,186.71268,-173.27048,-44.19505,LYI
5712355673000,3.21001,-7.11533926430391,-0.117258883263447,-6.96584422563927,-0.03390302,0.03268129,-0.002443461,186.65979,-173.29518,-44.207943,LYI
5712360657000,3.214994,-7.10020337207679,-0.104505022486911,-6.96581064092496,-0.029626964,0.05375614,0.0030543262,186.60954,-173.31662,-44.216194,LYI
5712365662000,3.219999,-7.08858521132441,-0.0835923185747528,-6.97278158590266,-0.026572637,0.06688975,0.006414085,186.55917,-173.33896,-44.223293,LYI
5712370710000,3.225047,-7.07686723420593,-0.062499945078534,-6.97981242111693,-0.020158553,0.0729984,-0.0012217305,186.50348,-173.36642,-44.22319,LYI
5712375662000,3.229999,-7.06537210292806,-0.0418086943746364,-6.98670954789606,-0.007330383,0.079107046,-0.003970624,186.45125,-173.39365,-44.21924,LYI
5712380614000,3.234951,-7.05639873415541,-0.0304380870927775,-6.99277663018203,-0.013744468,0.08032878,0.0030543262,186.40091,-173.4172,-44.215122,LYI
5712385746000,3.240083,-7.05158877745156,-0.0352480473123899,-6.9975864864357,-0.013133603,0.07513642,0.003970624,186.34833,-173.44592,-44.21178,LYI
5712390594000,3.244931,-7.04557916701352,-0.035356792010989,-7.0065464967811,-0.014966198,0.07941248,0.009773844,186.30907,-173.46329,-44.19894,LYI
5712395666000,3.250003,-7.03613182098609,-0.0259094395714286,-7.0254412874842,-0.025045475,0.07788532,0.012217305,186.27046,-173.4792,-44.189713,LYI
5712401342000,3.255679,-7.0115679569095,-0.00620228851150895,-7.05028536800594,-0.027183503,0.09010262,0.011911872,186.24536,-173.49704,-44.178745,LYI
5712405667000,3.260004,-6.97397899333388,0.0211351847621483,-7.07420556889696,-0.038179077,0.08093964,0.0125227375,186.22359,-173.51004,-44.174324,LYI
5712410592000,3.264929,-6.93117537585183,0.0522651398772378,-7.10144417916013,-0.043982297,0.07849618,0.016493361,186.20546,-173.5214,-44.160587,LYI
5712415632000,3.269969,-6.89648482198734,0.0810721233044325,-7.12960187232343,-0.03604105,0.07391469,0.019547688,186.18839,-173.53322,-44.150394,LYI
5712420691000,3.275028,-6.86344602818315,0.109391109135899,-7.15792108486118,-0.0421497,0.07819075,0.008246681,186.16718,-173.543,-44.139168,LYI
5712425665000,3.280002,-6.8462759298175,0.150647606721572,-7.1563064825737,-0.037873644,0.07086037,0.012217305,186.1657,-173.54666,-44.119286,LYI
5712430627000,3.284964,-6.8329338385868,0.195121276664483,-7.14741170864764,-0.034513887,0.074830994,0.01282817,186.15775,-173.55188,-44.096203,LYI
5712435664000,3.290001,-6.83459939483075,0.202241603343135,-7.13690583239215,-0.040927973,0.06536258,0.01160644,186.16035,-173.55107,-44.070217,LYI
5712440633000,3.29497,-6.84414001762288,0.189520742513449,-7.12577502001537,-0.050701816,0.050701816,0.0033597588,186.16064,-173.55165,-44.045513,LYI
5712445660000,3.299997,-6.85379200208173,0.176651399106158,-7.11451428469275,-0.05375614,0.040927973,-0.004886922,186.17656,-173.54271,-44.02282,LYI
5712450695000,3.305032,-6.86345934677047,0.163761575343335,-7.10323562896381,-0.051618114,0.03359759,-0.008246681,186.19153,-173.53398,-44.004166,LYI
5712455665000,3.310002,-6.87300188959134,0.151038154469208,-7.09210257653624,-0.04795292,0.030543262,-0.00580322,186.20552,-173.52586,-43.98758,LYI
5712460660000,3.314997,-6.88259243313062,0.138250732484045,-7.08091352283891,-0.049785517,0.018325957,-0.014049901,186.21466,-173.52028,-43.976604,LYI
5712465915000,3.320252,-6.87409877749067,0.105842553838645,-7.0656347601493,-0.04062254,0.0061086523,-0.021380283,186.2299,-173.51772,-43.96835,LYI
5712471104000,3.325441,-6.85745328091205,0.0654176863355345,-7.04898923874055,-0.023518313,-0.0009162979,-0.01863139,186.24585,-173.51639,-43.962124,LYI
5712475662000,3.329999,-6.84283193317542,0.0299086198334769,-7.03436786919322,-0.026267206,-0.005192355,-0.024740042,186.24568,-173.52225,-43.9685,LYI
5712480681000,3.335018,-6.82673176988229,-0.00919186388171117,-7.01826768188343,-0.018020526,0.0009162979,-0.016798794,186.25172,-173.5304,-43.972927,LYI
5712487019000,3.341356,-6.78738024426544,-0.0404702587495999,-7.01804895371813,-0.017104227,0.00030543262,-0.015882496,186.25317,-173.53896,-43.980812,LYI
5712490665000,3.345002,-6.75757799663928,-0.0516460948020911,-7.02549950589993,-0.016187929,0.008857546,-0.015271631,186.25652,-173.54755,-43.983814,LYI
5712495659000,3.349996,-6.73632297988951,-0.0517117859719907,-7.04087404022097,-0.022296581,0.011301007,-0.008246681,186.251,-173.56511,-43.989056,LYI
5712500753000,3.35509,-6.72686689062803,-0.0422556409223687,-7.05978621874394,-0.01985312,0.016798794,-0.007941248,186.2427,-173.58528,-43.991093,LYI
5712505666000,3.360003,-6.71491978180274,-0.0303085310751474,-7.0890130079944,-0.008552114,0.03145956,-0.0061086523,186.23932,-173.60837,-43.984116,LYI
5712510660000,3.364997,-6.70058180668532,-0.0159705958817828,-7.12724777465774,-0.014660766,0.049480084,-0.0036651916,186.2361,-173.6276,-43.97452,LYI
5712515739000,3.370076,-6.70200813609467,0.00736677407100592,-7.1573315147929,-0.022602014,0.055588737,-0.0036651916,186.237595160617,-173.636086046743,-43.9655763128792,LYI
5712520715000,3.375052,-6.71565224451231,0.0369289267390723,-7.180071616339,-0.02565634,0.06566802,0.005497787,186.23906,-173.6444,-43.956814,LYI
5712525618000,3.379955,-6.72909618815614,0.0660573902703283,-7.2024781110899,-0.03481932,0.070554934,0.0106901415,186.2414,-173.6601,-43.9375,LYI
5712530777000,3.385114,-6.7432420794999,0.0967067362539607,-7.22605451460202,-0.038179077,0.06505715,0.010079277,186.25844,-173.66646,-43.909702,LYI
5712535658000,3.389995,-6.76827761570841,0.113258818429159,-7.2317516921458,-0.04062254,0.050396383,0.0061086523,186.27638,-173.67072,-43.883533,LYI
5712540749000,3.395086,-6.81492019563762,0.108594560436238,-7.20843040218119,-0.051618114,0.043982297,-0.0030543262,186.29181,-173.67365,-43.857296,LYI
5712545597000,3.399934,-6.86133388207758,0.104079705587327,-7.1833258071182,-0.056505036,0.05009095,-0.011301007,186.30927,-173.66356,-43.82449,LYI
5712550667000,3.405004,-6.9155680036251,0.099149317983753,-7.14881320303615,-0.05955936,0.03145956,-0.013744468,186.3269,-173.65282,-43.801277,LYI
5712555618000,3.409955,-6.96757548437321,0.09172793518527,-7.11302407727533,-0.064751714,0.02076942,-0.01038471,186.32724,-173.64362,-43.78239,LYI
5712560659000,3.414996,-7.01823782292501,0.0779109139131845,-7.0715728893818,-0.06169739,-0.0033597588,-0.012217305,186.32643,-173.63742,-43.773396,LYI
5712565627000,3.419964,-7.05154874951627,0.0651640282255448,-7.038016170429,-0.050396383,-0.018325957,-0.0125227375,186.32118,-173.63226,-43.77725,LYI
5712570659000,3.424996,-7.01858361741425,0.0557453821026092,-7.03330675344474,-0.036957346,-0.016798794,-0.013133603,186.31532,-173.629,-43.78333,LYI
5712575640000,3.429977,-6.9842555353678,0.0499280730971533,-7.03380477335459,-0.02687807,-0.01985312,-0.009162978,186.30394,-173.62909,-43.808308,LYI
5712580726000,3.435063,-6.93988513700752,0.0632392037247096,-7.06264567128217,-0.023823744,-0.020463986,-0.016187929,186.28764,-173.63295,-43.832237,LYI
5712585695000,3.440032,-6.8965354497381,0.0762441207692098,-7.09082310380323,-0.013439035,-0.025961773,-0.02107485,186.2639,-173.63777,-43.8491,LYI
5712590668000,3.445005,-6.85315086636302,0.0892595066541562,-7.1190232189023,-0.0018325958,-0.018020526,-0.016187929,186.24063,-173.64299,-43.862038,LYI
5712595594000,3.449931,-6.81017631222956,0.102151883663858,-7.14695681370986,0.0015271631,-0.0125227375,-0.015882496,186.2217,-173.64806,-43.87877,LYI
5712600627000,3.454964,-6.78915113907316,0.115726712018575,-7.16079618039234,-0.0009162979,-0.004581489,-0.02107485,186.20195,-173.65442,-43.892326,LYI
5712605672000,3.460009,-6.77541484524261,0.129462967600455,-7.16995362992798,-0.011301007,-0.00061086525,-0.010995574,186.18832,-173.65672,-43.904564,LYI
5712610660000,3.464997,-6.77715358002819,0.143601976412321,-7.17620405659352,-0.002443461,0.00580322,-0.005497787,186.18486,-173.65953,-43.89133,LYI
5712615656000,3.469993,-6.7867862442118,0.158051058184014,-7.18102041383129,-0.018936822,0.0070249503,0.002443461,186.18637,-173.6527,-43.87822,LYI
5712620786000,3.475123,-6.79329354093772,0.149455824590623,-7.18594273638908,-0.025350908,0.009773844,0.0027488936,186.19392,-173.64447,-43.859406,LYI
5712625665000,3.480002,-6.79796475787264,0.130771332421274,-7.1906138069979,-0.025961773,0.014660766,-0.0009162979,186.20256,-173.63371,-43.839886,LYI
5712630670000,3.485007,-6.81172965900709,0.127547673855319,-7.17083776713948,-0.026572637,0.017715093,0.0018325958,186.21524,-173.61858,-43.82072,LYI
5712635847000,3.490184,-6.83048288255319,0.132236009114894,-7.1380195035461,-0.039095376,0.023518313,0.006414085,186.22635,-173.60185,-43.799965,LYI
5712640661000,3.494998,-6.85691309719116,0.117386349293318,-7.1084554372663,-0.03573562,0.011301007,0.01038471,186.21901,-173.5962,-43.78071,LYI
5712645701000,3.500038,-6.89145438710976,0.0871627375212452,-7.07823162261383,-0.042455133,0.009468411,-0.00061086525,186.2067,-173.58846,-43.758045,LYI
5712650639000,3.504976,-6.92072605028459,0.0607660948038911,-7.04869907457311,-0.04153884,0.00030543262,0.0033597588,186.20052,-173.57875,-43.747902,LYI
5712656243000,3.51058,-6.94294208555314,0.0385500421370175,-7.01537502167029,-0.03940081,-0.01282817,0.008246681,186.19083,-173.57036,-43.740295,LYI
5712660591000,3.514928,-6.95095832979569,0.01971360946407,-7.00244894195853,-0.030848695,-0.014966198,0.0015271631,186.16821,-173.57452,-43.74503,LYI
5712665634000,3.519971,-6.94609761577093,-0.00458985153683575,-7.00730957985105,-0.035430185,-0.019242255,0.0009162979,186.15094,-173.57442,-43.75359,LYI
5712670725000,3.525062,-6.94119063677033,-0.0291246363783213,-7.01221648199477,-0.016187929,-0.018325957,-0.0015271631,186.13078,-173.58467,-43.770264,LYI
5712675665000,3.530002,-6.93642919967291,-0.0529317149713164,-7.0169778445149,-0.008552114,-0.016187929,-0.0009162979,186.11186,-173.59111,-43.78741,LYI
5712680610000,3.534947,-6.94286817364638,-0.0577774693916627,-7.03646735124102,-0.004886922,-0.023518313,-0.00580322,186.0905,-173.60217,-43.807037,LYI
5712687154000,3.541491,-6.97289720057499,-0.0277484198867274,-7.09051972513656,-0.010079277,-0.020158553,0.0012217305,186.07344,-173.61034,-43.822197,LYI
5712690709000,3.545046,-6.97514210604119,-0.00962871653651325,-7.1171028553267,0.012217305,-0.013744468,0.004276057,186.04774,-173.63388,-43.836826,LYI
5712695662000,3.549999,-6.95644351818271,0.0184193317016852,-7.14982579898492,0.0036651916,-0.019547688,0.004276057,186.02449,-173.6489,-43.85351,LYI
5712700601000,3.554938,-6.9419338438158,0.0470651443149318,-7.17678190323171,0.014660766,-0.013133603,0.010079277,185.99802,-173.677,-43.862244,LYI
5712705673000,3.56001,-6.93748684720315,0.0781934951357686,-7.19012266089902,0.009773844,-0.012217305,0.008552114,185.96992,-173.70091,-43.874233,LYI
5712710656000,3.564993,-6.93462926271461,0.110961799337085,-7.2043121434567,0.008246681,-0.010079277,0.008857546,185.95212,-173.72142,-43.875607,LYI
5712715694000,3.570031,-6.94383341576688,0.161584410464517,-7.22732240595193,-0.0036651916,-0.0027488936,0.009773844,185.9341,-173.7384,-43.875237,LYI
5712720635000,3.574972,-6.9529748033481,0.211009404465849,-7.24927006955805,-0.003970624,0.006414085,0.014966198,185.93153,-173.75893,-43.875954,LYI
5712726244000,3.580581,-6.97510992704234,0.244212032224168,-7.21053364643041,-0.013744468,-0.007330383,0.019547688,185.93027,-173.77441,-43.880905,LYI
5712730685000,3.585022,-6.9897421811115,0.267487191248473,-7.17928825104694,-0.016493361,-0.0015271631,0.017715093,185.93529,-173.78352,-43.87501,LYI
5712735666000,3.590003,-6.97309511591345,0.259163667340778,-7.1376705663235,-0.018020526,-0.010995574,0.025350908,185.94737,-173.78792,-43.8766,LYI
5712740592000,3.594929,-6.95663186693422,0.250932051446519,-7.09651242238702,-0.024129177,-0.018020526,0.031154128,185.95714,-173.7881,-43.88293,LYI
5712745661000,3.599998,-6.94348793927899,0.226739930712588,-7.06272518339111,-0.023518313,-0.027488936,0.028405234,185.96686,-173.7896,-43.892414,LYI
5712750624000,3.604961,-6.9317196768248,0.198496083618897,-7.03212765185699,-0.014049901,-0.02565634,0.029932396,185.97978,-173.78978,-43.899952,LYI
5712755669000,3.610006,-6.91975697602258,0.169785584205705,-7.00102457980588,-0.009468411,-0.027794369,0.023518313,185.99469,-173.79356,-43.9187,LYI
5712760602000,3.614939,-6.90805984954937,0.141712463570367,-6.97061200211944,-0.007330383,-0.035124753,0.02107485,186.01118,-173.79779,-43.9376,LYI
5712765639000,3.619976,-6.89847928019166,0.1084817343459,-6.95274082039599,-0.0067195175,-0.048258353,0.025961773,186.02243,-173.80798,-43.9587,LYI
5712770670000,3.625007,-6.88976738572462,0.0736343111237682,-6.93967304692162,0.00580322,-0.044898596,0.03145956,186.03195,-173.8212,-43.976658,LYI
5712775661000,3.629998,-6.89353966118707,0.0379217414390331,-6.93751581699186,0.010995574,-0.038789943,0.02076942,186.0232,-173.83893,-44.0003,LYI
5712780670000,3.635007,-6.9082793625749,0.00107259057612536,-6.94488564203411,0.029932396,-0.046120327,0.022296581,186.0219,-173.85802,-44.02537,LYI
5712785667000,3.640004,-6.92298375224049,-0.035688281227019,-6.95223781127669,0.018020526,-0.044593163,0.011911872,186.00471,-173.8858,-44.049496,LYI
5712790665000,3.645002,-6.9376910845496,-0.072456509618477,-6.95959145183592,0.02443461,-0.034513887,0.011911872,185.99246,-173.9178,-44.071968,LYI
5712796133000,3.65047,-6.95334881277139,-0.103131080025543,-6.97250235427842,0.01038471,-0.032070424,0.00580322,185.98143,-173.93832,-44.09539,LYI
5712800631000,3.654968,-6.96604440561941,-0.124290566411239,-6.9851981238825,0.005497787,-0.017104227,-0.0030543262,185.96819,-173.96185,-44.11189,LYI
5712805669000,3.660006,-6.96623824078156,-0.148267781036072,-7.00242291843687,-0.002443461,-0.009468411,-0.0061086523,185.94406,-173.99182,-44.132412,LYI
5712810660000,3.664997,-6.95665957159319,-0.17221459403507,-7.02158025681363,-0.0143553335,-0.0061086523,0.0018325958,185.9208,-174.01866,-44.14932,LYI
5712815629000,3.669966,-6.96578668826035,-0.163724294753264,-7.03719100927692,-0.016493361,-0.0027488936,0.004581489,185.89726,-174.04941,-44.166172,LYI
5712820655000,3.674992,-6.98806837341913,-0.132529847118785,-7.05056004829182,-0.015882496,0.009773844,0.0030543262,185.87488,-174.07684,-44.178875,LYI
5712825608000,3.679945,-6.99966266996508,-0.111972826259216,-7.05712344943733,-0.02107485,0.01282817,-0.0030543262,185.85136,-174.10907,-44.190834,LYI
5712831065000,3.685402,-6.99712776958673,-0.104367961011835,-7.05458849611952,-0.021380283,0.0036651916,0.003970624,185.83298,-174.13925,-44.201916,LYI
5712835645000,3.689982,-6.995000255617,-0.0979852813649593,-7.05246093771828,-0.02321288,0.01740966,0.005192355,185.81293,-174.16516,-44.206886,LYI
5712840664000,3.695001,-6.99266881618161,-0.0909908121187427,-7.05012944959255,-0.024129177,0.008857546,0.016187929,185.80168,-174.18721,-44.219753,LYI
5712845600000,3.699937,-6.98831534133745,-0.0848144441826942,-7.04577597009058,-0.016798794,0.021991149,0.015882496,185.78209,-174.21289,-44.222214,LYI
5712850669000,3.705006,-6.97895991522451,-0.0801367770393139,-7.03642064166506,-0.018020526,0.01863139,0.009773844,185.76627,-174.23508,-44.2313,LYI
5712855617000,3.709954,-6.97578492518757,-0.0717772940809218,-7.02744113740622,-0.015577064,0.0106901415,0.020158553,185.75887,-174.25357,-44.236935,LYI
5712860673000,3.71501,-6.99308406802429,-0.0501533501809575,-7.01879156598785,-0.020463986,0.015577064,0.013133603,185.74196,-174.27454,-44.240643,LYI
5712866080000,3.720417,-7.00989922494489,-0.0279224733520434,-7.0119998897999,-0.026572637,0.002443461,0.010995574,185.73357,-174.29143,-44.25076,LYI
5712870653000,3.72499,-7.0061859598016,-0.0186392069673563,-7.03242315827963,-0.018325957,-0.004276057,0.0067195175,185.72116,-174.31166,-44.25786,LYI
5712875872000,3.730209,-7.00194814419196,-0.00804454979226726,-7.05573149814312,-0.021380283,-0.0067195175,0.005497787,185.71368,-174.32182,-44.270622,LYI
5712880651000,3.734988,-6.99806760753773,0.00165690003332203,-7.07707477390622,-0.018325957,-0.012217305,0.0125227375,185.70833,-174.33388,-44.28565,LYI
5712887043000,3.74138,-6.99287731871291,0.0146327668015092,-7.10562179601916,-0.03634648,-0.008246681,0.0106901415,185.70052,-174.3409,-44.298553,LYI
5712890614000,3.744951,-6.98799909408157,0.0182764986905857,-7.11425201425943,-0.03970624,-0.010995574,0.0067195175,185.69518,-174.35043,-44.31434,LYI
5712895619000,3.749956,-6.97656689235408,0.0150101578247981,-7.10935245538178,-0.031154128,-0.0021380284,0.008246681,185.69029,-174.35797,-44.325237,LYI
5712900695000,3.755032,-6.96497251553716,0.0116974812544209,-7.10438339227231,-0.034513887,0.0018325958,0.0036651916,185.68898,-174.36116,-44.32944,LYI
5712905685000,3.760022,-6.95357457615251,0.00844092962199734,-7.09949851738731,-0.034208454,-0.0015271631,-0.00030543262,185.68826,-174.36646,-44.33304,LYI
5712910612000,3.764949,-6.94232053860779,0.00522549276970254,-7.09467531527139,-0.035124753,0.002443461,0.0033597588,185.68501,-174.37332,-44.33358,LYI
5712915695000,3.770032,-6.93071017269754,0.00190824789042216,-7.08969939963201,-0.032986723,-0.00030543262,-0.005192355,185.67592,-174.38402,-44.337524,LYI
5712920601000,3.774938,-6.91301918381358,0.00367070807851479,-7.09417846828466,-0.017104227,-0.0061086523,-0.009773844,185.66982,-174.39574,-44.34085,LYI
5712925687000,3.780024,-6.88476104913943,0.0130900931881648,-7.11301737226842,-0.014049901,0.0067195175,-0.0030543262,185.66402,-174.40456,-44.339497,LYI
5712930610000,3.784947,-6.87597991998014,0.0222900894555114,-7.12671273666336,-0.01985312,0.010995574,-0.0070249503,185.65773,-174.41615,-44.340443,LYI
5712935735000,3.790072,-6.9052238723138,0.0320380801829196,-7.13158672871897,-0.0021380284,0.016493361,0.009162978,185.66133,-174.4276,-44.33632,LYI
5712940600000,3.794937,-6.92108213430815,0.0397818106157998,-7.13029747447498,-0.003970624,0.02076942,-0.0015271631,185.6568,-174.43884,-44.32574,LYI
5712945823000,3.80016,-6.91126473952895,0.0446905105682041,-7.11557112602551,-0.0018325958,0.01985312,0.010079277,185.66742,-174.44669,-44.313744,LYI
5712950644000,3.804981,-6.91317331157988,0.0485221570132984,-7.10152354196479,-0.0021380284,0.0125227375,-0.0027488936,185.66342,-174.45975,-44.307213,LYI
5712955669000,3.810006,-6.94246737214834,0.0507755499801461,-7.08574985143285,0.0018325958,0.011301007,-0.0012217305,185.66933,-174.46883,-44.298317,LYI
5712960626000,3.814963,-6.97136501557876,0.0529984492710245,-7.07018961581757,0.004276057,0.004276057,0.0018325958,185.66025,-174.48877,-44.294487,LYI
5712965648000,3.819985,-7.00064158715584,0.0552504969286383,-7.05442534241431,-0.004886922,-0.0070249503,-0.0012217305,185.65001,-174.50757,-44.29242,LYI
5712970952000,3.825289,-7.02974533103661,0.0537676041788359,-7.03932231561086,-0.010079277,-0.011301007,-0.00580322,185.64008,-174.52745,-44.290314,LYI
5712975662000,3.829999,-7.03438412885644,0.0073805622650144,-7.04396091968326,-0.019242255,-0.022602014,-0.007330383,185.63136,-174.5442,-44.293327,LYI
5712981354000,3.835691,-7.03422676369687,-0.0392524749021887,-7.04758435273937,-0.019242255,-0.029321533,-0.004276057,185.60692,-174.5615,-44.306286,LYI
5712985676000,3.840013,-7.01482809959226,-0.0431322103563763,-7.04370461991845,-0.023518313,-0.02076942,-0.0021380284,185.58171,-174.57619,-44.317955,LYI
5712990643000,3.84498,-6.99253444743872,-0.047590943813329,-7.03924588948774,-0.03573562,-0.023823744,0.006414085,185.55513,-174.58786,-44.332264,LYI
5712995658000,3.849995,-6.9700253543141,-0.0520927654937433,-7.03474407086282,-0.054367006,-0.02687807,0.005497787,185.52568,-174.59857,-44.344307,LYI
5713000712000,3.855049,-6.94734121540048,-0.0566295963557201,-7.0302072430801,-0.05375614,-0.020158553,-0.0027488936,185.4967,-174.61034,-44.35428,LYI
5713005636000,3.859973,-6.9504247932495,-0.050220966238631,-7.01127632788125,-0.04520403,-0.013133603,0.002443461,185.47313,-174.61743,-44.364456,LYI
5713010662000,3.864999,-6.95952614414295,-0.0411195141314172,-6.98852271305663,-0.039095376,-0.004581489,-0.00061086525,185.44296,-174.62741,-44.37287,LYI
5713015763000,3.8701,-6.95740205815012,-0.0333708817138015,-6.99136471806295,-0.042760566,-0.014049901,-0.006414085,185.4193,-174.63449,-44.37865,LYI
5713020672000,3.875009,-6.9505721533753,-0.0265409721845036,-7.00502457515739,-0.034208454,-0.006414085,-0.0018325958,185.39758,-174.6438,-44.377014,LYI
5713025662000,3.879999,-6.94362955308475,-0.019598367061017,-7.0189098240678,-0.029932396,0.0018325958,0.0021380284,185.37308,-174.65157,-44.38275,LYI
5713030682000,3.885019,-6.93664521371429,-0.0126140228285714,-7.03287855142857,-0.045814894,0.005192355,0.0030543262,185.34935,-174.6566,-44.387665,LYI
5713035674000,3.890011,-6.94203834509558,-0.0067666899141335,-7.03614282628225,-0.036651913,0.010995574,0.008246681,185.3287,-174.6659,-44.3893,LYI
5713040663000,3.895,-6.95701128624256,-0.00177570588373551,-7.03115174166928,-0.03940081,0.014660766,0.007941248,185.30646,-174.6705,-44.39088,LYI
5713045662000,3.899999,-6.96792068226361,0.00279114317193997,-7.04333170565901,-0.029626964,0.019242255,0.009162978,185.29903,-174.67628,-44.3869,LYI
5713051357000,3.905694,-6.97778144451275,0.00772152790028928,-7.06798361128187,-0.019547688,0.03145956,0.015271631,185.29286,-174.68074,-44.379684,LYI
5713055665000,3.910002,-6.99017716650958,0.0117481115507383,-7.07291739407268,-0.037873644,0.025045475,0.01160644,185.28326,-174.68271,-44.379562,LYI
5713060660000,3.914997,-7.01021522965756,0.0167576571539428,-7.06289831018955,-0.02565634,0.022907447,0.0106901415,185.27638,-174.69121,-44.374588,LYI
5713065621000,3.919958,-7.02119079816928,0.0149783037092327,-7.05393109268844,-0.029321533,0.01985312,0.004276057,185.26488,-174.68945,-44.367104,LYI
5713070670000,3.925007,-7.02392298672166,0.00678190337560741,-7.04573469820319,-0.022602014,0.016493361,0.00580322,185.25635,-174.69112,-44.360344,LYI
5713075588000,3.929925,-7.02658428664256,-0.00120183535300599,-7.03775096517121,-0.013744468,0.024129177,0.0143553335,185.24629,-174.69208,-44.355556,LYI
5713080700000,3.935037,-7.0293505666742,-0.00950050806156063,-7.029452298384,-0.027488936,0.008552114,0.010995574,185.23358,-174.69206,-44.35884,LYI
5713087200000,3.941537,-7.03286794151882,-0.0200524197606227,-7.01890039421404,-0.027183503,-0.0021380284,0.012217305,185.22012,-174.69582,-44.357067,LYI
5713090664000,3.945001,-7.0347424317437,-0.0256757770107074,-7.01327704097638,-0.028099801,-0.020158553,0.0061086523,185.20374,-174.69885,-44.362328,LYI
5713095639000,3.949976,-7.03743457633631,-0.0337520478880664,-7.00520077586168,-0.016187929,-0.0061086523,-0.0027488936,185.18924,-174.70723,-44.363873,LYI
5713100666000,3.955003,-7.03429147972825,-0.0336458009126671,-7.0053069742494,-0.010079277,-0.01160644,-0.010079277,185.17485,-174.71521,-44.37607,LYI
5713105672000,3.960009,-7.02378469428008,-0.0231392277504931,-7.01581343057199,-0.014966198,-0.0027488936,0.0021380284,185.16342,-174.72112,-44.379726,LYI
5713110657000,3.964994,-7.01686915092694,-0.0162237015977,-7.01686915092694,-0.036651913,0.0009162979,-0.004886922,185.13683,-174.73296,-44.39284,LYI
5713115638000,3.969975,-7.01214018844057,-0.0114946368939229,-7.01214018844057,-0.025350908,-0.01038471,-0.004581489,185.11853,-174.74644,-44.40679,LYI
5713121371000,3.975708,-7.00670765665711,0.000967430735791242,-7.01373706994168,-0.018020526,-0.006414085,-0.0012217305,185.1002,-174.7544,-44.41265,LYI
5713125663000,3.98,-7.00264482917861,0.0131559220802609,-7.0177998125729,-0.015882496,-0.005497787,0.00580322,185.08441,-174.76271,-44.42231,LYI
5713130674000,3.985011,-6.9979588136456,0.0110930807106358,-7.02517279715475,-0.022602014,-0.004276057,0.009162978,185.07924,-174.7674,-44.433037,LYI
5713135646000,3.989983,-6.99335077578632,-0.00273133167802187,-7.03438925781477,-0.02107485,0.007941248,0.014049901,185.07669,-174.77249,-44.439816,LYI
5713140631000,3.994968,-6.98658948225807,-0.00509733275806452,-7.05687095403226,-0.016493361,0.0143553335,0.013133603,185.07512,-174.77425,-44.445484,LYI
5713145665000,4.000002,-6.97765175244716,0.00384031025973304,-7.09262163996107,-0.019547688,0.01740966,0.0143553335,185.07562,-174.77356,-44.4483,LYI
5713150639000,4.004976,-6.96646081174164,0.00594052019006644,-7.11374946299967,-0.017715093,0.022907447,0.013133603,185.07332,-174.77747,-44.446865,LYI
5713155676000,4.010013,-6.95069847458882,-0.00456778541041281,-7.10849503972334,-0.023518313,0.023518313,0.025961773,185.07706,-174.77621,-44.44542,LYI
5713160656000,4.014993,-6.94967008290666,-0.00876616681183537,-7.10193720202179,-0.01863139,0.02565634,0.020158553,185.08618,-174.7823,-44.440247,LYI
5713165633000,4.01997,-6.96218511106735,-0.00720177898070106,-7.09411526858343,-0.032986723,0.018936822,0.021685716,185.10323,-174.77945,-44.43668,LYI
5713170647000,4.024984,-6.9747931784167,-0.00562576118176447,-7.08623518534856,-0.020158553,0.0106901415,0.01740966,185.11487,-174.7866,-44.432087,LYI
5713175662000,4.029999,-6.98740376033872,-0.00404942905937377,-7.07835353049757,-0.027488936,0.014966198,0.015271631,185.12724,-174.78615,-44.425728,LYI
5713180631000,4.034968,-6.99989867191808,-0.00248755581587239,-7.07054416998818,-0.029932396,0.00580322,0.013744468,185.12753,-174.796,-44.424088,LYI
5713185679000,4.040016,-7.01259223473809,-0.000900851019495864,-7.06261065180517,-0.03390302,0.016187929,0.020463986,185.12903,-174.80272,-44.41553,LYI
5713190810000,4.045147,-7.01778908534099,-0.00401991620737583,-7.06413631187917,-0.0290161,0.016798794,0.0067195175,185.12451,-174.8151,-44.413807,LYI
5713195662000,4.049999,-7.01348351981097,-0.0126312333986286,-7.07705336814307,-0.032070424,0.008552114,0.009162978,185.12889,-174.82042,-44.410862,LYI
5713200675000,4.055012,-7.01600687020585,-0.00989845514734561,-7.08336629371614,-0.04550946,0.01038471,0.016798794,185.12563,-174.82579,-44.41386,LYI
5713205667000,4.060004,-7.03758839133261,0.0246320029934995,-7.07041729089924,-0.04184427,0.00580322,0.0143553335,185.12001,-174.83548,-44.421135,LYI
5713210806000,4.065143,-7.05703636141016,0.0578175197906558,-7.05792806023503,-0.049785517,0.002443461,0.0076358155,185.10481,-174.84212,-44.42153,LYI
5713215632000,4.069969,-7.04389639643669,0.0621975113166224,-7.05573806607278,-0.0421497,-0.0012217305,0.0076358155,185.09177,-174.85176,-44.42321,LYI
5713221212000,4.075549,-7.02870348210766,0.0672618197946361,-7.05320591368461,-0.040011674,0.0009162979,0.005192355,185.07655,-174.8564,-44.429535,LYI
5713225661000,4.079998,-7.01658999181198,0.0712996528445792,-7.05118699863533,-0.0290161,0.0015271631,0.0030543262,185.06183,-174.86436,-44.437233,LYI
5713231754000,4.086091,-7.00021520242723,0.0761840561126387,-7.04960559393192,-0.018936822,0.005497787,0.003970624,185.0472,-174.87244,-44.443264,LYI
5713235663000,4.09,-6.9931163665118,0.0690852150084384,-7.06735268372049,-0.023518313,0.0033597588,0.007330383,185.03314,-174.8796,-44.450745,LYI
