timestamp,rel_time,acc_x,acc_y,acc_z,gyro_x,gyro_y,gyro_z,azimuth,pitch,roll,label
4543927716000,0,0.851894049471589,8.25723508732081,2.50224105527594,-1.2592987,0.70280045,0.06352998,177.03477,-150.9265,30.363178,STD
4543932692000,0.004976,0.835375723616925,8.29215956263834,2.47510380989923,-1.2522738,0.66431594,0.053450707,176.55467,-150.07278,30.503586,STD
4543937761000,0.010045,0.818548675032261,8.3277367662928,2.44745937725965,-1.2360858,0.5861252,0.03481932,176.10777,-149.26768,30.579525,STD
4543942723000,0.015007,0.80207682356706,8.36256298143059,2.42039848265369,-1.1453724,0.48838675,0.0036651916,175.66031,-148.47453,30.629585,STD
4543947692000,0.019976,0.785581734907128,8.39743832665825,2.39329941266236,-1.0079277,0.36377025,-0.03848451,175.22176,-147.68796,30.642263,STD
4543952755000,0.025039,0.768774603917948,8.4329734188071,2.36568770178167,-0.8555168,0.24495697,-0.0729984,174.79314,-146.91896,30.622515,STD
4543957769000,0.030053,0.752130133291886,8.46816460032682,2.33834321859863,-0.6976081,0.12461651,-0.10842858,174.37866,-146.17252,30.56032,STD
4543962821000,0.035105,0.735359517894427,8.50362248804873,2.31079149760925,-0.5357288,-0.0067195175,-0.15302174,173.98123,-145.45145,30.455946,STD
4543967801000,0.040085,0.718827913642774,8.53857503770334,2.28363243772661,-0.37568212,-0.34269542,-0.22632557,173.64108,-144.75194,30.265085,STD
4543972809000,0.045093,0.702203360612196,8.57372410771745,2.25632067630246,0.13958271,-0.44440445,-0.23976462,173.2851,-144.16922,30.095915,STD
4543977800000,0.050084,0.685635240768823,8.608753861799,2.22910162652851,0.25411993,-0.43493605,-0.22479841,172.97261,-143.52238,29.868746,STD
4543982777000,0.055061,0.669113595314913,8.64368535570081,2.20195892752532,0.18295415,-0.44409904,-0.22204952,172.6854,-142.94266,29.61105,STD
4543987845000,0.060129,0.652289866329496,8.679255540771,2.17431994851222,0.17195857,-0.4633413,-0.22021692,172.40604,-142.40237,29.355959,STD
4543992794000,0.065078,0.63586116965451,8.7139905143133,2.14732995105053,0.16676621,-0.47342056,-0.20525073,172.13498,-141.84828,29.104029,STD
4543997782000,0.070066,0.619303008608879,8.74899921264206,2.12012726215603,0.15821409,-0.47708577,-0.19486602,171.87091,-141.28885,28.848974,STD
4544002805000,0.075089,0.602628661589591,8.78425356142019,2.09273369633465,0.13225232,-0.48716503,-0.18051068,171.61972,-140.72632,28.594599,STD
4544007816000,0.0801,0.585994149761272,8.81942368718711,2.06540557403105,0.13316862,-0.48563787,-0.17012598,171.37277,-140.16797,28.34328,STD
4544012889000,0.085173,0.569153822779618,8.85502896517864,2.03773932688554,0.1142318,-0.4804455,-0.16279559,171.13461,-139.60056,28.093225,STD
4544017821000,0.090105,0.552781559291837,8.88964462278838,2.01084204107405,0.105068825,-0.47616947,-0.15821409,170.90266,-139.03635,27.845095,STD
4544022876000,0.09516,0.536000985096635,8.92512356626309,1.98327395920523,0.081855945,-0.47647488,-0.15149458,170.67735,-138.46619,27.599321,STD
4544027872000,0.100156,0.519416267257026,8.96018841326599,1.95602764129887,0.06078109,-0.45112398,-0.13194689,170.45317,-137.89758,27.363178,STD
4544032805000,0.105089,0.503040684169997,8.99481108946,1.9291249018609,0.04795292,-0.39858958,-0.108123146,170.22931,-137.32793,27.13462,STD
4544037872000,0.110156,0.486220274783827,9.03037425594593,1.90149137647429,0.0290161,-0.31673363,-0.07788532,170.00179,-136.7574,26.921825,STD
4544042962000,0.115246,0.469323514614969,9.06609884987001,1.87373241767858,0.035430185,-0.2706133,-0.062308256,169.77617,-136.1922,26.713861,STD
4544047892000,0.120176,0.452957890325683,9.10070047031122,1.84684603912006,0.023823744,-0.27275133,-0.06872234,169.54797,-135.62132,26.513298,STD
4544052860000,0.125144,0.436466121264998,9.13556879695462,1.81975242275521,0.018936822,-0.28130344,-0.08246681,169.31548,-135.05621,26.320974,STD
4544057819000,0.130103,0.420004228597539,9.1703739563396,1.7927078890287,-0.0061086523,-0.28252518,-0.09132435,169.08536,-134.48537,26.128521,STD
4544062850000,0.135134,0.403303324784273,9.20568445379187,1.76527069419545,-0.02443461,-0.29229903,-0.10048734,168.86096,-133.91434,25.929344,STD
4544067957000,0.140241,0.386350131428211,9.24152836364852,1.73741902374954,-0.02687807,-0.2828306,-0.1142318,168.63368,-133.34106,25.72966,STD
4544072870000,0.145154,0.370040940326128,9.27601066815717,1.71062535684122,-0.032375857,-0.2773328,-0.12736541,168.41275,-132.764,25.525223,STD
4544077859000,0.150143,0.35347945968125,9.31102638507019,1.68341721432024,-0.035124753,-0.28099802,-0.14874569,168.19225,-132.18578,25.315378,STD
4544082843000,0.155127,0.336934577032608,9.34600700906187,1.65623633993166,-0.02687807,-0.28405234,-0.16982053,167.97253,-131.60939,25.103252,STD
4544087868000,0.160152,0.320253590814826,9.38127539500854,1.62883186685731,-0.02107485,-0.29565877,-0.19242255,167.7568,-131.03091,24.883608,STD
4544092957000,0.165241,0.303360150245215,9.41699297034836,1.60107836168808,-0.019242255,-0.30482176,-0.20830505,167.54369,-130.45416,24.6605,STD
4544097871000,0.170155,0.287047639543886,9.45148229344128,1.57427924115328,-0.008246681,-0.30787608,-0.23273966,167.33179,-129.87857,24.429255,STD
4544102888000,0.175172,0.270393210120082,9.48669453071381,1.54691839709079,-0.009162978,-0.31337386,-0.258396,167.12534,-129.30142,24.192442,STD
4544107839000,0.180123,0.253957874246602,9.52144354142465,1.51991749237614,-0.008552114,-0.32620203,-0.27397305,166.92462,-128.72836,23.951132,STD
4544112830000,0.185114,0.237389754403229,9.5564732955062,1.49269844260219,-0.011911872,-0.34208453,-0.28527406,166.72818,-128.15445,23.704103,STD
4544117923000,0.190207,0.220483035436629,9.59221894518309,1.46492312292703,-0.0061086523,-0.35124752,-0.29810223,166.53616,-127.58385,23.4529,STD
4544122863000,0.195147,0.204084215154869,9.62689075146698,1.43798220810369,-0.00580322,-0.38148534,-0.30390546,166.35905,-127.01507,23.196463,STD
4544127855000,0.200139,0.199937933984799,9.67967661346363,1.40791546818675,-0.013744468,-0.40408736,-0.30634892,166.1865,-126.44869,22.938837,STD
4544132820000,0.205104,0.234356215160152,9.78723364386536,1.36919489231813,-0.003970624,-0.41599923,-0.3136793,166.02321,-125.88901,22.677341,STD
4544137938000,0.210222,0.270877958031096,9.8970229580436,1.3311762,-0.016187929,-0.4392121,-0.31581733,165.91872,-125.25014,22.207178,STD
4544142825000,0.215109,0.325728158434253,9.98112678092038,1.3311762,-0.02443461,-0.45142943,-0.3115413,165.82224,-124.62469,21.74647,STD
4544147853000,0.220137,0.382160899917181,10.0676571720447,1.3311762,-0.04062254,-0.48655418,-0.30879238,165.74329,-123.99161,21.281164,STD
4544152884000,0.225168,0.469774636743555,10.1627983808232,1.32703534934419,-0.062308256,-0.5183192,-0.30207285,165.67545,-123.36838,20.827166,STD
4544157827000,0.230111,0.589672286192673,10.2655680680235,1.31847123855269,-0.07452556,-0.54702985,-0.2959642,165.62381,-122.75521,20.37979,STD
4544162813000,0.235097,0.697358164270309,10.3418641739756,1.32181281840403,-0.09560041,-0.5739079,-0.2846632,165.58202,-122.13695,19.948383,STD
4544167810000,0.240094,0.76616521075665,10.3375636465672,1.36051671188893,-0.1160644,-0.57543504,-0.27366763,165.54865,-121.528786,19.528164,STD
4544173115000,0.245399,0.834812927339877,10.3301135197784,1.4194131724463,-0.14294247,-0.58062744,-0.27030787,165.52098,-120.924934,19.13854,STD
4544177871000,0.250155,0.852520094528137,10.2946989080572,1.64960653079016,-0.16279559,-0.5720753,-0.25900686,165.49876,-120.33362,18.764645,STD
4544183230000,0.255514,0.8714894,10.253260995255,1.88396120557533,-0.18142697,-0.55863625,-0.25534168,165.47401,-119.74051,18.415726,STD
4544187886000,0.26017,0.8714894,10.1915512752076,1.66797757663108,-0.1966986,-0.54183745,-0.24709499,165.45401,-119.15857,18.080418,STD
4544193271000,0.265555,0.869818942235087,10.1197991618424,1.42982963340045,-0.2125811,-0.4981606,-0.23945917,165.40578,-118.54701,17.77491,STD
4544197870000,0.270154,0.8291711366222,10.0495892666751,1.50003941281148,-0.23426682,-0.462425,-0.23701571,165.36191,-117.9436,17.477373,STD
4544202872000,0.275156,0.784961455457673,9.9732270367061,1.57640151688061,-0.2574797,-0.408058,-0.22602014,165.32823,-117.36699,17.178799,STD
4544207812000,0.280096,0.643743525570282,9.87822246802747,1.83547553871529,-0.267559,-0.36865717,-0.2302962,165.2926,-116.798294,16.885845,STD
4544212839000,0.285123,0.424850000682983,9.76644721785818,2.24066146494147,-0.28191432,-0.3036,-0.23396139,165.24098,-116.2377,16.610577,STD
4544218822000,0.291106,0.238620247995916,9.62108145540603,2.34299534020418,-0.2941316,-0.21380283,-0.2275473,165.17221,-115.6568,16.336584,STD
4544222877000,0.295161,0.148518273691508,9.51656331294664,2.22766485542459,-0.31520647,-0.18203785,-0.21563543,165.1067,-115.08369,16.069534,STD
4544227828000,0.300112,-0.0343763317360071,9.35956318348758,2.33227470713971,-0.31520647,-0.10629055,-0.20922135,164.99246,-114.42934,15.777829,STD
4544232838000,0.305122,-0.358611804935654,9.14458067577494,2.90673535015425,-0.33536503,-0.056505036,-0.21380283,164.88263,-113.780045,15.491873,STD
4544237851000,0.310135,-0.683041431113266,8.92946943602174,3.48153998157779,-0.34697145,-0.03359759,-0.22724187,164.7844,-113.11744,15.166427,STD
4544242887000,0.315171,-0.935114279208088,8.84259542375737,3.54686353310868,-0.3717115,-0.053145275,-0.25228736,164.68784,-112.45958,14.844059,STD
4544247853000,0.320137,-1.14045290907751,8.83257922767481,3.31147534229149,-0.39370266,-0.09132435,-0.27122417,164.59447,-111.8132,14.52677,STD
4544252863000,0.325147,-1.22449699812507,8.84351391624565,3.29937273355788,-0.40042216,-0.1518,-0.29352075,164.48802,-111.0244,14.13632,STD
4544257853000,0.330137,-1.26205373703828,8.86229210362636,3.37180358917705,-0.40866885,-0.22052236,-0.29443705,164.40164,-110.24649,13.749503,STD
4544262862000,0.335146,-1.29975347756259,8.88114179111934,3.44451023362524,-0.4447099,-0.26419923,-0.2843578,164.35847,-109.41652,13.282592,STD
4544267864000,0.340148,-1.35887779365423,8.91400161084277,3.48268610463857,-0.46395215,-0.30207285,-0.2602286,164.3389,-108.60999,12.826766,STD
4544272911000,0.345195,-1.52793455686209,9.01865582961359,3.34583065567955,-0.45173484,-0.31856623,-0.23151793,164.33098,-107.82442,12.385341,STD
4544277786000,0.35007,-1.69122992453364,9.11974346910393,3.21363919269654,-0.43066,-0.31123585,-0.2144137,164.32697,-106.95898,11.91315,STD
4544282813000,0.355097,-1.74786974828001,9.22397610055328,3.05797097760404,-0.39675698,-0.3005457,-0.19303341,164.33272,-106.131,11.464307,STD
4544288683000,0.360967,-1.7704084113383,9.3456852858632,2.86864646208804,-0.35124752,-0.31581733,-0.17837265,164.34789,-105.33661,11.031617,STD
4544292904000,0.365188,-1.78446083092907,9.43193924631797,2.72118703166945,-0.2932153,-0.33200526,-0.1563815,164.38187,-104.42947,10.510541,STD
4544297963000,0.370247,-1.79603213047528,9.53222352018151,2.51676053830905,-0.24312437,-0.31337386,-0.124311075,164.41127,-103.57317,10.021465,STD
4544302781000,0.375065,-1.80705219792214,9.62773046453308,2.32207248829711,-0.18448131,-0.3051272,-0.09437868,164.45647,-102.48614,9.422537,STD
4544307800000,0.380084,-1.78132203430207,9.68849203952428,2.09115986515246,-0.12583824,-0.28893927,-0.07849618,164.49005,-101.49055,8.873672,STD
4544312875000,0.385159,-1.74220723080569,9.73629905687204,1.84777901184834,-0.10048734,-0.26236662,-0.043676864,164.5156,-100.58162,8.377158,STD
4544317842000,0.390126,-1.69169690073318,9.76106092473318,1.58194003485847,-0.04153884,-0.24404067,-0.0018325958,164.5619,-99.66256,7.8550186,STD
4544322866000,0.39515,-1.62918234786079,9.76552633986079,1.28722860462181,0.02443461,-0.20158553,0.040011674,164.58568,-98.83728,7.385015,STD
4544327854000,0.400138,-1.54067889071831,9.72908616183098,0.932037784672535,0.10048734,-0.17379116,0.092240654,164.61494,-98.05815,6.9330544,STD
4544332814000,0.405098,-1.40687338987324,9.62204167732394,0.470408715940141,0.16920967,-0.13041973,0.15088372,164.61855,-97.378815,6.532439,STD
4544337866000,0.41015,-1.27058601280282,9.51301169028169,0.000217172545774635,0.269697,-0.064446285,0.20463985,164.60701,-96.822044,6.184005,STD
4544342906000,0.41519,-1.16084465988306,9.40881512165221,-0.295046739012637,0.36163223,0.014966198,0.25686884,164.5719,-96.342705,5.8767967,STD
4544347904000,0.420188,-1.07508144966051,9.30951027253866,-0.434976123020558,0.45265114,0.09132435,0.30634892,164.5128,-95.93522,5.604526,STD
4544352876000,0.42516,-0.999004826564148,9.22376727829525,-0.520576011478032,0.53023106,0.15454891,0.35124752,164.45749,-95.66601,5.399566,STD
4544357816000,0.4301,-0.936646182100176,9.15725135035149,-0.528890517664323,0.6133087,0.21868975,0.40317106,164.37495,-95.43781,5.2207656,STD
4544362911000,0.435195,-0.881701840429695,9.09351658469211,-0.510240085747171,0.6817256,0.28405234,0.44104472,164.2868,-95.27506,5.081073,STD
4544367825000,0.440109,-0.886215622324957,9.06192059217341,-0.325176046096298,0.752586,0.33200526,0.47433686,164.18205,-95.13821,4.9594884,STD
4544373096000,0.44538,-0.89064306,9.03584009927403,-0.111163161366221,0.79443026,0.36010507,0.49388456,164.06874,-95.02996,4.8607273,STD
4544377816000,0.4501,-0.89064306,9.08723785664305,0.228854112140296,0.80878556,0.37140608,0.5027421,163.94464,-94.93411,4.770617,STD
4544382836000,0.45512,-0.89064306,9.14190242062451,0.590482653030701,0.79717916,0.3643811,0.50640726,163.81871,-94.81768,4.6728816,STD
4544387864000,0.460148,-0.929007388995768,9.29144622431704,1.07754735900346,0.77640975,0.3494149,0.48991394,163.69049,-94.70297,4.574212,STD
4544392898000,0.465182,-0.98001796273182,9.47230221354367,1.60620253412851,0.7150178,0.30634892,0.46273044,163.57121,-94.587,4.4753957,STD
4544397846000,0.47013,-1.02083292167892,9.70283783467259,2.17198995749701,0.61208695,0.24678956,0.41447207,163.46352,-94.42299,4.3492274,STD
4544402824000,0.475108,-1.05751101121559,9.95958399333219,2.76291451586596,0.4538729,0.20311269,0.34116822,163.36305,-94.252716,4.2124314,STD
4544407828000,0.480112,-1.04529020306261,10.2644466499322,3.34786534904051,0.2724459,0.12522738,0.30482176,163.28925,-94.0788,4.069471,STD
4544412832000,0.485116,-0.933821277534406,10.6638772008141,3.91449899722814,0.17501289,0.036957346,0.22571471,163.2313,-86.10028,3.8995636,STD
4544417866000,0.49015,-0.705627610600354,11.1944392143377,4.25741935498908,-0.024740042,-0.051923547,0.17562376,163.1892,-86.218666,3.7576647,STD
4544422990000,0.495274,-0.159310196004578,12.0828433031943,3.99191927632921,-0.23335053,-0.10995574,0.121256754,163.16534,-86.309425,3.5971396,STD
4544427888000,0.500172,0.22529217385057,12.6171924493927,3.6707340777696,-0.38759398,-0.12217305,0.07941248,163.15439,-86.30204,3.471487,STD
4544432814000,0.505098,0.371141616977549,12.6033019271255,3.22971312326095,-0.49968776,-0.095294975,0.04642576,163.1516,-86.22884,3.3371675,STD
4544437807000,0.510091,0.518974802022819,12.5892224757085,2.78269371078395,-0.5549711,-0.052839845,0.021991149,163.18106,-86.03672,3.2364292,STD
4544442909000,0.515193,0.672850280304046,12.3719284012061,2.26028046873272,-0.54183745,-0.023823744,-0.0076358155,163.21086,-85.79569,3.1316142,STD
4544448060000,0.520344,0.829860496080074,12.0331169431276,1.69421732295,-0.5027421,0.021380283,-0.01740966,163.22743,-85.51382,3.0312726,STD
4544452780000,0.525064,0.930901550670241,11.7130508954424,1.21602345715818,-0.42058071,0.07513642,-0.021991149,163.24738,-85.25341,2.9459527,STD
4544457833000,0.530117,0.897540816373037,11.3386690743776,0.837935060292608,-0.3222314,0.12156218,-0.03481932,163.25931,-85.0003,2.8605309,STD
4544462799000,0.535083,0.864754470337036,10.9707331702796,0.466356398342398,-0.20097467,0.18906279,-0.04153884,163.26671,-84.82051,2.8029919,STD
4544467913000,0.540197,0.819349105154893,10.5750869082937,0.282474995748238,-0.08155051,0.26175576,-0.06169739,163.26106,-84.66952,2.7402804,STD
4544474112000,0.546396,0.756099949155876,10.0836899124734,0.199764566451401,0.036651913,0.31856623,-0.073303826,163.24173,-84.549866,2.679872,STD
4544477843000,0.550127,0.728556926616624,9.82165296950504,0.195908568410353,0.14446963,0.36987892,-0.07513642,163.19135,-84.520546,2.6221094,STD
4544482830000,0.555114,0.732291346946595,9.60132185808116,0.367692028371257,0.1966986,0.43157628,-0.07788532,163.12265,-84.508965,2.5603926,STD
4544487807000,0.560091,0.736018278966299,9.38143255758855,0.53913102580968,0.22327125,0.47800204,-0.07574729,163.03665,-84.52936,2.498511,STD
4544492914000,0.565198,0.742919295852167,9.14493345865461,0.735463643924488,0.22510384,0.537256,-0.06536258,162.93001,-84.55552,2.437029,STD
4544498050000,0.570334,0.751637977904813,8.90081027014092,0.944712177059293,0.21533,0.5647449,-0.061086524,162.82024,-84.585495,2.3745887,STD
4544502871000,0.575155,0.755195187619617,8.70101479956639,1.10557351245514,0.21624629,0.5897904,-0.03573562,162.6997,-84.579956,2.3208113,STD
4544507833000,0.580117,0.751642549940191,8.54114573302931,1.21570535470993,0.19150625,0.605062,-0.027794369,162.57634,-84.56779,2.263283,STD
4544512854000,0.585138,0.748047670095694,8.37937576465311,1.32714670496411,0.18509217,0.61941737,0.00030543262,162.45488,-84.53345,2.2250938,STD
4544517895000,0.590179,0.68398211560395,8.23100719498016,1.47017198091723,0.17928895,0.62125,0.0290161,162.33484,-84.49371,2.1894104,STD
4544522912000,0.595196,0.595310286343084,8.08913262000554,1.62534769369752,0.18112154,0.61575216,0.04734206,162.21483,-84.45429,2.1585298,STD
4544527853000,0.600137,0.561834064432504,8.05513381483012,1.71848542589072,0.18112154,0.59620446,0.06505715,162.10959,-84.39959,2.1374235,STD
4544532812000,0.605096,0.573611716078367,8.11009603066876,1.76167012946185,0.16340645,0.5705481,0.081855945,162.00955,-84.341064,2.121329,STD
4544537881000,0.610165,0.585668766387145,8.1732852772617,1.80439577036572,0.1301143,0.5564982,0.096516706,161.90353,-84.26496,2.1011133,STD
4544543947000,0.616231,0.600253970705498,8.30941415549418,1.843289648548,0.10293079,0.5531385,0.13225232,161.80307,-84.18454,2.0918367,STD
4544547799000,0.620083,0.609515791845343,8.39585801288811,1.86798783825425,0.052839845,0.56169057,0.15241088,161.70264,-84.089615,2.088637,STD
4544552872000,0.625156,0.61291564,8.55100457337403,1.88253919214996,0.03573562,0.5687156,0.18112154,161.60484,-83.995094,2.0975509,STD
4544557856000,0.63014,0.61291564,8.71911013054708,1.89001055024654,-0.0036651916,0.5751296,0.20219639,161.50694,-83.88369,2.1090229,STD
4544562915000,0.635199,0.61218152713019,8.94517136463081,1.87638663718406,-0.04520403,0.56046885,0.22999077,161.41202,-83.7649,2.1344283,STD
4544567883000,0.640167,0.608238745792658,9.4104198094804,1.76993145873042,-0.073303826,0.537256,0.24984388,161.32005,-83.64214,2.1624653,STD
4544572825000,0.645109,0.604316598979034,9.87323337921604,1.66403341285324,-0.093462385,0.505491,0.25778514,161.23048,-83.51421,2.1955895,STD
4544577881000,0.650165,0.61755255820687,10.1698345416262,1.58788579722492,-0.11881329,0.47219884,0.27305678,161.14983,-83.37938,2.2357879,STD
4544582777000,0.655061,0.635750875241607,10.401863896177,1.5241915735882,-0.122783914,0.4352415,0.2779437,161.08177,-83.24979,2.2750556,STD
4544587870000,0.660154,0.654410247135392,10.6206244054157,1.41740012342993,-0.14538592,0.39003745,0.2678644,161.01227,-83.13083,2.310258,STD
4544592841000,0.665125,0.672502939610451,10.8241666644181,1.2952747207981,-0.1591304,0.3475823,0.2687807,160.95418,-83.01589,2.349751,STD
4544597873000,0.670157,0.6799533,10.9787895204344,1.22047494186911,-0.15760323,0.32436943,0.27214047,160.89536,-82.90703,2.3890166,STD
4544602845000,0.675129,0.6799533,11.096729225493,1.1796496447747,-0.15607607,0.3100141,0.2706133,160.84804,-82.7989,2.4271243,STD
4544607825000,0.680109,0.686975455263949,11.142935640589,1.17751937181208,-0.12767084,0.28008172,0.26450464,160.8112,-82.72112,2.4660788,STD
4544612872000,0.685156,0.701500380516879,11.1138856889713,1.21625255637584,-0.115453534,0.2501493,0.25350907,160.78014,-82.64298,2.5025988,STD
4544617844000,0.690128,0.7086837,11.0171850744599,1.27886213881173,-0.08002335,0.21838433,0.23609942,160.75499,-82.58917,2.5359626,STD
4544622827000,0.695111,0.7086837,10.8514863866705,1.36631426942515,-0.042455133,0.18387043,0.21930063,160.74054,-82.5422,2.5666234,STD
4544627829000,0.700113,0.720473457675826,10.6722256786825,1.45105247168305,-0.01038471,0.16157386,0.19914207,160.73189,-82.500046,2.595912,STD
4544632818000,0.705102,0.748576229316864,10.4755062352743,1.53134598516931,0.034208454,0.13622294,0.183565,160.73488,-82.473755,2.6224198,STD
4544637943000,0.710227,0.77796432092865,10.2747738326388,1.61314013102305,0.057421334,0.12614368,0.16707164,160.73843,-82.43968,2.6484435,STD
4544642932000,0.715216,0.814532727834,10.100058280466,1.68221383093801,0.08307768,0.11209377,0.15424347,160.75095,-82.42011,2.6716502,STD
4544647841000,0.720125,0.850514750182839,9.92814434067523,1.75017991489923,0.0870483,0.10720685,0.14172074,160.75975,-82.37764,2.7007535,STD
4544652824000,0.725108,0.868996030443038,9.72493612341772,1.77407036320483,0.087964594,0.099265605,0.13103059,160.77408,-82.34323,2.7268744,STD
4544657828000,0.730112,0.879336020506329,9.50779656962025,1.77751705535098,0.10629055,0.09101892,0.12370021,160.79037,-82.31626,2.7502193,STD
4544662862000,0.735146,0.889738000917721,9.28935521993671,1.7809844111191,0.11026118,0.086132,0.11484267,160.81375,-82.27447,2.7822874,STD
4544667876000,0.74016,0.8951483994469,9.20727387138892,1.74524333738049,0.10934488,0.087659165,0.10720685,160.83794,-82.237656,2.8122618,STD
4544673212000,0.745496,0.902171541438351,9.13181202392006,1.70829615307263,0.115453534,0.083383106,0.10842858,160.86514,-82.20443,2.8422828,STD
4544677826000,0.75011,0.950847531473759,9.02055286914785,1.79869446592179,0.09743301,0.086132,0.106901415,160.89021,-82.15386,2.873431,STD
4544682818000,0.755102,1.00351128142104,8.90017885514202,1.89649862234637,0.090713486,0.07788532,0.1020145,160.91605,-82.109184,2.9063408,STD
4544687873000,0.760157,1.0342951,8.86889730002122,1.88636171510715,0.08032878,0.030848695,0.09407325,160.95255,-82.06014,2.9389353,STD
4544692876000,0.76516,1.0342951,8.96039179885423,1.72878738421388,0.03176499,0.046120327,0.106901415,160.9732,-81.99843,2.9737766,STD
4544697869000,0.770153,1.04371703904234,9.04224123478103,1.63794374651099,0.007330383,0.08124508,0.12034045,161.00159,-81.91233,3.023519,STD
4544702835000,0.775119,1.06100161580047,9.11570067472288,1.60337463811557,-0.0061086523,0.09254608,0.13194689,161.03241,-81.81708,3.076306,STD
4544707822000,0.780106,1.08975458596643,9.19416275733622,1.57159699806172,-0.0070249503,0.086437434,0.13622294,161.04272,-81.734436,3.1324987,STD
4544712881000,0.785165,1.14221704594478,9.28334906529507,1.54536574068219,-0.023823744,0.086132,0.1554652,161.04813,-81.64316,3.1946466,STD
4544717867000,0.790151,1.1865257107713,9.38227558492018,1.52775019730717,-0.050701816,0.07086037,0.17501289,161.05615,-81.555435,3.262929,STD
4544722843000,0.795127,1.22318980525101,9.49226777264859,1.51858417368725,-0.06414085,0.06261369,0.1881465,161.06277,-81.46731,3.3333235,STD
4544727856000,0.80014,1.25690967448307,9.5785214526244,1.5146259948648,-0.08002335,0.056505036,0.20708331,161.06984,-81.37039,3.420621,STD
4544732868000,0.805152,1.28599335803984,9.62941813610543,1.51826145056427,-0.10140363,0.035430185,0.21777347,161.0844,-81.269966,3.5085132,STD
4544737841000,0.810125,1.31485073200788,9.67991877596001,1.52186861760206,-0.10751228,0.018325957,0.23060162,161.094,-81.165855,3.6089516,STD
4544742816000,0.8151,1.35316594902724,9.72329542542153,1.53454971253783,-0.12736541,-0.0021380284,0.23884831,161.11145,-81.054115,3.7100267,STD
4544747801000,0.820085,1.39444591935798,9.76457523411154,1.55002977549719,-0.13194689,-0.010079277,0.24220806,161.13094,-80.9461,3.811455,STD
4544752914000,0.825198,1.40673666526557,9.79391171780665,1.55570413813527,-0.14110987,-0.012217305,0.2443461,161.15228,-80.827034,3.9207995,STD
4544757782000,0.830066,1.41564387756974,9.82063316870462,1.56015769778372,-0.13652839,-0.003970624,0.24129178,161.17403,-80.71305,4.02729,STD
4544762822000,0.835106,1.34258993147031,9.76972067719911,1.6326813392188,-0.13194689,-0.017715093,0.22479841,161.20311,-80.59636,4.1384,STD
4544767826000,0.84011,1.25128027970784,9.70123825960622,1.7201864254684,-0.11881329,-0.021380283,0.21074851,161.22804,-80.485634,4.2462006,STD
4544772913000,0.845197,1.15935365664752,9.61899059612228,1.7985013509643,-0.1160644,-0.034513887,0.18784106,161.2619,-80.37971,4.3478847,STD
4544777831000,0.850115,1.0723842653057,9.51269509940501,1.85164925067706,-0.099571034,-0.03481932,0.16493362,161.29448,-80.28463,4.4430985,STD
4544782828000,0.855112,0.998112943938281,9.41951108890522,1.90211141579721,-0.07666359,-0.046731193,0.1423316,161.32623,-80.193016,4.5156975,STD
4544787865000,0.860149,0.949378377527553,9.35305442459589,1.9464155965191,-0.062308256,-0.07391469,0.10751228,161.36443,-80.110275,4.5777783,STD
4544792872000,0.865156,0.904329881046947,9.29543450353137,1.97419883061903,-0.03726278,-0.09987647,0.074830994,161.39973,-80.03664,4.62002,STD
4544798881000,0.871165,0.868467572390943,9.27152644754882,1.92040536139385,-0.016187929,-0.111177474,0.06291912,161.43929,-79.96931,4.658459,STD
4544802823000,0.875107,0.855014277471783,9.26523612911964,1.89352922252822,0.008857546,-0.10720685,0.05681047,161.47194,-79.90829,4.68581,STD
4544807824000,0.880108,0.865825468623025,9.28325478103837,1.88271803137698,0.014966198,-0.10842858,0.029321533,161.51067,-79.85364,4.704493,STD
4544812835000,0.885119,0.876658277832957,9.30130946305493,1.87188522216704,0.029626964,-0.09743301,0.013439035,161.53625,-79.812775,4.7211785,STD
4544817841000,0.890125,0.8810662,9.31999816505339,1.8589708538569,0.036651913,-0.09101892,0.0076358155,161.56413,-79.77475,4.7333903,STD
4544822843000,0.895127,0.8810662,9.33911967148987,1.84463002352061,0.048258353,-0.08735373,-0.011301007,161.59084,-79.746216,4.737283,STD
4544827873000,0.900157,0.885806464230034,9.35644444926452,1.81030537896618,0.0580322,-0.082161374,-0.011911872,161.61754,-79.71847,4.7446523,STD
4544832833000,0.905117,0.893701598743456,9.37223458638744,1.76293467905759,0.064446285,-0.0711658,-0.021380283,161.64253,-79.69698,4.744129,STD
4544837958000,0.910242,0.901192843231407,9.39597383586506,1.71506834075755,0.06383542,-0.061086524,-0.018936822,161.66159,-79.678154,4.749444,STD
4544842902000,0.915186,0.905863162742158,9.44734744801736,1.67303541639377,0.062308256,-0.05009095,-0.016187929,161.67752,-79.6622,4.7518864,STD
4544847918000,0.920202,0.911159176379728,9.50900993804792,1.63422760727227,0.059253927,-0.01863139,-0.02443461,161.68292,-79.65577,4.7538404,STD
4544852867000,0.925151,0.919073605444602,9.61585453828171,1.61444152427987,0.052839845,-0.011911872,-0.0076358155,161.69089,-79.64451,4.7642884,STD
4544857826000,0.93011,0.927004026485764,9.72291502980713,1.59461546132587,0.048258353,-0.00030543262,0.0030543262,161.68591,-79.64145,4.7703733,STD
4544862820000,0.935104,0.922505429560802,9.78463559821826,1.55108092352784,0.04734206,0.025350908,0.015577064,161.67436,-79.63533,4.7805495,STD
4544867844000,0.940128,0.913932811640089,9.83178511091314,1.49964514439198,0.0290161,0.032070424,0.027794369,161.6647,-79.62245,4.793683,STD
4544872872000,0.945156,0.902613355358617,9.89045044819971,1.4868003493999,0.017715093,0.046731193,0.03634648,161.6423,-79.61538,4.8078947,STD
4544877872000,0.950156,0.888820527706193,9.95941444243879,1.5097883474796,-0.002443461,0.050396383,0.053450707,161.6207,-79.59901,4.8275795,STD
4544882817000,0.955101,0.882837018754007,10.0105817275799,1.5227122,-0.0125227375,0.07452556,0.06872234,161.58849,-79.587814,4.840722,STD
4544887887000,0.960171,0.887044165465731,10.0400317457759,1.5227122,-0.020463986,0.07666359,0.08827003,161.56117,-79.56977,4.8601313,STD
4544892928000,0.965212,0.892966107787062,10.0698700725299,1.51922762740977,-0.030543262,0.07971791,0.100792766,161.5252,-79.55064,4.8778424,STD
4544897918000,0.970202,0.909432028891377,10.1028017513998,1.49452873930571,-0.042455133,0.09010262,0.11759156,161.48634,-79.5266,4.9010115,STD
4544902845000,0.975129,0.925690063617021,10.1353176595745,1.47014168085106,-0.042760566,0.086132,0.122783914,161.44801,-79.500824,4.9249926,STD
4544907817000,0.980101,0.946916348446084,10.1448324096688,1.45327404272485,-0.04153884,0.08827003,0.13561209,161.40497,-79.47025,4.954054,STD
4544912812000,0.985096,0.969441614946633,10.1485866958876,1.43825725065924,-0.045814894,0.08277224,0.15210545,161.36589,-79.43812,4.9850917,STD
4544917797000,0.990081,0.984102845641026,10.1444902128205,1.42579017282051,-0.05009095,0.07544186,0.16371189,161.32713,-79.40841,5.019965,STD
4544922882000,0.995166,0.974497711913215,10.1156747113412,1.42098760595661,-0.03726278,0.06719518,0.17745635,161.29045,-79.38042,5.0590982,STD
4544927808000,1.000092,0.962316916447451,10.0865431470264,1.43054238030208,-0.036957346,0.05955936,0.18936823,161.26141,-79.35344,5.1059537,STD
4544932816000,1.0051,0.939679732155444,10.0525874730176,1.49090816305853,-0.032070424,0.051618114,0.18906279,161.23572,-79.33122,5.1521072,STD
4544939248000,1.011532,0.910605776611076,10.0089766712555,1.56843865720579,-0.023823744,0.0421497,0.19547687,161.2127,-79.310684,5.2020125,STD
4544942920000,1.015204,0.867788040837519,9.87850580370943,1.67077069460974,-0.022296581,0.03176499,0.1966986,161.19331,-79.29088,5.2492776,STD
4544947806000,1.02009,0.809026485375773,9.69770114837712,1.81089439688949,-0.024129177,0.028405234,0.19456059,161.17497,-79.264015,5.2919416,STD
4544952866000,1.02515,0.763941814290255,9.57984264119049,1.91232563650943,-0.027794369,0.02107485,0.1881465,161.16154,-79.23816,5.3331175,STD
4544957831000,1.030115,0.729593156661851,9.5077104411616,1.98445780067182,-0.02076942,0.0036651916,0.17165314,161.15318,-79.216866,5.3702345,STD
4544963823000,1.036107,0.687761151223058,9.42100498170426,2.07068077799499,-0.009468411,-0.002443461,0.16187929,161.13869,-79.17983,5.4042354,STD
4544967901000,1.040185,0.651871732753551,9.36880215279866,2.11309558925647,-0.0125227375,-0.025045475,0.14721853,161.13542,-79.14507,5.4329104,STD
4544972893000,1.045177,0.607938437756057,9.30489913124478,2.1650168099081,-0.009162978,-0.035430185,0.12950343,161.12697,-79.10944,5.455189,STD
4544977867000,1.050151,0.563256092305476,9.25290806179955,2.2070415323487,-0.0143553335,-0.046731193,0.111177474,161.12636,-79.07419,5.473715,STD
4544982835000,1.055119,0.51755235351585,9.21482165257765,2.23751061995677,-0.016493361,-0.051618114,0.098043874,161.12778,-79.043236,5.488514,STD
4544988279000,1.060563,0.470385513614282,9.17506184713758,2.26810025556605,-0.017715093,-0.062002823,0.07941248,161.13542,-79.01435,5.4900613,STD
4544992887000,1.065171,0.496899085791778,9.18642463488113,2.23022380863445,-0.010995574,-0.082161374,0.06352998,161.1478,-78.989204,5.4894853,STD
4544997802000,1.070086,0.525179078685091,9.19854444863102,2.18982390918376,-0.0070249503,-0.08368854,0.044898596,161.15646,-78.96465,5.471774,STD
4545002867000,1.075151,0.576108180718552,9.23174453644895,2.14550160417101,-0.007941248,-0.10293079,0.040011674,161.17578,-78.94145,5.455958,STD
4545007822000,1.080106,0.639085061133757,9.2767279889089,2.10051805776851,-0.0125227375,-0.096516706,0.021991149,161.18951,-78.923256,5.430822,STD
4545012856000,1.08514,0.69678818763457,9.32196923003789,2.06408077247838,-0.007941248,-0.11056661,0.013744468,161.21434,-78.91099,5.416846,STD
4545017845000,1.090129,0.748019878773322,9.36637022446208,2.03675721528344,-0.01985312,-0.115453534,0.010995574,161.23499,-78.89546,5.399337,STD
4545022850000,1.095134,0.799415872790049,9.41091361534062,2.00934602992351,-0.01160644,-0.13072516,0.009773844,161.26933,-78.88581,5.3891063,STD
4545027848000,1.100132,0.863561393217593,9.45131631741898,1.97975815454282,-0.014966198,-0.13255776,0.004886922,161.30103,-78.87136,5.3773484,STD
4545032889000,1.105173,0.933406151888889,9.49042928472222,1.94902646236111,-0.0106901415,-0.15363261,-0.003970624,161.3421,-78.86171,5.3664875,STD
4545037907000,1.110191,1.00293223778704,9.52936379571759,1.91843498619213,-0.004886922,-0.1704314,-0.006414085,161.38455,-78.850105,5.368658,STD
4545042831000,1.115115,1.06840043723913,9.56637483284129,1.88997785657131,0.0061086523,-0.18112154,-0.0015271631,161.43059,-78.84109,5.3715987,STD
4545047923000,1.120207,1.12797300126234,9.60112567229971,1.86515597649394,0.0018325958,-0.20219639,-0.010079277,161.48427,-78.831795,5.371864,STD
4545052832000,1.125116,1.1848104394773,9.63017095598349,1.84284371540578,0.01038471,-0.21166481,-0.004886922,161.54417,-78.819466,5.3954196,STD
4545057911000,1.130195,1.24215827780507,9.64928681892317,1.82372775266261,0.014966198,-0.22357668,-0.009773844,161.61067,-78.80749,5.4149704,STD
4545062827000,1.135111,1.29063911259542,9.65932450763359,1.80511842919847,0.018936822,-0.23273966,-0.0033597588,161.67615,-78.787834,5.449571,STD
4545067877000,1.140161,1.3197851602049,9.64475173744476,1.78568774769988,0.0009162979,-0.2507602,-0.011301007,161.74754,-78.76641,5.479578,STD
4545072867000,1.145151,1.34458729905586,9.61765262401652,1.76020630283242,0.017104227,-0.25442538,-0.016798794,161.81996,-78.7483,5.520242,STD
4545077871000,1.150155,1.3587264534225,9.55638265981511,1.71778883973249,0.0143553335,-0.2602286,-0.013439035,161.89705,-78.72085,5.561851,STD
4545082902000,1.155186,1.366097494974,9.49058227556326,1.68777527001733,0.013744468,-0.258396,-0.01863139,161.97382,-78.69918,5.6051545,STD
4545087862000,1.160146,1.35237683408434,9.41283215039476,1.6969223772771,0.009773844,-0.27488935,-0.024129177,162.05626,-78.675446,5.6500435,STD
4545092878000,1.165162,1.34000851378092,9.34175248763251,1.70243814134276,0.015882496,-0.2846632,-0.04184427,162.1392,-78.65895,5.6915026,STD
4545097846000,1.17013,1.33546476987871,9.30994561608251,1.68880690963614,0.017104227,-0.28955013,-0.045814894,162.2239,-78.63881,5.7354975,STD
4545102946000,1.17523,1.32954534655065,9.27829415506526,1.67757205344935,0.0125227375,-0.29810223,-0.06169739,162.30905,-78.61746,5.7718477,STD
4545107706000,1.17999,1.31065760343899,9.25940651056557,1.69645979656101,0.009468411,-0.30848694,-0.06261369,162.39441,-78.59498,5.811458,STD
4545112764000,1.185048,1.29515724433825,9.23990184063993,1.71196015566175,0.0143553335,-0.32620203,-0.08093964,162.48819,-78.581566,5.840685,STD
4545117685000,1.189969,1.3147406363183,9.22521450114274,1.6923767636817,0.021991149,-0.34055737,-0.089186326,162.5822,-78.56639,5.8728986,STD
4545122687000,1.194971,1.32536075396936,9.215795704039,1.66140258871866,0.0076358155,-0.3594942,-0.10170906,162.68341,-78.54869,5.8954983,STD
4545127685000,1.199969,1.29202864472493,9.23246164989554,1.57807233736072,0.009468411,-0.35979962,-0.11056661,162.78206,-78.53701,5.917004,STD
4545132686000,1.20497,1.25867652821205,9.24913759932103,1.49469206784471,0.008552114,-0.32986724,-0.1020145,162.87636,-78.52227,5.945075,STD
4545137745000,1.210029,1.19699068484268,9.27518290210894,1.40284613282959,0.023518313,-0.27916542,-0.10170906,162.96405,-78.51382,5.9677296,STD
4545142713000,1.214997,1.13705694695013,9.29597932555136,1.32004956817008,0.035430185,-0.25870144,-0.10445796,163.0501,-78.50311,5.992242,STD
4545147714000,1.219998,1.11326717107093,9.26743149513213,1.30577570264256,0.03359759,-0.27366763,-0.12186762,163.13092,-78.51091,6.0005608,STD
4545152692000,1.224976,1.09375720098983,9.24802189331867,1.28806611344515,0.03023783,-0.301462,-0.14110987,163.2068,-78.54116,5.99407,STD
4545157754000,1.230038,1.11597228741637,9.31911072660618,1.2347498596279,0.024129177,-0.3203988,-0.15485434,163.28348,-78.57062,5.985244,STD
4545162778000,1.235062,1.13802060709376,9.38966590211713,1.18183384635689,0.011301007,-0.2968805,-0.16157386,163.35555,-78.59955,5.9666986,STD
4545167746000,1.24003,1.30383283060556,9.53901732487725,1.0177591161784,-0.009773844,-0.25900686,-0.15882497,163.42728,-78.62408,5.948366,STD
4545172748000,1.245032,1.48241350872886,9.69581988261502,0.84353400300691,-0.043676864,-0.20463985,-0.1554652,163.48627,-78.64189,5.9275656,STD
4545177726000,1.25001,1.60080274809709,9.74646415303167,0.79487497,-0.067500606,-0.14752395,-0.13530666,163.53535,-78.664116,5.9124875,STD
4545182725000,1.255009,1.696446486365,9.75602821726101,0.79487497,-0.08857546,-0.094989546,-0.122783914,163.56932,-78.67839,5.8947525,STD
4545187774000,1.260058,1.71748041655374,9.72704208276872,0.810736938553378,-0.11301007,-0.064446285,-0.105068825,163.60193,-78.683556,5.910077,STD
4545193407000,1.265691,1.70760198505768,9.67764992528841,0.835433032765977,-0.15088372,-0.064751714,-0.09437868,163.62776,-78.679,5.9257855,STD
4545197743000,1.270027,1.7046716,9.6575805997665,0.856302941827637,-0.17684549,-0.06994407,-0.08735373,163.65413,-78.65963,5.96083,FOL
4545202795000,1.275079,1.7046716,9.64731091647209,0.881977986523031,-0.1777618,-0.06811147,-0.077579886,163.67796,-78.6354,5.9987054,FOL
4545207810000,1.280094,1.72984971048451,9.70427234948372,0.885607427386815,-0.19608775,-0.07788532,-0.06688975,163.70914,-78.59912,6.03793,FOL
4545212854000,1.285138,1.76821780392375,9.7963555974583,0.87793379267355,-0.22052236,-0.089186326,-0.06261369,163.74011,-78.56121,6.077489,FOL
4545217955000,1.290239,1.81187324148738,9.90193551359909,0.87485220776569,-0.23090707,-0.09896017,-0.046731193,163.77704,-78.51813,6.121599,FOL
4545222841000,1.295125,1.87645622843225,10.0614931453276,0.893847212093042,-0.22999077,-0.059864793,-0.01863139,163.8024,-78.470215,6.1680546,FOL
4545227786000,1.30007,1.94181907543233,10.2229774860762,0.913071587123488,-0.2302962,-0.017104227,0.030543262,163.8356,-78.41854,6.228685,FOL
4545232801000,1.305085,2.01903888716691,10.427352702959,0.972510093215629,-0.21227567,-0.0009162979,0.06963864,163.86444,-78.369545,6.292848,FOL
4545237851000,1.310135,2.10205512470165,10.6526828443682,1.05157315987412,-0.20555615,0.008246681,0.11575896,163.88083,-78.31004,6.369775,FOL
4545242825000,1.315109,2.1809503275778,10.8726738542581,1.1241831628524,-0.19486602,0.016187929,0.16676621,163.90019,-78.24432,6.4642367,FOL
4545247904000,1.320188,2.2521246520437,11.0909415381914,1.18112271160862,-0.18325958,0.01160644,0.22815818,163.91841,-78.17249,6.572583,FOL
4545252800000,1.325084,2.29659700469743,11.2731367018513,1.21201518554849,-0.17470746,0.018020526,0.28527406,163.94588,-78.083954,6.697315,FOL
4545257830000,1.330114,2.23337137102791,11.3330352594639,1.13547878060238,-0.14813483,0.09162979,0.36682457,163.95197,-77.98977,6.8399925,FOL
4545263933000,1.336217,2.15665844015612,11.4057113821498,1.04261562366676,-0.13439035,0.16035213,0.4352415,163.96529,-77.88495,6.997784,FOL
4545267802000,1.340086,2.08011163995945,11.3664946623416,1.0250542063558,-0.118202426,0.19456059,0.47342056,163.96614,-77.77976,7.1636376,FOL
4545272890000,1.345174,1.91711269889508,11.1244657488089,1.09420525819564,-0.11148291,0.19120082,0.5021312,163.95692,-77.66714,7.3396163,FOL
4545277787000,1.350071,1.76255999166667,10.9042778244048,1.14807671577381,-0.113926366,0.1777618,0.5170974,163.93724,-77.580154,7.492924,FOL
4545282828000,1.355112,1.60861645337302,10.7058616782171,1.17544446623441,-0.13439035,0.16218472,0.51893,163.9203,-77.488785,7.646403,FOL
4545287955000,1.360239,1.4520466218254,10.5040605313209,1.20327911344955,-0.17165314,0.15149458,0.51007247,163.89243,-77.39762,7.780231,FOL
4545292947000,1.365231,1.25421618171543,10.2826482150301,1.16631690557114,-0.18234327,0.18448131,0.49174652,163.8588,-77.310715,7.9066963,FOL
4545297918000,1.370202,1.01570768141082,10.0393695670341,1.07091345364729,-0.19333886,0.20463985,0.46853364,163.83426,-77.21968,8.0268545,FOL
4545302864000,1.375148,0.787610262878045,9.89056361681992,1.04267055861467,-0.18997909,0.23762658,0.45020768,163.7833,-77.14396,8.10681,FOL
4545307829000,1.380113,0.567402838809316,9.82992690059736,1.07777609781193,-0.1731803,0.25045475,0.4392121,163.73486,-77.07388,8.179892,FOL
4545312914000,1.385198,0.341873180926237,9.76782464440566,1.11373010925565,-0.13958271,0.258396,0.41722095,163.66127,-77.046814,8.207118,FOL
4545317881000,1.390165,0.174606079307516,9.74730273401546,1.20696128576178,-0.09682214,0.24740042,0.40194935,163.5914,-77.027756,8.231928,FOL
4545322870000,1.395154,0.052905835289902,9.76174160605276,1.35135140614774,-0.054061573,0.22449298,0.39095375,163.52519,-77.02049,8.250628,FOL
4545327838000,1.400122,-0.0682821407132064,9.77611970111816,1.49513375092173,-0.03390302,0.17501289,0.36865717,163.44156,-77.05498,8.208875,FOL
4545332820000,1.405104,-0.189811628725985,9.79053831416483,1.63932127943703,-0.012217305,0.11789699,0.3472769,163.36838,-77.10102,8.165726,FOL
4545337911000,1.410195,-0.3140000316712,9.80527238863705,1.78666345279541,-0.009162978,0.06352998,0.33658674,163.30795,-77.14833,8.122831,FOL
4545342928000,1.415212,-0.570615816026002,9.72184104420368,1.87111404302275,-0.011911872,0.03268129,0.31948254,163.25902,-77.20344,8.074133,FOL
4545348107000,1.420391,-0.845414305970533,9.62313153505389,1.92877913283892,-0.02107485,0.028099801,0.29352075,163.2193,-77.26033,8.02183,FOL
4545352866000,1.42515,-1.05722813020271,9.51497146019974,1.78005875932958,-0.03573562,0.065973446,0.26450464,163.1447,-77.32065,7.9229555,FOL
4545358179000,1.430463,-1.28956065198389,9.39152759139601,1.62216115552318,-0.01863139,0.1554652,0.23701571,163.02905,-77.40763,7.78122,FOL
4545362848000,1.435132,-1.4543311384266,9.25741177675893,1.56085121173194,0.024740042,0.25961772,0.19792034,162.90166,-77.502625,7.628097,FOL
4545367935000,1.440219,-1.6338529770503,9.11128902048162,1.49405239312709,0.07666359,0.355829,0.1685988,162.73038,-77.63993,7.4298453,FOL
4545372831000,1.445115,-1.85439630721024,8.87820987398922,1.70461346421833,0.12980886,0.44684792,0.12339478,162.5354,-77.79392,7.2145553,FOL
4545377890000,1.450174,-2.10333434805425,8.59662445106132,2.04333247694575,0.18142697,0.5103779,0.06505715,162.32504,-77.963394,6.987331,FOL
4545382817000,1.455101,-2.25271698128911,8.36674353420943,2.37316419983312,0.2302962,0.5323691,0.018936822,162.08714,-78.172714,6.7188635,FOL
4545387879000,1.460163,-2.19710007772215,8.23022844764289,2.71192234171882,0.2574797,0.5183192,-0.01740966,161.84592,-78.39204,6.439612,FOL
4545392815000,1.465099,-2.10945630757304,8.12152552027985,2.94145688714191,0.24190263,0.5103779,-0.05009095,161.56897,-78.59258,6.1216307,FOL
4545397895000,1.470179,-1.96686805116763,8.04793179994327,3.01965041611988,0.22204952,0.51343226,-0.0693332,161.29811,-78.79484,5.801472,FOL
4545402820000,1.475104,-1.82805930273606,7.99958985776952,3.07218409139033,0.19333886,0.5366451,-0.08827003,161.0354,-78.94599,5.4967833,FOL
4545407827000,1.480111,-1.68545387477323,8.01028529371747,3.06505378834944,0.1685988,0.573297,-0.10140363,160.77312,-79.08726,5.191139,FOL
4545412835000,1.485119,-1.54281996559851,8.02098286576208,3.05792206124164,0.1518,0.6047566,-0.11056661,160.52303,-79.18978,4.914012,FOL
4545417927000,1.490211,-1.34231606215737,8.05119833762086,3.06016819450013,0.1600467,0.6249151,-0.12064589,160.27046,-79.28733,4.6348643,FOL
4545422914000,1.495198,-1.1093014179544,8.0935646124368,3.06864149370177,0.17470746,0.6249151,-0.13591751,160.01942,-79.37708,4.3543406,FOL
4545427906000,1.50019,-0.783683571300718,8.16279335667204,3.10233761321225,0.18875736,0.6105598,-0.14110987,159.7835,-79.446266,4.113078,FOL
4545432834000,1.505118,-0.292866255771203,8.28031319964846,3.18183613519848,0.19547687,0.57910025,-0.13927728,159.55623,-79.51309,3.8733404,FOL
4545437857000,1.510141,0.207412838365314,8.40009854284459,3.26286719768566,0.1966986,0.53969944,-0.15118915,159.35876,-79.55838,3.6816893,FOL
4545442831000,1.515115,0.608674471294991,8.49500456363636,3.4043486064564,0.19120082,0.5174029,-0.13041973,159.16637,-79.59713,3.502992,FOL
4545449116000,1.5214,1.03860468875325,8.59550742727273,3.63327256025974,0.16432275,0.48899764,-0.12003502,158.99043,-79.62967,3.3228314,FOL
4545452873000,1.525157,1.28810397480252,8.61475955264473,3.8158849689631,0.12705997,0.45448375,-0.09896017,158.87274,-79.5877,3.2806346,FOL
4545457831000,1.530115,1.61094800421958,8.60526444475552,4.09599972392761,0.07391469,0.40500367,-0.07574729,158.76862,-79.534256,3.24441,FOL
4545462961000,1.535245,1.87514938871896,8.55544404083065,4.30776325023853,-0.0033597588,0.34238997,-0.06261369,158.70667,-79.413704,3.285713,FOL
4545468025000,1.540309,2.05547333416585,8.4601780293251,4.42684501855619,-0.09315695,0.26206118,-0.0571159,158.66423,-79.2769,3.3333406,FOL
4545472825000,1.545109,2.22639650520556,8.36987849235302,4.53971873260137,-0.20280726,0.20219639,-0.048563786,158.66245,-79.05052,3.4484155,FOL
4545477862000,1.550146,2.38410241683553,8.20184094674035,4.54297885511207,-0.31581733,0.15943582,-0.039095376,158.6782,-78.80309,3.5658991,FOL
4545482825000,1.555109,2.52516905062941,7.9878094257292,4.47001345996316,-0.41538838,0.15088372,-0.032986723,158.70091,-78.53458,3.683699,FOL
4545487850000,1.560134,2.56629668230681,7.80982542605203,4.31342819657613,-0.5335908,0.14752395,-0.02687807,158.75627,-78.19153,3.8547635,FOL
4545492845000,1.565129,2.55104667723795,7.65427550811018,4.11212845451415,-0.6401868,0.14263703,-0.011911872,158.81262,-77.82993,4.027434,FOL
4545497922000,1.570206,2.53554632173553,7.49617201794185,3.90752409206197,-0.6908886,0.118507855,-0.004581489,158.88211,-77.44683,4.226485,FOL
4545502808000,1.575092,2.44068056558086,7.40588887172096,3.52572814393197,-0.79809546,0.10629055,0.01985312,158.94717,-77.02434,4.431119,FOL
4545507825000,1.580109,2.26524291628711,7.37357152418564,2.9532472743538,-0.91354895,0.13897185,0.035430185,159.00594,-76.59417,4.631014,FOL
4545512856000,1.58514,2.09633815491253,7.38608254135225,2.46468340381087,-0.9584476,0.21013765,0.04428773,159.05061,-76.19604,4.8301992,FOL
4545518865000,1.591149,1.90587512940898,7.47315127508274,2.01845580250591,-0.9086621,0.28619036,0.03573562,159.08607,-75.8011,5.023968,FOL
4545522833000,1.595117,1.78679655227676,7.55058997823773,1.77737831206387,-0.8268061,0.31887165,0.036957346,159.1028,-75.52101,5.1846404,FOL
4545527844000,1.600128,1.64962998403312,7.68775664525922,1.57872327708457,-0.7275405,0.32375857,0.04886922,159.1101,-75.2663,5.340095,FOL
4545532841000,1.605125,1.52020750545585,7.82579575999043,1.41713364058387,-0.66248333,0.31490102,0.053145275,159.09633,-75.09485,5.4512277,FOL
4545537896000,1.61018,1.40822601012204,7.96866855910505,1.34762789459201,-0.5907067,0.321926,0.045814894,159.0798,-74.9553,5.558485,FOL
4545542849000,1.615133,1.29850408205312,8.10865846494377,1.27952463843025,-0.52473325,0.31520647,0.044898596,159.05794,-74.87315,5.6324897,FOL
4545547825000,1.620109,1.21724790186722,8.34195483921162,1.34883957614108,-0.4642576,0.30298916,0.049480084,159.0376,-74.810165,5.703864,FOL
4545552682000,1.624966,1.1461402656912,8.59591075846255,1.45550100388731,-0.41233405,0.27152961,0.05375614,159.02615,-74.76326,5.774699,FOL
4545557754000,1.630038,1.07432691238825,8.84119043422733,1.59152337241379,-0.3866777,0.24465153,0.05681047,158.9938,-74.74822,5.8176885,FOL
4545562716000,1.635,1.00430021819432,9.0792811262403,1.72690831777188,-0.3811799,0.22907446,0.063224554,158.9675,-74.7402,5.862394,FOL
4545567734000,1.640018,1.0001127319751,9.21478914820578,1.80485132269766,-0.3817908,0.21288654,0.06566802,158.93213,-74.7302,5.893434,FOL
4545572696000,1.64498,1.00473395939901,9.33494164028007,1.87416978231061,-0.40194935,0.22785273,0.06627888,158.89296,-74.71582,5.923098,FOL
4545577698000,1.649982,0.958510711117753,9.356541,1.87486740687388,-0.4279111,0.2507602,0.06841691,158.84416,-74.69339,5.9370327,FOL
4545582698000,1.654982,0.901267415640566,9.356541,1.86055658798565,-0.45142943,0.2761111,0.06658431,158.79172,-74.667244,5.9478016,FOL
4545588311000,1.660595,0.853809507094773,9.24194717349266,1.80469649813007,-0.46853364,0.3115413,0.061391957,158.72952,-74.629135,5.952812,FOL
4545592720000,1.665004,0.819145871073611,9.13410423196205,1.75462681952933,-0.4615087,0.32986724,0.06261369,158.66602,-74.59207,5.9577184,FOL
4545597709000,1.669993,0.739257678238619,8.92540419785778,1.71265844034514,-0.45081854,0.3539964,0.047647487,158.58249,-74.55562,5.943346,FOL
4545602747000,1.675031,0.633985952625211,8.662225533373,1.67916291036398,-0.419359,0.3643811,0.035430185,158.49904,-74.52771,5.9292254,FOL
4545607743000,1.680027,0.526913668898112,8.36984003201897,1.71868050411108,-0.36193767,0.36377025,0.02443461,158.40646,-74.512505,5.904803,FOL
4545612801000,1.685085,0.416813030333037,8.05389872754225,1.80484620082024,-0.3191771,0.36193767,0.0125227375,158.31386,-74.50454,5.8758273,FOL
4545617764000,1.690048,0.311676935328784,7.75591538101737,1.93294658328164,-0.28038713,0.33200526,-0.019547688,158.22093,-74.50753,5.8241854,FOL
4545622754000,1.695038,0.207918294861456,7.46440300674111,2.09105503251654,-0.2302962,0.3036,-0.04153884,158.12956,-74.525856,5.7722673,FOL
4545627759000,1.700043,0.159819775203375,7.19119857795113,2.39645972216827,-0.20158553,0.26450464,-0.05467244,158.0447,-74.535965,5.707454,FOL
4545632751000,1.705035,0.140792705414312,6.92862509989652,2.77700115768527,-0.1600467,0.2602286,-0.0693332,157.96056,-74.565674,5.6364846,FOL
4545637830000,1.710114,0.13820589323608,6.70148042656513,3.12725420643853,-0.11728613,0.21105394,-0.11209377,157.8933,-74.5785,5.55333,FOL
4545642771000,1.715055,0.222445046705568,6.68744052937395,3.27701263742459,-0.09590584,0.16065755,-0.1423316,157.82854,-74.59737,5.4711714,FOL
4545647780000,1.720064,0.309103456842295,6.68003458495128,3.42212120647781,-0.106901415,0.1142318,-0.17898351,157.78821,-74.54227,5.388448,FOL
4545652788000,1.725072,0.404297801642007,6.71897770382533,3.52164260063154,-0.11209377,0.094989546,-0.21044308,157.75682,-74.497025,5.3018265,FOL
4545658688000,1.730972,0.514317242144563,6.76516115978001,3.6310153203017,-0.14660765,0.106595986,-0.23304509,157.7406,-74.410675,5.2288265,FOL
4545662885000,1.735169,0.574949082617222,6.80052973514771,3.64364694494029,-0.18997909,0.124311075,-0.2602286,157.73108,-74.32421,5.14835,FOL
4545667824000,1.740108,0.646300204869893,6.84215122519799,3.65851175172847,-0.2406809,0.16279559,-0.28893927,157.72444,-74.20612,5.082271,FOL
4545672850000,1.745134,0.718908170134507,6.88450587370836,3.67363840062854,-0.3213151,0.19456059,-0.30390546,157.7162,-74.07034,5.013232,FOL
4545677827000,1.750111,0.798115885609756,6.95937497713415,3.60330272713415,-0.410196,0.23671028,-0.32162055,157.69739,-73.92257,4.9336166,FOL
4545682864000,1.755148,0.880841776875,7.04669657421875,3.50219330234375,-0.5039638,0.30024028,-0.33078352,157.66512,-73.75359,4.8500443,FOL
4545687869000,1.760153,0.995483028526837,7.16294641789113,3.23042786096308,-0.5821546,0.36774087,-0.32559118,157.63066,-73.55782,4.7858615,FOL
4545692864000,1.765148,1.12750135387895,7.29496481929958,2.86623945427294,-0.64934975,0.3998113,-0.32986724,157.59114,-73.344444,4.716139,FOL
4545697891000,1.770175,1.18234430198214,7.35239775507801,2.66958073893632,-0.675617,0.43799037,-0.32986724,157.53683,-73.135864,4.6572323,FOL
4545702810000,1.775094,1.17309922707291,7.34777531415955,2.61411033774899,-0.73639804,0.44898596,-0.3387248,157.48418,-72.90563,4.5959716,FOL
4545707825000,1.780109,1.14204217665767,7.35737840834083,2.6000988650165,-0.76144356,0.44776422,-0.35460728,157.42488,-72.73203,4.553254,FOL
4545712899000,1.785183,1.08858482866287,7.38167717981798,2.629257340044,-0.7644979,0.4392121,-0.38087448,157.36893,-72.5555,4.506111,FOL
4545717839000,1.790123,1.01297133982774,7.41236317107217,2.66941757211167,-0.76052725,0.39064834,-0.42119157,157.32237,-72.3837,4.453269,FOL
4545723023000,1.795307,0.909756827205227,7.45168274101574,2.72348226305316,-0.7440339,0.36285394,-0.43860126,157.2752,-72.22059,4.400004,FOL
4545727799000,1.800083,0.832989198140423,7.482763871371,2.77746690185958,-0.729984,0.3408628,-0.4605924,157.24263,-72.06505,4.326224,FOL
4545732813000,1.805097,0.771875866103373,7.50992540742417,2.83858023389663,-0.7086037,0.31245756,-0.46822822,157.22118,-71.921234,4.256867,FOL
4545737826000,1.81011,0.710774722604822,7.53708152633812,2.89968137739518,-0.68477994,0.27305678,-0.47861293,157.20558,-71.788246,4.162924,FOL
4545742878000,1.815162,0.564051365638487,7.51829090540487,2.93033693095427,-0.66553766,0.23823744,-0.49480084,157.19844,-71.66482,4.070439,FOL
4545747879000,1.820163,0.374411247614334,7.47562191003762,2.94455997891507,-0.65179324,0.20311269,-0.5119051,157.2036,-71.5508,3.981363,FOL
4545752872000,1.825156,0.205994406944593,7.42295069214237,2.96367464044661,-0.63255095,0.20250183,-0.5122105,157.20343,-71.43936,3.8763824,FOL
4545757827000,1.830111,0.0504816885161192,7.36508553674263,2.98537407372152,-0.6249151,0.20372356,-0.5180137,157.21423,-71.33298,3.7718115,FOL
4545762910000,1.835194,-0.110123937195836,7.30416263873346,3.00822016111473,-0.63041294,0.19761491,-0.5207626,157.20862,-71.23007,3.6309435,FOL
4545767918000,1.840202,-0.312950364625895,7.17934624870961,3.05502633452613,-0.63407815,0.17806722,-0.5204572,157.20644,-71.13238,3.4947503,FOL
4545772845000,1.845129,-0.495823877233485,7.07648800591716,3.09485265592201,-0.63621616,0.14446963,-0.50701815,157.1912,-71.02719,3.3210776,FOL
4545777877000,1.850161,-0.598665163682219,7.07181330769231,3.10420185712484,-0.6429357,0.119729586,-0.49235737,157.17868,-70.92152,3.1536942,FOL
4545782851000,1.855135,-0.699100602277814,7.07725352139565,3.09748237254773,-0.6450737,0.095294975,-0.4877759,157.16405,-70.80842,2.9518924,FOL
4545787880000,1.860164,-0.790256011283739,7.16840911249177,2.95480423777979,-0.6554584,0.067500606,-0.48502702,157.15596,-70.691765,2.7610788,FOL
4545792821000,1.865105,-0.879816336576695,7.25796961668861,2.81462275758723,-0.6630942,0.052839845,-0.47769663,157.14282,-70.57732,2.553474,FOL
4545797864000,1.870148,-0.93075391212656,7.36479320430478,2.77118994586741,-0.66737026,0.024740042,-0.47647488,157.1412,-70.46206,2.3538423,FOL
4545802784000,1.875068,-0.961178721941455,7.47635076263452,2.77626084987086,-0.6728681,-0.01740966,-0.464563,157.14561,-70.34495,2.1666996,FOL
4545807799000,1.880083,-0.945093326377117,7.63901275618483,2.83268439548455,-0.68019843,-0.054367006,-0.4596761,157.1396,-70.265015,1.9554319,FOL
4545812850000,1.885134,-0.917327641612934,7.81486216389553,2.90209855907395,-0.6908886,-0.10354166,-0.44806966,157.14577,-70.18271,1.7598664,FOL
4545817912000,1.890196,-0.922071451310536,7.9668941213331,2.95468171695886,-0.6835582,-0.13072516,-0.44715336,157.15305,-70.10759,1.5591266,FOL
4545823001000,1.895285,-0.938990848108835,8.11070898749349,3.00121011446797,-0.65118235,-0.14446963,-0.44440445,157.16753,-70.037155,1.3710942,FOL
4545827875000,1.900159,-0.929145095150996,8.22462869372457,3.08314716911544,-0.61850107,-0.14752395,-0.45204028,157.18677,-69.964676,1.1933341,FOL
4545832830000,1.905114,-0.885103543216249,8.30932410155637,3.21527183553223,-0.59681535,-0.13225232,-0.4605924,157.20337,-69.89915,1.0210588,FOL
4545837887000,1.910171,-0.840155384157921,8.3957629870065,3.35011632353823,-0.5589417,-0.124005646,-0.46975538,157.22115,-69.8456,0.8450352,FOL
4545843980000,1.916264,-0.74998994097533,8.53220145477147,3.57024422440237,-0.5186246,-0.11453723,-0.4810564,157.23427,-69.79949,0.67017454,FOL
4545847872000,1.920156,-0.682272802983362,8.6284311361637,3.72706287072098,-0.4728097,-0.079107046,-0.4801401,157.23657,-69.76587,0.49822077,FOL
4545852906000,1.92519,-0.579797786574636,8.67189129256396,3.94008491400699,-0.43768495,-0.053450707,-0.4999932,157.2543,-69.702385,0.33161524,FOL
4545857835000,1.930119,-0.466848603924167,8.64582601840604,4.15729495740843,-0.41233405,-0.015577064,-0.5186246,157.25809,-69.64989,0.16602932,FOL
4545862957000,1.935241,-0.360311263956985,8.61433072319028,4.38981365532212,-0.39095375,0.019242255,-0.5213735,157.2696,-69.56703,0.02085769,FOL
4545867866000,1.94015,-0.276050999118789,8.57688194035647,4.62386991666833,-0.36957347,0.06658431,-0.50732356,157.26717,-69.49311,-0.1251727,FOL
4545872881000,1.945165,-0.197608287699526,8.49108584625696,4.88166033554341,-0.35613444,0.09896017,-0.50518554,157.28648,-69.37725,-0.24784867,FOL
4545877878000,1.950162,-0.133459088427305,8.31837606764281,5.17279896263147,-0.3417791,0.1160644,-0.5030475,157.29538,-69.2706,-0.366443,FOL
4545882806000,1.95509,-0.109421583035547,8.17745649908549,5.38026755621471,-0.35796702,0.11636983,-0.49174652,157.32112,-69.11598,-0.46282378,FOL
4545887913000,1.960197,-0.144425861004692,8.07633302560636,5.47361222598807,-0.35735616,0.11911872,-0.5021312,157.34317,-68.97384,-0.5636952,FOL
4545892914000,1.965198,-0.178703596294235,7.97730845328032,5.5650194500994,-0.3594942,0.105068825,-0.4999932,157.39328,-68.77102,-0.6419923,FOL
4545897882000,1.970166,-0.165320275051237,8.10517492208043,5.48634642993039,-0.36682457,0.06780604,-0.47708577,157.44699,-68.571556,-0.71335226,FOL
4545902811000,1.975095,-0.147066568876643,8.25576768948183,5.39051454756381,-0.37201694,0.02687807,-0.4813618,157.50723,-68.37643,-0.7875131,FOL
4545907829000,1.980113,-0.137586913563201,8.44466486331658,5.31193679896405,-0.3848451,-0.009162978,-0.4700608,157.57832,-68.152054,-0.8570141,FOL
4545913874000,1.986158,-0.128635728990336,8.68187187839196,5.22242504670274,-0.39064834,-0.055283304,-0.43860126,157.66025,-67.933105,-0.91496575,FOL
4545917872000,1.990156,-0.134110131670203,8.83781956986966,5.1810527,-0.39828414,-0.06047566,-0.41905355,157.7323,-67.734116,-0.97054964,FOL
4545922888000,1.995172,-0.174153316568657,9.03075463504092,5.1810527,-0.39675698,-0.07238753,-0.37598756,157.8112,-67.54181,-1.0042558,FOL
4545927865000,2.000149,-0.213885160914671,9.22218960700212,5.1810527,-0.39064834,-0.059864793,-0.3475823,157.87347,-67.37916,-1.0378425,FOL
4545932820000,2.005104,-0.428804762622794,9.55908565314272,5.23079294205734,-0.34391713,-0.05467244,-0.31490102,157.93462,-67.234474,-1.0556407,FOL
4545937854000,2.010138,-0.767631454369459,10.0018710022362,5.31549943005351,-0.30024028,-0.03604105,-0.2828306,157.9849,-67.096054,-1.0680873,FOL
4545942874000,2.015158,-1.09482741390002,10.4127601984286,5.40359534556001,-0.2556471,-0.010079277,-0.26633725,158.0199,-66.98704,-1.0888932,FOL
4545947833000,2.020117,-1.32021359780637,10.5379744254377,5.52380135912255,-0.20372356,0.003970624,-0.25442538,158.0495,-66.89693,-1.1027304,FOL
4545952834000,2.025118,-1.52007480478561,10.6350152849818,5.6319080621238,-0.17501289,0.003970624,-0.2275473,158.045428894563,-66.871967563833,-1.14596343658756,FOL
4545957820000,2.030104,-1.60523488447648,10.6101769870699,5.6851332879245,-0.13775012,-0.0061086523,-0.21013765,158.04137,-66.84708,-1.1890668,FOL
4545962899000,2.035183,-1.6919833892398,10.5848753996062,5.73935128267816,-0.09865474,-0.03023783,-0.19792034,158.03531,-66.80582,-1.2773955,FOL
4545967876000,2.04016,-1.76341429823987,10.4802567953336,5.83526653049529,-0.058948494,-0.050701816,-0.1826487,158.01793,-66.77327,-1.394028,FOL
4545972863000,2.045147,-1.82206293904011,10.2994229290831,5.97211303581662,-0.030543262,-0.044593163,-0.15668693,157.99725,-66.749794,-1.500613,FOL
4545977810000,2.050094,-1.84646981731812,10.1962055239658,6.05192682681883,-0.020158553,-0.070554934,-0.14752395,157.986,-66.71254,-1.620348,FOL
4545982798000,2.055082,-1.84306260773181,10.1553192223966,6.08599892268188,0.023823744,-0.09437868,-0.13958271,157.96983,-66.69418,-1.7302283,FOL
4545987848000,2.060132,-1.83961304710414,10.1139247109843,6.12049452895863,0.076358154,-0.10415252,-0.12370021,157.96309,-66.651024,-1.84235,FOL
4545992892000,2.065176,-1.78866099698984,10.096852744783,6.20929356336103,0.09193522,-0.11484267,-0.11575896,157.9628,-66.610825,-1.9478174,FOL
4545997878000,2.070162,-1.72252532103416,10.088034476639,6.31511080142198,0.14294247,-0.129198,-0.10445796,157.96376,-66.5967,-2.0431855,FOL
4546002863000,2.075147,-1.69705766717257,10.1197087320826,6.37470261688449,0.1777618,-0.13133603,-0.086437434,157.97304,-66.57258,-2.135948,FOL
4546007859000,2.080143,-1.70041950618325,10.1802220448988,6.40159729386594,0.22815818,-0.12705997,-0.076358154,157.98373,-66.56771,-2.2238035,FOL
4546012877000,2.085161,-1.70379614912872,10.2410018294688,6.42861040217116,0.25686884,-0.12858713,-0.06352998,158.00906,-66.54863,-2.2940824,FOL
4546018648000,2.090932,-1.71276773163121,10.3417694666667,6.5570561858156,0.27885997,-0.121256754,-0.030543262,158.02704,-66.543,-2.355537,FOL
4546022804000,2.095088,-1.72029514171158,10.4208073511111,6.66996753352246,0.31948254,-0.118507855,-0.02443461,158.04776,-66.55037,-2.417829,FOL
4546027879000,2.100163,-1.73554915884081,10.5282166714314,6.83820395584492,0.3368922,-0.13500121,-0.004276057,158.0727,-66.55069,-2.471971,FOL
4546032839000,2.105123,-1.75415147357222,10.6398304303244,7.02112649614908,0.36682457,-0.17134771,0.010995574,158.10146,-66.565956,-2.5217817,FOL
4546037830000,2.110114,-1.77287005277071,10.7521417752105,7.20519230233014,0.3930918,-0.22204952,0.018020526,158.14528,-66.57775,-2.5648396,FOL
4546042865000,2.115149,-1.81226770969786,10.8542739802179,7.30034267838652,0.45814893,-0.24190263,0.033292156,158.18723,-66.60943,-2.599473,FOL
4546047869000,2.120153,-1.86781481644386,10.9468524270149,7.3225615829534,0.50488013,-0.26511553,0.051923547,158.24142,-66.64304,-2.6238127,FOL
4546053244000,2.125528,-1.92731903287841,11.0469897394541,7.34830200780087,0.54183745,-0.27122417,0.07086037,158.30339,-66.663055,-2.6466832,FOL
4546057848000,2.130132,-1.97518521004963,11.1461413920596,7.40642515153536,0.5748242,-0.28955013,0.09560041,158.37091,-66.69553,-2.6579027,FOL
4546062823000,2.135107,-2.02690854441687,11.2532828933002,7.46923198039702,0.6169739,-0.32711834,0.1255328,158.43842,-66.74389,-2.6701813,FOL
4546067829000,2.140113,-2.07730027754548,11.3713216826862,7.51652860128518,0.68661255,-0.33933565,0.15974127,158.49988,-66.80924,-2.6744938,FOL
4546072891000,2.145175,-2.1255631420581,11.5073350433523,7.53846622532356,0.7452556,-0.34666604,0.19547687,158.56544,-66.882935,-2.6660774,FOL
4546077853000,2.150137,-2.18294450267314,11.6556977761518,7.56229580421617,0.81581056,-0.35216382,0.23365596,158.63054,-66.97797,-2.657266,FOL
4546082826000,2.15511,-2.28644807332657,11.8730550547667,7.59679719858012,0.88453287,-0.34513888,0.2761111,158.68893,-67.08795,-2.6379755,FOL
4546087869000,2.160153,-2.3914085613228,12.0934718567082,7.6317842349319,0.9630291,-0.35521814,0.321926,158.74828,-67.22392,-2.614249,FOL
4546092854000,2.165138,-2.49001418969342,12.2543199082291,7.66196153327955,1.0094548,-0.35430184,0.3454443,158.8,-67.36717,-2.587056,FOL
4546097865000,2.170149,-2.58196649450383,12.3365935948971,7.68615946833401,1.110553,-0.37018433,0.39278635,158.85071,-67.54618,-2.5388167,FOL
4546102849000,2.175133,-2.64770236067616,12.3863319844942,7.70327305800712,1.1911873,-0.3643811,0.43463063,158.88538,-67.7402,-2.50682,FOL
4546107819000,2.180103,-2.67996579661922,12.3943976013388,7.71133884329775,1.2733486,-0.3631594,0.4831944,158.91953,-67.95926,-2.4584484,FOL
4546112950000,2.185234,-2.71337491512605,12.3992187363445,7.72439897647059,1.3628404,-0.3662137,0.5338962,158.95158,-68.20467,-2.4133742,FOL
4546117937000,2.190221,-2.7468199442577,12.3699545977766,7.78292777745098,1.459968,-0.3830125,0.5897904,158.98157,-68.470116,-2.3531327,FOL
4546122800000,2.195084,-2.7794333745098,12.3414181017157,7.84000128039216,1.5570955,-0.39003745,0.6423248,159.01291,-68.75999,-2.2901056,FOL
4546127813000,2.200097,-2.74522633279733,12.3008709560073,7.87568582184466,1.6636915,-0.40286562,0.70188415,159.04434,-69.07351,-2.209048,FOL
4546132816000,2.2051,-2.69192540904126,12.2572601571602,7.90475908058252,1.7476854,-0.37048978,0.7486154,159.06221,-69.40016,-2.1228302,FOL
4546137910000,2.210194,-2.69040731086187,12.2190638605194,7.95198196429055,1.842675,-0.4034765,0.81122905,159.09573,-69.7523,-2.012922,FOL
4546142851000,2.215135,-2.70109277659767,12.1834455174257,8.00184760742943,1.9343048,-0.43127087,0.87995136,159.11525,-70.118576,-1.8949655,FOL
4546147867000,2.220151,-2.72245081016995,12.1611100918083,8.04044600369571,2.0295997,-0.44257188,0.93370754,159.14063,-70.50387,-1.7579958,FOL
4546152822000,2.225106,-2.79925651815484,12.2123144317957,8.01484414558943,2.1242838,-0.44012842,1.0051788,159.16292,-70.90581,-1.5998261,FOL
4546157803000,2.230087,-2.87646524297275,12.2637874524773,7.98910794877259,2.225993,-0.42821655,1.0619892,159.18553,-71.32922,-1.4324168,FOL
4546162890000,2.235174,-2.97135088805268,12.26789,8.1307177533396,2.295937,-0.38637227,1.1368202,159.19293,-71.759865,-1.2479614,FOL
4546167834000,2.240118,-3.06488829840075,12.26789,8.28215917076199,2.375655,-0.37690386,1.1991285,159.204,-72.20967,-1.0540917,FOL
4546172853000,2.245137,-3.15898087923828,12.2377901811523,8.40672959013672,2.4471262,-0.39767328,1.2568552,159.20999,-72.67983,-0.8566717,FOL
4546177809000,2.250093,-3.25168121369141,12.2007097182617,8.5226056131836,2.5344799,-0.41538838,1.3109168,159.21025,-73.163506,-0.64928395,FOL
4546182822000,2.255106,-3.33554482403789,12.1487264166173,8.52726893132031,2.6154196,-0.4147775,1.3701707,159.20631,-73.65064,-0.43425304,FOL
4546187836000,2.26012,-3.41609626287744,12.0918664493783,8.49410053463588,2.7015514,-0.4092797,1.400714,159.20676,-74.149155,-0.21632199,FOL
4546192825000,2.265109,-3.49603267333124,11.9857920661235,8.53214272344093,2.7375927,-0.3912592,1.4584408,159.19916,-74.64115,0.012797212,FOL
4546197808000,2.270092,-3.57579242544657,11.8611676161078,8.59694748950172,2.819754,-0.37598756,1.5149459,159.1919,-75.1547,0.24462822,FOL
4546203668000,2.275952,-3.62786788399688,11.7394257669139,8.6400205699974,2.903748,-0.4147775,1.5781704,159.193,-75.676544,0.4855845,FOL
4546207808000,2.280092,-3.65881866619828,11.6568905093026,8.66581288849857,2.992018,-0.43554693,1.6352862,159.18494,-76.20505,0.73242027,FOL
4546214532000,2.286816,-3.70750758502449,11.51860464162,8.70242987364416,3.0705142,-0.4111123,1.7293595,159.16766,-76.742645,1.0012534,FOL
4546217896000,2.29018,-3.71877992764171,11.4143350604444,8.67706701447691,3.1279354,-0.4092797,1.7537941,159.16725,-77.27961,1.263649,FOL
4546222877000,2.295161,-3.73547063470959,11.259945410077,8.63951279286214,3.130379,-0.41599923,1.7968601,159.15762,-77.80191,1.5488639,FOL
4546227835000,2.300119,-3.70545724673087,10.9854512260517,8.58317787430309,3.1740558,-0.44348818,1.8530598,159.15523,-78.32797,1.8393657,FOL
4546232833000,2.305117,-3.61881455904714,10.5626351186011,8.50346681297517,3.2217033,-0.4700608,1.9028453,159.15617,-78.83013,2.1339247,FOL
4546237951000,2.310235,-3.53009161475635,10.1296673639128,8.42184192064297,3.2766812,-0.505491,1.9443841,159.16919,-79.33151,2.4409301,FOL
4546242889000,2.315173,-3.43759083963374,9.82770892111895,8.2750725453629,3.338684,-0.50701815,1.9819523,159.18156,-79.81639,2.7533689,FOL
4546247879000,2.320163,-3.34124351386089,9.57078302646169,8.09843559979839,3.4101553,-0.49327368,2.022575,159.2011,-80.28386,3.0723536,FOL
4546252836000,2.32512,-3.24301098309639,9.30729367098891,7.89798996844243,3.4739907,-0.4550946,2.0696115,159.21565,-80.72951,3.418758,FOL
4546257835000,2.330119,-3.13830200406968,9.02308322246524,7.63995706730198,3.55829,-0.40317106,2.1374176,159.22351,-81.15076,3.7735977,FOL
4546262899000,2.335183,-3.03223153601781,8.73517729901578,7.37856906742696,3.6465602,-0.33628133,2.2094996,159.22026,-81.55049,4.15365,FOL
4546267894000,2.340178,-2.94795780169062,8.40736524730133,7.11948182063105,3.7531562,-0.27977628,2.2745566,159.2071,-81.90804,4.5412216,FOL
4546272868000,2.345152,-2.87043953388482,8.06714580580418,6.86108726484043,3.8460076,-0.21044308,2.339614,159.17305,-82.20456,4.938251,FOL
4546277868000,2.350152,-2.76904117836041,7.68325147762186,6.6517430274003,3.9480221,-0.13316862,2.4141395,159.12683,-82.4498,5.370708,FOL
4546282818000,2.355102,-2.64900263383625,7.26811856297742,6.48669008743406,4.033849,-0.1160644,2.4706445,159.08191,-82.60662,5.8077016,FOL
4546287809000,2.360093,-2.4270445096825,6.84195690354275,6.26643108341214,4.1108174,-0.06658431,2.5057693,159.01384,-82.67224,6.2683926,FOL
4546292822000,2.365106,-2.14597674093673,6.40954488505592,6.01419086785259,4.1557164,-0.043066,2.5717428,158.95236,-82.61111,6.7455573,FOL
4546298233000,2.370517,-1.84631389706398,5.9516259614994,5.74890213904533,4.2601743,-0.02687807,2.649628,158.88449,-82.42326,7.253981,FOL
4546302819000,2.375103,-1.6516759444465,5.70427360925122,5.6353631780999,4.384791,-0.045814894,2.6615398,158.82611,-82.12851,7.753681,FOL
4546307821000,2.380105,-1.43938221592651,5.43448371262118,5.51152500046164,4.397619,-0.10598512,2.67223,158.77988,-81.65094,8.334223,FOL
4546312887000,2.385171,-1.16893812275337,5.03825192725185,5.25823446550465,4.434576,-0.16157386,2.6716192,158.74475,-98.9145,8.905984,FOL
4546317793000,2.390077,-0.894322404498487,4.62632822185576,4.98361879845528,4.4593163,-0.24037547,2.656042,158.73999,-99.55151,9.467375,FOL
4546322844000,2.395128,-0.671621105800241,4.20505937629362,4.66180747123947,4.4593163,-0.3268129,2.6117544,158.75764,-100.28649,10.057696,FOL
4546327855000,2.400139,-0.458394210130519,3.78749009769508,4.33752503371286,4.4321327,-0.42149702,2.5686884,158.80614,-101.05971,10.63392,FOL
4546332862000,2.405146,-0.306535674501742,3.42596523259001,4.03884985997677,4.392732,-0.4999932,2.5320365,158.8842,-101.920685,11.2457285,FOL
4546337869000,2.410153,-0.176586973951219,3.08438575414634,3.74924978731707,4.3377542,-0.58032197,2.4770586,158.99469,-102.78485,11.829457,FOL
4546342829000,2.415113,-0.0531866469503063,2.74704566746937,3.46054710416099,4.256509,-0.66431594,2.4349089,159.14354,-103.72433,12.448141,FOL
4546347906000,2.42019,0.0419710560040844,2.40778780040844,3.15438754452008,4.1770964,-0.70646566,2.3918428,159.30759,-104.655075,13.04143,FOL
4546352825000,2.425109,0.134167380769231,2.07908788942308,2.85775589711538,4.1126504,-0.74189585,2.3405302,159.51291,-105.6439,13.6533785,FOL
4546357823000,2.430107,0.296612279883317,1.42656648126808,2.07215774358341,4.04515,-0.7556403,2.2736404,159.72751,-106.61307,14.240167,FOL
4546362831000,2.435115,0.476985029538091,0.691200719648023,1.16104421930955,3.972762,-0.75686204,2.1887302,159.95067,-107.55787,14.79872,FOL
4546367845000,2.440129,0.62848485950096,0.192675798387716,0.331034005911708,3.9128973,-0.72234815,2.0793853,160.18823,-108.542694,15.359188,FOL
4546372864000,2.445148,0.76906722840691,-0.215891733608445,-0.468528273435701,3.843564,-0.6542367,1.9547688,160.41599,-109.49257,15.886606,FOL
4546377827000,2.450111,0.99149552341701,-0.709257791041589,-1.28653402849382,3.7574322,-0.5476407,1.8237382,160.685,-110.553375,16.427898,FOL
4546382816000,2.4551,1.2868676889097,-1.2821007993387,-2.13237257462533,3.6380079,-0.49174652,1.6536123,160.94614,-111.565384,16.91861,FOL
4546387892000,2.460176,1.63745129892993,-1.94176777893511,-2.88530145258026,3.5799758,-0.36377025,1.5674802,161.28398,-112.524864,17.29641,FOL
4546392838000,2.465122,2.05029700911288,-2.69388266890749,-3.46573781431653,3.4293976,-0.25167647,1.4126259,161.58209,-113.37369,17.600035,FOL
4546397877000,2.470161,2.46841261881383,-3.49617017619796,-4.04246922446976,3.2485814,-0.14385876,1.2678508,161.89354,-114.45368,18.013042,FOL
4546402818000,2.475102,2.85406431568146,-4.63453980009819,-4.46529233991555,3.0277536,-0.09621128,1.1655309,162.17798,-115.45379,18.3848,FOL
4546408071000,2.480355,3.24030056775608,-5.8387643614986,-4.91585626787565,2.7608054,-0.06627888,1.1270463,162.48936,-116.65692,18.896935,FOL
4546412944000,2.485228,3.37422167834197,-6.89897324103627,-5.34365971523316,2.4284947,-0.056199603,1.0903945,162.7885,-117.766335,19.370249,FOL
4546417808000,2.490092,3.50789544848147,-7.95722400854524,-5.77067304746114,2.0460932,-0.04642576,1.0320568,163.13553,-119.02722,19.976498,FOL
4546423014000,2.495298,3.50617945927318,-9.18869449874687,-6.40616363934837,1.6814066,-0.03176499,0.93584555,163.48152,-120.19859,20.552904,FOL
4546427825000,2.500109,3.39551716483918,-10.4011679839181,-7.12787442997076,1.3249667,0.019242255,0.79504114,163.8125,-121.26193,21.097065,FOL
4546432818000,2.505102,3.2761625120394,-11.2145834761036,-7.86676849719081,0.9984592,0.06505715,0.63346726,164.21483,-122.451675,21.712776,FOL
4546437896000,2.51018,3.15196803566217,-11.7645877511857,-8.61193563334549,0.68111473,0.099571034,0.47952923,164.60036,-123.532776,22.287827,FOL
4546442810000,2.515094,3.09217751255968,-12.0688874332572,-9.26627318704588,0.43951756,0.10842858,0.34025195,165.05612,-124.70448,22.843779,FOL
4546447827000,2.520111,3.11212625856342,-12.0738747499481,-9.8447899457131,0.23365596,0.076052725,0.19761491,165.49823,-125.77054,23.344728,FOL
4546452911000,2.525195,3.24250317664594,-11.7656823680266,-10.265405651137,0.07666359,0.022602014,0.06261369,166.00005,-126.87412,23.767345,FOL
4546457835000,2.530119,3.47143625491866,-11.1752762731454,-10.518437014394,-0.0061086523,-0.018325957,-0.04153884,166.48607,-127.90256,24.142735,FOL
4546462914000,2.535198,3.72782698178377,-10.2131182702626,-10.83931520787,-0.03848451,0.06291912,-0.0033597588,166.98737,-128.93274,24.483353,FOL
4546468075000,2.540359,4.09030695363142,-7.45749077885025,-11.466834771548,-0.03390302,0.25320363,0.090713486,167.44962,-129.91019,24.807322,FOL
4546472793000,2.545077,4.42167306624083,-4.93839554449965,-12.0404905168362,0.0012217305,0.48747048,0.19456059,167.85997,-130.82004,25.131836,FOL
4546477831000,2.550115,4.69353010473583,-3.17971923534994,-12.191085774432,0.038179077,0.70371675,0.30665436,168.22717,-131.70566,25.493246,FOL
4546482830000,2.555114,4.91195534059677,-2.01769664483986,-12.0512930432521,0.07269296,0.81092364,0.45051312,168.57602,-132.58229,25.891981,FOL
4546487925000,2.560209,5.12477087318543,-1.04542414776057,-11.944261909753,0.086132,1.0103711,0.52656585,168.78423,-133.29523,26.201517,FOL
4546492826000,2.56511,5.31730849426538,-0.373507510339054,-11.885321897028,0.093767814,1.2498302,0.74372846,169.00514,-134.04529,26.595003,FOL
4546498150000,2.570434,5.55420469056812,0.30594014704909,-11.8520771781578,0.13469578,1.412015,0.9837985,169.17387,-134.74773,27.017982,FOL
4546502821000,2.575105,5.99480501922622,0.478655442021905,-12.0811895257269,0.17806722,1.3228287,1.1679744,169.38219,-135.46704,27.466106,FOL
4546507837000,2.580121,6.46794808249941,0.664127486462848,-12.3272241083445,0.20280726,1.0064005,1.3396275,169.62816,-136.17836,27.947834,FOL
4546512918000,2.585202,7.90120475983535,1.68790975131798,-13.3655382761814,0.3313944,0.5323691,1.505172,169.97987,-136.94003,28.412333,FOL
4546517825000,2.590109,10.1777785302778,3.45857826965091,-15.1064477214438,0.627664,-0.101098195,1.7153096,170.50224,-137.76854,28.825285,FOL
4546523240000,2.595524,12.6482780881022,5.48558344849614,-16.9629954391802,1.0622946,-0.9981538,1.9251418,171.26651,-138.72159,29.195879,FOL
4546527823000,2.600107,14.0657335872593,8.37890685759915,-17.4925940049685,1.6484199,-2.0967948,2.2534819,172.30708,-139.8117,29.45855,FOL
4546532843000,2.605127,15.6183468549375,11.5481155666755,-18.0726910593559,2.3854287,-3.2400293,2.7766879,173.68393,-141.15791,29.790733,FOL
4546537832000,2.610116,16.5499334226352,13.4483065801563,-18.4207566201946,3.179859,-3.9739838,3.3695326,175.2918,-142.66258,30.016481,FOL
4546542866000,2.61515,17.2497385180252,14.87483168751,-18.6822226926145,3.673438,-3.8930442,3.962683,177.06853,-144.29941,30.228186,FOL
4546547855000,2.620139,17.8877331947258,16.1758753817307,-18.8152025917979,3.6053267,-2.8576276,4.4241915,178.69699,-145.73102,30.559921,FOL
4546552822000,2.625106,18.3217741884087,17.0630359682142,-18.4908639165747,2.964529,-1.2308935,4.3600507,180.16946,-147.09213,30.997974,FOL
4546557776000,2.63006,18.4698954757961,17.854893043774,-17.4530340041408,1.8365663,0.2828306,3.857614,181.31929,-148.1172,31.603796,FOL
4546563372000,2.635656,17.402603161885,18.3462701736173,-13.183865300207,0.61758476,0.9969321,3.329521,182.2694,-148.93564,32.324604,FOL
4546567859000,2.640143,16.1789735435424,18.1783195710635,-9.53976535859249,-0.23823744,0.66645396,2.9770517,182.94691,-149.40683,33.069466,FOL
4546572825000,2.645109,13.336873756438,15.7195291871437,-4.61283581997248,-0.5879578,-0.42821655,2.6902506,183.52863,-149.6601,33.679977,FOL
4546577889000,2.650173,10.502663759833,13.1271713005298,-0.265438514002248,-0.5589417,-1.5888605,2.3124304,183.96063,-149.61658,34.14948,FOL
4546582815000,2.655099,8.06778256829347,10.1772920717611,0.556286565150104,-0.24098633,-2.0665572,2.1111503,184.45927,-149.5667,34.4959,FOL
4546587899000,2.660183,5.55480327925831,7.13279633504575,1.40436823433617,-0.06780604,-2.658791,1.6957619,185.15416,-149.50156,34.51792,FOL
4546592825000,2.665109,3.18333737849255,3.67764673779141,-0.682501436424189,0.2284636,-2.8600712,1.185384,185.77542,-149.4691,34.470406,FOL
4546599018000,2.671302,0.241270064697634,-0.979760158466257,-5.11119617486415,0.593761,-2.574186,0.38453966,186.21704,-149.34846,34.279808,FOL
4546602814000,2.675098,-0.733115989305531,-2.55645457962234,-6.91945703481296,1.0552697,-2.3463335,0.19150625,186.87975,-149.49168,33.9852,FOL
4546607810000,2.680094,-0.900109323653123,-2.91185058824951,-8.07984666609988,1.1398746,-1.8081611,-0.087659165,187.16502,-149.45773,33.674706,FOL
4546612867000,2.685151,-0.995620973875375,-3.20695052132622,-9.18858408663779,1.2266175,-1.303281,-0.22876903,187.5184,-149.78415,33.193577,FOL
4546617824000,2.690108,-0.679244867394202,-3.13576591182106,-9.90833974333556,1.2315043,-0.87598073,-0.28985557,187.70047,-150.07205,32.784756,FOL
4546622829000,2.695113,-0.359805203698767,-3.06389200208264,-10.6350649928357,1.2388347,-0.4978552,-0.2843578,187.8072,-150.44247,32.40552,FOL
4546627826000,2.70011,0.205212758197282,-2.80221729995112,-11.502772290742,1.2974777,-0.10995574,-0.22724187,187.81125,-150.81912,32.125294,FOL
4546632837000,2.705121,0.857331629856291,-2.47381221252322,-12.4223067118975,1.4624114,0.34880406,-0.17592919,187.71939,-151.21568,31.948406,FOL
4546637879000,2.710163,1.71138344281109,-2.02581273127015,-13.3193623894262,1.7330247,0.88697636,-0.116980694,187.63487,-151.74101,31.859188,FOL
4546642867000,2.715151,2.63975062763194,-1.53303012362531,-14.1949312014369,2.0436497,1.4874569,-0.03756821,187.47314,-152.31842,31.901962,FOL
4546647878000,2.720162,3.74383229975377,-1.01975414719409,-14.9971046805481,2.3014348,2.0882428,0.079107046,187.29567,-153.01138,32.07952,FOL
4546652829000,2.725113,4.98237257285087,-0.496927709748421,-15.7229702552189,2.4410176,2.5631905,0.23823744,187.07733,-153.75642,32.383957,FOL
4546657824000,2.730108,6.25505554616742,-0.171233526347775,-16.0018411066458,2.5149322,2.8643472,0.46517387,186.88318,-154.60335,32.83833,FOL
4546662864000,2.735148,7.55138830445011,0.0511301275240149,-16.0444217457361,2.5097399,2.946203,0.73914695,186.72188,-155.47981,33.373795,FOL
4546667838000,2.740122,8.81483341419171,0.11563189887071,-15.5491591975814,2.4459045,2.7870727,1.0409144,186.6643,-156.40968,34.00586,FOL
4546672851000,2.745135,10.0784406127512,0.0857492971056376,-14.7209840497066,2.3628268,2.3393085,1.3494014,186.74405,-157.35904,34.607033,FOL
4546677839000,2.750123,11.1065430407032,-0.0598555046866042,-13.6914477077202,2.282498,2.0173824,1.5714508,186.93478,-158.3389,35.327446,FOL
4546682825000,2.755109,11.7452769860501,-0.402034665999427,-12.313606672941,2.1804836,1.2272283,1.6197093,187.32681,-159.29382,35.811016,FOL
4546687824000,2.760108,12.1475869439392,-0.640749367872489,-10.8205716293594,2.1297817,0.41508293,1.7217237,187.88922,-160.2905,36.408905,FOL
4546692887000,2.765171,11.9150107254922,-0.601986580473668,-9.00841226711302,2.0030272,-0.3136793,1.8741345,188.59412,-161.24089,36.81119,FOL
4546697832000,2.770116,11.3595562326703,-0.676026929214386,-7.50193770574643,1.8521434,-1.1588113,1.915368,189.44513,-162.15646,37.107925,FOL
4546702846000,2.77513,9.92682764436407,-1.0474750705445,-6.6722093599558,1.6636915,-1.9892827,1.7654005,190.36879,-163.00397,37.19257,FOL
4546707809000,2.780093,8.05751099045913,-1.47623319762598,-6.6266503256439,1.5176947,-2.6236663,1.4288138,191.24597,-163.66943,37.16383,FOL
4546712856000,2.78514,4.97956972526316,-2.07161458140351,-8.60403855087719,1.4367551,-2.9932396,1.001819,192.08827,-164.24333,36.95774,FOL
4546717798000,2.790082,1.96566329914894,-2.65460938992908,-10.5402883248227,1.4184291,-3.0451632,0.5849035,192.8375,-164.7587,36.57196,FOL
4546722931000,2.795215,0.78480810299881,-3.61199195661444,-12.5764170822094,1.4480561,-2.656042,0.21685717,193.42076,-165.18549,36.179558,FOL
4546727812000,2.800096,0.858976146806823,-4.73841886541055,-14.5279627619992,1.5396858,-1.7626517,-0.08002335,193.81216,-165.54968,35.890602,FOL
4546732818000,2.805102,2.18914543429265,-5.24514247099422,-15.8721610595527,1.6713274,-0.7858781,-0.48441613,193.99728,-165.99045,35.159447,FOL
4546737859000,2.810143,4.42930644346763,-5.28962208642265,-16.7536685144484,1.6038266,-0.116675265,-0.94897914,193.97942,-166.34302,34.56479,FOL
4546742977000,2.815261,6.78783082720487,-5.13622745079716,-17.55880290517,1.2916746,0.59620446,-1.1386528,193.9077,-166.80707,34.15619,FOL
4546747886000,2.82017,9.33104027094277,-4.32603977528338,-18.0310508766934,1.1270463,1.1114693,-1.2825116,193.63913,-167.21129,33.849358,FOL
4546753134000,2.825418,11.9597135859465,-3.41268737276638,-18.5118314495157,1.065349,1.2003502,-1.3603969,193.4074,-167.64415,33.803783,FOL
4546757838000,2.830122,13.4500162383845,-2.14056798681333,-18.7115251694303,1.0690142,0.9779953,-1.3377949,193.139,-168.03258,33.80937,FOL
4546762858000,2.835142,15.0404327594812,-0.782991601293712,-18.9246336885569,1.1044444,0.77579886,-1.1349876,192.90318,-168.37657,34.076347,FOL
4546767831000,2.840115,16.2890344670723,0.608621438362685,-18.7555494398548,1.0760391,0.8167268,-0.8035932,192.71477,-168.71545,34.35032,FOL
4546772873000,2.845157,17.3301087151243,2.05169462087523,-18.3226273580959,0.9104946,0.9825767,-0.39675698,192.62463,-169.06152,34.614353,FOL
4546777852000,2.850136,17.9217879397056,2.75519582542117,-16.4312190862742,0.5684101,1.0204504,0.012217305,192.56027,-169.23972,35.013252,FOL
4546782825000,2.855109,18.3482965483242,3.18592795646391,-13.9904033977656,0.01985312,0.8897252,0.1685988,192.5494,-169.34792,35.403217,FOL
4546787934000,2.860218,18.1249601884136,3.26589958689767,-11.8071800353005,-0.28527406,0.56107974,0.40194935,192.62105,-169.3526,35.85898,FOL
4546792831000,2.865115,17.2057983259339,2.9561265554954,-10.0602629116405,-0.8384125,0.3662137,0.5549711,192.72636,-169.19444,36.299767,FOL
4546797823000,2.870107,15.6061622718903,2.42831344368266,-8.65797092213516,-1.1307116,0.37965274,0.64812803,192.8619,-168.91226,36.89757,FOL
4546802807000,2.875091,13.5959515420176,1.76915137512243,-7.49391891429971,-1.2699889,0.43799037,0.68233645,193.05655,-168.57985,37.44238,FOL
4546807854000,2.880138,11.5837369391591,1.13266101761674,-6.20434398779306,-1.3222178,0.42913285,0.66737026,193.28401,-168.25256,37.988205,FOL
4546812849000,2.885133,9.60948811092812,0.525556251893044,-4.84646857798876,-1.3658947,0.29138273,0.62796944,193.53152,-167.92035,38.505608,FOL
4546817867000,2.890151,7.85885742872228,0.0658645636958817,-3.84522472544879,-1.4373659,0.07513642,0.5366451,193.75838,-167.60854,38.9095,FOL
4546822848000,2.895132,6.33854529544015,-0.250103863534607,-3.19039129893443,-1.4920384,-0.064751714,0.43676865,193.98196,-167.29967,39.292393,FOL
4546827825000,2.900109,4.96497014005668,-0.407080262505619,-2.8673124201114,-1.4837917,-0.13225232,0.35735616,194.18285,-167.00833,39.571922,FOL
4546832827000,2.905111,3.78061497889182,-0.350905314459103,-2.98902482058047,-1.3860532,-0.16554448,0.27855456,194.36455,-166.72058,39.81965,FOL
4546837847000,2.910131,2.21636967970809,-0.202643712205554,-3.09431989489155,-1.2455542,-0.17562376,0.20586158,194.49846,-166.45015,39.976547,FOL
4546842862000,2.915146,0.0452417821812287,0.094304278702615,-3.1722079381715,-1.094976,-0.18600847,0.12644911,194.60915,-166.19829,40.1222,FOL
4546847830000,2.920114,-1.4512604012702,0.278037839979677,-3.22571678868001,-0.93187493,-0.20830505,0.042455133,194.68314,-166.00098,40.128265,FOL
4546852833000,2.925117,-2.00629081153338,0.302381275815466,-3.24519152921451,-0.768163,-0.23396139,-0.04795292,194.72879,-165.82387,40.125393,FOL
4546857825000,2.930109,-2.40363434947221,0.392303757718823,-3.37736260440915,-0.6273586,-0.24648413,-0.13652839,194.57365,-165.5582,39.918716,FOL
4546862963000,2.935247,-2.60588081232135,0.571567632192433,-3.66234627405885,-0.5271767,-0.26725355,-0.22999077,194.38556,-165.30383,39.69182,FOL
4546867851000,2.940135,-2.76259224767751,0.775172660220995,-3.98424665037855,-0.44623706,-0.27214047,-0.3051272,194.20416,-165.09154,39.375763,FOL
4546872869000,2.945153,-2.84126046151013,1.06034476850829,-4.43167194327808,-0.37201694,-0.2602286,-0.37384954,193.99136,-164.88373,39.045616,FOL
4546877835000,2.950119,-2.87337099489601,1.3736203548464,-4.81705820043885,-0.32406402,-0.24678956,-0.410196,193.74045,-164.66327,38.65069,FOL
4546882827000,2.955111,-2.81864011086625,1.74761464173822,-5.09527338074795,-0.30757064,-0.16768251,-0.41874814,193.46504,-164.44548,38.26719,FOL
4546888028000,2.960312,-2.74210294556365,2.13481920034291,-5.29871219802829,-0.29932398,-0.07422013,-0.42577308,193.14076,-164.2071,37.82925,FOL
4546892870000,2.965154,-2.6228464710673,2.48927598049721,-5.27552348714102,-0.3222314,0.0015271631,-0.3717115,192.82657,-163.97653,37.40753,FOL
4546897839000,2.970123,-2.50046203864838,2.85302974765681,-5.25172656347335,-0.36896262,0.06872234,-0.26511553,192.48096,-163.71385,36.976704,FOL
4546902832000,2.975116,-2.30166225371245,3.22716803358369,-5.16735120377682,-0.43004912,0.105374254,-0.13164146,192.15744,-163.45879,36.561073,FOL
4546907815000,2.980099,-2.00980489616953,3.61119078803648,-5.00862169523605,-0.47494772,0.09896017,-0.027794369,191.8569,-163.2119,36.1549,FOL
4546912865000,2.985149,-1.67968883485295,3.74402000636009,-4.96862474838607,-0.5030475,0.043676864,0.02687807,191.55502,-162.92108,35.751392,FOL
4546917825000,2.990109,-1.33139136517893,3.69480409307404,-5.01405486171993,-0.5216789,-0.020158553,0.034208454,191.27513,-162.63315,35.34538,FOL
4546922907000,2.995191,-0.919680825245302,3.57907074678197,-5.08682454605022,-0.50915617,-0.11362094,-0.019242255,190.98979,-162.30777,34.945118,FOL
4546927823000,3.000107,0.0355343971395311,2.80393707433893,-5.42349876411109,-0.44501534,-0.25534168,-0.15332718,190.69766,-161.97852,34.503754,FOL
4546932842000,3.005126,1.01076328264593,2.01256280623649,-5.76722697819724,-0.3100141,-0.39187005,-0.34330627,190.3978,-161.66907,34.089607,FOL
4546937885000,3.010169,1.69795276803133,1.52218352164506,-6.07718811082719,-0.07544186,-0.5006041,-0.52503866,190.07503,-161.37958,33.630295,FOL
4546942942000,3.015226,2.24444337042805,1.17893319747272,-6.37075740683577,0.18784106,-0.6218608,-0.6872234,189.72075,-161.1038,33.112286,FOL
4546947832000,3.020116,2.76190118469301,0.908851861916439,-6.70600911539187,0.4474588,-0.75991637,-0.83169305,189.35977,-161.00735,32.78303,FOL
4546952839000,3.025123,3.28197793941337,0.687253979760445,-7.09493599807602,0.6881397,-0.8943067,-0.9578367,188.9709,-160.94635,32.406776,FOL
4546957813000,3.030097,3.77160128380335,0.46985843945122,-7.57940375057165,0.8735373,-1.0201449,-1.069625,188.69327,-160.99019,32.01295,FOL
4546962841000,3.035125,4.22578053338415,0.254237948048781,-8.21709005411585,1.024421,-1.1007792,-1.1484267,188.39421,-161.06711,31.589495,FOL
4546967798000,3.040082,4.70002958470765,0.0598586368515742,-8.91471513043478,1.110553,-1.1554517,-1.212262,188.15007,-161.2193,31.174921,FOL
4546972830000,3.045114,5.24430996763618,-0.094273871918041,-9.78652736231884,1.2040154,-1.180497,-1.2754866,187.88193,-161.395,30.744375,FOL
4546977824000,3.050108,5.80663205126402,-0.177810772752519,-10.6814277314199,1.2770138,-1.1902709,-1.3054191,187.65604,-161.64055,30.324139,FOL
4546982818000,3.055102,6.42025952564151,-0.100539176979662,-11.6450499802319,1.3023647,-1.2076806,-1.3762794,187.39407,-161.87756,29.891174,FOL
4546987952000,3.060236,7.06689434533473,-0.0122809153351663,-12.6172458283146,1.3274102,-1.1847731,-1.4181237,187.1617,-162.18776,29.487787,FOL
4546992840000,3.065124,7.73697165108667,0.102122512198743,-13.4793572822728,1.3344351,-1.0760391,-1.452943,186.8927,-162.48395,29.103758,FOL
4546997862000,3.070146,8.42541850654622,0.219662203908091,-14.3651027245352,1.3081679,-0.8863655,-1.461495,186.62346,-162.79897,28.7683,FOL
4547002819000,3.075103,9.11514671116791,0.429941388773103,-14.9867726781361,1.2797627,-0.66645396,-1.4382823,186.3298,-163.10532,28.476606,FOL
4547007821000,3.080105,9.81212564687377,0.651279367526543,-15.5895653110499,1.2250903,-0.43279803,-1.3631458,186.02135,-163.3956,28.248943,FOL
4547012854000,3.085138,10.3523830843141,0.735276880107149,-15.6824088715089,1.1068878,-0.23487769,-1.2638801,185.72966,-163.67836,28.116837,FOL
4547017787000,3.090071,10.8585809773406,0.797514330658704,-15.699005431407,0.9505063,-0.099571034,-1.1499538,185.44356,-163.9382,28.03859,FOL
4547022835000,3.095119,11.3134801665183,0.815139369472956,-15.4689149469989,0.7293731,-0.05100725,-1.0073168,185.2031,-164.15564,28.053675,FOL
4547027819000,3.100103,11.7193787430041,0.800980142363295,-15.0724560556709,0.46700647,-0.06688975,-0.8335256,184.99812,-164.33241,28.093777,FOL
4547032822000,3.105106,11.9346894554679,0.825689180555893,-14.621812812332,0.19456059,-0.12064589,-0.6365216,184.87764,-164.46127,28.221846,FOL
4547037904000,3.110188,12.0064419098083,0.880558773423814,-14.1237657942069,-0.096516706,-0.17287487,-0.43982297,184.81148,-164.537,28.350554,FOL
4547042799000,3.115083,11.9106228857616,0.98121044549301,-13.5504379558499,-0.34300083,-0.16646078,-0.24251351,184.83514,-164.5686,28.572752,FOL
4547047861000,3.120145,11.3398761001656,1.22199419255887,-12.6898588454746,-0.55955255,-0.04184427,-0.034208454,184.91681,-164.5627,28.819805,FOL
4547052885000,3.125169,10.7788929344471,1.43847902513922,-11.8632084062052,-0.7272351,0.1591304,0.1554652,185.05577,-164.50693,29.142868,FOL
4547057816000,3.1301,10.2754794164678,1.45726311455847,-11.2884150346062,-0.829555,0.3998113,0.31215215,185.23402,-164.44241,29.515276,FOL
4547062831000,3.135115,9.76349020684169,1.47636719252188,-10.7038300095465,-0.9062186,0.6658431,0.43004912,185.3915,-164.2982,29.935387,FOL
4547067895000,3.140179,9.29752528010575,1.495623757039,-10.1082226826173,-0.91751957,0.90285885,0.5375614,185.57617,-164.17589,30.416561,FOL
4547072840000,3.145124,8.87810136173166,1.51440397151355,-9.52290757785856,-0.9101892,1.0085385,0.62980205,185.78267,-164.06482,30.932663,FOL
4547077830000,3.150114,8.45486064329148,1.53335508783873,-8.93226604646398,-0.86590147,1.1670581,0.66523224,185.9484,-163.94398,31.492195,FOL
4547082821000,3.155105,7.68211455013987,1.55526067025515,-7.93030138764093,-0.84635377,1.2547172,0.7293731,186.15274,-163.84833,32.06233,FOL
4547087882000,3.160166,6.60979088259727,1.57991173431381,-6.57448964685937,-0.79045963,1.2953397,0.7623598,186.35089,-163.78297,32.652138,FOL
4547092870000,3.165154,5.65194683264292,1.59137643809031,-5.42219252557995,-0.76052725,1.2767084,0.7687739,186.53534,-163.68173,33.22868,FOL
4547097829000,3.170113,5.09125731275891,1.55202978259114,-5.00413459978252,-0.7113526,1.2125676,0.7602218,186.73155,-163.612,33.795994,FOL
4547102814000,3.175098,4.5827749886451,1.50689121400154,-4.66415770097328,-0.700357,1.131017,0.73884153,186.87727,-163.46948,34.311047,FOL
4547107802000,3.180086,4.23204121140613,1.44571673480748,-4.55404354473662,-0.6918049,1.0118983,0.6954701,187.0299,-163.34433,34.78926,FOL
4547112832000,3.185116,3.87835418263468,1.3840271537437,-4.4430022043456,-0.6753115,0.8362745,0.6056729,187.1547,-163.2116,35.183945,FOL
4547117837000,3.190121,3.59265164450572,1.36476988347255,-4.56624649716163,-0.6737844,0.6908886,0.54092115,187.28784,-163.08363,35.548397,FOL
4547122905000,3.195189,3.30925706606115,1.34902579274187,-4.711879880991,-0.6579019,0.55863625,0.47983465,187.4158,-162.95657,35.857006,FOL
4547127828000,3.200112,3.06937011052461,1.33725391859995,-4.86363382317517,-0.59528816,0.43371433,0.41783184,187.51736,-162.8236,36.08044,FOL
4547133425000,3.205709,2.8440631492442,1.32858827320346,-5.04994538017137,-0.5290093,0.29016098,0.3436117,187.61548,-162.6893,36.254116,FOL
4547138054000,3.210338,2.65907513471266,1.3222138672215,-5.20348346528734,-0.42852196,0.12950343,0.25992316,187.67305,-162.5727,36.324398,FOL
4547142865000,3.215149,2.52197563734424,1.34791996985308,-5.34058296265576,-0.3313944,-0.040317107,0.16737708,187.72313,-162.45938,36.344448,FOL
4547147876000,3.22016,2.37917672208481,1.37469471113074,-5.48338187791519,-0.2452624,-0.21074851,0.09162979,187.73848,-162.3568,36.266396,FOL
4547152874000,3.225158,2.32035548150888,1.46593328084813,-5.64882006163708,-0.14630222,-0.35796702,0.009162978,187.73917,-162.26312,36.139297,FOL
4547157858000,3.230142,2.27799074423077,1.56949126538462,-5.81827851923077,-0.087659165,-0.48441613,-0.064751714,187.73566,-162.16942,35.966667,FOL
4547162919000,3.235203,2.3164033370363,1.74930874859274,-5.9798545604177,-0.01985312,-0.5821546,-0.119729586,187.70132,-162.08038,35.721466,FOL
4547167832000,3.240116,2.37255562890104,1.94116205821979,-6.13427325310791,0.025961773,-0.65118235,-0.18661933,187.6489,-161.98587,35.443916,FOL
4547172843000,3.245127,2.46609525454634,2.13793320316777,-6.30077878270434,0.081855945,-0.6740898,-0.24617869,187.55772,-161.88124,35.125443,FOL
4547177797000,3.250081,2.568144215614,2.33275404829879,-6.46776776715878,0.12003502,-0.70188415,-0.28496864,187.4581,-161.77695,34.786575,FOL
4547182837000,3.255121,2.70519740852177,2.53113522008036,-6.62544102022986,0.14294247,-0.7483099,-0.3680463,187.29199,-161.64201,34.420532,FOL
4547187836000,3.26012,2.85281999919641,2.72796526312839,-6.77753706662306,0.17165314,-0.8005389,-0.44532076,187.11755,-161.51471,34.04692,FOL
4547192806000,3.26509,3.05613895830857,2.9484957589029,-7.06766498016224,0.20311269,-0.8396343,-0.5222898,186.89928,-161.36877,33.653965,FOL
4547197864000,3.270148,3.3012347052044,3.18970118029877,-7.45670606103927,0.22907446,-0.8707884,-0.5861252,186.6661,-161.22191,33.248035,FOL
4547202863000,3.275147,3.53243789534247,3.40929073342466,-7.82106354246575,0.26816985,-0.89369583,-0.6560693,186.39835,-161.05759,32.83197,FOL
4547207821000,3.280105,3.68059274569254,3.48878845248097,-8.03426207031963,0.31306845,-0.8894198,-0.7058548,186.11905,-160.89926,32.416534,FOL
4547212981000,3.285265,3.8347837557382,3.57152508627093,-8.2561467826484,0.35430184,-0.86834496,-0.7556403,185.80609,-160.72635,31.991077,FOL
4547217797000,3.290081,4.01056647113839,3.66620001460684,-8.47410512711023,0.41599923,-0.81214535,-0.81397796,185.47365,-160.5663,31.577135,FOL
4547222919000,3.295203,4.23198201836237,3.78576442767897,-8.71766207646475,0.47800204,-0.74464476,-0.8713993,185.126,-160.41493,31.173464,FOL
4547227846000,3.30013,4.45261650204044,3.90526942125765,-8.94888404136524,0.5375614,-0.6389651,-0.89736104,184.76468,-160.27707,30.800339,FOL
4547232819000,3.305103,4.69555852935448,4.03778312854758,-9.17415743600445,0.5870415,-0.49632803,-0.90041536,184.38434,-160.15213,30.457186,FOL
4547237893000,3.310177,4.94001470795586,4.15978472887498,-9.3806235832647,0.6563747,-0.36926803,-0.90377516,183.9919,-160.04022,30.151966,FOL
4547242878000,3.315162,5.15626566661176,4.18730774238182,-9.41994193938396,0.70952,-0.25320363,-0.9016371,183.58942,-159.94157,29.885693,FOL
4547249290000,3.321574,5.43442036007248,4.222709460056,-9.47051552001318,0.75747293,-0.1695151,-0.89675015,183.19234,-159.85995,29.661951,FOL
4547252833000,3.325117,5.565420717486,4.22677192439328,-9.52585972526447,0.8072584,-0.061086524,-0.8866709,182.78593,-159.79607,29.477829,FOL
4547257823000,3.330107,5.74880244119477,4.23172828510682,-9.60515994409874,0.84849185,-0.06383542,-0.8481864,182.40004,-159.74947,29.291311,FOL
4547262860000,3.335144,6.06537889983052,4.28938083258419,-9.13561399521037,0.84513205,-0.17531833,-0.7959574,182.05276,-159.71713,29.142942,FOL
4547267831000,3.340115,6.41968131134773,4.36304749218923,-8.49716814678358,0.77579886,-0.27366763,-0.73548174,181.72432,-159.68652,29.001947,FOL
4547273062000,3.345346,6.76833660024873,4.43447978824993,-7.88422172513183,0.66798115,-0.3820962,-0.68936145,181.43872,-159.657,28.856491,FOL
4547277822000,3.350106,6.84543884440354,4.43901521437668,-7.91143423453388,0.56291234,-0.4428773,-0.66339964,181.17633,-159.61801,28.703028,FOL
4547283124000,3.355408,6.93054735698356,4.44038027363447,-7.95872092198072,0.5186246,-0.5516113,-0.56230146,181.0331,-159.57271,28.6635,FOL
4547287902000,3.360186,6.9997334020223,4.40578727369117,-8.1662795989227,0.38026363,-0.5717699,-0.5195409,180.88037,-159.47607,28.626143,FOL
4547292820000,3.365104,7.07094666478926,4.37018066554527,-8.37991994492535,0.32895094,-0.55863625,-0.4297437,180.79251,-159.41095,28.593966,FOL
4547297893000,3.370177,7.05314900988164,4.29951332837442,-8.67372498523184,0.23671028,-0.46700647,-0.3304781,180.71509,-159.31267,28.582922,FOL
4547302913000,3.375197,7.02366545531986,4.22902297188254,-8.94830609275435,0.15393804,-0.34422258,-0.23945917,180.65802,-159.21928,28.59269,FOL
4547307808000,3.380092,6.96127010663838,4.18612585662591,-8.98730321113052,0.09712757,-0.24587326,-0.16035213,180.62775,-159.13815,28.623129,FOL
4547314393000,3.386677,6.87733274789119,4.1284185013726,-9.03976409458448,0.042760566,-0.10415252,-0.028405234,180.6181,-159.072,28.688778,FOL
4547318817000,3.391101,6.7421879138474,4.0564377127069,-9.05306393833266,-0.058337633,-0.057421334,0.013133603,180.60594,-158.98184,28.7521,FOL
4547322804000,3.395088,6.61886857129592,3.99092443772709,-9.06462535304804,-0.07971791,0.022602014,0.07269296,180.61633,-158.92305,28.87571,FOL
4547327859000,3.400143,6.43149124,3.87159456745763,-9.0499524779661,-0.11484267,0.10170906,0.13133603,180.63632,-158.85341,28.99777,FOL
4547332835000,3.405119,6.233028456,3.73774744470702,-9.02225989336562,-0.13164146,0.17165314,0.1777618,180.66193,-158.79326,29.140749,FOL
4547337852000,3.410136,5.97698883927928,3.60597837720721,-8.87870066216216,-0.14721853,0.2302962,0.21471913,180.69218,-158.74255,29.281029,FOL
4547342845000,3.415129,5.68869502616771,3.47674330909217,-8.66662272765073,-0.16676621,0.28008172,0.23945917,180.7254,-158.69461,29.437891,FOL
4547347810000,3.420094,5.4020179218018,3.34823297198198,-8.4557340945946,-0.18478674,0.30176744,0.26297748,180.76665,-158.65967,29.577381,FOL
4547352864000,3.425148,5.19328070586177,3.26169736722076,-8.27781138184116,-0.21074851,0.31612277,0.2828306,180.8094,-158.6234,29.72728,FOL
4547357775000,3.430059,5.0195464544182,3.19311795191018,-8.11779260289686,-0.22999077,0.31215215,0.30207285,180.85959,-158.59003,29.87756,FOL
4547362841000,3.435125,4.86844075199519,3.13634294434909,-8.01609935432936,-0.24831672,0.30115658,0.30879238,180.8994,-158.55086,29.995407,FOL
4547367820000,3.440104,4.73340786218141,3.08724012582168,-7.94653717406676,-0.26725355,0.28069258,0.30482176,180.94444,-158.5102,30.108593,FOL
4547372804000,3.445088,4.59344604227126,3.03348632776098,-7.89259060403063,-0.27000242,0.2657264,0.30604348,180.99014,-158.468,30.207247,FOL
4547377802000,3.450086,4.44392873689037,2.97078555152156,-7.86847490149133,-0.28313604,0.25534168,0.3100141,181.0382,-158.42075,30.300102,FOL
4547382783000,3.455067,4.3103737205132,2.92175379420439,-7.85548134325321,-0.29077184,0.23151793,0.29352075,181.07468,-158.371,30.367989,FOL
4547387972000,3.460256,4.20044730754313,2.89610428636632,-7.86280968660964,-0.27305678,0.2144137,0.28496864,181.11559,-158.32811,30.43528,FOL
4547395063000,3.467347,4.04927503327731,2.86002890857143,-7.87409865663865,-0.267559,0.18142697,0.26053402,181.14624,-158.27867,30.469326,FOL
4547397897000,3.470181,3.98370413226891,2.84007248785714,-7.88550235113445,-0.23823744,0.16462818,0.24953845,181.1785,-158.24165,30.503193,FOL
4547402836000,3.47512,3.86942936865546,2.80529310821429,-7.90537632682773,-0.2284636,0.13469578,0.22876903,181.19797,-158.19699,30.499393,FOL
4547407830000,3.480114,3.7991261781295,2.78613412661871,-7.92073570172662,-0.21105394,0.10751228,0.20647246,181.21533,-158.16049,30.490475,FOL
4547412874000,3.485158,3.74352276717506,2.77223324968825,-7.93463648188969,-0.19120082,0.08093964,0.18173242,181.22949,-158.12448,30.471392,FOL
4547417839000,3.490123,3.72212343333675,2.7709514346268,-7.96846203395106,-0.16676621,0.056199603,0.16249016,181.23438,-158.09657,30.428135,FOL
4547422852000,3.495136,3.71720805518583,2.77586691542951,-8.0127004886352,-0.13530666,0.017104227,0.13836098,181.23558,-158.07124,30.371412,FOL
4547427814000,3.500098,3.70320596174211,2.77475493974196,-8.07574415303155,-0.11148291,-0.009162978,0.10751228,181.22134,-158.04593,30.301695,FOL
4547432824000,3.505108,3.68531507949884,2.77117668856738,-8.14730768200462,-0.08827003,-0.039095376,0.09162979,181.20969,-158.02704,30.220991,FOL
4547437892000,3.510176,3.66860532152549,2.76718076065273,-8.21913705573891,-0.057726767,-0.076052725,0.06566802,181.18625,-158.00708,30.12365,FOL
4547442821000,3.515105,3.68591520315365,2.75419839461863,-8.27539444215255,-0.043066,-0.10934488,0.03176499,181.15855,-157.98555,30.018194,FOL
4547447812000,3.520096,3.70344281914191,2.74105272838284,-8.33235946864686,-0.010995574,-0.13775012,0.015882496,181.13182,-157.97807,29.892769,FOL
4547452857000,3.525141,3.74034606294331,2.73138402420181,-8.34519039728195,0.010079277,-0.17501289,-0.0070249503,181.09769,-157.96535,29.753693,FOL
4547457812000,3.530096,3.7801000791399,2.72254975225728,-8.3496076024388,0.039095376,-0.1994475,-0.026572637,181.06075,-157.96037,29.611496,FOL
4547462911000,3.535195,3.82877503393376,2.719813,-8.350976,0.04886922,-0.23182335,-0.060170226,181.0241,-157.95273,29.45197,FOL
4547467833000,3.540117,3.87898887181871,2.719813,-8.350976,0.067500606,-0.24617869,-0.06780604,180.98875,-157.95508,29.294476,FOL
4547472860000,3.545144,3.92886962597085,2.70114749690144,-8.35408698756498,0.073303826,-0.26419923,-0.08368854,180.94884,-157.95341,29.132813,FOL
4547477835000,3.550119,3.97743203551116,2.67201010188564,-8.35894332993579,0.083383106,-0.28038713,-0.095294975,180.9082,-157.95657,28.970509,FOL
4547482859000,3.555143,4.03616511558466,2.66539778195609,-8.34227972665599,0.09987647,-0.30176744,-0.113926366,180.86818,-157.96614,28.811838,FOL
4547487832000,3.560116,4.09898952642985,2.66988524322058,-8.31535439677754,0.109650314,-0.31795537,-0.13469578,180.82414,-157.97404,28.651623,FOL
4547492829000,3.565113,4.16948544587571,2.68424725581921,-8.31540943879473,0.111177474,-0.32650748,-0.1432479,180.78983,-157.98787,28.496696,FOL
4547497871000,3.570155,4.2467800180226,2.70698083621469,-8.33814354143126,0.12217305,-0.32620203,-0.14385876,180.75127,-158.004,28.34135,FOL
4547502828000,3.575112,4.32103262409338,2.72341573195224,-8.35637999447563,0.13652839,-0.31612277,-0.1459968,180.7138,-158.01968,28.20152,FOL
4547507862000,3.580146,4.39405787434732,2.73200699327274,-8.36926663975764,0.13958271,-0.301462,-0.15393804,180.6725,-158.0338,28.064947,FOL
4547512854000,3.585138,4.46601608891674,2.7353092487517,-8.38062038190745,0.129198,-0.29749137,-0.1441642,180.64133,-158.05173,27.94304,FOL
4547517858000,3.590142,4.53609994990076,2.71528530340541,-8.38562647278805,0.1301143,-0.27214047,-0.14385876,180.59909,-158.06998,27.830702,FOL
4547522848000,3.595132,4.60251213450739,2.69685405461851,-8.39308852485366,0.121256754,-0.24373524,-0.12858713,180.57346,-158.08627,27.735062,FOL
4547527816000,3.6001,4.6591578826967,2.68269266686179,-8.407250208354,0.10720685,-0.21624629,-0.113926366,180.5437,-158.10097,27.64766,FOL
4547532895000,3.605179,4.71205603158033,2.6719291,-8.42238896897186,0.09254608,-0.18051068,-0.10415252,180.52315,-158.11792,27.582191,FOL
4547538058000,3.610342,4.75106077920063,2.6719291,-8.43972432185117,0.07574729,-0.14966199,-0.082161374,180.50685,-158.1341,27.527166,FOL
4547543229000,3.615513,4.78935367859008,2.6695536535248,-8.45845889686684,0.06261369,-0.10934488,-0.06536258,180.49031,-158.15167,27.494963,FOL
4547547844000,3.620128,4.80858646013925,2.62147169965187,-8.50173255493908,0.040927973,-0.06994407,-0.048563786,180.47589,-158.16551,27.473795,FOL
4547552925000,3.625209,4.8267107,2.57294539266055,-8.54465578623853,0.028099801,-0.04062254,-0.03756821,180.47025,-158.18686,27.466206,FOL
4547557824000,3.630108,4.8267107,2.55142387591743,-8.55900333922018,-0.0021380284,0.0030543262,-0.011911872,180.46645,-158.20232,27.476353,FOL
4547562869000,3.635153,4.8267107,2.52926097492355,-8.57377847798165,-0.0061086523,0.03390302,0.0076358155,180.46564,-158.22981,27.49314,FOL
4547567867000,3.640151,4.82032014455496,2.50378880396159,-8.57655876316241,-0.025961773,0.053145275,0.03634648,180.47081,-158.25018,27.521868,FOL
4547573714000,3.645998,4.80591552709655,2.47017802989196,-8.56695598567999,-0.03940081,0.0711658,0.04184427,180.47105,-158.26999,27.557072,FOL
4547577815000,3.650099,4.7928136256262,2.44871012235067,-8.55945166473988,-0.0421497,0.09987647,0.051923547,180.48067,-158.29701,27.602192,FOL
4547582826000,3.65511,4.76339293779997,2.43189834462253,-8.54684253520757,-0.040317107,0.11911872,0.0720821,180.49387,-158.32346,27.65042,FOL
4547587845000,3.660129,4.73392528020669,2.41505972709757,-8.5342132753547,-0.046731193,0.14508049,0.081855945,180.50975,-158.3542,27.704659,FOL
4547592816000,3.6651,4.709657212749,2.392069912749,-8.49462121185259,-0.05100725,0.15607607,0.09132435,180.53096,-158.38792,27.7612,FOL
4547597848000,3.670132,4.68565798087649,2.36807068087649,-8.45142269472112,-0.05009095,0.15821409,0.08979719,180.5497,-158.42036,27.820707,FOL
4547602823000,3.675107,4.63578089268565,2.37836529849053,-8.40806239428629,-0.0580322,0.17134771,0.096516706,180.57443,-158.45392,27.881208,FOL
4547607840000,3.680124,4.58223850909736,2.39296771129571,-8.36425525752203,-0.06566802,0.17745635,0.10598512,180.60028,-158.48714,27.939367,FOL
4547612938000,3.685222,4.54702163253012,2.40297091807229,-8.33862974698795,-0.069027774,0.18387043,0.106595986,180.6304,-158.52327,27.998169,FOL
4547617839000,3.690123,4.51483916730336,2.41216592185327,-8.3156417574689,-0.067500606,0.18142697,0.098043874,180.66107,-158.55803,28.055079,FOL
4547622870000,3.695154,4.49500596575495,2.42902535243278,-8.30483283970602,-0.061391957,0.17012598,0.093462385,180.68266,-158.58717,28.106821,FOL
4547627812000,3.700096,4.47739365981021,2.44663756642478,-8.29602652581636,-0.06536258,0.16340645,0.08857546,180.7015,-158.61229,28.156908,FOL
4547632811000,3.705095,4.46229214321313,2.47181561357373,-8.2901550775921,-0.05955936,0.16401732,0.08582657,180.7147,-158.64041,28.202047,FOL
4547637866000,3.71015,4.44809961199062,2.50020067601876,-8.28542413505326,-0.05497787,0.15271631,0.077579886,180.72746,-158.6651,28.240126,FOL
4547642898000,3.715182,4.43754067218678,2.52131855562644,-8.27174180804438,-0.05589417,0.13988814,0.067500606,180.73892,-158.68684,28.272314,FOL
4547647870000,3.720154,4.42873515214979,2.53892959570042,-8.25413085991678,-0.04153884,0.122478485,0.055283304,180.74948,-158.71133,28.298368,FOL
4547652825000,3.725109,4.4244847,2.56774497727273,-8.24563,-0.04886922,0.10598512,0.04642576,180.75195,-158.72205,28.317816,FOL
4547657829000,3.730113,4.4244847,2.60753113941469,-8.24563,-0.031154128,0.090713486,0.027794369,180.75017,-158.73885,28.329939,FOL
4547662942000,3.735226,4.43738215592193,2.66488704375277,-8.25637787993494,-0.01282817,0.08277224,0.021380283,180.7465,-158.75404,28.340424,FOL
4547667906000,3.74019,4.45847009109862,2.73166550514565,-8.27395115924885,-0.008246681,0.06169739,0.009162978,180.7395,-158.76624,28.34031,FOL
4547672833000,3.745117,4.47940084384149,2.79794622216472,-8.29139345320124,0.009162978,0.04886922,0.009468411,180.73273,-158.78394,28.338991,FOL
4547677823000,3.750107,4.50229573654665,2.84670485809137,-8.28537416037553,0.01282817,0.03390302,0.008552114,180.72508,-158.79697,28.329979,FOL
4547682822000,3.755106,4.52546376945412,2.89304102067364,-8.27610723751452,0.01863139,0.028710667,-0.0061086523,180.71376,-158.8123,28.318615,FOL
4547687893000,3.760177,4.53744919375662,2.92844152760382,-8.28960038751325,0.017715093,0.008246681,-0.017715093,180.69527,-158.8164,28.301489,FOL
4547692793000,3.765077,4.54649169785143,2.96009040996242,-8.30768539570286,0.02321288,-0.0143553335,-0.032375857,180.67278,-158.82082,28.280437,FOL
4547697837000,3.770121,4.55904848435129,2.96881,-8.31602321984067,0.04184427,-0.02076942,-0.03756821,180.64767,-158.82574,28.262506,FOL
4547702823000,3.775107,4.57263443588771,2.96881,-8.3205519491654,0.043676864,-0.029626964,-0.042455133,180.62198,-158.82587,28.236652,FOL
4547707810000,3.780094,4.59098604211414,2.98208254211414,-8.31693587228188,0.03726278,-0.029932396,-0.044898596,180.59169,-158.82637,28.211037,FOL
4547713511000,3.785795,4.61521491262093,3.00631141262093,-8.30724412168279,0.044593163,-0.03359759,-0.048563786,180.56155,-158.82983,28.181892,FOL
4547717816000,3.7901,4.6380463636681,3.01847241705395,-8.30131256437618,0.047647487,-0.03481932,-0.047647487,180.53395,-158.83412,28.15634,FOL
4547722842000,3.795126,4.67164893552408,3.02327280594395,-8.29651212536152,0.038179077,-0.0421497,-0.051618114,180.50543,-158.83578,28.127573,FOL
4547727820000,3.800104,4.6979602876644,3.0222773092517,-8.29484522471655,0.047036625,-0.028710667,-0.04886922,180.47198,-158.83981,28.111063,FOL
4547732820000,3.805104,4.71243768751323,3.01141925936508,-8.29846465026455,0.050701816,-0.029321533,-0.04520403,180.441,-158.83989,28.08885,FOL
4547737866000,3.81015,4.72704827944067,3.0004613154195,-8.30211737452759,0.04917465,-0.025350908,-0.04337143,180.41298,-158.84285,28.077166,FOL
4547742827000,3.815111,4.72780797136779,3.00694478409523,-8.29682134633837,0.042760566,-0.01740966,-0.034208454,180.38817,-158.84695,28.067661,FOL
4547747829000,3.820113,4.72347171234724,3.01995369699466,-8.28814855662171,0.03726278,-0.017104227,-0.029932396,180.36336,-158.85033,28.056833,FOL
4547752812000,3.825096,4.73700107168997,3.0243164930803,-8.28589142732721,0.04337143,-0.014049901,-0.021991149,180.34737,-158.85625,28.051682,FOL
4547757805000,3.830089,4.76756720831802,3.02049568111866,-8.28971227918498,0.044593163,-0.003970624,-0.015577064,180.3315,-158.85994,28.048733,LYI
4547763189000,3.835473,4.79839459983361,3.01793691680532,-8.29185679201331,0.044593163,-0.003970624,-0.007941248,180.31369,-158.86084,28.045559,LYI
4547767825000,3.840109,4.80301165278702,3.03178826851082,-8.27338848377704,0.04642576,-0.0036651916,-0.0030543262,180.29604,-158.86308,28.045341,LYI
4547772851000,3.845135,4.8082854334376,3.04396764073098,-8.25411437076062,0.039095376,0.0076358155,-0.0015271631,180.2812,-158.86452,28.054955,LYI
4547777853000,3.850137,4.81617206559104,3.02819445877511,-8.24228464899572,0.03390302,0.016493361,0.00030543262,180.26854,-158.8676,28.064278,LYI
4547782781000,3.855065,4.82394202225881,3.01265462657228,-8.23062993710899,0.035430185,0.017104227,0.008552114,180.25252,-158.86537,28.078129,LYI
4547787891000,3.860175,4.84320987156359,3.01701680293816,-8.22317709677419,0.018325957,0.01985312,0.01160644,180.2347,-158.85704,28.0939,LYI
4547792820000,3.865104,4.86745686519417,3.0315649991165,-8.21832759677419,0.022296581,0.023518313,0.02565634,180.22295,-158.85728,28.111786,LYI
4547797828000,3.870112,4.87128652073419,3.02592305857046,-8.20366721384869,0.022602014,0.022602014,0.025961773,180.2104,-158.85432,28.13171,LYI
4547802801000,3.875085,4.86666139408566,3.01204753373798,-8.1851666106633,0.01740966,0.028099801,0.035124753,180.20386,-158.8545,28.156296,LYI
4547807813000,3.880097,4.86801389236479,2.98614583446447,-8.18758064581124,0.018020526,0.025961773,0.029321533,180.20422,-158.85681,28.177465,LYI
4547812855000,3.885139,4.8726688351393,2.95356089479418,-8.20154542552781,0.0125227375,0.021991149,0.040011674,180.21194,-158.8601,28.202005,LYI
4547817830000,3.890114,4.87967035129334,2.92739057176665,-8.21239875729224,0.011301007,0.030543262,0.040317107,180.2119,-158.86331,28.229378,LYI
4547822876000,3.89516,4.88853561139241,2.90522742151899,-8.22126420253164,0.008552114,0.029932396,0.03940081,180.21666,-158.86623,28.253834,LYI
4547827838000,3.900122,4.88561405442779,2.88406145442779,-8.23461124557221,0.007330383,0.03390302,0.03940081,180.22844,-158.88028,28.281336,LYI
4547832891000,3.905175,4.86501137629428,2.86345877629428,-8.25521392370572,0.008857546,0.03573562,0.038789943,180.24019,-158.89386,28.307344,LYI
4547837969000,3.910253,4.84553117874704,2.84297920803132,-8.2740278717902,0.005497787,0.03145956,0.040317107,180.25925,-158.91293,28.333418,LYI
4547842833000,3.915117,4.84128955106538,2.82601260872337,-8.26978615552723,0.009468411,0.028099801,0.042760566,180.27794,-158.9338,28.35964,LYI
4547847880000,3.920164,4.83688833911856,2.80840766902204,-8.26538485166636,0.02107485,0.02443461,0.04917465,180.29669,-158.95627,28.37955,LYI
4547852869000,3.925153,4.83244713443066,2.78296210658398,-8.28782627361746,0.014049901,0.02107485,0.042455133,180.31252,-158.97313,28.396997,LYI
4547857773000,3.930057,4.82806733146507,2.75668328879045,-8.31410518287793,0.0067195175,0.015577064,0.041233405,180.3324,-158.99393,28.413923,LYI
4547862891000,3.935175,4.82026705013087,2.73565626754534,-8.32546653897925,0.006414085,0.009773844,0.042760566,180.35663,-159.01382,28.427235,LYI
4547867820000,3.940104,4.81144216816227,2.71800659575622,-8.32987858833427,0.013744468,0.010079277,0.03756821,180.37807,-159.03226,28.439585,LYI
4547872861000,3.945145,4.80186035662488,2.70738796344142,-8.33751808950585,0.014660766,0.007330383,0.03604105,180.39856,-159.05351,28.44998,LYI
4547877831000,3.950115,4.79199887366622,2.70245719621879,-8.34738034476329,0.015271631,0.010079277,0.036651913,180.41705,-159.07552,28.461342,LYI
4547882814000,3.955098,4.78534590507451,2.68537152537253,-8.350976,0.009162978,0.00030543262,0.029932396,180.4348,-159.094,28.465834,LYI
4547887894000,3.960178,4.78044758207813,2.66087991039066,-8.350976,0.016493361,-0.002443461,0.036957346,180.45522,-159.11755,28.474403,LYI
4547892813000,3.965097,4.7788267,2.64717962947758,-8.356572016602,0.017715093,-0.0033597588,0.030848695,180.47426,-159.13551,28.47438,LYI
4547898831000,3.971115,4.7788267,2.6367793982225,-8.36697251935396,0.017715093,-0.008552114,0.027794369,180.49675,-159.15594,28.473776,LYI
4547902878000,3.975162,4.7788267,2.633622,-8.35872514000644,0.019547688,-0.010079277,0.026572637,180.52437,-159.17552,28.470379,LYI
4547907864000,3.980148,4.7788267,2.633622,-8.33311044093981,0.018020526,-0.008857546,0.027183503,180.55132,-159.19366,28.46648,LYI
4547912842000,3.985126,4.7812660575089,2.63118261701957,-8.31736618309609,0.022907447,-0.018936822,0.022907447,180.57758,-159.2169,28.459286,LYI
4547917896000,3.99018,4.78557220939502,2.62687642016904,-8.30875369946619,0.014049901,-0.02321288,0.028405234,180.60542,-159.23734,28.455357,LYI
4547922820000,3.995104,4.78342421712268,2.6240451,-8.30558069343184,0.009162978,-0.024129177,0.02321288,180.62436,-159.25826,28.452873,LYI
4547927854000,4.000138,4.76776793354713,2.6240451,-8.31340899870098,0.011911872,-0.03145956,0.019242255,180.64618,-159.27931,28.448517,LYI
4547932803000,4.005087,4.75237600914996,2.6240451,-8.32110512162052,0.011301007,-0.029626964,0.009162978,180.66174,-159.29663,28.448008,LYI
4547937861000,4.010145,4.7500963,2.6112559913133,-8.31371874948539,0.0061086523,-0.040317107,0.018020526,180.68396,-159.31526,28.444145,LYI
4547942831000,4.015115,4.7500963,2.59655960514615,-8.30392095409634,0.0061086523,-0.03481932,0.005497787,180.69408,-159.33006,28.441505,LYI
4547947818000,4.020102,4.75414511594444,2.58721698355556,-8.303091,0.005497787,-0.048258353,0.0070249503,180.71269,-159.3478,28.430162,LYI
4547952845000,4.025129,4.75860271510185,2.57830169214815,-8.303091,0.01160644,-0.05100725,0.0106901415,180.72574,-159.36533,28.422094,LYI
4547957869000,4.030153,4.76705185273516,2.59091872842148,-8.30678048415422,-0.00030543262,-0.041233405,0.004276057,180.73395,-159.37811,28.41596,LYI
4547962831000,4.035115,4.77664416797537,2.61010325874041,-8.31157671689544,-0.003970624,-0.043066,-0.009162978,180.74261,-159.3935,28.405897,LYI
4547967862000,4.040146,4.78237110610832,2.61092389389168,-8.312668,-0.012217305,-0.04886922,-0.005497787,180.76028,-159.41173,28.398464,LYI
4547972866000,4.04515,4.78691652081002,2.60637847918998,-8.312668,-0.005192355,-0.04917465,-0.0015271631,180.77321,-159.43051,28.390718,LYI
4547977877000,4.050161,4.7731892033619,2.60793435932762,-8.32179676862228,-0.010079277,-0.04428773,-0.009468411,180.78116,-159.43843,28.382704,LYI
4547982843000,4.055127,4.75079613960825,2.61241297207835,-8.33523288746586,-0.006414085,-0.04062254,-0.0015271631,180.7949,-159.45285,28.376808,LYI
4547987811000,4.060095,4.73116465576867,2.60885541299768,-8.36010868846266,-0.00061086525,-0.044593163,0.00030543262,180.80154,-159.46342,28.37112,LYI
4547992829000,4.065113,4.71370738230166,2.59838108537489,-8.39502323539669,-0.004276057,-0.048563786,0.004581489,180.81065,-159.4739,28.367672,LYI
4547997838000,4.070122,4.69628141920953,2.58792554391165,-8.42987516158094,-0.002443461,-0.035124753,0.0027488936,180.8184,-159.48134,28.358866,LYI
4548002862000,4.075146,4.7004945625387,2.5935970625387,-8.41751924107327,0.0018325958,-0.032986723,0.003970624,180.83002,-159.48952,28.34727,LYI
4548007778000,4.080062,4.71021165294118,2.60331415294118,-8.39322638823529,-0.0012217305,-0.024740042,0.0027488936,180.83762,-159.49568,28.3406,LYI
4548012908000,4.085192,4.70760185179653,2.60907869192572,-8.39765755874041,-0.006414085,-0.03268129,-0.00580322,180.8392,-159.49738,28.322392,LYI
4548017865000,4.090149,4.70281060210941,2.61386999164312,-8.40724035829633,-0.011301007,-0.017715093,0.007330383,180.84277,-159.50143,28.315022,LYI
4548022827000,4.095111,4.7022123,2.62229595776795,-8.40452310981462,-0.0012217305,-0.016187929,0.006414085,180.84604,-159.5031,28.301735,LYI
4548027787000,4.100071,4.7022123,2.63123567283335,-8.40005318227157,-0.0015271631,-0.011301007,0.0036651916,180.85022,-159.5028,28.2948,LYI
4548032808000,4.105092,4.7022123,2.63988675179156,-8.40825704591701,-0.0030543262,-0.016493361,-0.0027488936,180.85022,-159.5017,28.28429,LYI
4548038715000,4.110999,4.7022123,2.64989645934708,-8.42327147659913,-0.008246681,-0.013439035,0.002443461,180.8512,-159.50105,28.278412,LYI
4548042826000,4.11511,4.70000796355568,2.65938853235042,-8.4209770827369,-0.0076358155,-0.011301007,0.008246681,180.856,-159.5038,28.269089,LYI
4548047831000,4.120115,4.69543387404332,2.67311084864968,-8.40725500524859,0.0027488936,0.00030543262,0.007330383,180.85866,-159.50761,28.26314,LYI
4548052824000,4.125108,4.68408105745212,2.68321685278009,-8.40399254047553,-0.0021380284,0.004581489,0.010079277,180.86005,-159.50952,28.257341,LYI
4548057819000,4.130103,4.66195291631973,2.68764238858359,-8.41726910167453,-0.0070249503,-0.0009162979,0.012217305,180.86076,-159.51378,28.251923,LYI
4548063000000,4.135284,4.63565094862738,2.6910827,-8.42076504758419,-0.004276057,-0.0106901415,0.0106901415,180.85394,-159.51472,28.248545,LYI
4548067840000,4.140124,4.60171855367862,2.6910827,-8.39531607247438,-0.00030543262,-0.0033597588,0.0067195175,180.84575,-159.51492,28.248163,LYI
4548073122000,4.145406,4.56968137354388,2.69211248594689,-8.36858528882089,-0.0030543262,-0.004581489,0.005192355,180.83455,-159.51361,28.23888,LYI
4548077857000,4.150141,4.58454728661348,2.70202312915528,-8.35371901355043,0.00030543262,-0.015882496,0.006414085,180.82361,-159.51479,28.228777,LYI
4548082837000,4.155121,4.59527814721131,2.71341402216811,-8.34298789426551,-0.00580322,-0.007330383,0.007330383,180.80162,-159.50632,28.220606,LYI
4548087832000,4.160116,4.58776269296936,2.72844500912804,-8.35050354469757,-0.007941248,-0.017104227,0.011301007,180.7851,-159.50063,28.205296,LYI
4548092801000,4.165085,4.58028635820896,2.74339775671642,-8.35798007462687,0.00030543262,-0.013133603,0.0067195175,180.76697,-159.49075,28.19663,LYI
