timestamp,rel_time,acc_x,acc_y,acc_z,gyro_x,gyro_y,gyro_z,azimuth,pitch,roll,label
419803971000,0,1.13946268638987,9.65094743664398,-2.20743626365751,-1.246776,0.7486154,0.058337633,0,0,-0,STD
419809067000,0.005096,1.05538408571798,9.61311219364286,-2.19902841236971,-1.2516629,0.73426,0.06658431,359.98425,0.3599082,-0.21035694,STD
419813981000,0.01001,0.9959879,9.586384,-2.1930888,-1.2449434,0.72387534,0.070249505,354.8911,15.508077,-0.36598602,STD
419818963000,0.014992,0.9959879,9.586384,-2.1930888,-1.2473868,0.7086037,0.07788532,306.90152,15.817836,20.787685,STD
419824124000,0.020153,0.990051556280193,9.58836282256441,-2.1930888,-1.2547172,0.6899723,0.08735373,294.54865,13.428364,13.839194,STD
419829019000,0.025048,0.975897439130435,9.59308096014493,-2.1930888,-1.2571607,0.68539083,0.08674286,288.03787,7.429779,7.7596326,STD
419833935000,0.029964,0.972167286491757,9.60741706594575,-2.17999603602198,-1.2388347,0.63132924,0.08124508,282.78864,0.94822,3.2275512,STD
419838955000,0.034984,0.984951066672576,9.63724561939372,-2.1459059555398,-1.1530081,0.5858198,0.076358154,277.939,-5.6636558,0.42581207,STD
419843933000,0.039962,1.00188413866157,9.66476690669216,-2.10821966217973,-1.0235047,0.54733527,0.064446285,273.5075,-12.237125,-0.85026115,STD
419849260000,0.045289,1.05065628672084,9.67939884139579,-2.03993862434034,-0.8723156,0.5170974,0.054367006,269.83698,-18.316744,-1.3862803,STD
419854029000,0.050058,1.0938774454993,9.69078611673699,-1.98122042053446,-0.72112644,0.48533243,0.041233405,266.8374,-23.762695,-1.7186369,STD
419859000000,0.055029,1.13154067970288,9.67404657137834,-1.96029642580872,-0.593761,0.43279803,0.03176499,264.36127,-28.741213,-1.6643515,STD
419863935000,0.059964,1.16893115662799,9.65742825386779,-1.93952396272855,-0.3744604,0.20250183,-0.023518313,262.4093,-33.38083,-1.1655021,STD
419868972000,0.065001,1.21219278427413,9.64096814982255,-1.90026945070982,0.06414085,0.19333886,-0.034513887,260.8004,-37.658703,-0.63669086,STD
419874104000,0.070133,1.25787716828629,9.62435571750887,-1.85458497996451,0.09682214,0.24373524,-0.028710667,259.531,-41.46819,-0.061254863,STD
419878960000,0.074989,1.29713398099267,9.6250010997833,-1.81532813965535,0.026267206,0.258396,-0.028099801,258.50995,-44.916344,0.40647137,STD
419884048000,0.080077,1.33233038243731,9.65014131152616,-1.78013179071303,-0.0067195175,0.2593123,-0.036651913,257.6687,-48.072113,0.8598216,STD
419888957000,0.084986,1.36917034371802,9.66927831239341,-1.75375882501421,-0.017715093,0.25992316,-0.024740042,257.0594,-50.971947,1.4565464,STD
419893967000,0.089996,1.41008543865833,9.68291696219443,-1.73557433837408,-0.029626964,0.24709499,-0.022907447,256.56958,-53.600918,1.9820211,STD
419899331000,0.09536,1.45385114599285,9.68999594920878,-1.72035917080143,-0.04062254,0.23151793,-0.017715093,256.19623,-56.01241,2.4985955,STD
419904281000,0.10031,1.49418223328229,9.68596275625319,-1.71229295334354,-0.045814894,0.21594086,-0.008246681,255.88664,-58.213463,2.9519646,STD
419909132000,0.105161,1.53264836422256,9.6817926301488,-1.70305446756524,-0.04886922,0.20311269,-0.005497787,255.67459,-60.260036,3.4254866,STD
419913972000,0.110001,1.54264447248221,9.67179636532241,-1.65807216305801,-0.05375614,0.18142697,-0.005192355,255.49957,-62.131424,3.8384235,STD
419918953000,0.114982,1.55079301984381,9.66429740101618,-1.62042936082047,-0.047036625,0.16890424,0.00061086525,255.33783,-63.84653,4.1834617,STD
419924261000,0.12029,1.54601007633609,9.67386358769289,-1.63477834117426,-0.04062254,0.14508049,-0.0030543262,255.20465,-65.42561,4.4878583,STD
419929288000,0.125317,1.54227030337345,9.68417353797593,-1.64640208480963,-0.034208454,0.11728613,0.004886922,255.11919,-66.88851,4.807537,STD
419934021000,0.13005,1.54674125633261,9.70652853620043,-1.63746008551983,-0.020158553,0.09315695,0.011911872,255.04596,-68.241745,5.0874987,STD
419939307000,0.135336,1.5503997964141,9.7310788954185,-1.62831782521586,-0.026572637,0.06994407,0.013133603,255.00534,-69.49541,5.3575583,STD
419943965000,0.139994,1.5346786154978,9.74679995321586,-1.63224811018502,-0.01282817,0.03604105,0.015271631,254.97328,-70.66301,5.5985627,STD
419950587000,0.146616,1.51128076193659,9.76811116540059,-1.63925671072622,-0.015577064,-0.015882496,0.023518313,254.92807,-71.729706,5.785946,STD
419953970000,0.149999,1.48502870934873,9.76482959029677,-1.66222729100577,0.0012217305,-0.027794369,0.02107485,254.88333,-72.72918,5.9496555,STD
419958972000,0.155001,1.44621322987947,9.75997755403626,-1.6961908862048,-0.0015271631,-0.076052725,0.03023783,254.85516,-73.665924,6.1193633,STD
419963960000,0.159989,1.42969663021727,9.76217827396608,-1.73196925728035,-0.009468411,-0.106595986,0.030848695,254.82602,-74.53805,6.266736,STD
419968938000,0.164967,1.42061085520297,9.7667212800648,-1.76831259452068,-0.0009162979,-0.14996742,0.025350908,254.81297,-75.34947,6.4026475,STD
419974078000,0.170107,1.42063159024019,9.77487131681362,-1.80739882192156,-0.005192355,-0.17623462,0.030848695,254.78506,-76.097046,6.4993353,STD
419978996000,0.175025,1.42540494611331,9.78441822793149,-1.84558566890646,-0.009468411,-0.2125811,0.03848451,254.77481,-76.79371,6.589227,STD
419983921000,0.17995,1.42038755013328,9.77110529649375,-1.89068394124462,-0.007941248,-0.2507602,0.049480084,254.78087,-77.44704,6.6782675,STD
419988982000,0.185011,1.41044933178183,9.74626001004716,-1.9403745660242,0.0015271631,-0.269697,0.057726767,254.79242,-78.05189,6.760866,STD
419993961000,0.18999,1.38777806999918,9.71102377163798,-1.98225782836202,-0.0070249503,-0.28527406,0.057726767,254.82294,-78.613625,6.841473,STD
419999413000,0.195442,1.35767937527794,9.6680255721815,-2.0252560278185,-0.0027488936,-0.30940324,0.06414085,254.8607,-79.13231,6.9195356,STD
420003962000,0.199991,1.340753,9.63384928775387,-2.06657203428514,-0.004886922,-0.30970868,0.069027774,254.906,-79.610725,6.9945374,STD
420008993000,0.205022,1.340753,9.59993935632415,-2.12470309961794,0.0036651916,-0.30390546,0.064446285,254.95624,-80.04924,7.06256,STD
420013962000,0.209991,1.32821904720596,9.576807,-2.18315930465141,0.002443461,-0.30634892,0.053450707,255.021,-80.44695,7.1231422,STD
420019776000,0.215805,1.28080694470463,9.576807,-2.25427736557743,0.0070249503,-0.29016098,0.050701816,255.07886,-80.80581,7.178502,STD
420024092000,0.220121,1.24352801444539,9.5994785771526,-2.2895852427773,-0.002443461,-0.26908615,0.042455133,255.14896,-81.13136,7.2298994,STD
420028981000,0.22501,1.19917737013356,9.64826437851663,-2.31176056493322,0.007330383,-0.24129178,0.025961773,255.21234,-81.42343,7.2728014,STD
420033971000,0.23,1.16271327680107,9.69912363415357,-2.31584957723095,0.0067195175,-0.2134974,0.013744468,255.28433,-81.677864,7.3112693,STD
420039028000,0.235057,1.14476561198488,9.75296651615772,-2.27995432256152,0.0067195175,-0.19608775,0.00030543262,255.35138,-81.90039,7.3401933,STD
420043928000,0.239957,1.12737515171213,9.80513778802253,-2.24517347465165,-0.0009162979,-0.17867808,-0.014660766,255.3985,-82.09928,7.3523126,STD
420048998000,0.245027,1.13727713179866,9.83979625214793,-2.4440783787542,-0.01740966,-0.1600467,-0.0143553335,255.44037,-82.261536,7.362265,STD
420054078000,0.250107,1.16453725245611,9.86251297982817,-2.78937287669966,-0.025350908,-0.14172074,-0.018325957,255.47763,-82.39581,7.3645177,STD
420058956000,0.254985,1.14883932968607,9.84873824292754,-2.51845547777423,-0.033292156,-0.116675265,-0.022907447,255.4852,-82.50715,7.3526983,STD
420064023000,0.260052,1.08684265647016,9.79559809198759,-1.57964874165906,-0.040927973,-0.09712757,-0.021685716,255.48978,-82.59005,7.340742,STD
420068932000,0.264961,1.04504660839333,9.74114687410009,-1.21438027968832,-0.057726767,-0.074830994,-0.026572637,255.57764,-82.62396,7.3589096,STD
420074295000,0.270324,1.04955586022827,9.67350809657594,-2.31012920539947,-0.042455133,-0.03481932,-0.036651913,255.65244,-82.62689,7.3731036,STD
420079384000,0.275413,1.05062603105635,9.61229124947825,-3.1820165640472,-0.03390302,0.014660766,-0.046731193,255.4516,-97.284836,7.282167,STD
420083989000,0.280018,1.02230609426874,9.58397149751164,-2.43861871314818,-0.026267206,0.058948494,-0.05375614,255.24847,-97.20576,7.194726,STD
420089889000,0.285918,0.98602213616953,9.54768777620806,-1.48616544055226,-0.00580322,0.10995574,-0.04642576,255.32562,-97.26686,7.212862,STD
420094015000,0.290044,0.997512041463859,9.54079757214475,-1.39202654243916,-0.0021380284,0.13439035,-0.05009095,255.39635,-97.34905,7.22402,STD
420099271000,0.2953,1.03880467411357,9.54538573293228,-1.68566289223407,0.020158553,0.20280726,-0.04184427,255.4389,-97.46184,7.239738,STD
420103946000,0.299975,1.08492785356117,9.54577145274459,-2.01006354944806,0.044898596,0.22510384,-0.041233405,255.2381,-97.43883,7.1624947,STD
420109037000,0.305066,1.15496828878724,9.53839862543475,-2.49666033634508,0.042760566,0.25900686,-0.03756821,255.02167,-97.42675,7.0935116,STD
420113948000,0.309977,1.22253233856041,9.53128647557841,-2.96605275835476,0.06536258,0.28955013,-0.03604105,254.88335,-97.47589,7.055333,STD
420119028000,0.315057,1.25659148003515,9.51151302390158,-2.50688822811951,0.06383542,0.31642818,-0.03023783,254.74104,-97.53294,7.0220437,STD
420124176000,0.320205,1.27392056182777,9.48551924288225,-1.58844386221441,0.06078109,0.3210097,-0.032986723,254.60092,-97.597145,6.9888973,STD
420129024000,0.325053,1.31959788636735,9.47751310040816,-1.1462148084898,0.06352998,0.32253686,-0.028099801,254.60953,-97.78189,7.0133038,STD
420134005000,0.330034,1.40721398132653,9.49211607091837,-1.27763890010204,0.043066,0.31429017,-0.027488936,254.61972,-97.969246,7.0344286,STD
420139001000,0.33503,1.48873996114421,9.49357979426869,-1.3525341558751,0.017715093,0.28221974,-0.014660766,254.41605,-98.00113,6.997699,STD
420143961000,0.33999,1.56192344676459,9.47894280166393,-1.35741305152013,0.008552114,0.25870144,-0.009162978,254.2182,-98.03261,6.9613743,STD
420149257000,0.345286,1.60731830128954,9.48211741275438,-1.34925113161394,-0.00580322,0.22479841,-0.0067195175,254.06575,-98.09762,6.9463043,STD
420153985000,0.350014,1.62100330342535,9.50036398700383,-1.33100446209954,-0.03481932,0.17287487,-0.004581489,253.92957,-98.16063,6.9328475,STD
420159621000,0.35565,1.62504735609588,9.56996387808233,-1.28247269781904,-0.038179077,0.12675454,0.0061086523,253.81424,-98.23978,6.9334846,STD
420164018000,0.360047,1.62091048709107,9.6527012581786,-1.22869335755968,-0.059253927,0.0720821,0.004886922,253.71909,-98.30873,6.930526,STD
420168997000,0.365026,1.58967311448576,9.80102210053114,-1.16164590778368,-0.06169739,0.034208454,0.0106901415,253.63614,-98.38068,6.9330425,STD
420174282000,0.370311,1.52613138850797,10.0209740522453,-1.08344071835828,-0.06963864,-0.011301007,0.02076942,253.5733,-98.448395,6.9357276,STD
420178931000,0.37496,1.48821293664091,10.1284152115697,-1.06694745343636,-0.07880162,-0.076358154,0.027183503,253.51503,-98.498604,6.9299073,STD
420183969000,0.379998,1.47349722342416,10.118605043412,-1.12581030630338,-0.07238753,-0.10567969,0.031154128,253.46149,-98.552055,6.928116,STD
420189013000,0.385042,1.4423040872499,10.0818162098862,-1.17131033782856,-0.070249505,-0.14202617,0.04428773,253.3977,-98.58497,6.918771,STD
420194025000,0.390054,1.39052023695567,10.0112018685759,-1.19955612350922,-0.060170226,-0.15424347,0.046731193,253.33716,-98.61823,6.908035,STD
420198935000,0.394964,1.34380465592976,9.94261945768566,-1.24130195817501,-0.050701816,-0.17592919,0.043982297,253.3039,-98.66097,6.901371,STD
420203981000,0.40001,1.30207357746114,9.87306774093264,-1.30621694222798,-0.02565634,-0.18784106,0.05375614,253.27293,-98.71077,6.899289,STD
420208940000,0.404969,1.25737035080621,9.80054356191056,-1.38153380943109,-0.010995574,-0.19547687,0.058337633,253.2525,-98.75699,6.8903456,STD
420213972000,0.410001,1.20361362901328,9.71746478774972,-1.4841603293378,0.011911872,-0.20586158,0.05100725,253.23718,-98.808075,6.88114,STD
420218888000,0.414917,1.14418353270207,9.63276433033971,-1.5620244843811,0.023823744,-0.21135938,0.04886922,253.23553,-98.8706,6.8769193,STD
420224319000,0.420348,1.0629470333854,9.53121883873487,-1.5975654064428,0.03023783,-0.21960606,0.04337143,253.23807,-98.93312,6.869918,STD
420229337000,0.425366,1.0010343802102,9.44638273957959,-1.62475014374775,0.04184427,-0.22540927,0.03023783,253.25674,-99.00835,6.859643,STD
420233979000,0.430008,0.965092969637082,9.38248706072584,-1.6407241364355,0.046120327,-0.23518312,0.011911872,253.27902,-99.080315,6.8464327,STD
420238995000,0.435024,0.925853558383234,9.31720123053892,-1.6612606,0.043066,-0.23854288,-0.002443461,253.30435,-99.15014,6.8256307,STD
420243966000,0.439995,0.881618920374768,9.30245579521991,-1.72515509137931,0.032070424,-0.24556783,-0.01282817,253.33353,-99.21582,6.8012357,STD
420249029000,0.445058,0.838249657233981,9.29014620527689,-1.79030479225863,0.02443461,-0.24251351,-0.02687807,253.35811,-99.28148,6.7722282,STD
420254021000,0.45005,0.805906784981154,9.29476671209046,-1.85499058501015,0.007330383,-0.24587326,-0.03390302,253.38678,-99.34225,6.742957,STD
420259094000,0.455123,0.775325272854431,9.302248008892,-1.9201148761115,-0.011301007,-0.24740042,-0.04062254,253.42621,-99.403244,6.710144,STD
420263975000,0.460004,0.770654991217904,9.33961016445199,-1.9761576705565,-0.01985312,-0.25625798,-0.03390302,253.46896,-99.464035,6.6800413,STD
420269076000,0.465105,0.767609556786244,9.37752531811444,-2.03724201648384,-0.044898596,-0.25717425,-0.031154128,253.52444,-99.51936,6.6454515,STD
420274036000,0.470065,0.786386511979445,9.40099647534341,-2.12643251198735,-0.067500606,-0.2648101,-0.03176499,253.5842,-99.574005,6.612537,STD
420279251000,0.47528,0.808866042132047,9.42518318359818,-2.21826187830117,-0.08399397,-0.27000242,-0.028405234,253.6472,-99.631424,6.5767617,STD
420283985000,0.480014,0.856038077376088,9.44233654511918,-2.28258740940219,-0.08857546,-0.28038713,-0.03359759,253.71307,-99.68482,6.539226,STD
420288964000,0.484993,0.90565141989406,9.4603776492622,-2.35024199735149,-0.0983493,-0.2773328,-0.04184427,253.79675,-99.75177,6.515505,STD
420294038000,0.490067,0.952204080682741,9.46574029910984,-2.40601244177686,-0.11362094,-0.2742785,-0.040927973,253.88257,-99.816696,6.493192,STD
420299026000,0.495055,0.997615891409558,9.46986873018754,-2.45968092498488,-0.113926366,-0.25992316,-0.030543262,253.9634,-99.88238,6.4724674,STD
420303972000,0.500001,1.03413080067511,9.46603666357243,-2.47225471209564,-0.111177474,-0.2452624,-0.04153884,254.05685,-99.95578,6.452409,STD
420308998000,0.505027,1.06572306323488,9.45701059906235,-2.45871514406939,-0.113926366,-0.22388211,-0.04520403,254.1438,-100.03021,6.43843,STD
420313977000,0.510006,1.0906803090516,9.45018367835323,-2.4495372227371,-0.10873401,-0.20433442,-0.045814894,254.2464,-100.11539,6.4290595,STD
420318963000,0.514992,1.10863309589247,9.4456953879124,-2.44504902602688,-0.10476339,-0.16615535,-0.030848695,254.33673,-100.200584,6.424779,STD
420324039000,0.520068,1.1290995512805,9.46684873724541,-2.43174995803589,-0.098043874,-0.122783914,-0.018325957,254.41805,-100.28493,6.420128,STD
420328972000,0.525001,1.15291607329099,9.53353476013309,-2.40317024104658,-0.10323623,-0.07788532,-0.021991149,254.487,-100.3658,6.4167647,STD
420333969000,0.529998,1.17376683951056,9.62537413072579,-2.36663714528341,-0.10170906,-0.031154128,-0.011911872,254.54724,-100.454445,6.428979,STD
420338973000,0.535002,1.18880207498431,9.76069145931814,-2.3165195367078,-0.09865474,0.03176499,-0.002443461,254.58931,-100.53959,6.4421225,STD
420344821000,0.54085,1.21731567756498,9.90468874848544,-2.25420282575728,-0.09865474,0.09010262,-0.007330383,254.61127,-100.617096,6.4546933,STD
420348970000,0.544999,1.24449361409029,9.99787016406097,-2.20761211796951,-0.0983493,0.15699236,0.0033597588,254.61389,-100.69742,6.4765105,STD
420353979000,0.550008,1.27182213167349,10.0901956575192,-2.1316752959984,-0.09437868,0.21166481,0.011301007,254.59558,-100.76243,6.495581,STD
420358980000,0.555009,1.2909394660014,10.1523266322722,-2.02653013186309,-0.090713486,0.25442538,0.01038471,254.5622,-100.82552,6.516774,STD
420363912000,0.559941,1.3024458,10.180589925382,-1.91758498876761,-0.07574729,0.2910773,0.01282817,254.5075,-100.88017,6.542308,STD
420368936000,0.564965,1.3024458,10.1567191954753,-1.79823123953165,-0.07727446,0.30604348,0.02076942,254.44794,-100.93045,6.569092,STD
420373950000,0.569979,1.30069950239318,10.1208824469528,-1.68191402096696,-0.058643065,0.3286455,0.019242255,254.35576,-100.96898,6.5917683,STD
420378980000,0.575009,1.29603219263637,10.0648747786067,-1.56989848933243,-0.03756821,0.33322698,0.017104227,254.26625,-101.00699,6.6153536,STD
420383913000,0.579942,1.28003880453214,10.00125612395,-1.46547028759523,-0.013133603,0.32803464,0.028405234,254.16074,-101.03009,6.6384563,STD
420388974000,0.585003,1.2374314428111,9.91604144994139,-1.37078737140066,0.014049901,0.33444872,0.01740966,254.05136,-101.05282,6.654483,STD
420393903000,0.589932,1.18267431509681,9.83624570105696,-1.29101561614442,0.017104227,0.3268129,0.013439035,253.9342,-101.06007,6.67016,STD
420398966000,0.594995,1.08743204412122,9.76368013871481,-1.24566215151997,0.040317107,0.30818152,-0.0012217305,253.81947,-101.07301,6.6788125,STD
420403967000,0.599996,1.00121602254242,9.7023921913591,-1.20885203730978,0.050701816,0.28405234,-0.023823744,253.70001,-101.06272,6.6771874,STD
420408982000,0.605011,0.967612605824733,9.71079321549764,-1.22565373470352,0.0571159,0.24404067,-0.04550946,253.59184,-101.053696,6.670032,STD
420415105000,0.611134,0.927857527731717,9.72428352323232,-1.24580444191515,0.054061573,0.18478674,-0.076358154,253.49109,-101.023766,6.6425853,STD
420418967000,0.614996,0.915902588921212,9.76612575757576,-1.25477064836364,0.062002823,0.16065755,-0.08124508,253.39366,-100.99853,6.616708,STD
420424016000,0.620045,0.900273255401212,9.82082835757576,-1.26649265156364,0.05467244,0.10262536,-0.09193522,253.32321,-100.9608,6.568857,STD
420428980000,0.625009,0.892302167180254,9.85785228365744,-1.28532906758601,0.03268129,0.032070424,-0.08827003,253.26492,-100.923676,6.5233803,STD
420433980000,0.630009,0.896778980942408,9.86680609816754,-1.31666681066754,0.016798794,-0.031154128,-0.074830994,253.22214,-100.88686,6.4769444,STD
420438925000,0.634954,0.903009857336976,9.86159794906591,-1.36121299730349,-0.0021380284,-0.08735373,-0.06811147,253.19357,-100.8461,6.4285083,STD
420443972000,0.640001,0.915787640059041,9.8062272711491,-1.45491681435495,-0.016187929,-0.13652839,-0.05467244,253.18231,-100.80727,6.384663,STD
420449519000,0.645548,0.931054743535401,9.74603227823822,-1.55775618197964,-0.034513887,-0.18600847,-0.05222898,253.19522,-100.76705,6.3395467,STD
420453981000,0.65001,0.958038220992186,9.70555729978688,-1.6387066319599,-0.028405234,-0.22235495,-0.038789943,253.21918,-100.73469,6.3010983,STD
420458927000,0.654956,0.987948637733839,9.6606919381956,-1.72843790170495,-0.027794369,-0.25167647,-0.04550946,253.27193,-100.713326,6.2588997,STD
420463972000,0.660001,1.0267032846568,9.61312943741588,-1.81933553472409,-0.015577064,-0.28008172,-0.03359759,253.33525,-100.70252,6.2253847,STD
420468965000,0.664994,1.07620842217621,9.56362435158919,-1.90844474090486,-0.020463986,-0.29993483,-0.028099801,253.40286,-100.68683,6.1885376,STD
420473994000,0.670023,1.11483484332266,9.52499790968167,-1.99417477696365,-0.038789943,-0.3371976,-0.025045475,253.50449,-100.694855,6.1605945,STD
420479037000,0.675066,1.14212574692032,9.49770691109437,-2.07604758274628,-0.04428773,-0.36468655,-0.038789943,253.60701,-100.70354,6.130067,STD
420484712000,0.680741,1.17463720942623,9.48330241666667,-2.14415815519126,-0.059864793,-0.39706242,-0.040927973,253.73317,-100.72829,6.108454,STD
420488979000,0.685008,1.20068910978142,9.48702418888889,-2.17393171118397,-0.06963864,-0.41141775,-0.04550946,253.85947,-100.751015,6.082948,STD
420493953000,0.689982,1.22469823285418,9.49004945459571,-2.196433730698,-0.08124508,-0.43401974,-0.053450707,254.00626,-100.78647,6.057544,STD
420498995000,0.695024,1.21802425557706,9.48671239626814,-2.15972685567381,-0.102319926,-0.45662177,-0.05497787,254.15509,-100.81814,6.0331573,STD
420503943000,0.699972,1.21147470389772,9.4834375520387,-2.12370432143746,-0.119729586,-0.47708577,-0.056199603,254.31271,-100.85609,6.0107737,STD
420509031000,0.70506,1.20253760397165,9.47068875992913,-2.08904058632807,-0.14080444,-0.48197266,-0.061391957,254.46971,-100.88782,5.9876647,STD
420514021000,0.71005,1.18842621108814,9.43541027772036,-2.06081772688617,-0.15851954,-0.47739118,-0.070249505,254.6272,-100.91611,5.963827,STD
420518992000,0.715021,1.1743685489591,9.40026612239776,-2.03270232923372,-0.17440203,-0.46273044,-0.064751714,254.77068,-100.93534,5.9431977,STD
420524036000,0.720065,1.16595894945727,9.34909786776361,-2.04240997861819,-0.1704314,-0.41538838,-0.07422013,254.9002,-100.95234,5.9187703,STD
420528979000,0.725008,1.16188084670917,9.28792653945555,-2.07911260527223,-0.1704314,-0.35521814,-0.07696902,255.02037,-100.96745,5.900177,STD
420533950000,0.729979,1.15367291816402,9.22241544311508,-2.11713896367196,-0.15668693,-0.26542094,-0.079107046,255.10957,-100.98125,5.880474,STD
420538995000,0.735024,1.13265270672178,9.14358965020666,-2.15917938655645,-0.14721853,-0.16982053,-0.08582657,255.17822,-100.99362,5.8627496,STD
420543914000,0.739943,1.09192919590714,9.06762410227485,-2.16387889772515,-0.1255328,-0.04062254,-0.083383106,255.21722,-101.021774,5.8507514,STD
420549027000,0.745056,1.01888618213686,8.99001623680776,-2.11366176319224,-0.10293079,0.092240654,-0.07880162,255.22728,-101.05172,5.842831,STD
420554436000,0.750465,0.955812509357893,8.92371591640775,-2.06163536603048,-0.07544186,0.23945917,-0.06872234,255.20724,-101.09308,5.84246,STD
420559033000,0.755062,0.926501856443261,8.89440502544755,-2.01929780538541,-0.061086524,0.38240165,-0.060170226,255.15155,-101.13616,5.8492184,STD
420564025000,0.760054,0.89467266798343,8.86257557848794,-1.97332236428466,-0.043982297,0.5180137,-0.043066,255.05435,-101.17387,5.8576074,STD
420569018000,0.765047,0.8810662,8.89437918525583,-1.92642246513807,-0.03848451,0.6600399,-0.04184427,254.91638,-101.2094,5.8707533,STD
420574014000,0.770043,0.8810662,8.9737318559582,-1.87881082128701,-0.0421497,0.7883216,-0.020158553,254.74826,-101.250275,5.899612,STD
420579015000,0.775044,0.898661489173291,9.11088618203498,-1.81023039838633,-0.048258353,0.88331115,0.0009162979,254.5444,-101.27902,5.932606,STD
420584025000,0.780054,1.00926675737679,9.55330741414944,-1.63097359401431,-0.06047566,0.9202685,0.007330383,254.32462,-101.30361,5.9693327,STD
420588901000,0.78493,1.11691372100159,9.9838954236884,-1.45651128301272,-0.08674286,0.9651671,0.014049901,254.06961,-101.310425,6.0091095,STD
420594029000,0.790058,1.22056568662452,10.2414994833638,-1.34230794846947,-0.096516706,0.97219205,0.031154128,253.8197,-101.31809,6.051535,STD
420599037000,0.795066,1.31631146496423,10.3811290385127,-1.27049863554317,-0.119729586,0.9245446,0.03940081,253.57654,-101.3132,6.0906477,STD
420603937000,0.799966,1.3995950880967,10.4942745930137,-1.20310478284163,-0.1518,0.8304713,0.043982297,253.31677,-101.25254,6.123463,STD
420608978000,0.805007,1.44904873366113,10.5288918350748,-1.1437603565253,-0.17195857,0.6976081,0.052839845,253.086,-101.190384,6.1532936,STD
420613922000,0.809951,1.48351295829278,10.5349081986654,-1.1013328,-0.17928895,0.5326745,0.059864793,252.88399,-101.11422,6.1875334,STD
420618962000,0.814991,1.48015781634923,10.4644504981232,-1.1013328,-0.17287487,0.35185838,0.06872234,252.72754,-101.03901,6.215609,STD
420624017000,0.820046,1.47679268886417,10.3937831020437,-1.1013328,-0.18081611,0.16982053,0.063224554,252.61655,-100.94927,6.230321,STD
420628970000,0.824999,1.46094493989862,10.3009624337437,-1.13901587834902,-0.17134771,0.004581489,0.064446285,252.5542,-100.86958,6.2408276,STD
420633983000,0.830012,1.42618131208234,10.171839957898,-1.23337415595324,-0.16890424,-0.12858713,0.06414085,252.5347,-100.787605,6.2420692,STD
420638965000,0.834994,1.39571805356177,10.0612773219116,-1.33761818755636,-0.13713925,-0.23762658,0.06688975,252.55624,-100.72202,6.2404084,STD
420643964000,0.839993,1.36981669744815,9.97062232759243,-1.45417467321912,-0.10445796,-0.31306845,0.062308256,252.60495,-100.65858,6.232424,STD
420649065000,0.845094,1.32444894520633,9.86857385324232,-1.59462310549178,-0.07391469,-0.37720928,0.060170226,252.69284,-100.61979,6.2191396,STD
420654001000,0.85003,1.22911469202606,9.74390616040956,-1.78895823437791,-0.025045475,-0.398895,0.047036625,252.78778,-100.592186,6.2008076,STD
420658908000,0.854937,1.1343405468973,9.61997091552901,-1.98215160501086,0.0125227375,-0.42577308,0.032986723,252.91609,-100.592674,6.183651,STD
420663971000,0.86,1.04260628069302,9.54324889552499,-2.05223309897266,0.057726767,-0.43279803,0.019547688,253.04239,-100.60532,6.1638412,STD
420669915000,0.865944,0.938530421790005,9.48377681055198,-2.05718908880376,0.094989546,-0.4382958,-0.008857546,253.17267,-100.62108,6.135868,STD
420674052000,0.870081,0.875335289326731,9.45655267260261,-2.06434583875821,0.106901415,-0.44868052,-0.027488936,253.33267,-100.6769,6.103124,STD
420678989000,0.875018,0.812300335291877,9.44304538662984,-2.0778534068184,0.11575896,-0.45662177,-0.04886922,253.4902,-100.73598,6.062956,STD
420683947000,0.879976,0.7661445,9.43436633085327,-2.09501183333961,0.122478485,-0.4569272,-0.05681047,253.64832,-100.79118,6.0182543,STD
420688961000,0.88499,0.7661445,9.43888875296666,-2.12214579935958,0.12003502,-0.4615087,-0.06047566,253.80719,-100.84429,5.970134,STD
420693996000,0.890025,0.769650862790918,9.44097878382214,-2.15163312507096,0.09437868,-0.43463063,-0.058337633,253.95734,-100.88869,5.913964,STD
420698984000,0.895013,0.792247422999054,9.42968027956481,-2.19306010886156,0.098043874,-0.39645153,-0.03268129,254.10455,-100.943535,5.8659544,STD
420703975000,0.900004,0.814857573760643,9.41837497989593,-2.23451200864081,0.076358154,-0.34972036,0.0027488936,254.25253,-100.98891,5.828956,STD
420708977000,0.905006,0.83938769070745,9.39295801690368,-2.25317998662016,0.070249505,-0.28191432,0.03970624,254.38318,-101.04351,5.803906,STD
420713964000,0.909993,0.865016633474645,9.35878629541186,-2.25745147410786,0.062002823,-0.22785273,0.07544186,254.50455,-101.09769,5.7911024,STD
420718970000,0.914999,0.875523802376806,9.315217332343,-2.24904160475361,0.06627888,-0.2003638,0.11789699,254.62686,-101.16755,5.7954464,STD
420723943000,0.919972,0.86088633908411,9.25666727538162,-2.21976667816822,0.055283304,-0.17715092,0.13652839,254.73453,-101.23282,5.8055053,STD
420728962000,0.924991,0.846140130290727,9.18735616760175,-2.16755681073141,0.040317107,-0.172264,0.1441642,254.84647,-101.303856,5.828104,STD
420733951000,0.92998,0.831518467008059,9.10449998745282,-2.08470073236764,0.053145275,-0.1685988,0.13622294,254.95135,-101.3785,5.8518972,STD
420739942000,0.935971,0.836251475642492,9.00275167108035,-1.97662925479988,0.036651913,-0.16554448,0.12034045,255.05179,-101.43801,5.8749595,STD
420743970000,0.939999,0.851729614143846,8.93310028217474,-1.89923860269836,0.021991149,-0.17195857,0.1020145,255.1525,-101.49875,5.894193,STD
420748947000,0.944976,0.857530060452311,8.84564280565388,-1.80230698898722,0.004276057,-0.18478674,0.064446285,255.23608,-101.54223,5.9014807,STD
420753984000,0.950013,0.848043660924287,8.75552186155359,-1.70269969488692,-0.023823744,-0.20280726,0.040011674,255.32193,-101.57839,5.906514,FOL
420758956000,0.954985,0.853069853361169,8.69913097420221,-1.66164589815091,-0.046731193,-0.21166481,0.005192355,255.40173,-101.590775,5.9002204,FOL
420763980000,0.960009,0.876985701600557,8.68478143329357,-1.6951280936773,-0.06169739,-0.21991149,-0.025350908,255.48434,-101.59577,5.8877115,FOL
420768932000,0.964961,0.936378986367979,8.76424751194115,-1.7333050442778,-0.079107046,-0.19456059,-0.040927973,255.5474,-101.57937,5.871092,FOL
420774040000,0.970069,1.04853410489301,8.97921145576997,-1.78003636399503,-0.09315695,-0.16340645,-0.047036625,255.6089,-101.55827,5.849335,FOL
420778947000,0.974976,1.15535766631702,9.16260437742813,-1.82669406283994,-0.09437868,-0.13683382,-0.03970624,255.66556,-101.54863,5.839984,FOL
420783974000,0.980003,1.26290236311189,9.30288042977855,-1.878128485169,-0.09285152,-0.08002335,-0.03970624,255.70325,-101.53524,5.8304696,FOL
420788908000,0.984937,1.36053875092233,9.4155544590687,-1.94133022391066,-0.10323623,-0.009468411,-0.020158553,255.73457,-101.53128,5.841709,FOL
420794020000,0.990049,1.43864281170605,9.45948789131518,-2.04384190563366,-0.070249505,0.06841691,0.003970624,255.74738,-101.53953,5.857337,FOL
420798966000,0.994995,1.51173909887186,9.48666995876449,-2.16284062659301,-0.04795292,0.16920967,0.025045475,255.74185,-101.55647,5.895488,FOL
420804068000,1.000097,1.58016639407142,9.47146399019684,-2.3415116900957,-0.007330383,0.28221974,0.050701816,255.71222,-101.58968,5.944922,FOL
420809900000,1.005929,1.65838434499339,9.45408233424103,-2.54574721388003,0.03359759,0.4801401,0.10262536,255.65018,-101.65247,6.026061,FOL
420814045000,1.010074,1.7207606595,9.350315725,-2.7229733215,0.13805555,0.5439755,0.12492194,255.59476,-101.73805,6.102783,FOL
420819028000,1.015057,1.79711462037,9.2071516435,-2.94249106489,0.18509217,0.6960809,0.15607607,255.46292,-101.82556,6.207764,FOL
420823977000,1.020006,1.79708363062681,9.01386773963356,-3.07464627454195,0.26389378,0.8546005,0.17837265,255.35135,-101.98376,6.333735,FOL
420829050000,1.025079,1.76428881364513,8.79367410125361,-3.17303067656702,0.3567453,0.98899084,0.20372356,255.2078,-102.15628,6.4717493,FOL
420833982000,1.030011,1.70921096969779,8.59027821263273,-3.19197607424449,0.4196644,1.0995574,0.21105394,255.06815,-102.37645,6.625547,FOL
420839031000,1.03506,1.63900017778383,8.38842222597332,-3.16564704445957,0.4886922,1.1618657,0.2134974,254.90912,-102.6153,6.784654,FOL
420843893000,1.039922,1.5638668074013,8.1997085555534,-3.12837373938306,0.54183745,1.1798862,0.21777347,254.75699,-102.87897,6.9487653,FOL
420849280000,1.045309,1.46878346174217,7.99953298649724,-3.06832099550878,0.5900958,1.1704178,0.19761491,254.59866,-103.14525,7.10351,FOL
420853934000,1.049963,1.4173675,7.86411808510353,-3.00707874309816,0.6178902,1.1212431,0.19028452,254.4537,-103.4113,7.252727,FOL
420858955000,1.054984,1.4173675,7.78575843002301,-2.92410979846626,0.63163465,1.0189233,0.17195857,254.3297,-103.67177,7.3852963,FOL
420863894000,1.059923,1.42349853310463,7.72480442367067,-2.79847617495712,0.63713247,0.8695667,0.16065755,254.22945,-103.924965,7.507938,FOL
420868959000,1.064988,1.44796952024014,7.7101220051458,-2.53908301629503,0.64721173,0.68936145,0.1469131,254.16998,-104.171524,7.6133757,FOL
420874110000,1.070139,1.48366627977312,7.70632973787086,-2.31906484045375,0.6407976,0.5039638,0.1255328,254.14227,-104.39913,7.7004,FOL
420878957000,1.074986,1.54037334601222,7.72658224642234,-2.20565070797557,0.63499445,0.42180246,0.11484267,254.13895,-104.62261,7.779463,FOL
420884315000,1.080344,1.6004495518607,7.74398772559037,-2.08521757745107,0.6206391,0.17104226,0.08857546,254.20087,-104.79487,7.8261886,FOL
420888965000,1.084994,1.61681714167968,7.69079297322429,-2.04839041490398,0.6133087,0.105374254,0.08827003,254.23605,-104.965225,7.8817267,FOL
420893891000,1.08992,1.63415622715244,7.63444085491133,-2.00937738206377,0.61178154,0.023823744,0.076358154,254.32002,-105.11142,7.9134297,FOL
420899208000,1.095237,1.60297648733048,7.50376262621215,-2.01310507088984,0.61361414,-0.020158553,0.076052725,254.41266,-105.25527,7.9456086,FOL
420903954000,1.099983,1.56498062673231,7.37288773076351,-2.0257703577559,0.61269784,-0.0421497,0.08032878,254.52127,-105.394264,7.9713955,FOL
420908983000,1.105012,1.4456625683017,7.2795894209635,-1.9245028683017,0.6429357,-0.04734206,0.07788532,254.63129,-105.53692,8.000494,FOL
420913970000,1.109999,1.28762616423358,7.20986766642336,-1.76646646423358,0.68630713,-0.03176499,0.07422013,254.74129,-105.680565,8.02976,FOL
420918959000,1.114988,1.14950199066955,7.16913543181117,-1.62609732201481,0.7263188,-0.026572637,0.058337633,254.85818,-105.83463,8.052559,FOL
420924350000,1.120379,1.01409846760259,7.14524071005862,-1.48671136195619,0.75136423,-0.03726278,0.01985312,254.973,-105.988976,8.067503,FOL
420929203000,1.125232,0.892714371628499,7.1280930821883,-1.36090570076336,0.77518797,-0.04520403,-0.024129177,255.05145,-106.12069,8.062561,FOL
420934001000,1.13003,0.779826179758708,7.1724419766693,-1.23189065080284,0.8017606,-0.051618114,-0.08155051,255.12878,-106.2494,8.042985,FOL
420938974000,1.135003,0.662820556964113,7.21840843191191,-1.09816996646486,0.82253003,-0.06566802,-0.1386664,255.17969,-106.33955,7.9878182,FOL
420943990000,1.140019,0.608853306102397,7.29239838190995,-0.975320948329702,0.8622363,-0.096516706,-0.18936823,255.23343,-106.43259,7.918827,FOL
420949473000,1.145502,0.574533297816993,7.38391833233116,-0.845667509368192,0.8949176,-0.13805555,-0.226631,255.29092,-106.522026,7.8384056,FOL
420954322000,1.150351,0.544234355251214,7.46882456858771,-0.731113462702132,0.90469146,-0.20250183,-0.2593123,255.32883,-106.576225,7.7311683,FOL
420958962000,1.154991,0.516092245899303,7.61422553628879,-0.623235392362255,0.9233228,-0.27366763,-0.27183503,255.37892,-106.638504,7.6193123,FOL
420964006000,1.160035,0.488878578508464,7.77474788332165,-0.50884182202945,0.93767816,-0.33353242,-0.2733622,255.40765,-106.66826,7.4941306,FOL
420969035000,1.165064,0.49370295266453,7.95807410125213,-0.422003036844636,0.9443977,-0.4166101,-0.26419923,255.46233,-106.70132,7.365856,FOL
420974077000,1.170106,0.498981033842949,8.18430548138755,-0.359571315166199,0.9272934,-0.45875978,-0.25473082,255.49452,-106.7084,7.235746,FOL
420979051000,1.17508,0.507609777313649,8.73654607263835,-0.489002620397609,0.89461213,-0.5357288,-0.24495697,255.55978,-106.71561,7.1040506,FOL
420983912000,1.179941,0.516042491831356,9.2762407879721,-0.615493487854361,0.86162543,-0.59620446,-0.21991149,255.60696,-106.70389,6.9795456,FOL
420989028000,1.185057,0.559187253288958,9.53614248848416,-0.884307520708102,0.763887,-0.63316184,-0.20341812,255.66844,-106.66878,6.855884,FOL
420993905000,1.189934,0.604962578520092,9.74213121104214,-1.15895948404443,0.6224717,-0.6261369,-0.16462818,255.73715,-106.62115,6.748389,FOL
420998963000,1.194992,0.671157013709509,9.89668412852664,-1.51703830721003,0.462425,-0.54519725,-0.09896017,255.78384,-106.55064,6.6506844,FOL
421003980000,1.200009,0.761527249133751,9.97199260125392,-1.96888945811912,0.2828306,-0.42332962,-0.011911872,255.82086,-106.4485,6.577199,FOL
421009032000,1.205061,0.83497783390625,10.005219109375,-2.4353520984375,0.1423316,-0.24740042,0.09987647,255.85254,-106.38478,6.5493026,FOL
421013974000,1.210003,0.891500822757763,10.000508765625,-2.90166673555932,0.033292156,-0.06383542,0.23640485,255.85574,-106.298645,6.563278,FOL
421018925000,1.214954,0.936630750179196,9.95072859062808,-3.32144619070872,0.009468411,0.12217305,0.3567453,255.86586,-106.29072,6.626485,FOL
421024105000,1.220134,0.972188751343966,9.8529444297106,-3.71258418031538,0.04886922,0.34055737,0.4538729,255.82419,-106.28609,6.7344685,FOL
421028982000,1.225011,1.00390076932318,9.69649905098154,-4.01657677890419,0.14905111,0.58123827,0.514654,255.78665,-106.391266,6.889493,FOL
421033980000,1.230009,1.03194936569001,9.37394036360973,-4.16616932540287,0.28955013,0.81031275,0.5369505,255.69759,-106.522156,7.070359,FOL
421038926000,1.234955,1.05666801374736,9.04514356265702,-4.22825244156366,0.41905355,0.958753,0.54305923,255.62955,-106.75697,7.275128,FOL
421043971000,1.24,1.07123387325897,8.67614168696614,-3.99034309868355,0.54275376,1.0210613,0.54367006,255.52724,-107.02115,7.4882913,FOL
421049001000,1.24503,1.08663578411268,8.347609178,-3.71909498659155,0.63438356,0.96852684,0.54702985,255.44778,-107.353355,7.7063026,FOL
421053999000,1.250028,1.10461319121127,8.140868574,-3.34606341385916,0.67073005,0.799928,0.56016344,255.39008,-107.693924,7.9160714,FOL
421058979000,1.255008,1.12268324256094,7.95448183125316,-2.9914303048144,0.6600399,0.550695,0.58551437,255.34818,-108.02811,8.117493,FOL
421065056000,1.261085,1.14622859043188,7.91327753394356,-2.72065874283402,0.6206391,0.25320363,0.6243043,255.37415,-108.358055,8.302689,FOL
421068960000,1.264989,1.15274750181471,7.91486858292264,-2.59792705978033,0.535118,-0.026572637,0.6750061,255.41873,-108.623276,8.479895,FOL
421073987000,1.270016,1.10676605616046,8.09419622097421,-2.763460312149,0.44684792,-0.15393804,0.72387534,255.5094,-108.87621,8.650114,FOL
421079048000,1.275077,1.06045355056554,8.27528653938713,-2.94364575825445,0.41263947,-0.37843102,0.7476991,255.67023,-109.092224,8.792468,FOL
421083979000,1.280008,1.01499557292636,8.46090668891385,-3.34519101973368,0.32834008,-0.5143485,0.7901542,255.84785,-109.27859,8.945132,FOL
421088992000,1.285021,0.968781652442644,8.64961360628911,-3.75341377288625,0.2932153,-0.57940567,0.8249735,256.07974,-109.48541,9.079818,FOL
421093963000,1.289992,0.906711426480943,9.09508190757856,-4.38218610111786,0.29352075,-0.573297,0.86009824,256.33167,-109.68314,9.216757,FOL
421099115000,1.295144,0.828539224878972,9.7769172051756,-5.22470901818502,0.34391713,-0.5635232,0.89675015,256.60193,-109.88742,9.354384,FOL
421103915000,1.299944,0.783340862672162,10.3442785834925,-5.78507865340304,0.41416663,-0.57360244,0.93737274,256.9336,-110.17002,9.495437,FOL
421108984000,1.305013,0.812622937187092,10.7542280343822,-5.7509163350558,0.5213735,-0.6383542,0.9615019,257.27774,-110.472694,9.633184,FOL
421114003000,1.310032,0.876249858417419,11.1311635910781,-5.69425854476899,0.6582073,-0.80878556,0.9755518,257.74066,-110.90495,9.752382,FOL
421119006000,1.315035,1.02383033448752,11.4365028185874,-5.58230081030271,0.8164214,-0.99387777,0.95630956,258.2209,-111.358,9.855949,FOL
421123962000,1.319991,1.16254042263643,11.6277307820907,-5.38900747179093,0.9828822,-1.1756102,0.9502009,258.71347,-111.81332,9.942958,FOL
421128973000,1.325002,1.29164324311107,11.6553957581668,-5.07086116168332,1.1560625,-1.3445144,0.93309665,259.24512,-112.29529,10.000387,FOL
421134982000,1.331011,1.46731348060766,11.6344138715984,-4.60612521072655,1.3683381,-1.4810427,0.9053023,259.77643,-112.78955,10.045334,FOL
421138959000,1.334988,1.60148155961251,11.5740380731836,-4.22710040417437,1.5861117,-1.6126842,0.86162543,260.3426,-113.3138,10.060432,FOL
421144118000,1.340147,1.77155775286374,11.4841943284322,-3.73296029986322,1.7733418,-1.7318029,0.816116,260.8752,-113.83023,10.065567,FOL
421148975000,1.345004,1.88686994142588,11.2694749032313,-3.23990139264832,1.8658879,-1.8435913,0.79779,261.43344,-114.36457,10.049242,FOL
421155478000,1.351507,2.04128215732117,10.9813374325572,-2.58864197888609,1.8637499,-1.9168952,0.79198676,261.93173,-114.84289,10.03849,FOL
421159037000,1.355066,2.12708164386407,10.7847136947766,-2.76381589169289,1.7217237,-1.8332067,0.8185594,262.41452,-115.30009,10.033995,FOL
421163896000,1.359925,2.24422120697504,10.516268979442,-3.00297577995595,1.5247196,-1.5577064,0.8585711,262.79178,-115.67525,10.070206,FOL
421168965000,1.364994,2.2766567008687,10.2875094882816,-3.32966878844448,1.2534955,-1.3704761,0.9245446,263.1735,-115.992874,10.118112,FOL
421174134000,1.370163,2.28561561484934,10.0680157215637,-3.68354621809791,0.9663888,-0.94134337,0.9642508,263.41724,-116.25046,10.2271805,FOL
421178963000,1.374992,2.23962405058763,9.84670310148186,-3.92741092014308,0.8219192,-0.52595496,1.0574077,263.6688,-116.54579,10.401993,FOL
421183994000,1.380023,2.15591689979561,9.6054295038324,-4.12436924864589,0.55863625,-0.19792034,1.1545353,263.83417,-116.73613,10.623064,FOL
421188973000,1.385002,2.04558801610633,9.31669802971071,-4.30788594964816,0.3173445,-0.022602014,1.2385293,264.00354,-116.973625,10.8942175,FOL
421193954000,1.389983,1.91971266466966,8.99967870181783,-4.48504364612979,0.12308934,0.024740042,1.2846496,264.128,-117.15899,11.19464,FOL
421199103000,1.395132,1.87551315559488,8.75026384054815,-4.68713377342772,-0.02687807,-0.025350908,1.3353515,264.28113,-117.347916,11.519732,FOL
421204853000,1.400882,1.89050542349578,8.53037734903349,-4.92701021638987,-0.122783914,-0.13744467,1.361924,264.4414,-117.50314,11.837402,FOL
421209028000,1.405057,1.943804458125,8.42492880625,-5.11740654545833,-0.16157386,-0.28191432,1.3567317,264.6688,-117.68652,12.139773,FOL
421214037000,1.410066,2.06373009265625,8.3699628578125,-5.36725144782292,-0.16523905,-0.4428773,1.3362677,264.9311,-117.85615,12.418954,FOL
421219022000,1.415051,2.23259931719757,8.40958984128912,-5.48643219495563,-0.13103059,-0.6032294,1.3213016,265.27057,-118.08174,12.68253,FOL
421224126000,1.420155,2.46090393104157,8.55570489332088,-5.46360174787482,-0.063224554,-0.7611381,1.2956452,265.64673,-118.30986,12.909559,FOL
421228957000,1.424986,2.71409888097191,8.74598522759893,-5.43179313557515,0.016187929,-0.9056077,1.278541,266.09595,-118.59336,13.128795,FOL
421234001000,1.43003,3.05581229885175,9.0530316171827,-5.37731710818126,0.10842858,-1.0543534,1.2699889,266.58325,-118.89188,13.315058,FOL
421238903000,1.434932,3.37915786076528,9.30246273367599,-5.34221375423567,0.21380283,-1.1621711,1.2791518,267.0813,-119.20683,13.508017,FOL
421243960000,1.439989,3.69722987567104,9.47302360850942,-5.33760401907481,0.33841935,-1.2962561,1.3029755,267.62244,-119.54619,13.67223,FOL
421249131000,1.44516,3.9230244345351,9.58094001059456,-5.24877763407653,0.4868596,-1.4459181,1.3494014,268.16364,-119.90732,13.859207,FOL
421253998000,1.450027,3.91196886394687,9.53303230716319,-4.97607329020398,0.65240407,-1.5971072,1.3652838,268.735,-120.2968,14.017705,FOL
421258909000,1.454938,3.90081334573055,9.48469149525617,-4.70090356907021,0.77274454,-1.6978999,1.3946054,269.32092,-120.71471,14.204173,FOL
421263973000,1.460002,3.77939023947669,9.4418696336829,-4.3962553477832,0.7974846,-1.7214183,1.4156802,269.9215,-121.142334,14.372654,FOL
421268884000,1.464913,3.62312253562455,9.40280293718202,-4.09348671618731,0.73731434,-1.7067575,1.4453071,270.53766,-121.57442,14.532344,FOL
421274312000,1.470341,3.38704426318883,9.25290545775165,-3.94182345892726,0.675617,-1.5195273,1.5745052,271.08347,-121.98015,14.744642,FOL
421278937000,1.474966,3.17369855231448,9.10464794693444,-3.84780671266226,0.41538838,-1.4230106,1.6221527,271.63678,-122.30664,14.9247875,FOL
421283975000,1.480004,2.86685244895606,8.90141628108445,-3.8084921667186,0.31887165,-1.1908818,1.7082846,272.09302,-122.63638,15.18242,FOL
421288966000,1.484995,2.43489941466708,8.62834268764932,-3.87800191237146,0.109650314,-0.9425651,1.7513506,272.51666,-122.870735,15.447918,FOL
421293958000,1.489987,2.10300122214533,8.3182999876161,-4.05300366435986,-0.10445796,-0.6985244,1.7617353,272.88174,-123.0816,15.734891,FOL
421299163000,1.495192,1.88966826366782,7.94610220123839,-4.3752724100346,-0.33108896,-0.49632803,1.7440202,273.1922,-123.239075,16.044151,FOL
421303928000,1.499957,1.7338905145029,7.52999482576515,-4.6945661639928,-0.5161811,-0.35796702,1.7030923,273.48013,-123.373764,16.337194,FOL
421308951000,1.50498,1.69539940316063,6.8515883854771,-5.10834601284257,-0.6814202,-0.3115413,1.6447546,273.731,-123.454025,16.626669,FOL
421313919000,1.509948,1.72557005045286,6.16545847902565,-5.55395440742683,-0.7965683,-0.3399465,1.5781704,274.04028,-123.566055,16.894123,FOL
421318962000,1.514991,1.97881355786062,5.41954137277147,-6.1249033089141,-0.8579602,-0.39920044,1.4895949,274.33063,-123.64102,17.134256,FOL
421324135000,1.520164,2.24053528804022,4.68738835956959,-6.63707661485271,-0.8503244,-0.39584067,1.4117095,274.7143,-123.82205,17.37621,FOL
421328982000,1.525011,2.49436876213618,4.14696850784089,-6.79265201958899,-0.79901177,-0.36285394,1.3289373,275.0897,-123.98533,17.582216,FOL
421334151000,1.53018,2.76506511608749,3.5706470278356,-6.95856274108308,-0.7180721,-0.33536503,1.2409728,275.60852,-124.30823,17.804602,FOL
421338972000,1.535001,2.8771567922528,3.02543137420999,-6.86870834006116,-0.65270954,-0.30879238,1.14018,276.1036,-124.62195,17.997936,FOL
421343933000,1.539962,2.97886133792049,2.46363509149847,-6.75247468917431,-0.5723807,-0.27763826,1.028697,276.5741,-124.93961,18.162298,FOL
421349147000,1.545176,3.02921108519187,2.05037924586907,-6.50696246862303,-0.50762904,-0.27183503,0.91354895,277.1343,-125.336136,18.36108,FOL
421353998000,1.550027,3.07115889767946,1.68123934572461,-6.26786051124154,-0.47494772,-0.20280726,0.81397796,277.65265,-125.72543,18.54202,FOL
421358973000,1.555002,3.09249114679193,1.623151394164,-6.28670555952896,-0.49266282,-0.08032878,0.7284568,278.18518,-126.13721,18.745527,FOL
421364013000,1.560042,3.10502909051,1.69837936195342,-6.41626484951078,-0.56077427,0.10354166,0.6722572,278.67032,-126.53111,18.94558,FOL
421369033000,1.565062,3.09302550559329,1.77990863427887,-6.73020335189772,-0.61269784,0.20433442,0.5751296,279.12738,-126.9115,19.149578,FOL
421374025000,1.570054,3.04527527051538,1.87063389644427,-7.31275489356772,-0.6264423,0.35246924,0.52839845,279.52304,-127.28364,19.3834,FOL
421379042000,1.575071,3.03641729280349,2.1359769160678,-7.81725937218839,-0.63621616,0.39553526,0.43982297,279.91095,-127.63362,19.5766,FOL
421384043000,1.580072,3.08503049502639,2.65613690574503,-8.20130307584247,-0.56779927,0.3481932,0.34513888,280.27374,-127.98946,19.761787,FOL
421389811000,1.58584,3.3116411637367,3.24141153165954,-7.93269051070896,-0.40683624,0.26297748,0.23365596,280.69476,-128.41275,19.897228,FOL
421394033000,1.590062,3.59709030246594,3.65953432312817,-7.23715901994631,-0.21685717,0.12064589,0.14905111,281.1256,-128.84352,19.995113,FOL
421399134000,1.595163,3.95424960667247,4.07470203303356,-6.54817814247171,-0.0290161,-0.069027774,0.076052725,281.57184,-129.2857,20.022062,FOL
421404046000,1.600075,4.31362104572092,4.36128932664152,-6.07508157711053,0.112399206,-0.18417588,0.0015271631,282.01123,-129.73906,20.013468,FOL
421408964000,1.604993,4.69682146052234,4.61140371382475,-5.66010846428355,0.15424347,-0.1853976,-0.07727446,282.28595,-130.03732,20.026182,FOL
421414037000,1.610066,5.13772946183322,4.79756496087526,-5.3465739935666,0.10903945,-0.11942416,-0.11209377,282.56177,-130.33655,20.022182,FOL
421418891000,1.61492,5.50265589488662,4.95201279289452,-5.14931366993482,-0.0076358155,-0.0125227375,-0.13500121,282.7134,-130.52602,20.06585,FOL
421424000000,1.620029,5.77664847406591,5.06879656898926,-5.1403299814468,-0.14966199,0.084910266,-0.12370021,282.84763,-130.69328,20.117783,FOL
421428942000,1.624971,6.01042944538934,5.17213127021516,-5.19200357377049,-0.2837469,0.172264,-0.089186326,282.89435,-130.7881,20.247553,FOL
421433932000,1.629961,6.09856378657787,5.23088734429303,-5.5298511147541,-0.40775254,0.25778514,-0.06627888,282.9161,-130.8492,20.391436,FOL
421438961000,1.63499,6.10540525400082,5.28125346922446,-5.85602666499795,-0.5338962,0.35155296,-0.04795292,282.90497,-130.87863,20.5934,FOL
421443962000,1.639991,5.83026714341403,5.3009061987382,-6.13116441646492,-0.636827,0.45112398,-0.03756821,282.87366,-130.8866,20.810825,FOL
421449003000,1.645032,5.61493054371275,5.32425818489273,-6.36881909077771,-0.713796,0.49418998,-0.032986723,282.87442,-130.91348,21.035095,FOL
421453965000,1.649994,5.55829166460072,5.35611752205006,-6.50333671513707,-0.7648033,0.49754974,-0.047647487,282.85855,-130.92151,21.263025,FOL
421458966000,1.654995,5.50120761896603,5.38822726512217,-6.63891161223927,-0.77091193,0.46822822,-0.049785517,282.88452,-130.9379,21.449915,FOL
421464037000,1.660066,5.17719210141619,5.38290628116677,-6.73408225618262,-0.72204274,0.41508293,-0.059864793,282.91083,-130.95189,21.623533,FOL
421469012000,1.665041,4.68372641525048,5.35269411883323,-6.79954199381737,-0.70188415,0.2855795,-0.082161374,282.96024,-130.95554,21.771751,FOL
421474156000,1.670185,4.52663604609615,5.53221915338876,-6.85699712836617,-0.7110472,0.20250183,-0.13500121,283.0291,-130.96979,21.895763,FOL
421479015000,1.675044,4.5098155896801,5.78032050131936,-6.90745832197723,-0.7119634,0.13316862,-0.18295415,283.1222,-130.98683,21.992825,FOL
421483995000,1.680024,4.56935203582034,6.06080781460454,-6.8389345246615,-0.6591236,0.0711658,-0.21563543,283.25052,-130.98856,22.013489,FOL
421488969000,1.684998,4.70724423735176,6.367728695938,-6.6476648795219,-0.623388,-0.02076942,-0.22204952,283.39825,-130.9828,22.011635,FOL
421493888000,1.689917,4.80544545097556,6.6652433572078,-6.48298653051714,-0.58459806,-0.15760323,-0.22266038,283.55734,-130.94867,21.970005,FOL
421499005000,1.695034,4.82865272773252,6.96229688742186,-6.36230873984656,-0.5708536,-0.28221974,-0.24984388,283.72858,-130.913,21.907812,FOL
421503937000,1.699966,4.87715710672877,7.26893033769696,-6.2415157369339,-0.591623,-0.310625,-0.2782491,283.8571,-130.82309,21.855711,FOL
421508955000,1.704984,5.0152637946487,7.64991454100684,-6.10340880037657,-0.6227771,-0.30085114,-0.29871312,284.00198,-130.73447,21.786133,FOL
421513958000,1.709987,5.18171037764103,8.06784565230769,-5.96649793538462,-0.6973027,-0.27488935,-0.31764993,284.11072,-130.57755,21.709818,FOL
421518962000,1.714991,5.45427585478788,8.62638093454545,-5.83244952363636,-0.78984874,-0.2687807,-0.33567044,284.2172,-130.4125,21.629341,FOL
421524058000,1.720087,5.6899944917997,9.15687519274072,-5.68145887464292,-0.87598073,-0.24648413,-0.29810223,284.26764,-130.19861,21.575966,FOL
421528972000,1.725001,5.4922948418081,9.2794493943875,-5.388863245673,-0.95294976,-0.18020524,-0.3323107,284.2894,-129.95975,21.5115,FOL
421533993000,1.730022,5.29029037648294,9.40469259065703,-5.08989648680894,-1.1133019,-0.11453723,-0.36102137,284.2509,-129.62549,21.476347,FOL
421538988000,1.735017,5.1613928410182,9.51992472260937,-4.92511661004646,-1.2846496,-0.07147124,-0.3912592,284.1965,-129.27802,21.440107,FOL
421543968000,1.739997,5.06445669758033,9.63070851471158,-4.81894876509872,-1.4358387,-0.022907447,-0.410196,284.1225,-128.90881,21.411278,FOL
421549174000,1.745203,5.01824756027274,9.76833339727264,-4.79478643287877,-1.5815301,0.030848695,-0.44929138,283.98303,-128.44598,21.362467,FOL
421553955000,1.749984,5.00447436841472,9.9060653158528,-4.81774175264213,-1.7153096,0.089186326,-0.47525316,283.83118,-127.96771,21.321077,FOL
421558978000,1.755007,4.76185628038975,9.7912409520386,-4.86958479516602,-1.8283197,0.13439035,-0.47952923,283.6541,-127.4436,21.270655,FOL
421563965000,1.759994,4.38686435623877,9.52468058906442,-4.93735440296093,-1.9178114,0.16065755,-0.4999932,283.46252,-126.90704,21.216719,FOL
421568961000,1.76499,4.17711117848837,9.38006227556135,-5.03443407821772,-1.9779817,0.23793201,-0.5635232,283.23962,-126.34759,21.159052,FOL
421574013000,1.770042,4.12376264593023,9.35096314043705,-5.16053014473737,-2.1025982,0.2947425,-0.6105598,283.01733,-125.77324,21.101477,FOL
421578976000,1.775005,4.15041214056446,9.31039008034222,-5.24390237466811,-2.223855,0.31887165,-0.64721173,282.81192,-125.20346,21.005064,FOL
421583978000,1.780007,4.24933722924575,9.25857174107582,-5.29100941921526,-2.302962,0.32436943,-0.67164636,282.59332,-124.62883,20.907572,FOL
421588969000,1.784998,4.22370152599877,9.04609696189306,-5.32227964781807,-2.3860397,0.31581733,-0.7049385,282.39514,-124.03655,20.790146,FOL
421593961000,1.78999,4.06698790829748,8.66410822188076,-5.33697142802704,-2.4495697,0.2855795,-0.7128797,282.20364,-123.45169,20.673822,FOL
421599371000,1.7954,3.94624238372753,8.38769714664144,-5.23259692715232,-2.5231788,0.26511553,-0.7476991,282.02386,-122.86232,20.555374,FOL
421603996000,1.800025,3.87500530709555,8.24103213954588,-5.06498018874172,-2.6267207,0.21013765,-0.79351395,281.8614,-122.2694,20.426775,FOL
421608953000,1.804982,3.7726885433264,8.13742616205821,-4.84886276596674,-2.7116308,0.11484267,-0.8396343,281.75037,-121.68529,20.279161,FOL
421613965000,1.809994,3.63298263821206,8.10748936101871,-4.57942988941788,-2.7769935,0.024129177,-0.8723156,281.6507,-121.0975,20.121655,FOL
421618964000,1.814993,3.42566149629136,8.21667436872999,-4.36991714508182,-2.8316658,-0.034513887,-0.9108001,281.56128,-120.481346,19.94514,FOL
421624045000,1.820074,3.14436619279616,8.47200410832444,-4.21845042929562,-2.9022207,-0.06047566,-0.960891,281.48392,-119.86126,19.756054,FOL
421628969000,1.824998,2.77859596886096,9.08884247237183,-4.09430545038899,-3.023783,-0.109650314,-0.9987647,281.41156,-119.188545,19.542463,FOL
421633952000,1.829981,2.1265105294235,10.8309096598344,-4.03718852112508,-3.1575625,-0.22785273,-1.024421,281.36325,-118.51511,19.316006,FOL
421638904000,1.834933,1.31533810250745,12.5956261244476,-3.93728396703319,-3.2247577,-0.37904188,-1.0338894,281.3167,-117.7793,19.041046,FOL
421643959000,1.839988,-0.0676842354845341,14.5109630790258,-3.68853890259994,-3.174972,-0.5320636,-1.097114,281.2977,-117.05116,18.742577,FOL
421648944000,1.844973,-1.30246371194732,16.0600074778928,-3.41657754609596,-3.0427198,-0.77518797,-1.2525792,281.26074,-116.140816,18.267418,FOL
421653980000,1.850009,-2.2325581539354,16.7897158240828,-3.07629913985575,-2.8334985,-1.0650436,-1.6029104,281.26352,-115.23279,17.718725,FOL
421658914000,1.854943,-3.14381430500157,17.5046445333961,-2.74291279029476,-2.6050348,-1.1398746,-2.2489004,281.14294,-114.03585,16.863132,FOL
421663965000,1.859994,-1.81236647972034,18.010249886858,-2.63000284532078,-2.439185,-0.9224065,-2.6499333,281.032,-112.88117,16.000328,FOL
421668984000,1.865013,0.318140445403034,18.4319578075306,-2.59925332855054,-2.0665572,-0.37507126,-3.3851097,280.7838,-111.65365,14.914894,FOL
421674036000,1.870065,2.97604596235873,18.7365485951513,-2.17337664522421,-1.840537,0.112399206,-3.889379,280.42047,-110.25948,13.679072,FOL
421678980000,1.875009,5.96656535557783,18.9436851624134,-1.45703281598615,-1.9269744,0.43188173,-4.233907,279.93756,-108.81989,12.347673,FOL
421683925000,1.879954,8.60224263810365,19.1366602799372,-1.74505813381429,-2.2907448,0.80848014,-4.529871,279.32855,-107.504486,11.209093,FOL
421688966000,1.884995,10.6350947639576,19.3072487491166,-3.88689763957597,-2.7940977,1.2822062,-4.6682324,278.6233,-106.16038,10.08134,FOL
421693885000,1.889914,11.947429592567,19.3185984054562,-5.43804162920826,-3.2925637,1.7632625,-4.784602,277.83075,-104.89669,9.269715,FOL
421699032000,1.895061,11.7720312081645,18.9726744216665,-5.81807139424731,-3.7097847,2.0702224,-4.944343,276.9815,-103.54855,8.439279,FOL
421703969000,1.899998,11.5821564256353,18.4563675221221,-5.83722304814215,-4.012163,2.17804,-5.102252,276.265,-102.32514,7.706129,FOL
421708985000,1.905014,11.3389786939354,17.503112195201,-5.0541918794877,-4.2342124,2.0518963,-5.15387,275.5556,-101.04304,6.964147,FOL
421714876000,1.910905,11.1245632754473,16.5002125758287,-4.15283649941332,-4.3542476,1.7330247,-5.1236324,274.9403,-99.720314,6.1636324,FOL
421718970000,1.914999,11.04118000044,15.9107777549135,-3.54327514696392,-4.376239,1.3286319,-5.041776,274.41098,-98.39766,5.363668,FOL
421724040000,1.920069,10.937918348196,15.1808230548548,-2.78839579744793,-4.38418,0.8717047,-4.9128838,274.0285,-97.00066,4.5277653,FOL
421728960000,1.924989,10.9664636450715,14.5073432257552,-2.27835881299682,-4.3893723,0.47586402,-4.736344,273.77078,-95.65458,3.7344503,FOL
421733980000,1.930009,11.0811110874404,13.8433424785374,-1.90575405166932,-4.4312167,0.20708331,-4.532009,273.62924,-94.360825,2.993813,FOL
421738973000,1.935002,11.2261517304547,13.0948085786797,-1.97353553551057,-4.4629817,0.089186326,-4.327675,273.5979,-93.03238,2.26335,FOL
421743964000,1.939993,11.3929774483446,12.2845141543678,-2.35008413849222,-4.503604,0.16829337,-4.150524,273.60745,-91.823395,1.6002192,FOL
421749045000,1.945074,11.4688966696702,11.3773170886695,-2.78750983890913,-4.5766025,0.38912117,-4.024686,273.6582,-88.97238,0.97608966,FOL
421753987000,1.950016,11.4779705833972,10.4381859673121,-3.25027010641296,-4.678922,0.7339546,-3.9440515,273.66876,-88.42857,0.40533927,FOL
421758936000,1.954965,11.407814405137,9.45980577724491,-3.66822739881609,-4.831028,0.95203346,-3.9144244,273.69226,-87.279045,-0.14165485,FOL
421763980000,1.960009,11.2527246894753,8.42264733334002,-4.0462573598475,-4.932431,1.4165965,-3.8820486,273.5636,-86.03029,-0.6577259,FOL
421768969000,1.964998,10.8939193981671,7.37400307376426,-4.44052751516038,-5.1416526,1.9117028,-3.8734965,273.39114,-84.7239,-1.1881504,FOL
421774051000,1.97008,10.3197762738618,6.2826561338403,-4.8628309635371,-5.3435435,2.4425447,-3.8912115,273.09497,-83.39764,-1.7190511,FOL
421778975000,1.975004,9.60255080699364,5.1778893194066,-5.25467442040569,-5.5072556,2.9437597,-3.9382482,272.68723,-82.04244,-2.2976425,FOL
421784499000,1.980528,8.58283763290948,3.87521929377334,-5.67110196037945,-5.6016345,3.3991597,-3.9984186,272.16492,-80.66052,-2.8970807,FOL
421788965000,1.984994,7.71827708624923,2.82130731049724,-5.77753062455494,-5.6220984,3.7507126,-4.0619483,271.534,-79.26333,-3.6067066,FOL
421793957000,1.989986,6.71067273511357,1.64250764640884,-5.66013976586863,-5.5649824,3.9138136,-4.1215076,270.8528,-77.867584,-4.3429337,FOL
421799044000,1.995073,5.9214465270644,0.537490269310549,-5.4206116986369,-5.4318137,3.551265,-4.1367793,270.2064,-76.4727,-5.2020016,FOL
421803989000,2.000018,5.36947433425523,-0.449510190339787,-5.07913756637693,-5.1502047,2.5793786,-4.09127,269.70297,-75.14059,-6.028406,FOL
421808929000,2.004958,4.76259128558303,-1.32967376237904,-4.79351981780862,-4.7164907,1.7321084,-4.0286565,269.25595,-73.79957,-6.9747677,FOL
421814130000,2.010159,4.06153664578243,-2.13783412889258,-4.55496645415893,-4.4070873,1.2278391,-3.9843686,268.9987,-72.50664,-7.866723,FOL
421818962000,2.014991,3.54204428055762,-2.7467918497026,-4.32460822717472,-4.290107,0.9633345,-3.9953642,268.9238,-71.17483,-8.795935,FOL
421824200000,2.020229,3.15043480057621,-3.22231769202602,-4.06353525674721,-4.266283,0.8167268,-3.9941423,268.96585,-69.90645,-9.674361,FOL
421828937000,2.024966,2.86202458997794,-3.54271920955983,-3.79981014075008,-4.207029,0.78038037,-3.973373,269.05157,-68.57876,-10.64428,FOL
421833984000,2.030013,2.7198504568232,-3.60872870994852,-3.44945226801135,-4.1395283,0.73914695,-3.9022071,269.18958,-67.26251,-11.584202,FOL
421838889000,2.034918,2.70016957179691,-3.56820578036493,-3.14239295081317,-4.0909643,0.61361414,-3.771482,269.3706,-65.88353,-12.555576,FOL
421843965000,2.039994,2.88335583776279,-3.34645389464498,-2.88207549567632,-4.0604215,0.3659083,-3.5463781,269.59512,-64.5359,-13.464214,FOL
421848914000,2.044943,3.06223622707424,-3.1634409518195,-2.74469600393013,-4.073555,-0.040317107,-3.2604933,269.90695,-63.1624,-14.3042345,FOL
421853961000,2.04999,3.24516022401747,-3.03680126539544,-2.81505147778748,-4.11937,-0.26725355,-2.9248228,270.22186,-61.8268,-15.059467,FOL
421858898000,2.054927,3.3821281164557,-3.07444291147152,-3.26139522397152,-4.1480803,-0.66339964,-2.7482827,270.71524,-60.50281,-15.664762,FOL
421863967000,2.059996,3.42053381202532,-3.50650733752967,-4.63920040471717,-4.1254783,-0.7858781,-2.3741279,271.14374,-59.260372,-16.126312,FOL
421868895000,2.064924,3.36945213746949,-3.95283059829152,-6.02444153210973,-3.9220603,-0.2501493,-1.9599612,271.48907,-58.110287,-16.529034,FOL
421874052000,2.070081,3.07051333845553,-4.49284915350971,-7.60110323032315,-3.314555,0.61269784,-1.5195273,271.7374,-57.12063,-16.852316,FOL
421878978000,2.075007,2.67618161189861,-5.40936893305169,-8.96773938543738,-2.6590965,1.8038851,-1.0375546,271.62976,-56.379322,-17.253723,FOL
421883981000,2.08001,1.92843765801193,-7.6192619166998,-9.91075391053678,-2.2363777,3.386637,-0.49021935,271.1236,-55.804108,-17.70848,FOL
421888960000,2.084989,1.00281480594351,-9.84957194847732,-10.2100885719937,-2.090381,4.802928,0.062002823,270.17886,-55.50714,-18.344751,FOL
421894029000,2.090058,-0.582741904112614,-12.2301401904499,-8.2493577249517,-2.1181753,5.491984,0.54458636,268.92694,-55.3479,-18.985939,FOL
421899243000,2.095272,-2.22347807709584,-14.5809472161441,-6.08082280587058,-2.278833,5.4867916,1.0207558,267.35712,-55.142513,-19.873762,FOL
421904057000,2.100086,-3.81935554517085,-15.9444482190349,-2.82755650389148,-2.0522017,4.939151,1.7947221,265.61646,-55.15294,-20.58402,FOL
421909053000,2.105082,-5.47556739197243,-17.3594982835223,0.548704078719146,-1.0012082,3.7061195,2.568383,264.16653,-54.81578,-21.418774,FOL
421914024000,2.110053,-7.052724122461,-18.3766423302062,4.35010814355842,0.038179077,3.2598825,3.1948252,262.55823,-54.6383,-22.128521,FOL
421919012000,2.115041,-8.5118002031417,-18.7153572938802,8.93577618326606,0.636827,2.676506,3.9666536,261.18845,-54.76966,-22.407299,FOL
421923976000,2.120005,-10.4605419133489,-18.2531026065574,12.1354067259953,1.0751228,0.56291234,4.3750167,260.7482,-54.287655,-22.624657,FOL
421929056000,2.125085,-12.9169776978923,-17.0362777147541,14.1406599906323,1.2400564,-2.734233,4.150524,260.7589,-53.933784,-22.530207,FOL
421933973000,2.130002,-14.8805888322099,-13.7973445516955,15.7428285667323,1.0552697,-6.9537845,3.454443,261.9064,-53.032578,-21.998522,FOL
421939036000,2.135065,-16.2382152445297,-7.15503245556362,16.8490428749352,0.32406402,-9.950689,2.819754,263.5067,-52.07968,-21.120625,FOL
421943961000,2.13999,-17.2272953595135,-1.94228497887988,17.4338828950594,-0.321926,10.002308,2.6028967,260.18253,-50.86545,-23.499641,FOL
421948961000,2.14499,-17.8367932852159,1.86369654101452,17.4429122180841,-0.15668693,10.002918,2.3487768,262.84396,-49.623875,-22.51739,FOL
421953982000,2.150011,-18.3554820047594,5.55032069601656,17.0922786423176,0.1151481,-9.790643,1.8093829,265.33835,-48.565407,-21.548107,FOL
421959049000,2.155078,-18.6918741843766,8.99958513698914,16.017835578479,0.06505715,-8.014857,1.2990049,262.55264,-47.532585,-24.000837,FOL
421963921000,2.15995,-18.9486417716496,11.8152000500942,15.1319290417617,-0.600786,-5.3316317,-0.321926,264.58118,-46.485992,-23.695335,FOL
421969033000,2.165062,-19.1137566840591,13.9859785736534,14.4326174821942,-2.1514673,-1.8973475,-2.6768115,266.1399,-45.09899,-24.069807,FOL
421973950000,2.169979,-19.0552804095107,15.616360845948,13.1077102551998,-4.8673744,1.7250835,-4.9919906,267.1939,-43.39712,-25.22884,FOL
421979038000,2.175067,-18.6389553693795,16.5541424342798,10.6686375758177,-7.1782775,4.6346345,-6.17035,267.85672,-41.281708,-27.034006,FOL
421983944000,2.179973,-18.1133874285037,17.4326678950062,8.54887399649389,-7.985536,6.3120704,-6.099184,268.15833,-38.963932,-29.360733,FOL
421989029000,2.185058,-15.6676402386051,17.9495049242869,9.90557155974604,-7.413766,5.955631,-5.537188,268.45746,-36.389908,-31.819313,FOL
421994412000,2.190441,-13.0615168254695,18.4084582926448,11.2268619575509,-5.984647,3.929696,-4.742758,268.6665,-34.143475,-34.0754,FOL
421998977000,2.195006,-10.5215553797535,17.0914415046948,10.1236460337441,-4.1010437,2.0796907,-3.6664133,268.73022,-32.331482,-35.98733,FOL
422003981000,2.20001,-7.73733477200704,15.647771842723,8.9143377133216,-2.334727,1.153619,-2.6939158,268.94672,-31.021576,-37.204395,FOL
422009042000,2.205071,-5.75953991944923,13.3013495628227,8.49253399885255,-0.95722586,0.8533788,-1.8860464,269.20157,-30.230349,-37.947166,FOL
422013899000,2.209928,-3.93596324664372,10.9707293984509,8.15895288884108,-0.09193522,0.7147123,-1.180497,269.38635,-29.884546,-38.3417,FOL
422019021000,2.21505,-2.70079295260794,9.14950422559355,8.03042228636905,0.33383787,0.535118,-0.59406644,269.4997,-29.846447,-38.47588,FOL
422023903000,2.219932,-1.67648276157301,7.55518059336328,7.95756350453754,0.47586402,0.45875978,-0.11942416,269.45172,-30.04883,-38.488667,FOL
422029042000,2.225071,-1.12120657407239,4.96972351448709,6.26608740778465,0.46883908,0.713796,0.22418754,269.32507,-30.268475,-38.448185,FOL
422034033000,2.230062,-0.873436785158239,1.95301715179338,3.72318652455438,0.2489276,1.3060299,0.37782016,269.05716,-30.533632,-38.408348,FOL
422039073000,2.235102,-0.70104398875129,-0.437340816532508,2.70905030340557,-0.16493362,1.9853121,0.39553526,268.7135,-30.701763,-38.398632,FOL
422043985000,2.240014,-0.623370081597523,-2.00538327785759,3.5246266174613,-0.61758476,2.3921483,0.30940324,268.28247,-30.828854,-38.441483,FOL
422049018000,2.245047,-0.434719188577671,-3.37589590546001,4.17061434297528,-0.91782504,2.3823745,0.065973446,267.89575,-30.715487,-38.760864,FOL
422054073000,2.250102,-0.139004554550324,-4.52235883681045,4.63465887751151,-0.9944886,2.2455406,-0.35888332,267.52426,-30.5001,-39.183525,FOL
422058901000,2.25493,0.0779605047727535,-5.34691720083525,5.48126553081797,-0.8906415,1.92392,-0.6038403,267.27695,-30.097895,-39.62059,FOL
422064027000,2.260056,0.191072748436156,-5.73809689670699,7.10254068884409,-0.7831292,1.5357152,-1.1093313,267.28638,-29.533327,-40.137268,FOL
422068893000,2.264922,0.257872957859306,-6.1690999849829,8.96786841377626,-0.47128254,0.93645644,-1.536937,267.5688,-28.87421,-40.570103,FOL
422074804000,2.270833,0.213625949342452,-6.87705216745481,12.2421465935515,-0.110872045,-0.09560041,-1.8781052,268.19122,-28.149725,-40.888557,FOL
422078974000,2.275003,-0.0972865348731377,-7.55093481379684,14.1888059285779,0.1160644,-1.8478674,-2.1817052,269.37076,-27.279354,-40.873146,FOL
422084047000,2.280076,-1.29925321157652,-8.88450338762077,15.4872813893454,-0.1160644,-3.859752,-2.5149322,270.9546,-26.309345,-40.595253,FOL
422089150000,2.285179,-2.48624495263398,-10.2165100510096,16.745957201002,-0.5555819,-5.4815993,-2.9565878,273.10547,-25.100626,-39.87221,FOL
422094028000,2.290057,-3.30538238059815,-11.3547921285866,17.2707720900258,-0.9245446,-6.072306,-3.4180965,275.48102,-23.79997,-38.91183,FOL
422098935000,2.294964,-4.12938962926977,-12.4998413607864,17.7987070347654,-0.8539896,-5.796195,-3.7803395,278.13162,-22.211796,-37.828255,FOL
422104028000,2.300057,-5.30007054414125,-13.567959858748,18.2727933186196,-0.30787608,-4.895169,-4.083023,280.7512,-20.616676,-36.73368,FOL
422109130000,2.305159,-6.95196793258427,-14.4551806657303,18.6355251474719,0.28527406,-3.0799825,-4.3698244,283.167,-19.03295,-35.92236,FOL
422114022000,2.310051,-8.1008734057971,-14.4472863659183,18.4730862328313,0.24373524,-0.54733527,-4.5506406,285.44116,-17.223188,-35.613747,FOL
422119027000,2.315056,-8.65932985507246,-13.2214065056361,17.5831880354267,-0.44409904,1.9055941,-4.639216,287.512,-15.42818,-35.732185,FOL
422123942000,2.319971,-8.99611871591982,-11.7714809547696,16.4081111365831,-1.6016886,3.400076,-4.6896124,289.4978,-13.416238,-36.386055,FOL
422128981000,2.32501,-8.80367640277049,-9.65967619120579,14.4381051233078,-2.624277,3.7974439,-4.6975536,291.37762,-11.345969,-37.314953,FOL
422133944000,2.329973,-8.60750195110363,-8.03402872709096,12.1374547564189,-3.500258,4.09463,-4.6013427,293.02008,-9.294747,-38.592903,FOL
422139025000,2.335054,-8.39558155320202,-7.12855122568544,9.1802056847669,-4.183511,4.515516,-4.586682,294.70654,-7.112933,-39.90472,FOL
422144718000,2.340747,-8.41458005176633,-6.79438329944181,6.65094656728858,-4.443434,5.050939,-4.2766676,296.02835,-5.236387,-41.250908,FOL
422148983000,2.345012,-8.66443541382474,-7.16916621208136,5.47662705046643,-4.2852197,5.2174,-3.6480873,297.2529,-3.4306557,-42.49184,FOL
422155718000,2.351747,-9.32309955199132,-7.53301201150628,3.8198643372075,-3.477045,4.6715918,-2.4440718,298.17816,-1.9869077,-43.769165,FOL
422159007000,2.355036,-11.3292560144119,-6.25658895564854,4.27137150897257,-2.17804,3.9968913,-1.2449434,298.86856,-0.8506067,-44.96535,FOL
422164050000,2.360079,-14.4052812622036,-4.29945868179916,4.96366420195258,-1.4541647,2.309376,1.6215417,298.59723,-0.26214868,-45.836178,FOL
422168918000,2.364947,-16.9986623449901,-2.3452912763974,5.73724828130832,-0.12370021,0.8903361,2.9663615,298.44025,-0.021243596,-46.55117,FOL
422174020000,2.370049,-17.6296295560373,0.0634403024130454,7.1327468019229,0.88178396,-0.08002335,3.098614,297.61438,-0.19334425,-46.883003,FOL
422179103000,2.375132,-18.0697838940863,2.58120287565264,8.4104956192861,1.4789047,-0.5503896,2.6398542,296.5712,-0.7744492,-47.275948,FOL
422184020000,2.380049,-16.0226479205115,6.56509118534896,8.16965587725093,1.5216653,-0.795652,2.2693644,295.45966,-1.472966,-47.435368,FOL
422188955000,2.384984,-13.7513526398875,10.1708071030327,7.80074840735087,1.1172725,-0.8231409,2.237294,294.17096,-2.4158752,-47.409977,FOL
422194029000,2.390058,-10.2915974864431,11.8396873834103,6.76135820747138,0.7770206,-0.7333437,2.3231206,293.038,-3.2997997,-47.33512,FOL
422198984000,2.395013,-7.1419482231932,13.124853774445,5.8203725565659,0.74067414,-0.64965516,2.3432791,291.5982,-4.5408115,-47.004833,FOL
422204043000,2.400072,-4.99831944544166,12.8235254440246,5.20627244728389,0.86590147,-0.61269784,2.3301454,290.23416,-5.7136245,-46.677925,FOL
422208905000,2.404934,-2.93816464855928,12.5339309900803,4.61608570458196,0.97310835,-0.44898596,2.2293527,288.8344,-6.960203,-46.36471,FOL
422214653000,2.410682,-1.7133755706114,10.8255583017629,4.43463265948987,0.93828905,-0.355829,1.9095647,287.57053,-8.14228,-46.032043,FOL
422219033000,2.415062,-1.23349346352213,9.01223296230308,4.4897010555889,0.77457714,-0.4016439,1.3139712,286.49396,-9.228515,-45.7114,FOL
422224003000,2.420032,-0.998860252598367,7.27031748051225,4.50896601106162,0.5375614,-0.46609017,0.6704246,285.58014,-10.207045,-45.312416,FOL
422229040000,2.425069,-1.06153075056607,5.81099046450445,4.48658370705271,0.28221974,-0.528093,0.20219639,284.85202,-11.064376,-44.919594,FOL
422233969000,2.429998,-1.17778970569823,4.44205123866372,4.40754651290128,0.067500606,-0.56169057,-0.119729586,284.51733,-11.561312,-44.538784,FOL
422239025000,2.435054,-1.40123832720706,3.1499356078451,4.21810086089486,-0.09407325,-0.5555819,-0.3735441,284.3419,-11.941416,-44.180557,FOL
422243934000,2.439963,-1.63773097428038,1.98252801838982,4.03063018526378,-0.26358834,-0.53786683,-0.5885687,284.42383,-12.049029,-43.87534,FOL
422249042000,2.445071,-1.92127370075646,0.934861596812064,3.82878635337459,-0.441961,-0.46578476,-0.7635816,284.57724,-12.083297,-43.60314,FOL
422253970000,2.449999,-2.22731534770678,0.0453274530576245,3.71151377710702,-0.6010914,-0.37965274,-0.8393288,284.92282,-11.901558,-43.40717,FOL
422259011000,2.45504,-2.61053874807918,-0.602840498272246,3.75882527142297,-0.6814202,-0.31856623,-0.9569204,285.33963,-11.658978,-43.24017,FOL
422263889000,2.459918,-3.04139310143966,-1.16718143335716,3.84576355538085,-0.8191703,-0.29840767,-1.0690142,286.07904,-11.135438,-43.149113,FOL
422269017000,2.465046,-3.66817800689197,-1.57835242139065,4.05636350980192,-0.8897252,-0.2828306,-1.1731668,286.82916,-10.598135,-43.076595,FOL
422273904000,2.469933,-4.31742138637919,-1.92233866352792,4.39960599777061,-0.9288206,-0.26083946,-1.2507466,287.73007,-9.906298,-43.05575,FOL
422278988000,2.475017,-5.1124716431896,-2.16989923890682,5.08515797031387,-0.93523467,-0.25686884,-1.3243558,288.63187,-9.205642,-43.028713,FOL
422284217000,2.480246,-6.11605185439361,-2.1145514001634,5.78173266227306,-0.8906415,-0.2864958,-1.349096,289.5655,-8.450931,-43.04295,FOL
422288969000,2.484998,-7.40910849753086,-1.42877684722222,6.3972772191358,-0.82253003,-0.3368922,-1.3057245,290.46368,-7.7202697,-43.036926,FOL
422294015000,2.490044,-8.72369471648098,-0.692686756934306,7.05203586461775,-0.7556403,-0.3820962,-1.1939361,291.36603,-6.9637146,-43.038773,FOL
422298971000,2.495,-9.32541080637726,0.123277041605839,7.70845378071456,-0.6973027,-0.43554693,-1.0210613,292.19138,-6.2635503,-43.00464,FOL
422304324000,2.500353,-9.97494040741708,0.984530272864978,8.38493335701228,-0.66614854,-0.54428095,-0.82344633,292.86182,-5.7110486,-43.006805,FOL
422308962000,2.504991,-10.5317511428571,1.42147174285714,8.47000171428571,-0.6041457,-0.6597345,-0.6383542,293.44446,-5.227794,-42.976665,FOL
422313897000,2.509926,-11.1242179344476,1.88639329404544,8.56051752781405,-0.45662177,-0.7425067,-0.50701815,293.8975,-4.903753,-42.921566,FOL
422318969000,2.514998,-11.6280290081569,2.33903693570708,8.44231828466685,-0.28985557,-0.6939429,-0.38087448,294.25986,-4.6452575,-42.86318,FOL
422323949000,2.519978,-12.0738757059848,2.77177063765924,8.22813675043534,-0.18020524,-0.5723807,-0.21380283,294.5394,-4.4498944,-42.797226,FOL
422329000000,2.525029,-12.4302566436685,3.23219604318032,7.86307511919647,-0.102319926,-0.46883908,-0.04550946,294.72375,-4.3796797,-42.79595,FOL
422334041000,2.53007,-12.6930979705247,3.71256094445696,7.35551962324228,-0.02443461,-0.35338554,0.13622294,294.8266,-4.372064,-42.825256,FOL
422339023000,2.535052,-12.7863268510916,4.06885320948501,6.86482166574742,0.07941248,-0.19150625,0.33964106,294.79938,-4.4997005,-42.94099,FOL
422343959000,2.539988,-12.618436078711,4.23674413655072,6.39571542494516,0.1863139,-0.11209377,0.44898596,294.73962,-4.659413,-43.057407,FOL
422349019000,2.545048,-12.1864150971564,4.2923593429763,6.03607727670142,0.29168814,0.041233405,0.464563,294.59882,-4.927783,-43.297115,FOL
422354061000,2.55009,-11.4586884218009,4.21455191584834,5.8163862012891,0.33169982,0.15821409,0.45998153,294.42914,-5.215433,-43.53571,FOL
422359004000,2.555033,-10.7026823281363,4.14465878831182,5.68258854521425,0.39492437,0.21502456,0.45448375,294.239,-5.5561643,-43.80487,FOL
422364125000,2.560154,-9.84183773371192,4.08389327197728,5.69271601670625,0.45570546,0.24404067,0.4841107,294.03998,-5.9034224,-44.08636,FOL
422368930000,2.564959,-9.12852664543828,4.02487983563506,5.79915568515206,0.5018258,0.20158553,0.52748215,293.85443,-6.244906,-44.312077,FOL
422373990000,2.570019,-8.51304100858676,3.95986390468694,6.05055123971377,0.5403103,0.08674286,0.59650993,293.65717,-6.6020746,-44.514866,FOL
422379001000,2.57503,-7.95209948785921,3.87805555816149,6.29611335926294,0.57971114,-0.05375614,0.66523224,293.45615,-6.9643188,-44.624763,FOL
422384043000,2.580072,-7.60419869022774,3.71810102062112,6.52804732178054,0.5992588,-0.18387043,0.7049385,293.25543,-7.3316536,-44.70027,FOL
422388958000,2.584987,-7.26506096306418,3.5621754847205,6.75413923486542,0.5910121,-0.3191771,0.73853606,293.0623,-7.690252,-44.654263,FOL
422394021000,2.59005,-6.97353062167995,3.02617549249668,6.99973644545153,0.5546656,-0.43096542,0.72204274,292.8916,-8.037327,-44.581383,FOL
422399810000,2.595839,-6.66062128538347,2.28071556459163,7.28503588428785,0.49296826,-0.5198463,0.6737844,292.73938,-8.370212,-44.48076,FOL
422404022000,2.600051,-6.48443894267523,1.88976898981261,7.36315053554198,0.39950588,-0.5897904,0.6200282,292.62708,-8.647455,-44.307537,FOL
422409038000,2.605067,-6.35513286055492,1.66099639107568,7.25373765288332,0.2773328,-0.62125,0.55924714,292.5481,-8.888598,-44.130283,FOL
422414030000,2.610059,-6.20349383356643,1.42433228041958,7.23370379020979,0.15485434,-0.6206391,0.5164866,292.5622,-8.990025,-43.89754,FOL
422419031000,2.61506,-6.02167990562438,1.17553432898102,7.32939525234765,0.009468411,-0.6151413,0.44409904,292.6136,-9.040191,-43.671383,FOL
422423934000,2.619963,-5.84040412101552,1.01385017565585,7.3818593325811,-0.1301143,-0.659429,0.344528,292.71744,-9.02139,-43.440937,FOL
422429067000,2.625096,-5.64626908970381,0.96300531293371,7.37723697799718,-0.24801129,-0.6957755,0.27458394,292.83267,-8.967699,-43.223816,FOL
422433955000,2.629984,-5.48023449211912,0.949681063035279,7.3599568167675,-0.3277292,-0.70188415,0.22266038,292.99237,-8.8415985,-42.993343,FOL
422439032000,2.635061,-5.35416345093895,1.02226750288363,7.31029261106309,-0.40042216,-0.6737844,0.18112154,293.16666,-8.6822605,-42.772324,FOL
422443924000,2.639953,-5.23268629248841,1.09220897693093,7.26243811149525,-0.46273044,-0.6536258,0.15851954,293.3557,-8.492029,-42.5427,FOL
422448971000,2.645,-5.12149522078482,1.16338357163559,7.20591450766099,-0.48808134,-0.6200282,0.12461651,293.55182,-8.286759,-42.333244,FOL
422454047000,2.650076,-5.01463845745339,1.23462130365546,7.14654948302532,-0.5155703,-0.5693264,0.103847094,293.73892,-8.069404,-42.13975,FOL
422458935000,2.654964,-4.92318425805072,1.2932255986643,7.08186604770949,-0.51893,-0.5045747,0.09010262,293.9079,-7.8699985,-41.9501,FOL
422464026000,2.660055,-4.85704413018888,1.32883964852343,6.99537514805384,-0.5149594,-0.42546764,0.089186326,294.0677,-7.667769,-41.783344,FOL
422469574000,2.665603,-4.81492919739656,1.35473931311948,6.91672789826127,-0.4914411,-0.35369098,0.0983493,294.1877,-7.4989552,-41.623703,FOL
422473981000,2.67001,-4.81100489809391,1.36258774781962,6.86963724908415,-0.441961,-0.27977628,0.113926366,294.2953,-7.339908,-41.489876,FOL
422478894000,2.674923,-4.807557,1.37353230761499,6.81814100453853,-0.37965274,-0.19608775,0.14202617,294.38116,-7.2030377,-41.37944,FOL
422484032000,2.680061,-4.807557,1.39351625317291,6.76818101022439,-0.33108896,-0.10598512,0.18142697,294.44846,-7.080903,-41.292652,FOL
422488942000,2.684971,-4.82474782148571,1.40688572041905,6.74244786594286,-0.27855456,-0.030543262,0.23793201,294.48447,-6.9905953,-41.226063,FOL
422494085000,2.690114,-4.89604813995429,1.40313307414095,6.78372693581714,-0.23090707,0.054367006,0.29993483,294.4958,-6.9194684,-41.18674,FOL
422499340000,2.695369,-4.96890117778286,1.39929870583619,6.82590494713143,-0.19211712,0.13683382,0.36835176,294.47742,-6.877593,-41.160038,FOL
422504075000,2.700104,-5.20391195261625,1.37405650687312,6.89521334550044,-0.15210545,0.22143865,0.43310347,294.43195,-6.8575354,-41.155674,FOL
422509043000,2.705072,-5.53184224885933,1.33710671147461,6.98296912765751,-0.124311075,0.32375857,0.53786683,294.34082,-6.8635035,-41.17448,FOL
422514003000,2.710032,-5.81754191747335,1.15468182519801,7.07902796377237,-0.09590584,0.42149702,0.64568454,294.22876,-6.8849654,-41.217823,FOL
422519017000,2.715046,-6.07577934154689,0.863577574743327,7.18232327659138,-0.095294975,0.46273044,0.73853606,294.08307,-6.922317,-41.26822,FOL
422524058000,2.720087,-6.26698549608022,0.55793759286062,7.25172672418414,-0.06963864,0.48930305,0.788627,293.92227,-6.978233,-41.34536,FOL
422529041000,2.72507,-6.39749012980857,0.244726257057612,7.29087806887876,-0.058643065,0.53023106,0.8219192,293.73422,-7.0434628,-41.431564,FOL
422533986000,2.730015,-6.47103654756169,-0.0317885843912064,7.3602955404622,-0.0580322,0.59498274,0.83169305,293.5537,-7.0756373,-41.535904,FOL
422539749000,2.735778,-6.42780033419506,-0.274992775268703,7.51162248476302,-0.09010262,0.6618725,0.829555,293.3672,-7.105671,-41.647575,FOL
422543906000,2.739935,-6.3949347630076,-0.47230871817519,7.62864362442532,-0.13805555,0.6554584,0.8213083,293.20303,-7.0870724,-41.752415,FOL
422548993000,2.745022,-6.35053429370127,-0.768312063242532,7.79144555127089,-0.15882497,0.66645396,0.80664754,293.04062,-7.0657625,-41.87661,FOL
422553981000,2.75001,-6.33603796385665,-1.0370096667069,7.96643269846811,-0.18173242,0.6453791,0.7507534,292.90363,-6.996538,-41.968407,FOL
422558999000,2.755028,-6.38511606304893,-1.26009212211494,8.17613040408504,-0.19120082,0.5186246,0.6542367,292.7965,-6.9157662,-42.031963,FOL
422563965000,2.759994,-6.41412817431025,-1.42942510289417,8.35335781394609,-0.1685988,0.36285394,0.5363397,292.72922,-6.7833705,-42.061768,FOL
422569018000,2.765047,-6.3371757291564,-1.32169154307864,8.36874823065914,-0.11178834,0.25320363,0.41874814,292.7032,-6.6400576,-42.070858,FOL
422573922000,2.769951,-6.26249241408921,-1.21713476941242,8.38368482348732,-0.08735373,0.1731803,0.31520647,292.73715,-6.4384446,-42.02956,FOL
422578948000,2.774977,-6.20220664872254,-1.09845276906428,8.36444072400326,-0.07819075,0.1133155,0.22235495,292.81207,-6.2294703,-41.96798,FOL
422583936000,2.779965,-6.15167772169243,-0.974074249519935,8.32557206883645,-0.07666359,0.07880162,0.12034045,292.92676,-6.007268,-41.896553,FOL
422588931000,2.78496,-6.10071976657331,-0.841109527525505,8.28676295639128,-0.064751714,0.050396383,-0.004581489,293.05957,-5.794694,-41.80904,FOL
422594027000,2.790056,-6.04702531760352,-0.665382138047609,8.24771265193039,-0.06291912,0.033292156,-0.09254608,293.211,-5.572982,-41.719147,FOL
422599243000,2.795272,-5.99724981194271,-0.5267244,8.1909723482887,-0.05681047,-0.030848695,-0.1469131,293.38052,-5.36748,-41.60854,FOL
422603962000,2.799991,-5.96799640295331,-0.5267244,8.08858524500364,-0.05131268,-0.11056661,-0.18203785,293.56906,-5.1547837,-41.493073,FOL
422608924000,2.804953,-5.93723662007444,-0.5267244,7.98092582425763,-0.013439035,-0.16707164,-0.19211712,293.74173,-4.9785666,-41.37401,FOL
422614031000,2.81006,-5.86748019228085,-0.498224005904332,7.84187315699035,0.0076358155,-0.21410827,-0.20158553,293.9223,-4.798424,-41.23922,FOL
422618929000,2.814958,-5.7856262763293,-0.459704433531102,7.69742494284541,0.056505036,-0.23854288,-0.21227567,294.10037,-4.63501,-41.09876,FOL
422623974000,2.820003,-5.71003140952477,-0.376501388655682,7.56943476959711,0.094989546,-0.24373524,-0.21655174,294.26678,-4.4839096,-40.96099,FOL
422629039000,2.825068,-5.63692778056867,-0.279030209071637,7.44759559156033,0.10903945,-0.2302962,-0.20066923,294.4224,-4.343845,-40.8252,FOL
422633957000,2.829986,-5.60754784990494,-0.188386341996198,7.36587516606464,0.12950343,-0.20738874,-0.18509217,294.56622,-4.224796,-40.704914,FOL
422638961000,2.83499,-5.58932634519011,-0.0972792370076045,7.29298962287072,0.13622294,-0.17989981,-0.16249016,294.69476,-4.11317,-40.592525,FOL
422643967000,2.839996,-5.59211107509191,0.0124595277665441,7.26290778575368,0.118507855,-0.13744467,-0.15302174,294.81116,-4.0185146,-40.502125,FOL
422649009000,2.845038,-5.60542538439338,0.132287560740809,7.25403173402573,0.10934488,-0.08368854,-0.12217305,294.90533,-3.9375367,-40.424305,FOL
422653992000,2.850021,-5.6757618666025,0.262939722556946,7.25219307314726,0.076358154,-0.055588737,-0.09896017,294.99142,-3.8650713,-40.35854,FOL
422658962000,2.854991,-5.80301236259224,0.405460146254946,7.25728297818415,0.043982297,-0.019547688,-0.07086037,295.05896,-3.7990308,-40.311108,FOL
422663966000,2.859995,-5.94929108124373,0.519491348766299,7.27281154784353,0.0036651916,0.002443461,-0.062002823,295.10834,-3.749026,-40.274166,FOL
422668965000,2.864994,-6.10644255703474,0.615528383527856,7.29463812904167,-0.02565634,0.0027488936,-0.03023783,295.13647,-3.7048507,-40.240955,FOL
422673985000,2.870014,-6.26564705068966,0.745957780492611,7.3071036,-0.06352998,0.0061086523,-0.030848695,295.15945,-3.6698968,-40.23409,FOL
422679048000,2.875077,-6.42806774151724,0.922709754226601,7.3071036,-0.079107046,0.035124753,-0.03848451,295.17175,-3.6385496,-40.234154,FOL
422683942000,2.879971,-6.55037952245758,1.05533346679996,7.3071036,-0.08399397,0.057726767,-0.03145956,295.17026,-3.6249635,-40.24765,FOL
422688970000,2.884999,-6.62323509574192,1.13339282718037,7.3071036,-0.08155051,0.08002335,-0.03970624,295.17615,-3.6057732,-40.269257,FOL
422694013000,2.890042,-6.66051290300771,1.18689820876311,7.31868341797694,-0.06627888,0.10293079,-0.046731193,295.1668,-3.6207936,-40.316696,FOL
422698989000,2.895018,-6.66877396012828,1.21994260976857,7.33933616860536,-0.047647487,0.13530666,-0.062002823,295.16312,-3.6338375,-40.372055,FOL
422703969000,2.899998,-6.67144430108527,1.25695220055814,7.36815161686822,-0.03359759,0.15210545,-0.07880162,295.1577,-3.6604788,-40.434937,FOL
422708950000,2.904979,-6.65665291912145,1.30625668697674,7.42238649529716,-0.007330383,0.1777618,-0.07086037,295.14798,-3.6951609,-40.50727,FOL
422713926000,2.909955,-6.65226789102015,1.340753,7.47226018204031,0.021991149,0.19333886,-0.076358154,295.13385,-3.739709,-40.578415,FOL
422718950000,2.914979,-6.67236352380704,1.340753,7.51245144761408,0.02687807,0.20280726,-0.07513642,295.1147,-3.7864454,-40.652508,FOL
422724813000,2.920842,-6.67452303868936,1.31805444496991,7.52685871235427,0.03634648,0.20280726,-0.08277224,295.10132,-3.8405173,-40.72441,FOL
422728992000,2.925021,-6.65947168416698,1.28418894640842,7.5118073185408,0.0711658,0.20097467,-0.07941248,295.08414,-3.9023623,-40.795895,FOL
422733906000,2.929935,-6.63523191718575,1.25087101857449,7.48387687429797,0.09010262,0.20189096,-0.077579886,295.06818,-3.960252,-40.866543,FOL
422738971000,2.935,-6.59065314178495,1.23601147849484,7.42443871397937,0.10354166,0.20311269,-0.076052725,295.0522,-4.023836,-40.934612,FOL
422743888000,2.939917,-6.54238475649478,1.23128598592797,7.36326292777012,0.10476339,0.19456059,-0.076358154,295.04205,-4.080681,-40.996174,FOL
422749004000,2.945033,-6.47970670827593,1.25057152373549,7.29094216099193,0.1328632,0.20250183,-0.07574729,295.03125,-4.1455827,-41.06088,FOL
422753954000,2.949983,-6.42412558160185,1.27332924671462,7.21479143153969,0.12614368,0.20616703,-0.07574729,295.0224,-4.200336,-41.12248,FOL
422759003000,2.955032,-6.38119070040845,1.30767719650151,7.12033451358551,0.12797627,0.1908954,-0.07666359,295.0149,-4.2618985,-41.179096,FOL
422764193000,2.960222,-6.33615606880349,1.34523363742239,7.02384109770096,0.13836098,0.20097467,-0.081855945,295.00067,-4.329581,-41.24104,FOL
422768974000,2.965003,-6.28237082169827,1.41054439204565,6.94316314681154,0.13072516,0.2012801,-0.09254608,294.9909,-4.3913536,-41.294594,FOL
422773958000,2.969987,-6.2263018671757,1.478628224098,6.85905963138949,0.11636983,0.19181168,-0.10293079,294.98996,-4.45692,-41.34964,FOL
422778987000,2.975016,-6.21736405072259,1.51515177177671,6.79928052187589,0.10476339,0.17806722,-0.11056661,294.993,-4.5188737,-41.402393,FOL
422783954000,2.979983,-6.23533617398696,1.5331240827052,6.75434997913479,0.09468412,0.15149458,-0.13164146,295.00662,-4.5726457,-41.448208,FOL
422788967000,2.984996,-6.2487307376859,1.52790788410813,6.69527366571883,0.08093964,0.119729586,-0.14966199,295.01843,-4.636647,-41.488422,FOL
422794861000,2.99089,-6.25929032025068,1.49622935693574,6.61079761163596,0.056505036,0.0983493,-0.16676621,295.03903,-4.6915154,-41.523834,FOL
422798971000,2.995,-6.2855554539617,1.45006086180999,6.5517907073789,0.047036625,0.07880162,-0.17745635,295.06152,-4.748659,-41.55944,FOL
422803997000,3.000026,-6.34429822087871,1.35968722906496,6.4794918483665,0.03481932,0.059864793,-0.19272798,295.09314,-4.7953463,-41.58921,FOL
422808966000,3.004995,-6.39439407191781,1.28398359010552,6.41937325127731,0.020463986,0.050396383,-0.21899518,295.1321,-4.8351965,-41.62058,FOL
422813969000,3.009998,-6.42100249315069,1.24850577230655,6.39276492265827,0.0012217305,0.03604105,-0.22999077,295.17178,-4.8711767,-41.64478,FOL
422818944000,3.014973,-6.45208177346003,1.21166064436435,6.37049060484928,-0.008552114,0.021991149,-0.23243423,295.22394,-4.890391,-41.67911,FOL
422823976000,3.020005,-6.5332863918461,1.15752415359483,6.39304745637521,-0.015882496,0.0070249503,-0.23548855,295.28015,-4.904284,-41.708797,FOL
422829516000,3.025545,-6.62164473436415,1.10061431334806,6.41741848220259,-0.008552114,-0.00030543262,-0.24495697,295.3493,-4.910269,-41.739662,FOL
422834053000,3.030082,-6.67991633597349,1.09033111479962,6.43112941360051,-0.032070424,0.00061086525,-0.24709499,295.41565,-4.909718,-41.76797,FOL
422839016000,3.035045,-6.74365932887346,1.07908237898391,6.44612772802146,-0.04642576,-0.00030543262,-0.25381452,295.4859,-4.9037447,-41.799725,FOL
422843965000,3.039994,-6.80600735633803,1.0835858527163,6.47856516177062,-0.058948494,0.016187929,-0.2501493,295.55054,-4.895709,-41.835697,FOL
422848979000,3.045008,-6.86749016709347,1.10993562875434,6.53565629732943,-0.08368854,0.019242255,-0.23090707,295.61078,-4.884768,-41.866577,FOL
422853944000,3.049973,-6.92909435442085,1.12834086312787,6.60251758374267,-0.105068825,0.02076942,-0.20647246,295.67316,-4.8708215,-41.904335,FOL
422859050000,3.055079,-6.99495435148946,1.12059262341943,6.70711898161939,-0.13408493,0.0106901415,-0.18325958,295.72742,-4.854555,-41.938053,LYI
422863941000,3.05997,-7.05804116027571,1.11317064135636,6.80731589446997,-0.118507855,0.00061086525,-0.16310102,295.76236,-4.8552413,-41.97271,LYI
422869022000,3.065051,-7.07726,1.10528935342376,6.87156150880046,-0.122783914,-0.005497787,-0.14019357,295.7869,-4.851142,-42.003857,LYI
422873972000,3.070001,-7.07726,1.09754214636378,6.91804479160811,-0.11148291,-0.029626964,-0.11453723,295.80344,-4.858428,-42.0255,LYI
422878921000,3.07495,-7.07726,1.09554077070707,6.96916235989057,-0.10445796,-0.045814894,-0.09101892,295.81284,-4.861759,-42.04786,LYI
422883978000,3.080007,-7.07726,1.11082797954545,7.03540687831439,-0.095294975,-0.057421334,-0.06780604,295.81366,-4.8724346,-42.06411,LYI
422889015000,3.085044,-7.07369194466019,1.12940655697816,7.08082805533981,-0.06627888,-0.06352998,-0.047647487,295.81516,-4.885741,-42.07258,LYI
422894025000,3.090054,-7.06398729902913,1.1536682217233,7.09053270097087,-0.032986723,-0.058337633,-0.020158553,295.8052,-4.907485,-42.080055,LYI
422898889000,3.094918,-7.05981513838946,1.17862314445095,7.10837510774036,-0.027183503,-0.05222898,-0.0143553335,295.80115,-4.9263005,-42.082497,LYI
422903981000,3.10001,-7.06457492825769,1.20718248008785,7.14169458116154,-0.013439035,-0.05467244,0.002443461,295.78323,-4.960481,-42.082973,LYI
422908950000,3.104979,-7.0614790094572,1.23358632866713,7.17120672866713,0.004581489,-0.050396383,0.0143553335,295.76392,-4.999356,-42.08623,LYI
422913982000,3.110011,-7.04248966614127,1.25732313174072,7.19494353174072,0.002443461,-0.04520403,0.027794369,295.7387,-5.0393467,-42.088734,LYI
422918892000,3.114921,-7.02268334002143,1.28308503794682,7.20865862203175,-0.0030543262,-0.04550946,0.035124753,295.71445,-5.0830936,-42.092377,LYI
422923997000,3.120026,-6.99887426044609,1.31641779907471,7.1991349404792,0.0033597588,-0.04062254,0.03634648,295.68817,-5.1291094,-42.098843,LYI
422929010000,3.125039,-6.97205012268328,1.34311347241016,7.1862808189746,-0.0036651916,-0.035430185,0.04642576,295.65683,-5.1758933,-42.099827,LYI
422933977000,3.130006,-6.93558215640632,1.35223047587925,7.16348831030187,-0.010995574,-0.03359759,0.052534413,295.62778,-5.222159,-42.101555,LYI
422938945000,3.134974,-6.89398876559206,1.36301771599504,7.1411868433974,-0.00580322,-0.032986723,0.0571159,295.5984,-5.2721324,-42.107037,LYI
422943953000,3.139982,-6.8246099061583,1.3828401955156,7.12136410514569,-0.018020526,-0.015577064,0.064446285,295.56604,-5.317333,-42.11753,LYI
422948969000,3.144998,-6.75579981857183,1.40121425717317,7.09798896990497,-0.021380283,-0.015882496,0.08277224,295.5407,-5.362811,-42.124363,LYI
422954002000,3.150031,-6.68909620052588,1.41455507365071,7.06241370694713,-0.022602014,-0.0036651916,0.09254608,295.51544,-5.404937,-42.139553,LYI
422959005000,3.155034,-6.6241932569611,1.42760146283241,7.029376,-0.011301007,0.01740966,0.10995574,295.47888,-5.4562774,-42.150867,LYI
422963982000,3.160011,-6.57945709098968,1.43754279844614,7.029376,-0.017715093,0.03145956,0.12308934,295.44128,-5.5035133,-42.163235,LYI
422968940000,3.164969,-6.53515385856117,1.44738792319896,7.03453611973658,-0.009773844,0.04550946,0.14019357,295.39694,-5.560864,-42.17658,LYI
422973996000,3.170025,-6.49167119913191,1.45705067474556,7.07318732771902,-0.010079277,0.06047566,0.16707164,295.3447,-5.618185,-42.192978,LYI
422978986000,3.175015,-6.44598114522226,1.46115100165383,7.11419120892545,0.004886922,0.07391469,0.1826487,295.3044,-5.6742096,-42.21067,LYI
422983973000,3.180002,-6.38329366499825,1.43189680057753,7.17269969835492,0.006414085,0.08124508,0.19883664,295.25482,-5.731265,-42.229324,LYI
422988895000,3.184924,-6.32142324637732,1.40302389548477,7.23044559467973,0.015577064,0.06505715,0.2134974,295.19534,-5.7947917,-42.241516,LYI
422994022000,3.190051,-6.28855158303246,1.3718888903264,7.28519431247265,0.0106901415,0.059864793,0.21960606,295.13416,-5.855522,-42.25796,LYI
422998927000,3.194956,-6.26285457961342,1.34190904555069,7.33658840875274,0.0143553335,0.046731193,0.22907446,295.06952,-5.921729,-42.266388,LYI
423004056000,3.200085,-6.253655,1.29591837625521,7.3549876,0.02076942,0.039095376,0.22235495,295.01163,-5.972987,-42.269306,LYI
423008970000,3.204999,-6.253655,1.2445525458722,7.3549876,0.013744468,0.02443461,0.22235495,294.9507,-6.0237675,-42.26566,LYI
423014022000,3.210051,-6.26969173862586,1.17451370290644,7.32612147047345,0.014660766,0.02443461,0.21074851,294.90253,-6.064226,-42.25574,LYI
423018965000,3.214994,-6.29400010999281,1.09672686376707,7.28236640201294,0.01282817,0.023518313,0.19211712,294.85953,-6.100011,-42.241955,LYI
423023992000,3.220021,-6.29155848522569,1.03600714442235,7.21556702260887,0.01740966,0.03390302,0.18051068,294.81363,-6.128978,-42.235813,LYI
423029013000,3.225042,-6.27721613700537,0.983418484360708,7.13907454868761,0.022296581,0.052839845,0.16584991,294.77682,-6.1525908,-42.232758,LYI
423033932000,3.229961,-6.27611340825923,0.930904195042421,7.05277551486252,0.025045475,0.06658431,0.1563815,294.75275,-6.161848,-42.237843,LYI
423038992000,3.235021,-6.28106670499847,0.876417310242257,6.95866163547991,0.014660766,0.087659165,0.14905111,294.73257,-6.1666636,-42.25047,LYI
423043957000,3.239986,-6.27634736648079,0.831722743260434,6.81888656960878,0.0125227375,0.124311075,0.1337795,294.7209,-6.1658936,-42.272053,LYI
423049930000,3.245959,-6.26637926893788,0.781881943286573,6.62949157134269,-0.00030543262,0.15088372,0.12370021,294.70978,-6.1602254,-42.29622,LYI
423054019000,3.250048,-6.27216487521965,0.7661445,6.57638910641474,-0.017104227,0.1685988,0.118202426,294.7005,-6.1477695,-42.33598,LYI
423058969000,3.254998,-6.29223692348894,0.7661445,6.5914431426167,-0.022602014,0.17562376,0.10262536,294.6982,-6.1314383,-42.379597,LYI
423063967000,3.259996,-6.30670004275037,0.753241825759841,6.61648355171898,-0.021991149,0.17379116,0.089491755,294.70007,-6.111707,-42.436825,LYI
423068950000,3.264979,-6.31621094364723,0.72946444937718,6.64977207727952,-0.03573562,0.16065755,0.08002335,294.70663,-6.0861616,-42.4913,LYI
423073890000,3.269919,-6.32295531363719,0.715997686362808,6.69487425365542,-0.03970624,0.12492194,0.061086524,294.73108,-6.0561247,-42.536648,LYI
423078969000,3.274998,-6.32738927600729,0.711563723992707,6.75251571816773,-0.06291912,0.094989546,0.039095376,294.76007,-6.017682,-42.57868,LYI
423083956000,3.279985,-6.32880143126305,0.701344356315264,6.80903830890766,-0.07360926,0.05009095,0.027488936,294.8001,-5.974999,-42.59937,LYI
423088985000,3.285014,-6.32442826071915,0.67947850359575,6.8658895716426,-0.09254608,0.004581489,0.01038471,294.85086,-5.9217467,-42.611538,LYI
423093959000,3.289988,-6.3206925,0.65893243977569,6.92067867908359,-0.10170906,-0.03940081,-0.009468411,294.90833,-5.862844,-42.60951,LYI
423099004000,3.295033,-6.3206925,0.645038150938459,6.96699281400498,-0.112399206,-0.06566802,-0.028405234,294.97144,-5.7981386,-42.600067,LYI
423103995000,3.300024,-6.32113833466777,0.631177556241849,7.01044531384234,-0.14080444,-0.11026118,-0.05009095,295.04172,-5.7195945,-42.570847,LYI
423108984000,3.305013,-6.32902581394965,0.615402519435411,7.01438899171275,-0.13347405,-0.15271631,-0.05681047,295.1121,-5.647474,-42.535374,LYI
423113921000,3.30995,-6.33683108258357,0.599791904740404,7.01829156490301,-0.13041973,-0.17104226,-0.0720821,295.18222,-5.5666356,-42.48801,LYI
423119651000,3.31568,-6.33654942840807,0.600355252029534,7.019799,-0.1151481,-0.17531833,-0.08399397,295.25214,-5.4911637,-42.43411,LYI
423124024000,3.320053,-6.33277859200432,0.60789700358725,7.019799,-0.105068825,-0.17867808,-0.076358154,295.31824,-5.4180183,-42.37664,LYI
423128947000,3.324976,-6.34247189406056,0.631219575687309,7.01573150404051,-0.086132,-0.17989981,-0.06994407,295.3851,-5.3469577,-42.321785,LYI
423133979000,3.330008,-6.37297534826459,0.676974868473468,7.00556377444878,-0.07788532,-0.16462818,-0.0720821,295.44882,-5.27739,-42.272186,LYI
423138977000,3.335006,-6.42110239774779,0.725328065036404,7.00541303205514,-0.07727446,-0.14813483,-0.065973446,295.4978,-5.2194896,-42.22116,LYI
423143967000,3.339996,-6.48605101894962,0.776359115555771,7.01469130270847,-0.0720821,-0.11728613,-0.059864793,295.54395,-5.165282,-42.180065,LYI
423148997000,3.345026,-6.54847858567004,0.824969644037162,7.02800618789414,-0.0729984,-0.07849618,-0.04734206,295.5796,-5.1207113,-42.153275,LYI
423154169000,3.350198,-6.60890531956644,0.871451683564189,7.04659908136261,-0.070249505,-0.030543262,-0.03145956,295.60822,-5.0809503,-42.138306,LYI
423158955000,3.354984,-6.67346906885067,0.901729029616226,7.06716149649036,-0.06811147,0.013439035,-0.021685716,295.62796,-5.0544167,-42.135468,LYI
423163969000,3.359998,-6.75940323618016,0.906503147253927,7.09580645157089,-0.069027774,0.03940081,-0.012217305,295.63968,-5.031465,-42.140587,LYI
423168939000,3.364968,-6.82996299615235,0.90556797063121,7.13389196761153,-0.079107046,0.058948494,0.0012217305,295.64703,-5.014969,-42.16337,LYI
423174017000,3.370046,-6.86785978467758,0.891356663804793,7.19547411912137,-0.08735373,0.08155051,0.011911872,295.65015,-5.000432,-42.193348,LYI
423178930000,3.374959,-6.8964938651819,0.869137419885115,7.24841614346468,-0.09896017,0.08399397,0.019242255,295.65466,-4.9847183,-42.2266,LYI
423184044000,3.380073,-6.90142939312708,0.819781609603951,7.28296519983876,-0.096516706,0.07391469,0.02443461,295.65546,-4.972226,-42.26129,LYI
423188921000,3.38495,-6.88198676937953,0.765840862240858,7.31854906531024,-0.08399397,0.06841691,0.039095376,295.65195,-4.960005,-42.29036,LYI
423194022000,3.390051,-6.7924418022821,0.689727574756668,7.36332154885895,-0.06536258,0.042760566,0.04550946,295.65088,-4.9494042,-42.309975,LYI
423198960000,3.394989,-6.7096579436134,0.622827315672657,7.40019250762506,-0.046731193,0.03176499,0.04337143,295.65292,-4.9315615,-42.33126,LYI
423204020000,3.400049,-6.66651024149263,0.626749819153311,7.36881239786304,-0.05009095,0.01985312,0.03940081,295.65433,-4.9142632,-42.34424,LYI
423208922000,3.404951,-6.6247098391614,0.630549841299984,7.33841214133074,-0.028099801,0.01282817,0.040927973,295.6585,-4.8904014,-42.34204,LYI
423214030000,3.410059,-6.59921556660194,0.643777121840777,7.30576828784466,-0.022296581,0.005497787,0.04153884,295.66464,-4.862129,-42.3365,LYI
423219026000,3.415055,-6.58527987941748,0.66235800736699,7.27325189460194,-0.010995574,0.009773844,0.05009095,295.6665,-4.8420253,-42.332012,LYI
423223958000,3.419987,-6.55508303901354,0.691872515201132,7.23503661095613,-0.014966198,0.01160644,0.04917465,295.67587,-4.8174233,-42.324844,LYI
423229045000,3.425074,-6.51076793723469,0.73126380818678,7.19072145776228,-0.016798794,0.0033597588,0.04642576,295.68256,-4.79737,-42.315937,LYI
423233977000,3.430006,-6.4903366916026,0.774373440715553,7.14290753651685,-0.011911872,0.004886922,0.04917465,295.68683,-4.7822356,-42.313038,LYI
423239041000,3.43507,-6.48555668687167,0.822172539710231,7.09032823314607,-0.017715093,0.0015271631,0.050701816,295.6928,-4.764073,-42.306618,LYI
423243969000,3.439998,-6.4760398508694,0.845245058363258,7.04282246828577,-0.021685716,-0.010995574,0.03573562,295.7008,-4.7501554,-42.304653,LYI
423248962000,3.444991,-6.46248377565678,0.849763765828766,6.99763548799849,-0.010079277,-0.008552114,0.035124753,295.70203,-4.7416253,-42.305378,LYI
423254038000,3.450067,-6.45694992880457,0.863246957694818,6.97409742880457,-0.014966198,-0.0076358155,0.031154128,295.7074,-4.7343984,-42.309578,LYI
423259465000,3.455494,-6.4622511623419,0.889753158594451,6.9793986623419,-0.008552114,-0.014660766,0.025961773,295.7136,-4.7317824,-42.312107,LYI
423264026000,3.460055,-6.46206596980222,0.909333978411886,6.97237792679327,-0.016493361,-0.032070424,0.021380283,295.7235,-4.72537,-42.315506,LYI
423269026000,3.465055,-6.45735436889698,0.928180377113057,6.95353162156843,-0.01282817,-0.04642576,0.0106901415,295.73767,-4.720758,-42.317947,LYI
423273962000,3.469991,-6.45114026835509,0.93852705,6.94862608118247,-0.018936822,-0.03756821,0.003970624,295.75446,-4.715017,-42.320824,LYI
423279031000,3.47506,-6.44274800408851,0.93852705,6.96121432422854,-0.030543262,-0.039095376,-0.0033597588,295.77612,-4.7069516,-42.317177,LYI
423283976000,3.480005,-6.43875717514707,0.941041593399732,6.96437158621117,-0.017715093,-0.044593163,-0.004276057,295.8029,-4.7023506,-42.320236,LYI
423289039000,3.485068,-6.46377902384147,0.961059098482816,6.90431920159975,-0.025961773,-0.037873644,-0.008552114,295.83246,-4.689278,-42.326584,LYI
423293964000,3.489993,-6.4943287418103,0.967808680254007,6.85248089483923,-0.01282817,-0.029932396,-0.02076942,295.8681,-4.677665,-42.336414,LYI
423298967000,3.494996,-6.55228189825622,0.919514374811007,6.82833376733192,-0.005192355,-0.0076358155,-0.021685716,295.89917,-4.665137,-42.351734,LYI
423303953000,3.499982,-6.60659775078044,0.878340195724151,6.8091097,-0.009162978,-0.0027488936,-0.020463986,295.93665,-4.6560373,-42.369797,LYI
423309035000,3.505064,-6.64803429521332,0.864528078346419,6.8091097,-0.0027488936,0.02076942,-0.019242255,295.97177,-4.6511345,-42.398914,LYI
423313972000,3.510001,-6.68598652929314,0.853711029293144,6.81231856835067,-0.007941248,0.020463986,-0.025045475,296.00623,-4.640145,-42.42556,LYI
423318965000,3.514994,-6.70121162876247,0.868936128762471,6.84784380044577,-0.009162978,0.027488936,-0.027183503,296.03674,-4.6328387,-42.459877,LYI
423323959000,3.519988,-6.7156417539595,0.884132953289733,6.87461392535655,-0.0015271631,0.03145956,-0.018325957,296.069,-4.6233172,-42.500214,LYI
423329195000,3.525224,-6.72749518164841,0.899937599180522,6.86671161272555,-0.007941248,0.03726278,-0.015577064,296.1031,-4.60973,-42.54208,LYI
423333951000,3.52998,-6.73826196967142,0.914293385249389,6.85953372905996,-0.0061086523,0.029321533,-0.018020526,296.12555,-4.608262,-42.572857,LYI
423338970000,3.534999,-6.74536603773585,0.939137280869162,6.88334541716672,-0.013439035,0.03359759,-0.007330383,296.1407,-4.6069384,-42.607273,LYI
423343987000,3.540016,-6.75031993081761,0.968860044499433,6.92297568246211,-0.026572637,0.04153884,-0.007941248,296.1609,-4.6024294,-42.640007,LYI
423348955000,3.544984,-6.76491996642755,0.980152058928742,6.96015007142994,-0.023518313,0.040317107,0.0015271631,296.16763,-4.6095405,-42.672436,LYI
423354052000,3.550081,-6.7835953159254,0.984820920679101,6.99750096543281,-0.02565634,0.040011674,0.004581489,296.1766,-4.6116023,-42.706573,LYI
423358975000,3.555004,-6.79272996155594,0.989185003626284,7.00467465067709,-0.03390302,0.036957346,0.002443461,296.18195,-4.6167107,-42.73831,LYI
423364028000,3.560057,-6.79712808761247,0.993583037835136,6.99587867410706,-0.036957346,0.0290161,0.0009162979,296.18622,-4.623165,-42.76751,LYI
423368990000,3.565019,-6.799533,0.983500854921435,6.991069,-0.032375857,0.015577064,-0.0070249503,296.1971,-4.626816,-42.790783,LYI
423373964000,3.569993,-6.799533,0.9552559425882,6.991069,-0.01740966,0.0033597588,-0.009162978,296.20657,-4.632905,-42.81131,LYI
423378939000,3.574968,-6.79387721417483,0.936641794620161,6.991069,-0.007330383,-0.02107485,-0.009468411,296.21725,-4.640014,-42.824867,LYI
423383933000,3.579962,-6.77995656636267,0.932001594833608,6.991069,0.0030543262,-0.038789943,-0.010995574,296.22937,-4.649632,-42.836575,LYI
423388903000,3.584932,-6.7609670777868,0.927311012964467,6.99598664263959,0.009468411,-0.049480084,-0.008246681,296.2433,-4.6569653,-42.84033,LYI
423394026000,3.590055,-6.73108162820305,0.922330104700508,7.01092915939086,0.025045475,-0.057726767,-0.013744468,296.2614,-4.666414,-42.840225,LYI
423398894000,3.594923,-6.71167185547815,0.916033727826875,7.01645931095629,0.032986723,-0.056199603,-0.0106901415,296.2765,-4.6751757,-42.840878,LYI
423403976000,3.600005,-6.70702700060126,0.906743925920023,7.00716960120252,0.0290161,-0.05589417,-0.0027488936,296.29187,-4.684532,-42.83915,LYI
423409036000,3.605065,-6.703765,0.901595884747037,7.00339762075745,0.036957346,-0.043066,-0.008552114,296.31146,-4.6956186,-42.83298,LYI
423413973000,3.610002,-6.703765,0.906152178627734,7.0125101133661,0.03756821,-0.040927973,-0.00580322,296.32486,-4.707405,-42.823868,LYI
423418913000,3.614942,-6.70282363846459,0.910738000893672,7.019799,0.026572637,-0.03940081,0.00030543262,296.33197,-4.71774,-42.82364,LYI
423423967000,3.619996,-6.69802278962507,0.915538744462408,7.019799,0.023823744,-0.033292156,-0.003970624,296.3417,-4.7282557,-42.82572,LYI
423428959000,3.624988,-6.69508125471237,0.920266686058209,7.0171193291337,0.024740042,-0.027183503,0.00061086525,296.34756,-4.739849,-42.82601,LYI
423433942000,3.629971,-6.69974208008595,0.924927414098056,7.00313733968161,0.028099801,-0.020463986,0.01282817,296.3517,-4.7519126,-42.828228,LYI
423438954000,3.634983,-6.70026920741349,0.92685277517815,6.99036982688161,0.018020526,-0.014966198,0.008246681,296.3623,-4.7594013,-42.82967,LYI
423444712000,3.640741,-6.671958695862,0.909866474159565,6.98470760632508,0.016493361,-0.017104227,0.007330383,296.3668,-4.772234,-42.830456,LYI
423448957000,3.644986,-6.65415631792575,0.901944532169376,6.98235435454378,0.016493361,-0.016187929,0.011911872,296.3705,-4.7845907,-42.835327,LYI
423453952000,3.649981,-6.6453206389915,0.910780160360177,6.9867722632065,0.01160644,-0.0076358155,0.009773844,296.37695,-4.7939305,-42.842037,LYI
423459119000,3.655148,-6.63562165378293,0.91937345,6.98996336244162,0.014049901,-0.005192355,0.007330383,296.37943,-4.806047,-42.840427,LYI
423464031000,3.66006,-6.61804581488885,0.91937345,6.97238766118999,0.013133603,-0.0009162979,-0.0012217305,296.3847,-4.8146095,-42.842167,LYI
423468897000,3.664926,-6.60063457057725,0.91937345,6.95497655323183,0.008246681,0.00061086525,0.003970624,296.38748,-4.8241925,-42.844715,LYI
423473957000,3.669986,-6.59393623756062,0.932823977767236,6.96172867169513,0.0018325958,0.008246681,0.007330383,296.39365,-4.8311553,-42.85054,LYI
423479311000,3.67534,-6.58827527882014,0.946968413864748,6.97276677732374,-0.009773844,-0.0009162979,0.0030543262,296.40146,-4.835433,-42.852062,LYI
423484008000,3.680037,-6.57964554942926,0.929709049698801,6.98571130382734,-0.005192355,0.005497787,-0.0021380284,296.41083,-4.8408484,-42.860004,LYI
423488970000,3.684999,-6.57052893941487,0.911475929623981,6.99938614745324,-0.008246681,-0.007941248,0.008857546,296.4126,-4.8472757,-42.8599,LYI
423494015000,3.690044,-6.55675615474882,0.918418782343014,7.02651198053375,-0.0070249503,-0.009773844,0.009468411,296.4195,-4.852506,-42.865314,LYI
423498905000,3.694934,-6.54297169958791,0.927608446304945,7.05408098681319,-0.0027488936,-0.012217305,0.008552114,296.4233,-4.8595033,-42.866413,LYI
423503959000,3.699988,-6.52426183398614,0.916427412538917,7.03723499696696,-0.0027488936,-0.017104227,0.014966198,296.42496,-4.8624253,-42.867016,LYI
423508909000,3.704938,-6.50521783127448,0.902144452761876,7.01343005571959,-0.0021380284,-0.024740042,0.0027488936,296.43436,-4.8625555,-42.866753,LYI
423514752000,3.710781,-6.5026517,0.885466996809524,7.02497533507936,-0.008552114,-0.02565634,-0.004886922,296.43698,-4.8638573,-42.86437,LYI
423518897000,3.714926,-6.5026517,0.873652735232143,7.03678965422619,-0.011301007,-0.026267206,0.0027488936,296.43863,-4.866671,-42.859913,LYI
423523967000,3.719996,-6.5026517,0.875527504929578,7.01876247535211,0.002443461,-0.027794369,0.009773844,296.44855,-4.8676972,-42.851753,LYI
423528938000,3.724967,-6.5026517,0.880183830516432,6.99548084741784,0.009162978,-0.029321533,0.0125227375,296.4569,-4.8674493,-42.84356,LYI
423533986000,3.730015,-6.5323205027728,0.869940384438366,6.98736031736301,0.006414085,-0.018936822,0.01740966,296.45612,-4.869398,-42.837307,LYI
423538917000,3.734946,-6.56795052383288,0.856579109101198,6.98290646590588,0.0106901415,-0.013439035,0.0070249503,296.46045,-4.871686,-42.82995,LYI
423543968000,3.739997,-6.58514659593868,0.846455234763457,6.99031284785482,0.013744468,-0.003970624,0.0027488936,296.45724,-4.8750405,-42.836052,LYI
423548929000,3.744958,-6.5935177972161,0.838084077191437,7.00286958421284,0.028099801,0.008246681,0.0021380284,296.45633,-4.8803267,-42.844532,LYI
423553965000,3.749994,-6.60040473655286,0.827227082050384,7.00228225378854,0.01740966,0.008552114,0.0061086523,296.45584,-4.879956,-42.855545,LYI
423558985000,3.755014,-6.60508089023441,0.813198601474565,6.98357763906235,0.014049901,0.005497787,0.002443461,296.4582,-4.8824964,-42.868896,LYI
423564025000,3.760054,-6.60993130939285,0.812191005652634,6.96611081222763,0.01038471,0.007330383,0.007330383,296.4521,-4.8867884,-42.87775,LYI
423569011000,3.76504,-6.61498207359848,0.832394083570975,6.95095862508991,0.009773844,0.008857546,0.004886922,296.45056,-4.8888106,-42.885773,LYI
423573962000,3.769991,-6.60287331128929,0.846958996774489,6.95578494646752,0.0018325958,0.010079277,0.01282817,296.4422,-4.8897214,-42.897835,LYI
423579041000,3.77507,-6.57167346061578,0.855873239824063,6.98252758253459,0.008857546,-0.0030543262,0.006414085,296.44113,-4.8903418,-42.906403,LYI
423583961000,3.77999,-6.54920500295941,0.857920467192785,7.00596847153326,-0.005192355,-0.013439035,0.0015271631,296.429,-4.894528,-42.913624,LYI
423589035000,3.785064,-6.54463978539083,0.844224671476888,7.02422962782788,-0.0061086523,-0.022907447,0.0015271631,296.41843,-4.902372,-42.917236,LYI
423593972000,3.790001,-6.53776923860236,0.83557451480315,7.04533253112205,-0.003970624,-0.025045475,0.005497787,296.40277,-4.9081697,-42.91863,LYI
423598978000,3.795007,-6.51889459846457,0.849730457952756,7.08308186066929,-0.013133603,-0.027794369,0.005497787,296.38953,-4.910429,-42.91726,LYI
423603998000,3.800027,-6.49997718280055,0.864587121388508,7.1155677,-0.021685716,-0.032070424,0.007330383,296.36386,-4.9161186,-42.912224,LYI
423608991000,3.80502,-6.48122175530496,0.883342578260443,7.1155677,-0.01740966,-0.03604105,0.0018325958,296.34183,-4.920799,-42.906788,LYI
423614001000,3.81003,-6.46386225537158,0.900702104628421,7.1179789231421,-0.016187929,-0.04642576,0.011911872,296.3109,-4.927835,-42.892914,LYI
423619015000,3.815044,-6.45918532197331,0.905379038026688,7.14136359013344,-0.017104227,-0.03940081,0.004276057,296.28903,-4.93045,-42.883846,LYI
423624195000,3.820224,-6.45264942112255,0.908737516506144,7.16133339900365,-0.009468411,-0.04337143,0.0067195175,296.25665,-4.94169,-42.86981,LYI
423629011000,3.82504,-6.42967277455995,0.897249149239455,7.13835651252076,-0.007941248,-0.04153884,0.008857546,296.2275,-4.9494996,-42.859867,LYI
423634076000,3.830105,-6.40550817430256,0.885166802851212,7.11419165993856,-0.0076358155,-0.03023783,0.01038471,296.20038,-4.9588485,-42.845295,LYI
423639026000,3.835055,-6.40041397034843,0.8872802250487,7.09977645930314,-0.009162978,-0.03268129,0.013744468,296.1729,-4.9685054,-42.827538,LYI
423643962000,3.839991,-6.40516049019982,0.896773393615825,7.09028341960036,0.0033597588,-0.025961773,0.014966198,296.14545,-4.980652,-42.815826,LYI
423648956000,3.844985,-6.40970605744133,0.894575127434883,7.06990279641049,-0.00061086525,-0.029932396,0.0027488936,296.1261,-4.983059,-42.80268,LYI
423654281000,3.85031,-6.4143997030925,0.885187806726185,7.04174082448228,-0.0021380284,-0.023518313,0.0070249503,296.0998,-4.991669,-42.79402,LYI
423658987000,3.855016,-6.42593724985374,0.888173777233598,7.02700676305892,0.004276057,-0.008246681,0.013439035,296.08295,-4.9993386,-42.78599,LYI
423663966000,3.859995,-6.44586323698287,0.903118298790222,7.02202516224405,0.016493361,0.0070249503,0.013744468,296.06696,-5.0072875,-42.780098,LYI
423668960000,3.864989,-6.46162877811125,0.912083691609314,7.02208608175938,0.008552114,0.012217305,0.0106901415,296.0602,-5.0078516,-42.778854,LYI
423673947000,3.869976,-6.47398565660198,0.916202661141872,7.02620514161276,-0.0021380284,0.016493361,0.009162978,296.0523,-5.0106053,-42.78154,LYI
423678921000,3.87495,-6.48894809426394,0.912833331192339,7.02828595838347,-0.004886922,0.018020526,0.011911872,296.0419,-5.016794,-42.78755,LYI
423683950000,3.879979,-6.5130965736061,0.883855130766145,7.02345616165263,-0.0009162979,0.025350908,0.004581489,296.03574,-5.0197783,-42.796543,LYI
423688937000,3.884966,-6.53018592698093,0.858324343474576,7.02458336701271,0.00030543262,0.025045475,0.005497787,296.01837,-5.027739,-42.80393,LYI
423693953000,3.889982,-6.525097290625,0.843058275,7.04493823125,0.0021380284,0.018020526,0.0061086523,296.00436,-5.03495,-42.81137,LYI
423698887000,3.894916,-6.51415744411348,0.830123051256738,7.06269514547518,-0.007941248,0.015882496,0.009162978,295.98874,-5.0357413,-42.825924,LYI
423703991000,3.90002,-6.49104633905437,0.820878589927187,7.07656190504019,-0.008246681,0.006414085,-0.0009162979,295.97906,-5.0364017,-42.836327,LYI
423708920000,3.904949,-6.4739213,0.811819493360483,7.09346422644545,-0.0036651916,-0.00030543262,0.0012217305,295.9615,-5.039789,-42.836624,LYI
423713964000,3.909993,-6.4739213,0.802104992811463,7.1226078447461,0.004886922,0.0012217305,0.0012217305,295.949,-5.041445,-42.836918,LYI
423718926000,3.914955,-6.47279263908293,0.798260951572683,7.14204068995122,0.0033597588,-0.010079277,-0.0030543262,295.94238,-5.0361156,-42.831825,LYI
423723960000,3.919989,-6.46808926238049,0.81237107676878,7.13263398565854,0.004581489,-0.008857546,-0.0030543262,295.93356,-5.0339847,-42.830517,LYI
423728992000,3.925021,-6.46631310222825,0.824589670364348,7.11923859053498,0.003970624,-0.007941248,0.0021380284,295.9319,-5.025912,-42.823822,LYI
423734104000,3.930133,-6.47614073366456,0.829503532261367,7.08975518312757,0.0067195175,-0.0067195175,-0.008246681,295.93597,-5.01597,-42.81814,LYI
423738951000,3.93498,-6.48544157083168,0.831238635256665,7.06476769956228,-0.0027488936,-0.0106901415,-0.004886922,295.9317,-5.010475,-42.80976,LYI
423743954000,3.939983,-6.49497459521488,0.821705640736172,7.05046843672901,0.0009162979,-0.005192355,0.0030543262,295.92902,-5.0073233,-42.80469,LYI
423748976000,3.945005,-6.50544417899721,0.820311628631625,7.03825486749376,0.0143553335,0.003970624,-0.004581489,295.93018,-5.0028973,-42.806835,LYI
423753987000,3.950016,-6.51953593353399,0.852018030356776,7.03473186448392,0.002443461,0.0036651916,-0.007330383,295.9266,-4.996506,-42.80726,LYI
423758968000,3.954997,-6.53354332314638,0.883534611277345,7.03122995309059,-0.0018325958,0.007941248,-0.011911872,295.92532,-4.9934573,-42.811024,LYI
423764030000,3.960059,-6.54576074066991,0.909823388972397,7.03417776573969,-0.007330383,0.0009162979,-0.008552114,295.92252,-4.9887676,-42.811176,LYI
423769855000,3.965884,-6.55729481877391,0.932891659596816,7.04571190406286,-0.0061086523,0.0015271631,-0.0070249503,295.92163,-4.9834785,-42.81474,LYI
423773963000,3.969992,-6.5481837061607,0.94091280876786,7.04614389105585,-0.0070249503,0.0106901415,-0.0015271631,295.92633,-4.98026,-42.822857,LYI
423779066000,3.975095,-6.52551233373539,0.945447083252923,7.04160971126369,-0.00580322,0.004886922,-0.0076358155,295.93542,-4.9759703,-42.826984,LYI
423784042000,3.980071,-6.5142434936222,0.942058869133383,7.04298294516368,-0.00030543262,-0.0033597588,-0.004276057,295.93826,-4.977991,-42.832386,LYI
423789019000,3.985048,-6.51929315286577,0.926909891402691,7.05308215819472,0.008246681,-0.013133603,-0.00061086525,295.94348,-4.9799128,-42.835648,LYI
423793931000,3.98996,-6.5301865052452,0.915182849565296,7.0560110986887,0.00061086525,-0.014049901,-0.0036651916,295.9559,-4.975294,-42.84129,LYI
423798976000,3.995005,-6.54754413269265,0.906504040372732,7.05167169182684,-0.016798794,-0.008552114,-0.006414085,295.9666,-4.9713717,-42.845673,LYI
423804079000,4.000108,-6.56297831106181,0.898786946987927,7.04279794795171,0.0030543262,-0.0021380284,-0.007330383,295.97247,-4.972567,-42.851936,LYI
423809045000,4.005074,-6.57279321984315,0.893879466975544,7.02316802790218,-0.00061086525,0.00030543262,0.003970624,295.97437,-4.967344,-42.857975,LYI
423813894000,4.009923,-6.58075202109621,0.88767107056388,7.00725045090694,0.014966198,0.0015271631,0.005497787,295.97873,-4.9684687,-42.86665,LYI
423819022000,4.015051,-6.58559339097003,0.877988502693218,6.99756801447161,0.015271631,0.0067195175,0.0015271631,295.98053,-4.9668736,-42.876575,LYI
423823887000,4.019916,-6.58750809246743,0.868819640689588,6.99774339827603,0.008857546,0.0067195175,0.009162978,295.97687,-4.9705553,-42.885944,LYI
423829041000,4.02507,-6.58267315682241,0.859149971339015,7.02191757165246,0.0070249503,0.009162978,0.004581489,295.9792,-4.972113,-42.89765,LYI
423833935000,4.029964,-6.58221955905832,0.8523358,7.04092201195829,0.01160644,0.004276057,0.007330383,295.97675,-4.9754987,-42.907333,LYI
423839846000,4.035875,-6.59605354288856,0.8523358,7.05014453944282,0.00580322,0.009162978,0.0018325958,295.9787,-4.9738636,-42.92053,LYI
423843887000,4.039916,-6.60551101686217,0.8523358,7.05644943431085,-0.0030543262,0.0143553335,0.0018325958,295.980405230618,-4.97265909911678,-42.9210058783121,LYI
423849017000,4.045046,-6.61445954512276,0.842641421274054,7.06456931015262,-0.0061086523,0.002443461,0.007941248,295.98257,-4.97113,-42.92161,LYI
423854058000,4.050087,-6.62246844641672,0.83062830348706,7.07257804419376,0.004886922,0.004886922,0.01863139,295.9859,-4.9719715,-42.926556,LYI
423859023000,4.055052,-6.62123912618271,0.82360536,7.08120086101142,0.009468411,0.0033597588,0.01282817,295.99356,-4.9675136,-42.928013,LYI
423864030000,4.060059,-6.60657200591354,0.82360536,7.0909788050571,0.0015271631,0.005497787,0.016798794,295.99298,-4.9667645,-42.930443,LYI
423868969000,4.064998,-6.59655166732109,0.831077576542115,7.08146914350855,0.0106901415,0.009468411,0.016187929,296.00504,-4.9646616,-42.927906,LYI
423874020000,4.070049,-6.5921753069031,0.848583219285262,7.04645780318466,-0.0027488936,0.005497787,0.012217305,296.01678,-4.956462,-42.92383,LYI
423879000000,4.075029,-6.5914109956018,0.85934459545992,7.01808701484985,0.0012217305,0.0021380284,0.0106901415,296.03528,-4.947932,-42.92534,LYI
423883987000,4.080016,-6.6027042884291,0.848051263324663,7.01055820537558,-0.0012217305,0.00580322,0.013744468,296.05273,-4.935822,-42.927605,LYI
423888897000,4.084926,-6.61382321118468,0.836932301868054,7.00314564180657,-0.0009162979,0.014966198,0.01160644,296.06784,-4.931037,-42.930748,LYI
423893959000,4.089988,-6.61208888120219,0.838666618797814,7.0006456,0.0012217305,0.0106901415,0.008857546,296.0821,-4.9268155,-42.930996,LYI
423898953000,4.094982,-6.60404742862547,0.846708071374527,7.0006456,0.010079277,0.012217305,0.004886922,296.0966,-4.9236336,-42.935505,LYI
423903922000,4.099951,-6.59981845180341,0.853734551803409,6.99505059278637,-0.0061086523,0.01740966,0.010079277,296.096,-4.9201655,-42.943787,LYI
423908965000,4.104994,-6.60460400495442,0.858520104954419,6.97590838018232,0.004581489,0.017715093,0.0143553335,296.0974,-4.923256,-42.951077,LYI
423913952000,4.109981,-6.60663513469244,0.859189869384879,6.96642252435317,0.007941248,0.019547688,0.011911872,296.09848,-4.9225407,-42.95948,LYI
423918957000,4.114986,-6.60180961531259,0.849538830625189,6.9808991832679,0.00061086525,0.008246681,0.008857546,296.0988,-4.9225144,-42.963875,LYI
423923907000,4.119936,-6.6031212661075,0.84393437925368,6.9969458962684,-0.005497787,0.0030543262,0.013744468,296.10034,-4.925612,-42.96881,LYI
423928972000,4.125001,-6.61972756480657,0.848085910578569,7.01770355289285,0.0018325958,0.0027488936,0.016493361,296.10416,-4.928979,-42.972057,LYI
423934383000,4.130412,-6.63630481278548,0.852124560804216,7.03937547398009,0.004276057,-0.004276057,0.0076358155,296.1171,-4.9252653,-42.96763,LYI
423938971000,4.135,-6.62772794844818,0.847836218192465,7.04795206964669,0.003970624,-0.014660766,0.0015271631,296.12787,-4.923637,-42.962135,LYI
423943885000,4.139914,-6.61854165565099,0.84324316771423,7.0571380746828,-0.016493361,-0.018020526,0.006414085,296.13876,-4.918003,-42.957874,LYI
423949020000,4.145049,-6.62225096131387,0.833404048568708,7.06278376826404,-0.0106901415,-0.021991149,0.0018325958,296.15576,-4.914916,-42.951263,LYI
423954339000,4.150368,-6.62674899079073,0.82400685411683,7.06607703862512,-0.01038471,-0.023823744,0.0009162979,296.1691,-4.9082956,-42.944267,LYI
423959054000,4.155083,-6.62282949612881,0.827926201447791,7.05039979663224,-0.0106901415,-0.026572637,-0.0015271631,296.1861,-4.900291,-42.933712,LYI
423964038000,4.160067,-6.61868638660707,0.832069155233053,7.03382813722767,-0.004276057,-0.026267206,-0.0030543262,296.2048,-4.894436,-42.91634,LYI
423969021000,4.16505,-6.59660102884615,0.836178238736264,7.03536807747253,-0.007941248,-0.026572637,-0.009468411,296.2259,-4.8851986,-42.898926,LYI
