timestamp,rel_time,acc_x,acc_y,acc_z,gyro_x,gyro_y,gyro_z,azimuth,pitch,roll,label
52171629982000,0,0.611511553002993,9.74708336824957,-0.232651557344603,-0.07544186,-0.05497787,0.044593163,51.36459,-10.8266115,39.042435,STD
52171635082000,0.0051,0.613464080524393,9.75001214041786,-0.228746504595462,-0.082161374,-0.05131268,0.053450707,52.173447,-11.698274,39.075546,STD
52171639992000,0.01001,0.615343866824408,9.75283180146614,-0.224986934203641,-0.0842994,-0.034208454,0.069027774,52.97611,-12.565195,39.094196,STD
52171645213000,0.015231,0.617342719018374,9.75583006018979,-0.220989232163784,-0.09132435,-0.02107485,0.074830994,53.77856,-13.426433,39.10263,STD
52171650093000,0.020111,0.619211019862381,9.7586324931665,-0.217252632670488,-0.090713486,-0.008246681,0.07971791,54.57285,-14.282573,39.09774,STD
52171654992000,0.02501,0.621086594828525,9.76144583725521,-0.213501484941459,-0.08399397,0.0067195175,0.095294975,55.357758,-15.131584,39.08062,STD
52171659979000,0.029997,0.622995860465628,9.76430971702054,-0.209682955910093,-0.0852157,0.0061086523,0.09407325,56.14477,-15.977125,39.053745,STD
52171665056000,0.035074,0.624939582470755,9.76722528100061,-0.205795514183153,-0.0720821,0.0030543262,0.105068825,56.917747,-16.81765,39.017242,STD
52171670089000,0.040107,0.626866459140403,9.77011557714237,-0.201941763107382,-0.05131268,0.0015271631,0.10170906,57.692657,-17.657875,38.97005,STD
52171674985000,0.045003,0.628740885560947,9.77292719842392,-0.198192912468206,-0.03023783,-0.0067195175,0.10842858,58.45826,-18.492155,38.919178,STD
52171679992000,0.05001,0.630657808168721,9.77580256357031,-0.19435906950449,-0.01038471,-0.018325957,0.10598512,59.22501,-19.327875,38.859715,STD
52171685101000,0.055119,0.632613781326924,9.77873650416007,-0.190447125485791,-0.010995574,-0.026267206,0.10903945,59.98434,-20.15604,38.794655,STD
52171690040000,0.060058,0.634504670234413,9.78157281901088,-0.186665349892063,-0.0021380284,-0.034513887,0.0983493,60.74663,-20.987947,38.722466,STD
52171695056000,0.065074,0.63642503847899,9.78445335257874,-0.18282461565879,0.006414085,-0.03023783,0.10842858,61.49586,-21.809267,38.64438,STD
52171700093000,0.070111,0.638353446542773,9.78734594579671,-0.178967801796549,0.0018325958,-0.03970624,0.087964594,62.257435,-22.631607,38.5585,STD
52171704991000,0.075009,0.640228638660384,9.79015871561636,-0.175217419764138,0.0027488936,-0.040927973,0.08002335,63.004467,-23.446352,38.465057,STD
52171709977000,0.079995,0.642137521448952,9.79302202111265,-0.171399656429389,0.00061086525,-0.038179077,0.079107046,63.751415,-24.255684,38.36383,STD
52171715001000,0.085019,0.644060952481798,9.79590714883293,-0.167552796623175,-0.0012217305,-0.025961773,0.054367006,64.50089,-25.06489,38.24876,STD
52171720127000,0.090145,0.646023434065072,9.79885085199658,-0.163627835761979,-0.016798794,-0.018936822,0.04153884,65.24136,-25.861929,38.129135,STD
52171724976000,0.094994,0.647879866604536,9.80163548263266,-0.159914972863825,-0.03145956,-0.022296581,0.029932396,65.98224,-26.656496,37.99887,STD
52171729976000,0.099994,0.649794109272576,9.80450682789568,-0.156086489776431,-0.04062254,0.01282817,0.02565634,66.70846,-27.443018,37.85095,STD
52171735004000,0.105022,0.650355301966457,9.80689788356243,-0.154034536366419,-0.051618114,0.028099801,0.02321288,67.435295,-28.220911,37.701126,STD
52171739990000,0.110008,0.647017459531853,9.80785154671234,-0.157133960026114,-0.07819075,0.03604105,0.013744468,68.15205,-28.988697,37.537632,STD
52171744975000,0.114993,0.643680286540177,9.80880501859406,-0.160232762060526,-0.07696902,0.04428773,0.013133603,68.869514,-29.770142,37.328465,STD
52171750070000,0.120088,0.640269474826517,9.80977952997568,-0.163399942876038,-0.09285152,0.049785517,0.008857546,69.579636,-30.537148,37.112156,STD
52171754992000,0.12501,0.636974476739249,9.81072095196201,-0.166459582517638,-0.10048734,0.061086524,0.015271631,70.273895,-31.29589,36.891315,STD
52171759980000,0.129998,0.633635295418791,9.81167499764828,-0.169560249427898,-0.11026118,0.06047566,0.017715093,70.96214,-32.04438,36.667446,STD
52171765083000,0.135101,0.630219128161714,9.81265103917535,-0.172732403245672,-0.09743301,0.06688975,0.01740966,71.63544,-32.78692,36.437748,STD
52171770158000,0.140176,0.626821705306597,9.81362172519335,-0.17588715155553,-0.09773844,0.055283304,0.02107485,72.30208,-33.51522,36.210938,STD
52171774988000,0.145006,0.623588295968624,9.81454555050704,-0.178889601671119,-0.09101892,0.04917465,0.023518313,72.95701,-34.2395,35.979267,STD
52171780003000,0.150021,0.620231039689134,9.81550476043419,-0.182007052464013,-0.08093964,0.03756821,0.02443461,73.60655,-34.955574,35.749657,STD
52171785107000,0.155125,0.61681420298913,9.81648099322944,-0.18517982790707,-0.06811147,0.027488936,0.028099801,74.247154,-35.66407,35.520294,STD
52171789994000,0.160012,0.613542635404311,9.81741572082944,-0.188217710663774,-0.06047566,0.01740966,0.032986723,74.88164,-36.36465,35.292103,STD
52171794974000,0.164992,0.61020880962727,9.81836823637026,-0.191313404571772,-0.045814894,0.011911872,0.042455133,75.50724,-37.058987,35.06524,STD
52171800069000,0.170087,0.606797997913611,9.81934274775189,-0.194480585387285,-0.04795292,0.0036651916,0.03940081,76.1299,-37.74457,34.83786,STD
52171804989000,0.175007,0.603504338712197,9.82028378720185,-0.197538981778319,-0.04184427,-0.00030543262,0.044593163,76.7409,-38.4225,34.613216,STD
52171809980000,0.179998,0.600163149062957,9.82123840669266,-0.200641513564428,-0.03604105,-0.0143553335,0.043676864,77.3512,-39.093304,34.388878,STD
52171815070000,0.185088,0.596755684563933,9.82221196173338,-0.203805586253526,-0.027488936,-0.02565634,0.042455133,77.95329,-39.75629,34.164757,STD
52171820129000,0.190147,0.59336897279565,9.82317958746049,-0.20695038855886,-0.03634648,-0.039095376,0.05009095,78.5508,-40.40681,33.94437,STD
52171825115000,0.195133,0.590031130361046,9.8241332506104,-0.210049812218555,-0.032070424,-0.035124753,0.044898596,79.14262,-41.055973,33.71886,STD
52171830526000,0.200544,0.586408774682418,9.82516820273718,-0.21341342662341,-0.03848451,-0.039095376,0.04550946,79.73049,-41.690044,33.49933,STD
52171835104000,0.205122,0.583344064962078,9.82604382846928,-0.216259227167751,-0.03176499,-0.05222898,0.04153884,80.315125,-42.321068,33.27775,STD
52171839990000,0.210008,0.580073166820186,9.8269783648011,-0.219296488299173,-0.028710667,-0.061391957,0.034208454,80.89372,-42.942318,33.05492,STD
52171844980000,0.214998,0.576732646613874,9.82793279302373,-0.222398398459998,-0.034208454,-0.062002823,0.029626964,81.467354,-43.55508,32.832058,STD
52171850068000,0.220086,0.573326521000704,9.82890596552809,-0.225561227898532,-0.036651913,-0.058643065,0.02321288,82.03783,-44.16258,32.607483,STD
52171855094000,0.225112,0.569961900849016,9.82986727940523,-0.228685516569536,-0.050701816,-0.056199603,0.017104227,82.60325,-44.759434,32.381836,STD
52171859986000,0.230004,0.566686986049561,9.83080296334613,-0.231726507452654,-0.047036625,-0.057421334,0.0106901415,83.16381,-45.352306,32.154472,STD
52171865069000,0.235087,0.563284207651027,9.83177517950958,-0.234886228764773,-0.062308256,-0.062308256,0.003970624,83.71981,-45.93216,31.925755,STD
52171870129000,0.240147,0.559896826439816,9.83274299650488,-0.23803165269539,-0.070554934,-0.06078109,0.00030543262,84.26888,-46.506542,31.695538,STD
52171874988000,0.245006,0.556644003256957,9.83367236859581,-0.241052129944178,-0.067500606,-0.064751714,-0.004581489,84.81642,-47.073807,31.465183,STD
52171879984000,0.250002,0.553299466393082,9.83462794442752,-0.2441577698567,-0.07422013,-0.04642576,-0.013744468,85.35259,-47.63144,31.229776,STD
52171885121000,0.255139,0.549860538076483,9.83561048907274,-0.247351058934087,-0.07574729,-0.043066,-0.016493361,85.888245,-48.182266,30.997969,STD
52171889993000,0.260011,0.546599012135571,9.83654234765003,-0.25037961731155,-0.07819075,-0.043066,-0.023518313,86.41612,-48.7267,30.76135,STD
52171894977000,0.264995,0.543262508586821,9.83749562826357,-0.25347779772068,-0.07819075,-0.044593163,-0.036957346,86.93933,-49.26545,30.522928,STD
52171900742000,0.27076,0.539403170111994,9.83859828932639,-0.257061467475622,-0.06566802,-0.036651913,-0.040927973,87.453896,-49.797604,30.284744,STD
52171905146000,0.275164,0.536454943460972,9.83944063439502,-0.259799105220767,-0.06627888,-0.03359759,-0.046731193,87.9673,-50.32299,30.044582,STD
52171910090000,0.280108,0.533145217629307,9.84038626428133,-0.262872420618587,-0.07422013,-0.050701816,-0.05131268,88.47937,-50.842125,29.806341,STD
52171915063000,0.285081,0.529816077952756,9.84133744094488,-0.265963763149606,-0.0693332,-0.0720821,-0.0571159,88.98764,-51.357243,29.567554,STD
52171920118000,0.290136,0.526432043956181,9.84230430159927,-0.269106078953809,-0.06872234,-0.09101892,-0.064751714,89.49603,-51.864,29.330067,STD
52171924994000,0.295012,0.52316784024356,9.84323692524928,-0.272137123832404,-0.07727446,-0.1133155,-0.06688975,90.00672,-52.362488,29.096605,STD
52171929982000,0.3,0.519828658923102,9.84419097093554,-0.275237790742664,-0.0870483,-0.13836098,-0.069027774,90.519936,-52.855087,28.86479,STD
52171935097000,0.305115,0.515871201094908,9.8429361335191,-0.27528108347833,-0.11148291,-0.16676621,-0.07452556,91.03662,-53.337563,28.635511,STD
52171939989000,0.310007,0.510246111073546,9.83402975619969,-0.264499659672918,-0.124311075,-0.18997909,-0.06963864,91.55336,-53.811195,28.411568,STD
52171944977000,0.314995,0.504510634984716,9.82494860123869,-0.253506662546713,-0.11056661,-0.21380283,-0.07727446,92.095505,-54.31879,28.145393,STD
52171950067000,0.320085,0.498657873699203,9.81568174503349,-0.242288868767166,-0.12705997,-0.23487769,-0.09040806,92.63775,-54.811672,27.883055,STD
52171955052000,0.32507,0.492925847174982,9.80660605187379,-0.231302483307236,-0.10903945,-0.25137106,-0.092240654,93.17923,-55.304214,27.62539,STD
52171959980000,0.329998,0.48725936237832,9.79763413293878,-0.220441719506526,-0.087964594,-0.2556471,-0.10262536,93.719955,-55.792065,27.364565,STD
52171965064000,0.335082,0.481413500222023,9.78837820033619,-0.209237149059528,-0.07819075,-0.24404067,-0.09132435,94.2525,-56.268913,27.110716,STD
52171970479000,0.340497,0.475187036103938,9.77851964899019,-0.197303091433546,-0.06291912,-0.22937989,-0.09682214,94.782616,-56.749035,26.851345,STD
52171974995000,0.345013,0.46999429151349,9.77029781743368,-0.18735032980124,-0.05222898,-0.22266038,-0.09254608,95.30345,-57.217625,26.598856,STD
52171979980000,0.349998,0.464262264989269,9.76122212427397,-0.176363944341309,-0.056199603,-0.20738874,-0.08307768,95.811714,-57.678986,26.345757,STD
52171985073000,0.355091,0.458406054139147,9.75194980626748,-0.165139538895487,-0.036651913,-0.19272798,-0.07452556,96.31223,-58.137665,26.094751,FKL
52171989987000,0.360005,0.452755667310657,9.74300337573854,-0.154309629537393,-0.03390302,-0.160963,-0.052534413,96.795265,-58.580303,25.848837,FKL
52171994984000,0.365002,0.447009842528003,9.73390583537363,-0.143296797412364,-0.029932396,-0.12492194,-0.04153884,97.26766,-59.019608,25.602465,FKL
52172000099000,0.370117,0.441128334870753,9.72459346415761,-0.13202390641386,-0.031154128,-0.07452556,-0.02107485,97.71809,-59.4439,25.36259,FKL
52172005003000,0.375021,0.435489446590958,9.715665239633,-0.121216035943349,-0.032070424,-0.054061573,-0.009773844,98.16182,-59.86144,25.12481,FKL
52172009978000,0.379996,0.429768918615432,9.70660775247763,-0.110251689371001,-0.03940081,0.0030543262,0.0015271631,98.57287,-60.266018,24.887516,FKL
52172015055000,0.385073,0.423931105443221,9.69736456407806,-0.0990625461453107,-0.043066,0.058948494,0.009162978,98.9732,-60.662445,24.653164,FKL
52172020144000,0.390162,0.418079494012577,9.6880995284733,-0.0878469562545213,-0.069027774,0.12034045,0.021685716,99.3492,-61.043888,24.420797,FKL
52172025092000,0.39511,0.412390012118526,9.67909119752963,-0.0769421146786466,-0.082161374,0.17592919,0.03359759,99.70576,-61.4185,24.189236,FKL
52172030086000,0.400104,0.40664763690048,9.66999911896603,-0.0659358942198921,-0.10903945,0.20708331,0.04153884,100.04704,-61.778854,23.960161,FKL
52172035138000,0.405156,0.400838570100005,9.6608014455773,-0.0548018482131583,-0.12034045,0.22999077,0.057726767,100.3692,-62.12846,23.736189,FKL
52172039996000,0.410014,0.395252575144205,9.65195696867261,-0.0440953566255272,-0.14294247,0.2443461,0.06872234,100.6814,-62.465855,23.514544,FKL
52172044995000,0.415013,0.389504450651812,9.64285578710685,-0.0330781167229813,-0.16249016,0.23701571,0.08246681,100.98896,-62.791622,23.301224,FKL
52172050003000,0.420021,0.383745977465593,9.63373822013718,-0.022041041821611,-0.16218472,0.23457226,0.1001819,101.28693,-63.10769,23.093838,FKL
52172054978000,0.424996,0.378025449490067,9.6246807329818,-0.0110766952492633,-0.16340645,0.21685717,0.099265605,101.589516,-63.41659,22.889711,FKL
52172060088000,0.430106,0.372149691107164,9.61537746476795,0.000185176305449508,-0.15821409,0.18906279,0.11636983,101.890686,-63.71233,22.699234,FKL
52172065100000,0.435118,0.366386618501468,9.60625261539655,0.0112310667618528,-0.14905111,0.14263703,0.12858713,102.20077,-64.004776,22.512308,FKL
52172070073000,0.440091,0.360668390235681,9.59719876944204,0.0221910055566839,-0.14905111,0.08124508,0.14263703,102.51985,-64.28697,22.335913,FKL
52172075002000,0.44502,0.355000755584149,9.5882250299066,0.0330539732461516,-0.13530666,0.023823744,0.14477506,102.84908,-64.56743,22.164488,FKL
52172079981000,0.449999,0.349275628189145,9.57916026034949,0.0440271353735323,-0.10934488,-0.04917465,0.1459968,103.197845,-64.84156,22.003414,FKL
52172085135000,0.455153,0.343349276191987,9.56977688571657,0.0553859780336087,-0.0852157,-0.09743301,0.15057829,103.553154,-65.1113,21.847416,FKL
52172089998000,0.460016,0.337757531961839,9.56092330580973,0.0661034890650311,-0.0711658,-0.15424347,0.13561209,103.93107,-65.38323,21.692448,FKL
52172094977000,0.464995,0.332032404566835,9.55185853625262,0.0770766511924118,-0.046120327,-0.19150625,0.14110987,104.31273,-65.64887,21.547138,FKL
52172100066000,0.470084,0.326180793136191,9.54259350064786,0.0882922410832012,-0.016798794,-0.20311269,0.124311075,104.702576,-65.92176,21.394016,FKL
52172104990000,0.475008,0.320518907759006,9.53362886411458,0.0991441893288775,0.020158553,-0.22510384,0.1142318,105.1024,-66.1911,21.247637,FKL
52172110050000,0.480068,0.314700642119576,9.52441662592239,0.110295866445677,0.032375857,-0.23671028,0.10170906,105.500046,-66.46123,21.096525,FKL
52172115059000,0.485077,0.308941019078489,9.51529723835229,0.121335145235806,0.069027774,-0.23151793,0.1020145,105.89532,-66.733406,20.947071,FKL
52172120126000,0.490144,0.303114704454972,9.50607225595706,0.132502249573914,0.09621128,-0.21685717,0.08735373,106.28894,-67.00806,20.790634,FKL
52172125135000,0.495153,0.297355081413885,9.49695286838696,0.143541528364042,0.1459968,-0.17745635,0.07788532,106.669395,-67.283325,20.634893,FKL
52172129982000,0.5,0.291781734861648,9.48812841808704,0.154223777175332,0.172264,-0.15943582,0.076052725,107.048485,-67.5556,20.478296,FKL
52172135091000,0.505109,0.278519814693898,9.43973493482989,0.167576048365123,0.19517145,-0.12095132,0.083383106,107.40596,-67.82793,20.319685,FKL
52172140087000,0.510105,0.242399000710947,9.26989533845962,0.187191324506812,0.21105394,-0.09040806,0.087659165,107.757126,-68.09822,20.160234,FKL
52172145078000,0.515096,0.206314336461765,9.10022571766618,0.206786969667575,0.23182335,-0.063224554,0.09407325,107.99559,-68.386345,19.945477,FKL
52172150069000,0.520087,0.170229672212584,8.93055609687273,0.226382614828338,0.2452624,-0.062308256,0.10995574,108.23055,-68.666756,19.737516,FKL
52172155635000,0.525653,0.129987788579857,8.74133928474365,0.24823582279564,0.25595254,-0.087964594,0.1301143,108.46341,-68.94126,19.53557,FKL
52172159977000,0.529995,0.098595359774017,8.59373249382296,0.265283366632153,0.28680122,-0.12767084,0.14569137,108.698296,-69.21133,19.340189,FKL
52172165049000,0.535067,0.0619250698377622,8.42130926868485,0.285197033683924,0.32070425,-0.18051068,0.1695151,108.9421,-69.47032,19.156963,FKL
52172170146000,0.540164,0.0250740312326575,8.24803616566258,0.305208855640327,0.36163223,-0.24465153,0.18051068,109.19944,-69.72752,18.978703,FKL
52172175138000,0.545156,-0.0110178629632778,8.07833254975377,0.324808426997275,0.419359,-0.3203988,0.16982053,109.47409,-69.98427,18.805258,FKL
52172179984000,0.550002,-0.0460541849331301,7.91359222068845,0.343834773711172,0.4813618,-0.40378192,0.15485434,109.76778,-70.238495,18.637758,FKL
52172185115000,0.555133,-0.0831510417278704,7.73916328374372,0.363980086337875,0.5589417,-0.49968776,0.11911872,110.086525,-70.50272,18.465494,FKL
52172189988000,0.560006,-0.118382572260081,7.57350508656351,0.383112440348774,0.6310238,-0.59315014,0.09407325,110.426765,-70.76741,18.295544,FKL
52172194980000,0.564998,-0.154474466456016,7.4038014706547,0.402712011705722,0.7049385,-0.68203104,0.06872234,110.792206,-71.04243,18.118832,FKL
52172200077000,0.570095,-0.19132550506112,7.23052836763243,0.422723833662125,0.77304995,-0.7171558,0.04795292,111.16639,-71.32156,17.937971,FKL
52172205144000,0.575162,-0.227959645263605,7.05827511807114,0.44261786973297,0.79259765,-0.7742717,0.03940081,111.57002,-71.59881,17.756721,FKL
52172209966000,0.579984,-0.262822448511362,6.89435067177462,0.46154998773842,0.8524625,-0.78984874,0.025045475,111.96813,-71.88342,17.567905,FKL
52172215088000,0.585106,-0.299854235785316,6.72022769086819,0.481659964599455,0.89552844,-0.7959574,0.013133603,112.376076,-72.161316,17.378698,FKL
52172220219000,0.590237,-0.336951092580057,6.54579875392346,0.501805277226158,0.93584555,-0.76083267,-0.002443461,112.77206,-72.43907,17.18403,FKL
52172225582000,0.5956,-0.375725297021723,6.36348295021373,0.522861467367847,0.99082345,-0.72143185,-0.023518313,113.16426,-72.715675,16.984772,FKL
52172230082000,0.6001,-0.408260057414694,6.21050493106517,0.540529350201635,1.0647382,-0.6786713,-0.050701816,113.54083,-72.9915,16.779161,FKL
52172235099000,0.605117,-0.444532700279479,6.0399514372722,0.560227076463215,1.17897,-0.5726862,-0.11209377,113.88319,-73.27657,16.557066,FKL
52172240106000,0.610124,-0.480733043676724,5.8697378946329,0.579885540762943,1.3252722,-0.43035457,-0.19333886,114.19827,-73.56719,16.321781,FKL
52172245110000,0.615128,-0.516911697233707,5.6996263373397,0.599532226474114,1.4990633,-0.33169982,-0.2919936,114.4918,-73.8711,16.065004,FKL
52172250084000,0.620102,-0.552873452388071,5.53053463350749,0.619061126299728,1.6536123,-0.30818152,-0.35918877,114.76255,-74.17652,15.795541,FKL
52172255074000,0.625092,-0.588950886690498,5.36089900782941,0.638652845264305,1.7244726,-0.2843578,-0.38881573,115.001656,-74.48311,15.510733,FKL
52172259994000,0.630012,-0.624522224720146,5.19364304022698,0.657969730495913,1.72264,-0.17165314,-0.44898596,115.20515,-105.20111,15.200946,FKL
52172265048000,0.635066,-0.661062375614829,5.02183172716546,0.677812726016349,1.6969837,-0.027183503,-0.56138515,115.38954,-104.882744,14.871573,FKL
52172270125000,0.640143,-0.697768815284854,4.84923852645052,0.697746024049046,1.6377298,0.09773844,-0.65576386,115.54409,-104.57305,14.5346985,FKL
52172274997000,0.645015,-0.73299311587031,4.68361432438567,0.71687445186376,1.5668694,0.19272798,-0.69913524,115.66325,-104.26607,14.186051,FKL
52172279984000,0.650002,-0.769048860332475,4.5140806840537,0.736454392239782,1.4856243,0.26847526,-0.7110472,115.75031,-103.95973,13.826263,FKL
52172285110000,0.655128,-0.806109567393445,4.3398217226858,0.756580073885559,1.391551,0.35155296,-0.70188415,115.807076,-103.66342,13.467646,FKL
52172289988000,0.660006,-0.841377247659426,4.17399354992876,0.775732058877384,1.2880094,0.41813725,-0.67256266,115.84698,-103.38338,13.118874,FKL
52172295077000,0.665095,-0.878170446690498,4.00099240782941,0.795712471264305,1.1814134,0.44623706,-0.6533204,115.87471,-103.11431,12.777168,FKL
52172300061000,0.670079,-0.914204501312402,3.83156075284354,0.815280633051771,1.0393872,0.43463063,-0.6392705,115.8961,-102.85777,12.449249,FKL
52172305003000,0.675021,-0.949934898170637,3.66355689270305,0.834683894599455,0.9755518,0.376293,-0.6197228,115.92466,-102.61954,12.134474,FKL
52172309976000,0.679994,-0.985889423378247,3.4944991839862,0.854208868228883,0.82253003,0.22937989,-0.6044512,115.983955,-102.37782,11.826877,FKL
52172315042000,0.68506,-1.02251633363398,3.32227992954028,0.874098978103542,0.6786713,0.033292156,-0.57604593,116.07609,-102.150566,11.532503,FKL
52172320091000,0.690109,-1.05902033479489,3.1506385920556,0.893922342643052,0.5522222,-0.1957823,-0.54092115,116.221245,-101.9265,11.246704,FKL
52172325040000,0.695058,-1.0948013412804,2.98239676610754,0.913353087564033,0.4605924,-0.40408736,-0.48533243,116.41756,-101.713684,10.976943,FKL
52172329975000,0.699993,-1.13048112851136,2.81463087177462,0.93272886573842,0.3930918,-0.58276546,-0.42180246,116.6708,-101.50979,10.720763,FKL
52172335078000,0.705096,-1.18145521801108,2.73409912812455,0.909255361853919,0.36071593,-0.71837753,-0.35705075,116.970146,-101.321945,10.482364,FKL
52172339992000,0.71001,-1.27527088010582,2.95182670319112,0.748428512022543,0.3378085,-0.8167268,-0.29046643,117.307945,-101.1512,10.264203,FKL
52172344986000,0.715004,-1.37061386270678,3.17309888672439,0.584983398457649,0.31429017,-0.89919364,-0.22021692,117.545425,-100.92832,10.009697,FKL
52172350087000,0.720105,-1.46799963648482,3.39911198408186,0.418036357149174,0.31978795,-0.9651671,-0.1386664,117.80777,-100.726166,9.774753,FKL
52172355073000,0.725091,-1.56318988703516,3.62002970676846,0.254853069957632,0.35888332,-0.98746365,-0.077579886,118.08159,-100.53773,9.552257,FKL
52172359980000,0.729998,-1.6568719085856,3.8374471285942,0.0942553182029388,0.42149702,-0.9789116,-0.0125227375,118.36638,-100.37447,9.352388,FKL
52172365119000,0.735137,-1.7549831596041,4.06514391497335,-0.0739353983789577,0.50976706,-0.93279123,0.04184427,118.64669,-100.231674,9.166091,FKL
52172370091000,0.740109,-1.84990612906585,4.28544133117827,-0.236660489417134,0.6441574,-0.84849185,0.10262536,118.91395,-100.12066,8.999907,FKL
52172375057000,0.745075,-1.94471454948963,4.5054729017482,-0.399189210675297,0.78984874,-0.68966687,0.16646078,119.14664,-100.037186,8.8513775,FKL
52172379991000,0.750009,-2.03891204171093,4.72408662893145,-0.560670626440052,0.9251554,-0.49938235,0.22357668,119.34646,-99.9843,8.719313,FKL
52172385080000,0.755098,-2.13606871741303,4.94956803501891,-0.727224928188499,1.0213667,-0.33841935,0.23762658,119.50907,-99.952034,8.594389,FKL
52172390064000,0.760082,-2.23122078495071,5.17039714249384,-0.890342758786704,1.0748174,-0.27183503,0.19975294,119.64428,-99.93538,8.471238,FKL
52172394988000,0.765006,-2.32522736210873,5.38856779361875,-1.05149689158477,1.1191051,-0.25473082,0.10476339,119.7467,-99.922874,8.336521,FKL
52172399995000,0.770013,-2.42081853429195,5.61041597602786,-1.21536747300636,1.1301007,-0.2510656,0.053450707,119.834694,-99.91722,8.20294,FKL
52172404929000,0.774947,-2.51501602651325,5.82902970321111,-1.37684888877112,1.1478158,-0.26847526,-0.061086524,119.92042,-99.88562,8.022451,FKL
52172409945000,0.779963,-2.61077902225342,6.05127665407272,-1.54101402486273,1.219287,-0.28802297,-0.1423316,120.0061,-99.86556,7.8353496,FKL
52172414938000,0.784956,-2.70610291334806,6.27250453000015,-1.70442641013095,1.3029755,-0.29016098,-0.24709499,120.088745,-99.825775,7.6076965,FKL
52172419966000,0.789984,-2.80209500716416,6.49528317213176,-1.86898428578259,1.4034629,-0.20952678,-0.40103304,120.150246,-99.78193,7.343878,FKL
52172424904000,0.794922,-2.89636886541077,6.71407412973834,-2.03059661473402,1.5286902,-0.13775012,-0.5891795,120.21157,-99.74111,7.0395365,FKL
52172429898000,0.799916,-2.99171184801173,6.93534631327161,-2.19404172829892,1.6951511,-0.1282817,-0.7593055,120.26451,-99.716896,6.6967382,FKL
52172434941000,0.804959,-3.08799031442276,7.15878956949073,-2.35909052840059,1.8677205,-0.13591751,-0.90316427,120.297935,-99.70988,6.3097687,FKL
52172439903000,0.809921,-3.18272236882123,7.37864390963732,-2.52148833647208,2.0216584,-0.118202426,-1.044885,120.31721,-99.731834,5.8767877,FKL
52172444898000,0.814916,-3.27808444292852,7.59996040077642,-2.68496617833364,2.091908,-0.04642576,-1.1682798,120.32039,-99.785934,5.4108744,FKL
52172449939000,0.819957,-3.37432472632689,7.82331504178387,-2.84994952184198,2.0546453,0.059253927,-1.2583824,120.306625,-99.87098,4.91767,FKL
52172454925000,0.824943,-3.46951497687723,8.04423276447047,-3.01313280903352,1.9324722,0.19333886,-1.3020593,120.26349,-99.97974,4.4087076,FKL
52172459932000,0.82995,-3.56510614906045,8.26608094687957,-3.17700339045511,1.7269161,0.34513888,-1.3087788,120.18579,-100.088005,3.8924227,FKL
52172464960000,0.834978,-3.66109824287656,8.48885958901119,-3.34156126610675,1.4737124,0.48563787,-1.3170254,120.07435,-100.18116,3.3716223,FKL
52172469959000,0.839977,-3.75653668300916,8.71035331057362,-3.50517002115499,1.2043208,0.6282749,-1.3481796,119.9214,-100.243454,2.8525634,FKL
52172474925000,0.844943,-3.85134510343294,8.93038488114355,-3.66769874241315,0.96974856,0.752586,-1.3704761,119.73776,-100.27486,2.342627,FKL
52172480394000,0.850412,-3.9557565515396,9.1727031774478,-3.84668979689581,0.80970186,0.8368854,-1.3683381,119.52904,-100.27847,1.8390007,FKL
52172485100000,0.855118,-4.04560118031816,9.38121477050098,-4.00070916102004,0.73945236,0.8524625,-1.3203852,119.310295,-100.26782,1.3479681,FKL
52172489982000,0.86,-4.13880591421041,9.59752450218087,-4.16048870535801,0.713796,0.77304995,-1.2461652,119.10062,-100.249245,0.8676243,FKL
52172494922000,0.86494,-4.23311795546968,9.81640407499913,-4.32216649090278,0.68416905,0.68661255,-1.1939361,118.89431,-100.23253,0.39822206,FKL
52172499962000,0.86998,-4.32933914736172,10.0397144084007,-4.48711710611444,0.6609562,0.45998153,-1.0751228,118.76112,-100.23201,-0.039389707,FKL
52172504989000,0.875007,-4.4253121496715,10.2624487429265,-4.65164225346942,0.59986967,0.14508049,-0.9779953,118.68256,-100.22992,-0.4740785,FKL
52172509977000,0.879995,-4.52054058323449,10.4834550808248,-4.8148909972543,0.49266282,-0.17867808,-0.90194255,118.678444,-100.22325,-0.89004695,FKL
52172515071000,0.885089,-4.61779271646823,10.7091580249414,-4.98160894048609,0.37018433,-0.47128254,-0.8350528,118.76109,-100.207726,-1.2923967,FKL
52172520119000,0.890137,-4.71416664041089,10.9328228191897,-5.14682138207111,0.27885997,-0.72601336,-0.73548174,118.93135,-100.18055,-1.6751016,FKL
52172525130000,0.895148,-4.80983417861943,11.1548482320221,-5.31082287667937,0.23426682,-0.9025534,-0.6273586,119.16663,-100.14125,-2.043573,FKL
52172529985000,0.900003,-4.90252344184083,11.3699616583445,-5.46971875700728,0.17684549,-1.0097603,-0.49968776,119.46013,-100.07772,-2.3837562,FKL
52172535136000,0.905154,-4.8592698456888,11.6422117805748,-5.68149143318137,0.10720685,-1.047023,-0.3680463,119.78851,-100.001205,-2.6936815,FKL
52172539986000,0.910004,-4.32528460535183,12.0519074792864,-6.03134385191279,-0.009468411,-1.0409144,-0.24678956,120.13928,-99.89602,-2.9697962,FKL
52172544980000,0.914998,-3.80193755405799,12.5195740759236,-6.38473257402308,-0.1414153,-1.0348058,-0.14538592,120.652565,-100.69824,-3.7125542,FKL
52172550698000,0.920716,-3.35060272359158,13.3107372478425,-6.75111022209832,-0.34269542,-1.0259482,-0.070554934,121.1391,-101.402176,-4.371778,FKL
52172555066000,0.925084,-3.01483683355773,13.887780201955,-7.01637811646994,-0.56688297,-1.0186177,-0.014660766,121.44718,-102.02154,-4.7757664,FKL
52172559978000,0.929996,-2.69816290231464,14.3519460831796,-7.21592607810771,-0.7883216,-0.9624182,0.008552114,121.729485,-102.537735,-5.136899,FKL
52172565044000,0.935062,-2.37156067599594,14.8306643963482,-7.42173022583917,-0.9636399,-0.8765916,-0.01160644,121.74129,-102.954056,-5.3828263,FKL
52172570121000,0.940139,-2.10642569800946,15.1998286916309,-7.54869984207632,-1.0516045,-0.7678576,-0.06963864,121.7355,-103.29836,-5.6141896,FKL
52172574986000,0.945004,-1.87864881612143,15.5293664179192,-7.65357942145594,-1.058324,-0.61636305,-0.12156218,121.69802,-103.58775,-5.828552,FKL
52172579980000,0.949998,-1.81286906877886,15.7314043570095,-7.66767487484036,-1.029308,-0.45234573,-0.15851954,121.43389,-103.821976,-5.98967,FKL
52172585150000,0.955168,-1.76153688919964,15.9362994858673,-7.66432042285034,-0.9483683,-0.28955013,-0.16035213,120.97086,-104.02902,-6.125063,FKL
52172589985000,0.960003,-1.83501325684816,16.0970283507885,-7.5311445844094,-0.8906415,-0.20647246,-0.16279559,120.51255,-104.22049,-6.261676,FKL
52172595090000,0.965108,-1.8992225668556,16.2834922177238,-7.38125550528115,-0.8872818,-0.07452556,-0.16432275,119.960464,-104.38573,-6.3840356,FKL
52172600071000,0.970089,-1.82626389031039,16.6354111830859,-7.14092120216824,-0.9007208,0.010079277,-0.14019357,119.42714,-104.5415,-6.493914,FKL
52172604967000,0.974985,-1.75455024237517,16.9813247053531,-6.90468816702654,-0.9407325,0.059864793,-0.11789699,118.828186,-104.65633,-6.6259446,FKL
52172609977000,0.979995,-1.72692872216044,17.2257285822081,-6.41716794340747,-0.99204516,0.09773844,-0.06078109,118.23906,-104.74513,-6.731318,FKL
52172615064000,0.985082,-1.70758115202542,17.4530627333201,-5.8754355250695,-1.0326678,0.060170226,0.038789943,117.68675,-104.80738,-6.8154783,FKL
52172620870000,0.990888,-2.19849811182738,18.0376600582845,-3.95755087567395,-1.0931433,-0.02687807,0.26328292,117.17228,-104.75272,-6.8337383,FKL
52172625482000,0.9955,-2.63880831073723,18.5252539266609,-2.41146411502253,-1.1945469,-0.26145032,0.32742378,116.72351,-104.681694,-6.878979,FKL
52172629973000,0.999991,-2.88620226380021,18.7479091044003,-3.02170245220976,-1.1976013,-0.70157874,0.4184427,116.36831,-104.503624,-6.8751607,FKL
52172635111000,1.005129,-3.16923725174001,19.0026413028473,-3.71985533051481,-1.0852021,-1.2345587,0.5012149,115.98987,-104.13329,-6.9634247,FKL
52172639986000,1.010004,-1.95646859410361,19.1435836457271,-7.27731654619621,-0.71776664,-1.7537941,0.6786713,115.76106,-103.81277,-7.0144477,FKL
52172644983000,1.015001,-0.526568116157454,19.2753493277585,-11.2888463843769,-0.28099802,-1.8145752,0.7733554,115.565315,-103.54789,-7.059591,FKL
52172650066000,1.020084,1.79640308430906,19.3446051332343,-11.2179842622585,-0.005192355,-0.8136725,0.48075095,115.19551,-103.4669,-7.164006,FKL
52172654966000,1.024984,4.12064048520059,19.405035068846,-10.743839730312,0.12217305,0.07696902,-0.15424347,114.86573,-103.49632,-7.34164,FKL
52172659977000,1.029995,7.04042881407063,19.4392927492472,-8.95299576868327,0.29993483,0.6444628,-1.0506883,114.56474,-103.96981,-7.387833,FKL
52172664988000,1.035006,10.0312805382882,19.4699454006752,-6.99120710142349,0.34147367,1.0732902,-1.8530598,114.022675,-104.50798,-7.547001,FKL
52172670088000,1.040106,10.8140740624409,17.8416320437296,-6.1376007044045,-0.45631635,1.6945401,-2.0115793,113.41769,-104.67191,-7.4174304,FKL
52172674964000,1.044982,10.6471783159886,15.6130796421739,-5.78417399569011,-1.9975294,2.1368067,-1.6960673,112.719086,-104.70248,-7.3699865,FKL
52172679971000,1.049989,9.13835627141147,15.9998965135162,-6.36862435890274,-3.2910366,1.919644,-1.0543534,112.18566,-104.145805,-6.9113054,FKL
52172685092000,1.05511,7.23045572091771,17.1250688412968,-7.22473347221945,-3.7278051,1.5937474,-0.16279559,111.60703,-103.36215,-6.3019776,FKL
52172690197000,1.060215,3.39296202317097,17.7851078651154,-8.61146255866693,-3.5992181,1.2925909,0.96974856,111.170906,-102.34356,-5.5050664,FKL
52172695074000,1.065092,-0.696468548590021,18.3147071713666,-10.0528949642082,-3.2162056,1.0564915,1.59558,110.839905,-101.25801,-4.6336584,FKL
52172700064000,1.070082,-3.55502192888283,18.6527920871935,-10.6436859355132,-2.9584203,0.4654793,2.6371052,110.67862,-100.20609,-3.594254,FKL
52172705074000,1.075092,-6.04383187801998,18.9336311789282,-10.9826286905843,-2.413834,0.031154128,2.9914072,110.53882,-99.409874,-2.5966916,FKL
52172710044000,1.080062,-7.20372562264697,18.1865917059587,-9.82831952689889,-2.0500638,-0.00580322,2.9116893,109.987564,-99.02728,-2.0281444,FKL
52172715079000,1.085097,-8.03633606835013,17.1614704298832,-8.26897942384469,-1.8741345,0.10445796,2.8533516,109.55785,-98.74172,-1.3849317,FKL
52172720091000,1.090109,-8.50098148384228,16.1678593166321,-6.97741770379484,-1.6957619,0.20952678,2.8280005,109.09558,-98.64227,-1.0315337,FKL
52172725161000,1.095179,-8.875252100504,15.1698038378298,-5.73944580667062,-1.5796975,0.37293324,2.8298333,108.61774,-98.56876,-0.6794865,FKL
52172730037000,1.100055,-8.66232886266916,14.6150783561699,-5.36113920956197,-1.7256943,0.59040123,2.9174924,108.23628,-98.323265,-0.35037044,FKL
52172735097000,1.105115,-8.27403850921474,14.1577585564904,-5.20582288798077,-2.257147,0.806953,3.0155363,107.824646,-98.005325,-0.012671707,FKL
52172740063000,1.110081,-7.95891264932961,13.2902910418436,-5.61706550111732,-3.0091221,0.8604037,3.058297,107.43455,-97.47807,0.30248317,FKL
52172745044000,1.115062,-7.70308041955307,12.0377785212291,-6.54445813407821,-3.7180314,0.7819075,2.951701,107.02093,-96.82564,0.59875214,FKL
52172750062000,1.12008,-7.59721069844789,10.8702276252772,-7.2804542594235,-4.1153994,0.66248333,2.698192,106.608,-96.065865,0.9032138,FKL
52172754995000,1.125013,-7.54920008453437,9.75725550424982,-7.93077897782705,-4.1609087,0.54000485,2.425746,106.20592,-95.23185,1.1558232,FKL
52172759986000,1.130004,-7.60245044716822,8.51429507730347,-8.3988838021978,-3.9321396,0.408058,2.1966715,105.86007,-94.50622,1.363038,FKL
52172765057000,1.135075,-7.74099955473373,7.15446265081361,-8.71703332692308,-3.608381,0.28985557,2.0653355,105.53423,-93.821335,1.5061737,FKL
52172770114000,1.140132,-7.6946426117154,5.7709823359046,-8.7843706096198,-3.3166928,0.2275473,2.0097466,105.25863,-93.31677,1.6165941,FKL
52172775099000,1.145117,-7.56124946382597,4.39417652405948,-8.7319661764295,-3.0998356,0.23884831,2.0143282,104.992935,-92.907074,1.697289,FKL
52172779969000,1.149987,-7.31794825405872,3.29540292049511,-8.39275606390328,-2.9703321,0.29077184,2.0277672,104.750565,-92.61158,1.7521738,FKL
52172785128000,1.155146,-7.00032686024755,2.26194765470159,-7.88076912233736,-2.9135218,0.34880406,2.0295997,104.50488,-92.38148,1.797905,FKL
52172789977000,1.159995,-6.51245405598321,1.57749584547241,-7.34744488555635,-2.9458976,0.36865717,2.0384574,104.27078,-92.226494,1.8689072,FKL
52172794974000,1.164992,-5.87072554597195,1.08272816938684,-6.75960197952708,-2.9914072,0.39645153,2.0809124,104.020645,-92.13266,1.9431614,FKL
52172800065000,1.170083,-5.26598459536366,0.779882150344828,-6.11165659531537,-3.091589,0.44806966,2.1206186,103.75935,-92.10755,2.0543463,FKL
52172805592000,1.17561,-4.64224430744712,0.585602382758621,-5.37543878773302,-3.159395,0.49205196,2.1997259,103.49335,-92.18132,2.1803002,FKL
52172809976000,1.179994,-4.16049179370944,0.705466924942586,-4.86737031261108,-3.1801646,0.4804455,2.2834144,103.231674,-87.57183,2.3928874,FKL
52172815049000,1.185067,-3.61232463774339,1.04018853034448,-4.3337559043335,-3.1236594,0.4474588,2.3872614,102.96208,-87.23137,2.624617,FKL
52172820107000,1.190125,-3.21164194928319,1.45583737940888,-3.91025681529851,-2.9895744,0.4034765,2.4932466,102.69869,-86.72882,2.9480097,FKL
52172825123000,1.195141,-2.92862582241752,1.93224778985664,-3.57535459141791,-2.7940977,0.37659842,2.5708263,102.436325,-86.199554,3.2834399,FKL
52172829994000,1.200012,-2.70979981939736,2.32575733363465,-3.26390194500942,-2.5854871,0.34880406,2.645352,102.1882,-85.56216,3.7132373,FKL
52172835121000,1.205139,-2.53411148140301,2.67251073013183,-2.94951208427495,-2.4013114,0.30451632,2.7134633,101.94846,-84.93818,4.1545143,FKL
52172839966000,1.209984,-2.39890302183854,2.94025392123192,-2.66351854139057,-2.2773056,0.25961772,2.7852402,101.71589,-84.27047,4.647656,FKL
52172844976000,1.214994,-2.30934666514232,3.11936654111059,-2.3858940320112,-2.1832323,0.23426682,2.8350255,101.486885,-83.6276,5.144799,FKL
52172849978000,1.219996,-2.2127838483636,3.28797996807655,-2.09181955605089,-2.1255057,0.21410827,2.8774807,101.257,-82.95187,5.668973,FKL
52172855112000,1.22513,-2.08982541361313,3.42697644497119,-1.73363627989562,-2.1267273,0.20097467,2.9055805,101.02834,-82.28446,6.193374,FKL
52172859953000,1.229971,-1.98767593561698,3.56566672621778,-1.44237329412918,-2.1517727,0.18997909,2.9107728,100.79534,-81.58845,6.7291512,FKL
52172865059000,1.235077,-1.90140865687543,3.72382351233951,-1.20753462703127,-2.2064452,0.1994475,2.9116893,100.55527,-80.89208,7.260762,FKL
52172870105000,1.240123,-1.83402793284986,3.85509836534692,-0.987972864445316,-2.2672265,0.22388211,2.888171,100.30253,-80.15923,7.7918453,FKL
52172876010000,1.246028,-1.78969153315367,3.96039706144649,-0.75520689624657,-2.339003,0.2602286,2.8506026,100.03802,-79.42768,8.307067,FKL
52172879954000,1.249972,-1.75993061629907,4.07966580430525,-0.574423405405382,-2.4174993,0.28588495,2.809064,99.75197,-78.668846,8.810238,FKL
52172885066000,1.255084,-1.7210590088884,4.33233128629907,-0.289364904457874,-2.5103507,0.30268374,2.7714956,99.45214,-77.910805,9.290924,FKL
52172889967000,1.259985,-1.68379184380238,4.5745678917865,-0.0160723158147331,-2.600148,0.35124752,2.7418687,99.12343,-77.126,9.754803,FKL
52172894977000,1.264995,-1.64569584358183,4.82219192636965,0.263298398142038,-2.6435194,0.40133846,2.692694,98.784035,-76.35251,10.18917,FKL
52172899991000,1.270009,-1.60756942739303,5.07001366477283,0.542892162569034,-2.7171285,0.4361578,2.6624563,98.431625,-75.56244,10.612173,FKL
52172905095000,1.275113,-1.45571806646839,5.11194746331283,0.82457378295796,-2.7791314,0.47739118,2.624277,98.058334,-74.78523,11.0039215,FKL
52172909962000,1.27998,-1.28185159398125,5.09785018971671,1.09242215792721,-2.7864618,0.50854534,2.5876253,97.6724,-74.017235,11.373807,FKL
52172915055000,1.285073,-1.000157645387,4.89418293412797,1.36594914299278,-2.7162123,0.52748215,2.5326474,97.21128,-73.216484,11.669704,FKL
52172920084000,1.290102,-0.696972158204334,4.64567025417957,1.63434287678019,-2.6224444,0.5338962,2.4474316,96.742386,-72.43679,11.932944,FKL
52172924990000,1.295008,-0.374168056461094,4.0911498128182,1.85993383166637,-2.4868324,0.5329799,2.3649647,96.244896,-71.63893,12.190516,FKL
52172929981000,1.299999,-0.041938949888247,3.48278227962629,2.08429635685142,-2.312125,0.56046885,2.2397375,95.741714,-70.898575,12.39815,FKL
52172935067000,1.305085,0.460880027166134,2.90165000159744,2.38008641469649,-2.1135938,0.63529986,2.0839667,95.17685,-70.15273,12.587561,FKL
52172939997000,1.310015,1.03408101830351,2.35861758945687,2.70188342300319,-1.9724839,0.6979135,1.9523253,94.614334,-69.45509,12.737134,FKL
52172945219000,1.315237,1.52819295895823,1.81032711912531,3.01077587863391,-1.8616118,0.7415904,1.8374827,93.882805,-68.779076,12.786239,FKL
52172950086000,1.320104,1.95879436238821,1.30643180483538,3.29020878822604,-1.777007,0.763887,1.7446312,93.16179,-68.144714,12.798636,FKL
52172954988000,1.325006,2.33766142642634,0.834527411266283,3.68717713543371,-1.7229455,0.77518797,1.6615535,92.64017,-67.270645,13.153208,FKL
52172959973000,1.329991,2.70404221411693,0.366909780745229,4.13069076822175,-1.6743816,0.7690793,1.5855007,92.11973,-66.433266,13.472934,FKL
52172965061000,1.335079,3.00766055968853,-0.0349555820783389,4.67537993057102,-1.600467,0.7315111,1.5005904,91.63193,-65.46783,13.919369,FKL
52172970101000,1.340119,3.28555526624823,-0.408518845579991,5.24483590187824,-1.5693128,0.6826419,1.4410311,91.14632,-64.514,14.344849,FKL
52172974976000,1.344994,3.50194111549485,-0.760291854134021,5.8067218204433,-1.5244142,0.627664,1.3811663,90.64777,-63.433163,14.839834,FKL
52172979977000,1.349995,3.69450297068041,-1.11579082630928,6.38934517748454,-1.475545,0.5516113,1.3292428,90.16472,-62.36998,15.319612,FKL
52172985053000,1.355071,3.87252772296624,-1.347367157886,6.84392413718871,-1.4150693,0.5137377,1.2556335,89.63429,-61.160152,15.824458,FKL
52172989988000,1.360006,4.0381740794964,-1.51737267338129,7.22752643920863,-1.3762794,0.44776422,1.2241739,89.12295,-59.960598,16.327797,FKL
52172994974000,1.364992,4.11269076327207,-1.70070905209446,7.61521302061338,-1.3255776,0.37720928,1.1542299,88.57021,-58.642445,16.828276,FKL
52173000072000,1.37009,4.10225631546271,-1.89896268883308,8.01172013065826,-1.2712106,0.31245756,1.0815369,88.02829,-57.345383,17.314281,FKL
52173005000000,1.375018,3.86733487799282,-1.95698761468476,8.35930814939146,-1.2165382,0.22357668,1.0048733,87.473236,-55.966785,17.809387,FKL
52173010053000,1.380071,3.51009453280128,-1.94733247294493,8.69723836233041,-1.162782,0.13316862,0.92485,86.93828,-54.622963,18.279985,FKL
52173015410000,1.385428,3.25598924750221,-1.72386567264697,8.91389292982628,-1.103528,0.025961773,0.8671232,86.390495,-53.23065,18.712122,FKL
52173020074000,1.390092,3.08502217728923,-1.44330444402787,9.04540591991363,-1.044885,-0.06291912,0.8142834,85.86775,-51.8763,19.122057,FKL
52173025060000,1.395078,3.27919965922379,-0.758436706167814,9.15464324214307,-0.95905846,-0.09162979,0.7761043,85.31653,-50.540955,19.390268,FKL
52173030045000,1.400063,3.698351072174,0.156075265886461,9.24514165728824,-0.8713993,-0.07574729,0.6942484,84.793846,-49.249928,19.630169,FKL
52173035109000,1.405127,4.50306100291927,1.64810363072386,9.20209366170192,-0.79901177,-0.0030543262,0.5833763,84.274704,-48.04235,19.751484,FKL
52173040000000,1.410018,5.503024714507,3.42013233737265,9.0811682882534,-0.7641924,0.12583824,0.4382958,83.76637,-46.879005,19.824984,FKL
52173044972000,1.41499,6.29884041260253,5.30288917514233,8.84074223554955,-0.782213,0.24953845,0.26358834,83.31528,-45.858074,19.917894,FKL
52173050066000,1.420084,6.95789626341793,7.28947150921548,8.5112145559201,-0.852157,0.28710666,0.109650314,82.88666,-44.8685,19.970379,FKL
52173055001000,1.425019,7.42454708337068,8.64267156609839,8.2244007338529,-0.9056077,0.24556783,-0.034208454,82.5885,-44.172276,20.18662,FKL
52173059977000,1.429995,7.74022995261568,9.49223012976132,7.96442618421822,-0.9114109,0.13072516,-0.11942416,82.322426,-43.504356,20.379179,FKL
52173065062000,1.43508,7.90807627434684,9.72551981588151,7.69174791400946,-0.93034774,-0.025961773,-0.06047566,82.18099,-43.19116,20.680195,FKL
52173070136000,1.440154,7.90307805554413,9.25068850771446,7.41184755667558,-0.9624182,-0.19486602,0.1563815,82.05308,-42.872375,20.999432,FKL
52173075079000,1.445097,7.84423461618684,8.63670162421354,7.27317673899905,-1.0274754,-0.31490102,0.45631635,81.96023,-42.692574,21.408768,FKL
52173079976000,1.449994,7.74140853990467,7.90350728560534,7.24635261622498,-1.1640037,-0.34269542,0.7602218,81.83734,-42.456203,21.847618,FKL
52173085072000,1.45509,7.65949738841847,7.20134334398616,7.27461074769189,-1.3622295,-0.3576616,0.8848383,81.711876,-42.128597,22.35541,FKL
52173089987000,1.460005,7.61235446981699,6.60134325339161,7.37318207287626,-1.4920384,-0.310625,1.1007792,81.49538,-41.732174,22.908108,FKL
52173094954000,1.464972,7.59025441579965,5.98665240792019,7.43039795357834,-1.7644843,-0.2660318,1.2858714,81.23624,-41.1276,23.488522,FKL
52173100070000,1.470088,7.66008346696529,5.32327808846585,7.33563023829787,-2.010663,-0.23915374,1.4379768,80.93025,-40.48272,24.074753,FKL
52173104976000,1.474994,7.69690512583708,4.64049745427286,7.14206665975013,-2.1743748,-0.19914207,1.5885551,80.53579,-39.662518,24.687712,FKL
52173109979000,1.479997,7.64901633983009,3.81202090629685,6.65360064243878,-2.254398,-0.13897185,1.7061466,80.10146,-38.802673,25.289953,FKL
52173115078000,1.485096,7.50389285517724,2.99925580461754,6.18478573759328,-2.2220223,-0.046120327,1.7663169,79.61119,-37.83606,25.932158,FKL
52173120089000,1.490107,7.10995014527985,2.28299641281716,5.79979631041045,-2.126422,0.058948494,1.7705929,79.08703,-36.87507,26.546017,FKL
52173124992000,1.49501,6.71950254842095,1.63423146556066,5.44186102423546,-1.9859229,0.15149458,1.7330247,78.52824,-35.861824,27.206598,FKL
52173130881000,1.500899,6.20659012932241,1.31295667623426,5.17695025058965,-1.8570304,0.26053402,1.7015651,77.936226,-34.882378,27.820808,FKL
52173135126000,1.505144,5.85805000669885,1.1022224442715,5.01621737315535,-1.7528778,0.38973203,1.6844609,77.302315,-33.882843,28.390417,FKL
52173139986000,1.510004,5.5783594244902,0.978424920086691,5.00246210332972,-1.6826283,0.54428095,1.6578883,76.6458,-32.923576,28.905073,FKL
52173144980000,1.514998,5.29076734355768,0.85405432491941,5.01034073039953,-1.6392568,0.68019843,1.5842791,75.97464,-32.001125,29.323673,FKL
52173150062000,1.52008,4.99600340060565,0.758969196444271,5.26231633823386,-1.6084082,0.7629707,1.5057828,75.28874,-31.106607,29.699465,FKL
52173155189000,1.525207,4.70258418723234,0.667747046055633,5.52939171843106,-1.5873333,0.77946407,1.393689,74.60312,-30.24205,29.98373,FKL
52173159976000,1.529994,4.47322567264359,0.635636852097258,5.92388836927156,-1.5338826,0.7687739,1.2760975,73.9293,-29.414795,30.229073,FKL
52173165192000,1.53521,4.23834886821238,0.607135853254894,6.35904233760134,-1.4825699,0.70249504,1.1566733,73.26525,-28.600359,30.37698,FKL
52173170079000,1.540097,4.18744690251137,0.653410176887483,6.8264130517105,-1.4291192,0.6020077,1.0445796,72.64186,-27.82561,30.507948,FKL
52173175319000,1.545337,4.15050735815126,0.700217486890756,7.32200801344538,-1.3570372,0.47525316,0.95325524,72.030235,-27.070965,30.546265,FKL
52173179984000,1.550002,4.30067819456583,0.712731708739496,7.70577765770308,-1.3093897,0.38912117,0.90041536,71.45333,-26.34393,30.579538,FKL
52173185077000,1.555095,4.4646267625957,0.726394073557423,8.1247570356676,-1.2880094,0.24465153,0.8741482,70.89395,-25.628418,30.574903,FKL
52173189981000,1.559999,4.76009535723058,0.633694275523488,8.46856220632484,-1.2614367,0.10842858,0.829555,70.37196,-24.94667,30.572712,FKL
52173194958000,1.564976,5.07717090451336,0.526376402683451,8.81002841541296,-1.255328,-0.01038471,0.8078693,69.87518,-24.275412,30.595263,FKL
52173200957000,1.570975,5.57491762910053,0.381231220899471,9.04326725485009,-1.2501358,-0.121256754,0.806953,69.38001,-23.588993,30.628841,FKL
52173204966000,1.574984,5.91348392475015,0.283423193027631,9.1899791356065,-1.2986995,-0.13836098,0.8145888,68.89602,-22.905174,30.660273,FKL
52173209975000,1.579993,6.48579737119809,0.202738786748556,9.16671482867357,-1.3130548,-0.15332718,0.8200866,68.40842,-22.182474,30.748247,FKL
52173215065000,1.585083,7.08903352574938,0.126775718199652,9.11309369199743,-1.3451253,-0.15790866,0.8240572,67.92364,-21.457748,30.830729,FKL
52173220084000,1.590102,7.38613269352214,0.0908405150956356,8.93116604781781,-1.3836098,-0.15668693,0.82344633,67.430855,-20.68313,30.982534,FKL
52173224977000,1.594995,7.55944716926979,0.0710331309267674,8.70338146338371,-1.41904,-0.14966199,0.8164214,66.94281,-19.919315,31.1237,FKL
52173229969000,1.599987,7.67298898214634,0.0146501791219512,8.48156105585366,-1.4395039,-0.14446963,0.8038987,66.46281,-19.126293,31.39172,FKL
52173235057000,1.605075,7.77281971182439,-0.0519034917463415,8.25813059497561,-1.42973,-0.12950343,0.7715228,65.99302,-18.355267,31.638908,FKL
52173239982000,1.61,7.82153242242817,-0.0744695110318196,8.01409479165894,-1.4144585,-0.13805555,0.7339546,65.533745,-17.602211,31.938883,FKL
52173244955000,1.614973,7.85586225356812,-0.0842780685984966,7.7590725304912,-1.3967434,-0.16615535,0.698219,65.0881,-16.874249,32.223534,FKL
52173250070000,1.620088,7.79229337413708,-0.0979021057960468,7.48682356248402,-1.3582588,-0.20280726,0.6762278,64.65315,-16.167702,32.547703,FKL
52173254985000,1.625003,7.70897549666634,-0.111788428374471,7.22298347216049,-1.2767084,-0.23976462,0.6713409,64.230125,-15.494056,32.86461,FKL
52173259974000,1.629992,7.57018616164878,-0.0831596808737772,6.98346701617437,-1.1972959,-0.2837469,0.65148777,63.830708,-14.856017,33.214954,FKL
52173265065000,1.635083,7.41274588663691,-0.0414843361439833,6.74730670036091,-1.106277,-0.30970868,0.659429,63.427814,-14.249441,33.560013,FKL
52173270770000,1.640788,7.22882164333506,0.0453110414645262,6.61333311030554,-1.0173961,-0.33567044,0.6627888,63.043533,-13.685698,33.92276,FKL
52173275060000,1.645078,7.08839810195754,0.121905656772657,6.54950408648369,-0.94134337,-0.35155296,0.6728681,62.65717,-13.148559,34.279716,FKL
52173279970000,1.649988,6.9804845377566,0.176054569882698,6.5767455891129,-0.89827734,-0.35613444,0.66798115,62.2788,-12.657771,34.632362,FKL
52173285135000,1.655153,6.88529148616202,0.221384677397361,6.64020792328629,-0.88361657,-0.355829,0.6737844,61.89545,-12.18317,34.979618,FKL
52173289978000,1.659996,6.81832239566307,0.233601250018525,6.78765494707421,-0.89949906,-0.34269542,0.6969972,61.509228,-11.742273,35.29766,FKL
52173294981000,1.664999,6.76611281693364,0.22315931791762,7.00693501418764,-0.9279043,-0.30848694,0.7076874,61.12475,-11.310516,35.600285,FKL
52173300081000,1.670099,6.78891420681818,0.191600965309478,7.20241128336557,-0.98624194,-0.26267207,0.7281514,60.71905,-10.883093,35.864983,FKL
52173304988000,1.675006,6.83814963219697,0.153727507022888,7.38041658397808,-1.0348058,-0.19792034,0.73945236,60.310677,-10.458709,36.106644,FKL
52173309968000,1.679986,6.90652315225435,0.0953882652385067,7.56968518280713,-1.0870347,-0.13439035,0.7516697,59.871468,-10.02195,36.29854,FKL
52173315001000,1.685019,7.03467207463166,-0.0274212580008862,7.78860668831284,-1.1533136,-0.08124508,0.7458665,59.433846,-9.58037,36.467236,FKL
52173320127000,1.690145,7.18602026122204,-0.10910636940635,7.97491080130791,-1.196685,-0.032070424,0.72295904,58.984962,-9.125752,36.595135,FKL
52173325051000,1.695069,7.35551145978434,-0.137354892340056,8.11144517035743,-1.2220359,0.016493361,0.6908886,58.54247,-8.672024,36.700745,FKL
52173329966000,1.699984,7.54200587132112,-0.143310405039537,8.2139576174542,-1.2373075,0.052534413,0.65148777,58.08814,-8.195103,36.79037,FKL
52173335116000,1.705134,7.76078561866924,-0.119530004412729,8.27578667000964,-1.237613,0.0870483,0.6221663,57.64446,-7.7298207,36.85942,FKL
52173340365000,1.710383,7.97837774216343,-0.108973581502915,8.34169782421025,-1.2134838,0.10476339,0.605062,57.1961,-7.270337,36.93303,FKL
52173344976000,1.714994,8.16283668213384,-0.116659361305369,8.40318451205291,-1.1820242,0.105374254,0.6078109,56.756477,-6.824396,36.995472,FKL
52173350101000,1.720119,8.37487937971825,-0.129279169120336,8.47328629013872,-1.119716,0.08674286,0.59131753,56.330746,-6.4074435,37.083107,FKL
52173354987000,1.725005,8.65163746811485,-0.184630823579955,8.55882938401979,-1.0467176,0.056199603,0.58551437,55.907238,-6.007584,37.1686,FKL
52173359986000,1.730004,8.91705573675015,-0.239213795317414,8.6399475521258,-0.9786061,-0.002443461,0.57879484,55.49251,-5.6260505,37.29197,FKL
52173365000000,1.735018,9.11281929237041,-0.285824274168123,8.69588027470394,-0.8958339,-0.055283304,0.5907067,55.080227,-5.2712183,37.4164,FKL
52173370054000,1.740072,9.29888079521277,-0.336984875957447,8.74210851104746,-0.8194757,-0.09162979,0.5983425,54.66898,-4.924381,37.582664,FKL
52173375000000,1.745018,9.42001175531915,-0.40966318893617,8.73241787234042,-0.7648033,-0.12461651,0.6056729,54.26112,-4.5978155,37.755585,FKL
52173379977000,1.749995,9.5338712664923,-0.484643183283929,8.70994582272595,-0.70341134,-0.17562376,0.6114761,53.848534,-4.283673,37.964657,FKL
52173385084000,1.755102,9.61441473660758,-0.569924334631406,8.6294028473312,-0.68233645,-0.18936823,0.6258314,53.43535,-3.9777668,38.164326,FKL
52173390065000,1.760083,9.67569022681224,-0.655861914507721,8.56101980918658,-0.6462954,-0.1826487,0.6383542,53.023983,-3.6782749,38.38556,FKL
52173394991000,1.765009,9.62928979718698,-0.75794295658503,8.55637966932232,-0.64721173,-0.16310102,0.63255095,52.619076,-3.3833072,38.59803,FKL
52173400072000,1.77009,9.57790879996458,-0.861703145966528,8.54896653581865,-0.65118235,-0.1328632,0.6230826,52.200603,-3.0809164,38.82592,FKL
52173404999000,1.775017,9.4985222779598,-0.949446327672009,8.51971866315417,-0.6658431,-0.08827003,0.6059783,51.79151,-2.7857091,39.034782,FKL
52173410002000,1.78002,9.41791120233773,-1.03854296620916,8.49001963596919,-0.6960809,-0.03268129,0.5849035,51.36762,-2.4761329,39.22164,FKL
52173414995000,1.785013,9.2828882803705,-1.11826831329839,8.48302534922897,-0.71593404,0.02565634,0.55771995,50.957073,-2.177214,39.386784,FKL
52173420260000,1.790278,9.12892032347702,-1.20038446765739,8.48045916748944,-0.7348709,0.08002335,0.52595496,50.560898,-1.8836896,39.529736,FKL
52173425049000,1.795067,8.98887235660848,-1.27507663541147,8.47812499002494,-0.7461719,0.13713925,0.48716503,50.173676,-1.581042,39.64061,FKL
52173430073000,1.800091,8.84195212575703,-1.35343400663647,8.47567627263474,-0.75502944,0.18753563,0.4465425,49.79382,-1.2880594,39.735397,FKL
52173435057000,1.805075,8.69015844943148,-1.40354952758827,8.41437399251945,-0.7461719,0.24465153,0.39828414,49.436577,-1.0118402,39.80672,FKL
52173439968000,1.809986,8.54004721484141,-1.45045922716936,8.34870051107121,-0.7302894,0.29565877,0.35369098,49.098675,-0.7485042,39.860996,FKL
52173444976000,1.814994,8.42425650883253,-1.41350376815356,8.32031337491365,-0.68600166,0.33750305,0.2996294,48.766956,-0.48096362,39.86146,FKL
52173449981000,1.819999,8.31309493032665,-1.36620098612948,8.29666174928452,-0.65026605,0.3484986,0.2519819,48.45508,-0.22805977,39.854122,FKL
52173454981000,1.824999,8.20204440234876,-1.3189454596319,8.27303375165302,-0.5925393,0.35002577,0.20647246,48.163082,0.0046009854,39.823,FKL
52173459959000,1.829977,8.09148249669397,-1.2718978574509,8.24950971721109,-0.54244834,0.34208453,0.16126843,47.89359,0.21746519,39.79077,FKL
52173465060000,1.835078,8.05555161872781,-1.02032180054303,8.2593939182577,-0.4783075,0.31612277,0.13500121,47.625576,0.40618703,39.76753,FKL
52173470123000,1.840141,8.03461779200326,-0.73190031704989,8.27567586174806,-0.42302418,0.27397305,0.112704635,47.37697,0.5743568,39.75083,FKL
52173475065000,1.845083,8.01418426016982,-0.45037178230308,8.29156868511945,-0.36957347,0.2510656,0.10354166,47.129627,0.70189804,39.7117,FKL
52173480035000,1.850053,7.99363495761777,-0.167248185036458,8.30755155281589,-0.35063666,0.2171626,0.10170906,46.891357,0.81981033,39.68784,FKL
52173485083000,1.855101,8.00636670151648,0.0553373151083892,8.31910446553903,-0.30848694,0.18051068,0.09712757,46.660957,0.91667175,39.671333,FKL
52173490761000,1.860779,8.03808269475066,0.272063420111986,8.32967613210849,-0.2751948,0.15271631,0.098043874,46.43252,1.0101323,39.661766,FKL
52173495052000,1.86507,8.07992940677875,0.412612896566717,8.30928628774898,-0.25961772,0.12492194,0.100792766,46.195156,0.9616061,39.652664,FKL
52173500101000,1.870119,8.13688853940887,0.567956546896552,8.27303978817734,-0.25503623,0.10995574,0.10934488,45.962067,0.9119805,39.647614,FKL
52173505054000,1.875072,8.16443034225,0.661611775458,8.19922693525,-0.26297748,0.100792766,0.115453534,45.73011,0.81958145,39.651535,FKL
52173510048000,1.880066,8.18356110775,0.738134268142,8.11313911475,-0.2761111,0.11789699,0.11453723,45.506786,0.73178405,39.651665,FKL
52173515058000,1.885076,8.19153089917942,0.783459770947815,8.04870190664761,-0.30207285,0.122783914,0.11484267,45.286198,0.623396,39.669956,FKL
52173520224000,1.890242,8.19609223045362,0.819951611903006,7.98940269486447,-0.29932398,0.13103059,0.10293079,45.0809,0.51404256,39.68159,FKL
52173525086000,1.895104,8.21240446743138,0.818523723384883,7.93272273938959,-0.312763,0.13194689,0.09468412,44.872448,0.4064278,39.711723,FKL
52173530048000,1.900066,8.23673879844326,0.794189377127202,7.87432044659975,-0.31429017,0.13225232,0.10445796,44.672382,0.3014987,39.73843,FKL
52173535070000,1.905088,8.24874657975865,0.77283208852449,7.81558342391238,-0.30482176,0.1301143,0.09621128,44.4703,0.18753171,39.7773,FKL
52173540040000,1.910058,8.25357344214583,0.753525006899909,7.75766228487983,-0.3005457,0.14385876,0.071776666,44.28205,0.078587316,39.809975,FKL
52173545056000,1.915074,8.27724019124606,0.740695740063091,7.69399394617508,-0.2843578,0.15760323,0.059864793,44.098812,-0.017597979,39.858234,FKL
52173550068000,1.920086,8.31036267310726,0.731232230283912,7.62774947653786,-0.27763826,0.1908954,0.036651913,43.938526,-0.11531245,39.895245,FKL
52173555127000,1.925145,8.33133070510085,0.715723279519007,7.56764281206362,-0.25809056,0.22357668,0.014660766,43.796135,-0.21108146,39.934685,FKL
52173560730000,1.930748,8.34694162373933,0.694909156012413,7.50520022420481,-0.23823744,0.23854288,0.014966198,43.661526,-0.3051777,39.968407,FKL
52173565064000,1.935082,8.30155246155374,0.651089675223525,7.45885977428969,-0.21563543,0.26450464,-0.002443461,43.513294,-0.40152615,40.013493,FKL
52173570166000,1.940184,8.21417931770316,0.583132971408703,7.40546515974568,-0.19761491,0.27366763,-0.0061086523,43.367535,-0.49532035,40.05758,FKL
52173575103000,1.945121,8.07553462990844,0.52760119754527,7.3614351343235,-0.17592919,0.27977628,-0.019547688,43.25749,-0.5919028,40.098022,FKL
52173580049000,1.950067,7.89724617293998,0.479415147268566,7.32288632227874,-0.16035213,0.27916542,-0.02565634,43.15171,-0.6874562,40.1367,FKL
52173585168000,1.955186,7.71505750405367,0.437288055694038,7.2735056192384,-0.15118915,0.24862215,-0.03604105,43.054512,-0.7729482,40.17582,FKL
52173590059000,1.960077,7.54244425626004,0.401880196602098,7.2203938791269,-0.122478485,0.22113322,-0.03726278,42.960762,-0.8629979,40.21357,FKL
52173595044000,1.965062,7.34808134067272,0.403607097570616,7.17849214164088,-0.09896017,0.19364429,-0.04428773,42.8431,-0.94869184,40.24466,FKL
52173600052000,1.97007,7.13266756157301,0.446689823399541,7.14977039440064,-0.06383542,0.17379116,-0.049480084,42.730736,-1.0403743,40.280785,FKL
52173605089000,1.975107,6.9353853800079,0.496640962033764,7.12331397292921,-0.04062254,0.14660765,-0.04520403,42.61295,-1.1263672,40.30744,FKL
52173610054000,1.980072,6.76169552370422,0.552972913835522,7.09984220380097,-0.014049901,0.12308934,-0.04917465,42.50562,-1.2204046,40.338257,FKL
52173615037000,1.985055,6.59017690821091,0.622901043050916,7.08253515576575,0.0018325958,0.12095132,-0.05375614,42.371677,-1.3265905,40.349083,FKL
52173620206000,1.990224,6.4158371175488,0.712561431030388,7.07257268585228,0.02107485,0.11911872,-0.05131268,42.243587,-1.434972,40.36634,FKL
52173625077000,1.995095,6.27440230768439,0.801480368434207,7.0742556606714,0.04886922,0.12339478,-0.04520403,42.127617,-1.5601387,40.357628,FKL
52173630519000,2.000537,6.14414173691252,0.906199623626562,7.08958060470473,0.058337633,0.1160644,-0.04550946,42.01946,-1.681986,40.353107,FKL
52173635000000,2.005018,6.03688381379074,0.992426559039451,7.10219932469983,0.06047566,0.1151481,-0.03756821,41.921093,-1.8149078,40.325603,FKL
52173640059000,2.010077,5.91579079145798,1.08977582622396,7.11644572158785,0.055283304,0.119729586,-0.032070424,41.829033,-1.9442834,40.299377,FKL
52173644954000,2.014972,5.8151514413004,1.18062929338903,7.13613884480567,0.05375614,0.13164146,-0.029321533,41.739914,-2.0696142,40.272133,FKL
52173650067000,2.020085,5.73955899576825,1.26956178436251,7.1672651377134,0.04184427,0.1414153,-0.02565634,41.653034,-2.1861997,40.245026,FKL
52173654958000,2.024976,5.67062343866417,1.35254535198942,7.19807817599471,0.032070424,0.16371189,-0.024740042,41.59274,-2.3302772,40.17693,FKL
52173660053000,2.030071,5.61684398126309,1.42783612064367,7.23572356032183,-0.0030543262,0.18325958,-0.025350908,41.534824,-2.4611104,40.108406,FKL
52173664980000,2.034998,5.58894642776245,1.49102362816901,7.26569776450317,-0.026572637,0.20433442,-0.018325957,41.48717,-2.6060493,40.017544,FKL
52173670213000,2.040231,5.60592575373893,1.53953574929577,7.28510259269154,-0.046731193,0.22785273,-0.02076942,41.445038,-2.741105,39.922333,FKL
52173675081000,2.045099,5.62172077740671,1.58466416619718,7.30315394060307,-0.0720821,0.24098633,-0.02443461,41.410244,-2.8749504,39.816338,FKL
52173680049000,2.050067,5.63784026746043,1.63071962535211,7.3215761050288,-0.09193522,0.26511553,-0.028405234,41.37704,-3.001456,39.702934,FKL
52173685077000,2.055095,5.67092942522996,1.66521921103811,7.33812437792378,-0.10781772,0.2706133,-0.030543262,41.34702,-3.1307445,39.58534,FKL
52173690058000,2.060076,5.75772187752957,1.66039741372688,7.34776797254624,-0.105068825,0.2733622,-0.022602014,41.31504,-3.2541218,39.464645,FKL
52173694988000,2.065006,5.84559106914465,1.65564297176195,7.35040911095188,-0.11301007,0.28038713,-0.0143553335,41.297134,-3.3836029,39.344852,FKL
52173700233000,2.070251,5.94556692315271,1.65064415818281,7.33041396102901,-0.105374254,0.27030787,0.010079277,41.271175,-3.5081477,39.232586,FKL
52173705001000,2.075019,6.03645059749216,1.64609995548589,7.31223724514107,-0.102319926,0.267559,0.027794369,41.24539,-3.6246517,39.1302,FKL
52173710052000,2.08007,6.13272858387819,1.64128603606011,7.29298166797034,-0.08979719,0.25381452,0.047647487,41.21129,-3.736023,39.036945,FKL
52173715081000,2.085099,6.22828583767063,1.62299924375921,7.28287616753413,-0.07971791,0.23457226,0.070249505,41.176754,-3.8426204,38.94578,FKL
52173720201000,2.090219,6.32458990523421,1.560401549563,7.30213698104684,-0.058948494,0.21319197,0.08857546,41.137978,-3.9477832,38.86189,FKL
52173725111000,2.095129,6.40831820012014,1.49311501714057,7.31167530428514,-0.058948494,0.18692477,0.116980694,41.102997,-4.0530066,38.809162,FKL
52173730048000,2.100066,6.46038936390669,1.39844008402082,7.28800657100521,-0.049480084,0.17654006,0.12675454,41.069733,-4.1613812,38.75963,FKL
52173735064000,2.105082,6.50744675319571,1.30433718846765,7.27359145319571,-0.04184427,0.15454891,0.15118915,41.02721,-4.2439604,38.734707,FKL
52173740066000,2.110084,6.53121767102025,1.21876178501389,7.29736237102025,-0.048258353,0.1441642,0.16615535,40.986202,-4.3226476,38.71042,FKL
52173745045000,2.115063,6.54746628816516,1.13310237584816,7.32128450172701,-0.060170226,0.12889257,0.18417588,40.93341,-4.382325,38.70093,FKL
52173750068000,2.120086,6.5305979559481,1.04454356565705,7.34658691198387,-0.07391469,0.11362094,0.18936823,40.882244,-4.4377565,38.694927,FKL
52173755065000,2.125083,6.51381693741562,0.95644315265188,7.37175835216972,-0.0852157,0.105374254,0.19028452,40.827892,-4.46016,38.69744,FKL
52173760050000,2.130068,6.4359101044155,0.862245630064025,7.37891099933768,-0.10629055,0.11301007,0.19486602,40.77218,-4.474954,38.699905,FKL
52173765051000,2.135069,6.35253992664421,0.766247036965135,7.38414866145008,-0.118202426,0.1142318,0.19181168,40.72133,-4.489837,38.70617,FKL
52173770157000,2.140175,6.27988881925515,0.659691755784469,7.38899217987322,-0.124311075,0.12064589,0.18203785,40.656826,-4.483091,38.701878,LYI
52173775228000,2.145246,6.20620196871653,0.556342895349875,7.39695338004284,-0.11484267,0.1301143,0.17898351,40.578453,-4.4611626,38.684204,LYI
52173780055000,2.150073,6.12368254253838,0.477949666665477,7.42996085755087,-0.112704635,0.14172074,0.15974127,40.511074,-4.4412575,38.663445,LYI
52173785285000,2.155303,6.03427367597287,0.393011488496965,7.46572408675473,-0.105374254,0.15515977,0.14844026,40.42632,-4.4052677,38.628178,LYI
52173789988000,2.160006,5.96452155798023,0.335640408601695,7.4936249958636,-0.095294975,0.15577064,0.13683382,40.35047,-4.374437,38.59313,LYI
52173794984000,2.165002,5.89211589894068,0.277715810805085,7.52258738044794,-0.06872234,0.16707164,0.12003502,40.28135,-4.352324,38.551296,LYI
52173800078000,2.170096,5.8281449480916,0.228139449724016,7.53937333505578,-0.048258353,0.1695151,0.10170906,40.218037,-4.3270726,38.48272,LYI
52173804970000,2.174988,5.76853972468193,0.182289239569387,7.55312838661186,-0.029626964,0.16890424,0.089186326,40.15943,-4.3094277,38.41282,LYI
52173809975000,2.179993,5.71021724230769,0.168595540192308,7.57124831923077,-0.029626964,0.15485434,0.06872234,40.1333447243545,-4.30208340760642,38.3739340788555,LYI
52173815001000,2.185019,5.65236508269231,0.163774526891026,7.5905323724359,-0.0027488936,0.14508049,0.051618114,40.10715,-4.2947083,38.334885,LYI
52173820155000,2.190173,5.62142719040389,0.209154668118735,7.6059949902871,-0.00580322,0.13316862,0.036957346,40.051537,-4.2755313,38.25564,LYI
52173825086000,2.195104,5.59844733868613,0.264305889927007,7.61978297810219,0.0070249503,0.13133603,0.02565634,40.000454,-4.262453,38.169926,LYI
52173829975000,2.199993,5.61306991789052,0.314787974913218,7.62650747089453,0.0027488936,0.118507855,0.011301007,39.954872,-4.2475557,38.080193,LYI
52173835064000,2.205082,5.64095653137517,0.365913284138852,7.63115512656876,-0.0015271631,0.094989546,-0.009162978,39.91641,-4.2382293,37.995445,LYI
52173839983000,2.210001,5.70136053978628,0.418165365279593,7.61038290974167,-0.016493361,0.08582657,-0.01282817,39.8743,-4.234723,37.90922,LYI
52173844972000,2.21499,5.78066954289864,0.47269028033406,7.57568505913476,-0.03634648,0.06566802,-0.01740966,39.84129,-4.2321906,37.834053,LYI
52173850163000,2.220181,5.84609343528715,0.527419915668048,7.54440285640418,-0.0421497,0.04734206,-0.018020526,39.816643,-4.2381682,37.76678,LYI
52173854987000,2.225005,5.90079856637063,0.577566328669824,7.51705038606671,-0.0580322,0.04062254,-0.011301007,39.79129,-4.2362533,37.703514,LYI
52173859975000,2.229993,5.95535230038791,0.607175031190282,7.49145015663536,-0.07513642,0.022602014,0.0015271631,39.78656,-4.234899,37.66811,LYI
52173865105000,2.235123,6.01051954324214,0.627235860579829,7.46637411335239,-0.09101892,0.016798794,0.014966198,39.77867,-4.2286515,37.632217,LYI
52173870100000,2.240118,6.0169353203992,0.618317274388311,7.4465803690001,-0.09468412,0.014049901,0.021380283,39.778923,-4.230507,37.613853,LYI
52173875209000,2.245227,6.00758991476459,0.599626467998281,7.42788946014707,-0.09132435,0.011301007,0.022296581,39.776386,-4.228894,37.59776,LYI
52173879975000,2.249993,5.99267536640625,0.602748810527097,7.42502065377769,-0.108123146,0.005497787,0.036651913,39.77166,-4.222627,37.59507,LYI
52173885458000,2.255476,5.9719042203125,0.618327205342168,7.43021356230222,-0.099265605,0.005497787,0.034208454,39.772526,-4.225664,37.5912,LYI
52173889979000,2.259997,5.94181368805955,0.610224009258832,7.43773621197191,-0.10598512,0.017715093,0.03573562,39.75325,-4.210532,37.592014,LYI
52173894976000,2.264994,5.90167917121292,0.590156808458958,7.44776981499109,-0.09437868,0.007941248,0.03756821,39.735962,-4.2022133,37.598858,LYI
52173900083000,2.270101,5.86556755183747,0.58073257982671,7.46801882876207,-0.076052725,0.018020526,0.037873644,39.719494,-4.196518,37.59312,LYI
52173904985000,2.275003,5.83284000131461,0.576057181989842,7.49139572030674,-0.08032878,0.018020526,0.040011674,39.702793,-4.18784,37.59308,LYI
52173909977000,2.279995,5.81360773139577,0.556426770373542,7.50470007359694,-0.074830994,0.01282817,0.03848451,39.66878,-4.1840467,37.586365,LYI
52173915054000,2.285072,5.80031825834548,0.529847981541545,7.51355956811224,-0.06291912,0.024740042,0.03573562,39.63472,-4.180593,37.574856,LYI
52173920236000,2.290254,5.78538016052061,0.505696930928417,7.52351842559653,-0.062002823,0.02687807,0.0421497,39.59853,-4.18338,37.552822,LYI
52173925068000,2.295086,5.77032339696312,0.485620971917571,7.53355661735358,-0.058337633,0.019242255,0.03634648,39.568375,-4.1916304,37.53033,LYI
52173929971000,2.299989,5.77597488172159,0.463501887365226,7.53387924629095,-0.05100725,0.017715093,0.04428773,39.526554,-4.1915193,37.50299,LYI
52173935069000,2.305087,5.79270879276306,0.439596206377124,7.52909801473829,-0.055588737,0.013133603,0.04062254,39.492115,-4.1922398,37.478764,LYI
52173939979000,2.309997,5.80882560390736,0.416572100129266,7.5244931016501,-0.036651913,0.017715093,0.034513887,39.44416,-4.1962366,37.450455,LYI
52173944977000,2.314995,5.82523127032268,0.393135341875337,7.51980565651471,-0.03940081,0.009773844,0.03176499,39.397953,-4.1940436,37.42747,LYI
52173950081000,2.320099,5.8568539760725,0.374879401309168,7.50686924544491,-0.03634648,0.0036651916,0.03268129,39.347576,-4.1944942,37.406227,LYI
52173955606000,2.325624,5.90276223597802,0.359576648007327,7.48646568090234,-0.043676864,-0.013744468,0.016187929,39.306232,-4.1951823,37.390297,LYI
52173959987000,2.330005,5.94416476990388,0.372132908959231,7.48146282358303,-0.029626964,-0.02107485,0.01985312,39.263847,-4.1838164,37.38113,LYI
52173965073000,2.335091,5.99663401604243,0.408457788528339,7.48549900372887,-0.03145956,-0.03176499,0.021380283,39.229645,-4.170623,37.377403,LYI
52173970098000,2.340116,6.04448959308357,0.441549500518732,7.48448919421644,-0.032986723,-0.03390302,0.020463986,39.198814,-4.1591473,37.381107,LYI
52173975079000,2.345097,6.05871056340058,0.451030195244957,7.44182603577462,-0.043982297,-0.04886922,0.010079277,39.17245,-4.1467633,37.391026,LYI
52173980076000,2.350094,6.07407623893503,0.462067673492986,7.40088748076781,-0.034208454,-0.057726767,0.009773844,39.1513,-4.145497,37.40912,LYI
52173985097000,2.355115,6.10070139348468,0.488692879012551,7.37869981336286,-0.038179077,-0.05497787,0.0125227375,39.133514,-4.140015,37.42749,LYI
52173990060000,2.360078,6.12701898799372,0.515010523902732,7.3567684464378,-0.057726767,-0.052534413,0.0143553335,39.120316,-4.1362677,37.455273,LYI
52173994991000,2.365009,6.15677357978983,0.530956214544104,7.32276742668507,-0.05681047,-0.05497787,0.006414085,39.110363,-4.1376176,37.48281,LYI
52174000244000,2.370262,6.18692035043937,0.546180956766257,7.28885887029877,-0.05589417,-0.047036625,0.004886922,39.097645,-4.133331,37.506237,LYI
52174005062000,2.37508,6.1909748371529,0.550235528154657,7.30102258446397,-0.061391957,-0.04428773,0.0067195175,39.09706,-4.1317334,37.539635,LYI
52174010087000,2.380105,6.19520352036907,0.554464299683656,7.31370889905097,-0.06811147,-0.040011674,0.0009162979,39.1038,-4.135351,37.577843,LYI
52174015053000,2.385071,6.19250904647101,0.566509906850818,7.30931041598456,-0.07544186,-0.03573562,-0.0033597588,39.109554,-4.137157,37.61448,LYI
52174020142000,2.39016,6.1875597911242,0.581358003647812,7.29941180192952,-0.07819075,-0.035124753,-0.0015271631,39.115417,-4.1385956,37.650135,LYI
52174025346000,2.395364,6.18253862245688,0.588264060133756,7.29956636747624,-0.067500606,-0.032070424,-0.00030543262,39.123337,-4.143017,37.682064,LYI
52174029953000,2.399971,6.17810156740584,0.592701161516569,7.30178487183587,-0.07391469,-0.024740042,0.0015271631,39.13031,-4.142638,37.711964,LYI
52174035058000,2.405076,6.17318488278775,0.597617897474732,7.30424318847488,-0.06994407,-0.021991149,-0.011301007,39.129623,-4.1605377,37.73962,LYI
52174039997000,2.410015,6.16842807469201,0.602374755241112,7.30662156768743,-0.070554934,-0.0143553335,-0.006414085,39.121964,-4.1722093,37.763775,LYI
52174044974000,2.414992,6.16371060896994,0.607092152646624,7.31461014690981,-0.073303826,-0.014966198,-0.0036651916,39.120224,-4.1865444,37.788635,LYI
52174049998000,2.420016,6.15896789354362,0.611834769029078,7.32409528063085,-0.07452556,-0.016493361,-0.0036651916,39.1183312481163,-4.19166551659665,37.7948087211442,LYI
52174054979000,2.424997,6.16894225272344,0.605545471517705,7.31888690847628,-0.062308256,0.00061086525,-0.0036651916,39.1164546961392,-4.1967428019804,37.8009296019204,LYI
52174059971000,2.429989,6.18332906752934,0.595954261647106,7.30929579875614,-0.062002823,-0.0012217305,0.003970624,39.114574,-4.2018313,37.807064,LYI
52174065000000,2.435018,6.19009687115223,0.590282496181665,7.31058314381834,-0.05955936,-0.013744468,0.008857546,39.11119,-4.215698,37.83081,LYI
52174070169000,2.440187,6.19472274213625,0.585656528589852,7.31520911141015,-0.052839845,-0.0070249503,0.017715093,39.104313,-4.2325153,37.842297,LYI
52174075090000,2.445108,6.19941632445197,0.576129590373223,7.32795830005647,-0.040927973,-0.006414085,0.013744468,39.10387,-4.2396755,37.868027,LYI
52174079987000,2.450005,6.20423161979568,0.564091593356949,7.34481148180091,-0.052534413,-0.0106901415,0.0143553335,39.098896,-4.240639,37.893063,LYI
52174085091000,2.455109,6.20925046141999,0.551544740840906,7.36237706064993,-0.044593163,-0.013744468,0.018936822,39.097923,-4.23803,37.922333,LYI
52174090061000,2.460079,6.21413753878536,0.539327292368191,7.37948147422352,-0.032375857,-0.021685716,0.025045475,39.09675,-4.233709,37.953575,LYI
52174094977000,2.464995,6.23632504685952,0.525812618159303,7.3942065599366,-0.02443461,-0.02107485,0.021685716,39.097427,-4.231358,37.98242,LYI
52174100191000,2.470209,6.26600600271448,0.510972057584704,7.40904708951853,-0.01985312,-0.01863139,0.024740042,39.09414,-4.229021,38.01261,LYI
52174105001000,2.475019,6.27789630432056,0.526225673550505,7.3988811884785,-0.015271631,-0.017104227,0.029932396,39.087063,-4.2238755,38.039368,LYI
52174109980000,2.479998,6.2849036846282,0.55191942573528,7.38019484099148,-0.015882496,-0.031154128,0.01985312,39.08525,-4.2209907,38.068905,LYI
52174115002000,2.48502,6.29197158258058,0.577835076161458,7.36134711311845,-0.013133603,-0.02321288,0.028710667,39.072395,-4.213169,38.094242,LYI
52174120140000,2.490158,6.29920273743509,0.604349335797002,7.34206403350642,-0.0143553335,-0.019547688,0.032986723,39.065887,-4.2072134,38.123642,LYI
52174124974000,2.494992,6.29585095323727,0.607227622934132,7.32161395733533,-0.023518313,-0.006414085,0.02565634,39.06573,-4.1959863,38.149235,LYI
52174129976000,2.499994,6.28688699296407,0.598263709461078,7.2992041736527,-0.020463986,-0.013133603,0.017715093,39.065117,-4.1870437,38.17883,LYI
52174135064000,2.505082,6.27985014644949,0.586156489343336,7.28541481997739,-0.03145956,-0.013439035,0.0290161,39.069466,-4.181582,38.20985,LYI
52174139985000,2.510003,6.27500717648751,0.571627407518241,7.28057179944507,-0.023518313,-0.0125227375,0.03023783,39.080544,-4.184409,38.24125,LYI
52174144971000,2.514989,6.26754358404834,0.567664113473505,7.26784319558508,-0.02687807,-0.01282817,0.029626964,39.08685,-4.1862564,38.269875,LYI
52174150081000,2.520099,6.2577673371323,0.572552247139789,7.24829075279429,-0.017104227,-0.011301007,0.029932396,39.092422,-4.1924663,38.297173,LYI
52174154984000,2.525002,6.24838711430855,0.577242368346402,7.22953035612046,-0.021685716,-0.010995574,0.033292156,39.095093,-4.191798,38.32409,LYI
52174159976000,2.529994,6.23883662025671,0.582017625344853,7.21042941787944,-0.022602014,-0.014049901,0.036957346,39.097755,-4.194058,38.350994,LYI
52174165063000,2.535081,6.2249996914435,0.582827843344219,7.20990331757022,-0.021380283,-0.006414085,0.040927973,39.104134,-4.201504,38.36927,LYI
52174170113000,2.540131,6.20799025216299,0.580397906048335,7.22448282970407,-0.0290161,-0.0030543262,0.032070424,39.114113,-4.2082705,38.389004,LYI
52174175124000,2.545142,6.19111217290861,0.577986734604834,7.23894974758579,-0.0290161,-0.0027488936,0.03145956,39.121834,-4.2171516,38.409214,LYI
52174179980000,2.549998,6.17475616555293,0.575650145395167,7.25296917549113,-0.035430185,0.00030543262,0.03756821,39.13006,-4.223119,38.42728,LYI
52174185046000,2.555064,6.17019895930301,0.577343427844064,7.25648464069699,-0.032375857,0.004886922,0.03634648,39.141033,-4.232486,38.444267,LYI
52174189982000,2.56,6.17485244400473,0.581997029167159,7.25183115599527,-0.04337143,0.009468411,0.035430185,39.149525,-4.23605,38.460224,LYI
52174194971000,2.564989,6.18197363129646,0.581718688294237,7.26690873831451,-0.044898596,0.011911872,0.03848451,39.174297,-4.238173,38.46384,LYI
52174200084000,2.570102,6.1914273753065,0.576991747187953,7.29999708913988,-0.03481932,0.013744468,0.042455133,39.19825,-4.240452,38.466373,LYI
52174204985000,2.575003,6.21220559874563,0.570033671149496,7.32582985770101,-0.039095376,0.0076358155,0.039095376,39.224323,-4.240989,38.471756,LYI
52174210585000,2.580603,6.25080437316471,0.559005482788402,7.3478862344232,-0.030543262,0.018020526,0.036957346,39.24728,-4.245693,38.472088,LYI
52174214994000,2.585012,6.27740928382882,0.553091881916304,7.3573505180837,-0.026572637,0.023518313,0.04337143,39.26117,-4.239576,38.478096,LYI
52174220110000,2.590128,6.30524198040144,0.548453091081235,7.36198930891877,-0.036957346,0.021685716,0.04184427,39.27818,-4.2340813,38.48293,LYI
52174225072000,2.59509,6.31882946648331,0.538425854261093,7.36270136648331,-0.03176499,0.03176499,0.044593163,39.289055,-4.2292705,38.485733,LYI
52174229979000,2.599997,6.31452131122112,0.521193206221122,7.35839321122112,-0.022907447,0.023823744,0.043982297,39.302044,-4.2240605,38.49397,LYI
52174234981000,2.604999,6.30637428334619,0.502829308493332,7.34906081371101,-0.02107485,0.032070424,0.04795292,39.32529,-4.226364,38.48954,LYI
52174239986000,2.610004,6.28524268018296,0.481697639133693,7.32264624080238,-0.022907447,0.032070424,0.052839845,39.348293,-4.229646,38.489857,LYI
52174245002000,2.61502,6.2737827807407,0.46341837045238,7.3061294294317,-0.027488936,0.028405234,0.04734206,39.369865,-4.2303767,38.488514,LYI
52174250079000,2.620097,6.27617095824942,0.449089145800874,7.30374127686036,-0.03359759,0.03268129,0.04550946,39.387505,-4.228786,38.485306,LYI
52174254960000,2.624978,6.27846693902942,0.435313107683089,7.30144532005501,-0.025045475,0.032986723,0.04795292,39.402637,-4.2266154,38.48419,LYI
52174259978000,2.629996,6.28082736344123,0.421150403467754,7.29908492029078,-0.029932396,0.038789943,0.042760566,39.42033,-4.221836,38.480167,LYI
52174265051000,2.635069,6.27420528972207,0.414256687354125,7.29916298668089,-0.028405234,0.03359759,0.04184427,39.41901,-4.22146,38.481457,LYI
52174270160000,2.640178,6.25047350521899,0.42137623509531,7.30390929897657,-0.03023783,0.034513887,0.03726278,39.42045,-4.220778,38.479202,LYI
52174274976000,2.644994,6.22810273321531,0.428087478376097,7.30838341133046,-0.029321533,0.030543262,0.030543262,39.410152,-4.216742,38.4825,LYI
52174280682000,2.6507,6.20159782768104,0.436038963874473,7.31368434262017,-0.0290161,0.030848695,0.034513887,39.39767,-4.211132,38.48444,LYI
52174284995000,2.655013,6.18353256084082,0.439504820280272,7.31565212028027,-0.034208454,0.038179077,0.03268129,39.389828,-4.206768,38.48512,LYI
52174289992000,2.66001,6.16936441628343,0.43478210542781,7.31092940542781,-0.03176499,0.04428773,0.032070424,39.38034,-4.2033043,38.486137,LYI
52174294989000,2.665007,6.15543702974211,0.429323018898374,7.30955351909426,-0.028710667,0.047647487,0.023518313,39.375748,-4.20356,38.47663,LYI
52174300071000,2.670089,6.14231716793962,0.4205766178884,7.32267310690987,-0.033292156,0.042455133,0.021685716,39.369057,-4.2014384,38.46827,LYI
52174305386000,2.675404,6.12892509512222,0.411109957651111,7.33675762433333,-0.026572637,0.04550946,0.02107485,39.36445,-4.204007,38.45416,LYI
52174309975000,2.679993,6.1240420422,0.39646063572,7.356289938,-0.043676864,0.03390302,0.023823744,39.359905,-4.199784,38.446068,LYI
52174314995000,2.685013,6.12105673195592,0.382333553663912,7.37561842038567,-0.041233405,0.028710667,0.01985312,39.35527,-4.200372,38.43146,LYI
52174320217000,2.690235,6.13039710686371,0.37766342716627,7.38495872214596,-0.028405234,0.029321533,0.01863139,39.348793,-4.19844,38.418976,LYI
52174324976000,2.694994,6.13890933286641,0.37340736971658,7.39347088148667,-0.03573562,0.029321533,0.014660766,39.3373,-4.192309,38.405,LYI
52174329979000,2.699997,6.14785799155344,0.368933098772937,7.40241947009385,-0.03023783,0.036957346,0.01282817,39.325306,-4.191625,38.389046,LYI
52174334990000,2.705008,6.1568209595088,0.364451673288509,7.41138236785731,-0.022907447,0.029321533,0.0143553335,39.314156,-4.1897154,38.37778,LYI
52174340086000,2.710104,6.15934271693971,0.36391866,7.41827114615774,-0.04062254,0.031154128,0.0076358155,39.30613,-4.185062,38.36177,LYI
52174345062000,2.71508,6.16095241638237,0.36391866,7.42470980946462,-0.040011674,0.021685716,0.006414085,39.29627,-4.184735,38.351696,LYI
52174350385000,2.720403,6.16267436777571,0.36391866,7.43159747119743,-0.030848695,0.02443461,0.004581489,39.305862,-4.1822195,38.33394,LYI
52174354982000,2.725,6.16416146350279,0.36391866,7.43754572988347,-0.041233405,0.02107485,0.004886922,39.302917,-4.1750245,38.32376,LYI
52174360052000,2.73007,6.16580157125486,0.36391866,7.44410602388786,-0.025045475,0.010995574,0.0018325958,39.301884,-4.1766987,38.31489,LYI
52174365414000,2.735432,6.16682763490266,0.364767141332936,7.44948288309495,-0.026267206,0.015577064,0.00030543262,39.2997,-4.171815,38.303123,LYI
52174370076000,2.740094,6.15352389461661,0.382505347495034,7.4228756803536,-0.030543262,0.01863139,0.00030543262,39.310192,-4.173494,38.29026,LYI
52174375400000,2.745418,6.13886447169482,0.40275017800233,7.39250855066977,-0.029932396,0.016798794,-0.0018325958,39.313667,-4.174646,38.27863,LYI
52174380054000,2.750072,6.14319076721025,0.420055730504756,7.36655014511745,-0.025350908,0.016798794,-0.0018325958,39.3125994662769,-4.17342117876383,38.2725513259553,LYI
52174384978000,2.754996,6.14776805107746,0.438365257905261,7.33908577276257,-0.029321533,0.017715093,0.01038471,39.31147,-4.1721253,38.26612,LYI
52174390040000,2.760058,6.1180018136671,0.453522254252549,7.34016380549107,-0.025961773,0.008552114,0.004886922,39.320137,-4.1776986,38.258327,LYI
52174394958000,2.764976,6.08472303260321,0.46778451382255,7.34491798798829,-0.026267206,0.02107485,0.0125227375,39.318645,-4.177879,38.245083,LYI
52174400045000,2.770063,6.05170366257107,0.49038380134721,7.37920325961261,-0.036651913,0.018020526,0.013744468,39.3261,-4.182571,38.243214,LYI
52174404965000,2.774983,6.01991947639009,0.513086834825094,7.41552790835502,-0.03176499,0.019242255,0.011301007,39.331306,-4.189638,38.236908,LYI
52174409957000,2.779975,5.99833475283133,0.525097459240941,7.40612529433734,-0.036957346,0.011911872,0.014049901,39.33404,-4.187181,38.232746,LYI
52174414921000,2.784939,5.979140602796,0.534694589375189,7.38693119440799,-0.044898596,0.009773844,0.008246681,39.340305,-4.1870475,38.226692,LYI
52174419942000,2.78996,5.97987378001574,0.534328009992132,7.38766438001574,-0.043676864,0.003970624,0.017715093,39.33841,-4.187295,38.215942,LYI
52174424939000,2.794957,5.98458023847364,0.531974780763179,7.39237083847364,-0.047647487,-0.0036651916,0.016493361,39.34239,-4.1873736,38.206245,LYI
52174429899000,2.799917,5.98925184822974,0.52963897588513,7.39704244822974,-0.051618114,-0.0036651916,0.022602014,39.3458098338837,-4.19068423744621,38.1992564279996,LYI
52174434932000,2.80495,5.99399221353265,0.527268793233674,7.40178281353265,-0.051618114,-0.0076358155,0.016493361,39.34928,-4.1940436,38.192165,LYI
52174439902000,2.80992,5.995081,0.517849830453375,7.40109672501093,-0.040317107,-0.0070249503,0.02443461,39.353508,-4.2017746,38.179516,LYI
52174444908000,2.814926,5.995081,0.506201667068371,7.39876714341805,-0.03848451,-0.008857546,0.02321288,39.367573,-4.208658,38.166935,LYI
52174449940000,2.819958,5.995081,0.494493005831187,7.39642546252004,-0.04062254,-0.01282817,0.019242255,39.370876,-4.206005,38.162804,LYI
52174454993000,2.825011,5.995081,0.482735480944166,7.39407400910637,-0.050396383,-0.0125227375,0.022602014,39.37171,-4.200945,38.15829,LYI
52174459972000,2.82999,6.01699691448637,0.475709497133884,7.39486039210643,-0.048563786,-0.01282817,0.018936822,39.376507,-4.1999607,38.15492,LYI
52174465073000,2.835091,6.0508223546664,0.470877279139918,7.39727644812305,-0.042760566,-0.014049901,0.019242255,39.378517,-4.1964417,38.15203,LYI
52174470088000,2.840106,6.08407751689005,0.466126529632029,7.39965177078985,-0.047647487,-0.0143553335,0.014966198,39.37781,-4.185751,38.151165,LYI
52174475168000,2.845186,6.1177637031505,0.461314205105594,7.40205788029082,-0.038179077,-0.0076358155,0.022296581,39.37257,-4.177683,38.148964,LYI
52174479973000,2.849991,6.14319396393162,0.462494284675214,7.40006410102564,-0.041233405,-0.005497787,0.017715093,39.37258,-4.1641912,38.150787,LYI
52174485081000,2.855099,6.16642231500475,0.46713989182811,7.39541858603989,-0.043982297,-0.007330383,0.018936822,39.367783,-4.1508875,38.152122,LYI
52174489983000,2.860001,6.18072777812219,0.463118220562944,7.3920659149585,-0.04795292,0.00061086525,0.019547688,39.364586,-4.1365814,38.159363,LYI
52174494978000,2.864996,6.1879024780522,0.451160382351765,7.38967429837016,-0.053145275,0.010079277,0.020158553,39.36103,-4.121579,38.16646,LYI
52174500235000,2.870253,6.19545350858914,0.43857532620038,7.38715723562644,-0.06078109,0.007941248,0.01863139,39.343185,-4.105884,38.182674,LYI
52174504990000,2.875008,6.20228347819218,0.427192038774123,7.38488053154685,-0.04886922,0.009468411,0.01282817,39.326775,-4.0945034,38.19465,LYI
52174509976000,2.879994,6.20068167738652,0.408656182837852,7.38880732261348,-0.047647487,0.0015271631,0.010995574,39.310356,-4.0790405,38.209587,LYI
52174515002000,2.88502,6.19068209354939,0.383657202362107,7.39880690645061,-0.04886922,0.005192355,0.017104227,39.293167,-4.065673,38.220478,LYI
52174520159000,2.890177,6.18366031966287,0.382366707186911,7.40878569891919,-0.055283304,-0.0125227375,0.010079277,39.279686,-4.0503426,38.24144,LYI
52174525069000,2.895087,6.17899774276648,0.396354447613287,7.41811075533961,-0.05009095,-0.018936822,0.0125227375,39.26059,-4.0350537,38.25808,LYI
52174529971000,2.899989,6.18105313890473,0.408913451824304,7.42068751496411,-0.046120327,-0.007941248,0.016493361,39.242725,-4.0108867,38.2732,LYI
52174535718000,2.905736,6.1891700206666,0.422441602220037,7.41798194421394,-0.03726278,-0.01282817,0.008246681,39.229637,-3.9914396,38.29384,LYI
52174539978000,2.909996,6.19518671047095,0.43246942903156,7.41597642282961,-0.022907447,-0.01282817,0.010995574,39.212864,-3.9744391,38.308113,LYI
52174544977000,2.914995,6.20224714059581,0.444236824860387,7.41362299527087,-0.02687807,-0.018020526,0.009162978,39.201458,-3.9580853,38.3245,LYI
52174550067000,2.920085,6.21438215592516,0.446419430749926,7.40506740920701,-0.023518313,-0.013439035,0.004886922,39.198856,-3.939144,38.340805,LYI
52174554988000,2.925006,6.23071182772003,0.439420992673003,7.39107054766855,-0.020463986,-0.018020526,0.005192355,39.195866,-3.9194384,38.360752,LYI
52174559980000,2.929998,6.2472771033957,0.432321581398871,7.37687173994654,-0.015882496,-0.016493361,0.008552114,39.19735,-3.9061835,38.380165,LYI
52174565003000,2.935021,6.26394524837145,0.425178083235818,7.36258475853876,-0.013439035,-0.015577064,0.005497787,39.201286,-3.8947086,38.400387,LYI
52174570286000,2.940304,6.26541551162012,0.418915126055859,7.34636230020196,-0.016187929,-0.014049901,0.0125227375,39.20034,-3.881144,38.41983,LYI
52174575148000,2.945166,6.25165395124378,0.414327918507463,7.33030709054726,-0.021380283,-0.004886922,0.0106901415,39.203533,-3.8701057,38.43606,LYI
52174579968000,2.949986,6.23801126901138,0.409780337186346,7.31439057254322,-0.020158553,-0.004581489,0.01282817,39.202713,-3.8567166,38.462524,LYI
52174585062000,2.95508,6.22359304841141,0.40497424190631,7.29756925662775,-0.02687807,-0.0061086523,0.018325957,39.201256,-3.8406296,38.486332,LYI
52174589964000,2.959982,6.21178850210221,0.398666452719798,7.28617028821826,-0.021685716,-0.0009162979,0.016798794,39.201504,-3.8288498,38.50744,LYI
52174594977000,2.964995,6.20281727889377,0.389695407493226,7.2816847702887,-0.027488936,0.01160644,0.027183503,39.195435,-3.810542,38.52672,LYI
52174599964000,2.969982,6.1934298536409,0.383686513249875,7.27929457891272,-0.024129177,0.0106901415,0.021685716,39.176666,-3.802034,38.547993,LYI
52174605672000,2.97569,6.18116099872818,0.386412918809975,7.28338418298254,-0.035430185,0.003970624,0.030848695,39.149303,-3.7848523,38.56743,LYI
52174609951000,2.979969,6.17196365637157,0.388456767687282,7.28644995309726,-0.034513887,0.01160644,0.02687807,39.119537,-3.774291,38.58196,LYI
52174614995000,2.985013,6.16112201233167,0.390866016048379,7.29006382186534,-0.042760566,0.01038471,0.025961773,39.08675,-3.757396,38.60065,LYI
52174620055000,2.990073,6.15024597766833,0.393282906751621,7.29368915413466,-0.0290161,0.016493361,0.024740042,39.05596,-3.7467678,38.61448,LYI
52174624983000,2.995001,6.13965366564838,0.39563674813217,7.2972199125187,-0.029932396,0.015577064,0.023518313,39.026623,-3.7316022,38.630142,LYI
52174629963000,2.999981,6.12894958410224,0.398015427124688,7.3007879272818,-0.03145956,0.0070249503,0.024129177,38.997917,-3.7195613,38.645844,LYI
52174635110000,3.005128,6.11788655042394,0.400473873063342,7.30447559233915,-0.03359759,-0.0061086523,0.01985312,38.972393,-3.7085695,38.66256,LYI
52174639975000,3.009993,6.11056932306171,0.407894114760186,7.30653678877571,-0.03023783,-0.008552114,0.014966198,38.946724,-3.6975362,38.679146,LYI
52174644975000,3.014993,6.11293700502373,0.43157095168661,7.30416915625989,-0.023823744,-0.008552114,0.021380283,38.9321825930543,-3.69087487616503,38.6876153776591,LYI
52174650082000,3.0201,6.11535535537975,0.455754472923259,7.30175085640823,-0.027183503,-0.00061086525,0.02687807,38.91733,-3.684071,38.696266,LYI
52174654991000,3.025009,6.11767994553006,0.479000391417623,7.29942631480419,-0.048258353,-0.0036651916,0.030543262,38.904446,-3.6711054,38.705242,LYI
52174659976000,3.029994,6.12119631608222,0.497069947219416,7.29891299862308,-0.051923547,-0.0018325958,0.021991149,38.909157,-3.6653504,38.70543,LYI
52174664994000,3.035012,6.12952710324913,0.492309530429916,7.30605359522536,-0.047036625,-0.002443461,0.02076942,38.90995,-3.6551325,38.707394,LYI
52174670118000,3.040136,6.138033869579,0.487448554816246,7.31334502946013,-0.043676864,0.01160644,0.021380283,38.926258,-3.650311,38.707455,LYI
52174675496000,3.045514,6.14696232182764,0.482346617491828,7.32099790481426,-0.044593163,0.004276057,0.018325957,38.94455,-3.646651,38.713654,LYI
52174679972000,3.04999,6.1543932910104,0.47810037884101,7.32736723729569,-0.04153884,0.004276057,0.021380283,38.959297,-3.6435187,38.71398,LYI
52174685098000,3.055116,6.16290337770183,0.473237505891035,7.33466151752353,-0.03023783,0.016187929,0.027488936,38.973442,-3.6421208,38.71302,LYI
52174689980000,3.059998,6.17100838028232,0.468606107970282,7.34160858659733,-0.031154128,0.016187929,0.026572637,38.974804,-3.6409059,38.71728,LYI
52174694976000,3.064994,6.17930264347202,0.463866561880139,7.34871787727588,-0.029321533,0.019547688,0.025961773,38.973385,-3.6416276,38.71734,LYI
52174700135000,3.070153,6.1866174,0.458999084181844,7.35670671185277,-0.042455133,0.018325957,0.029321533,38.970993,-3.6382127,38.718784,LYI
52174705003000,3.075021,6.1866174,0.454553586382664,7.36782043894345,-0.03726278,0.018936822,0.029932396,38.969673,-3.6398337,38.718704,LYI
52174710073000,3.080091,6.1866174,0.4499236205154,7.37939533548203,-0.038179077,0.023823744,0.025961773,38.96565,-3.633655,38.71906,LYI
52174715093000,3.085111,6.1866174,0.445339315061028,7.39085608116716,-0.036651913,0.019242255,0.035430185,38.95686,-3.6267688,38.722225,LYI
52174720555000,3.090573,6.18698291269659,0.439984830573456,7.40268884746835,-0.042760566,0.0106901415,0.032986723,38.953903,-3.620912,38.724762,LYI
52174725106000,3.095124,6.19534194929037,0.427446266954354,7.3985094164557,-0.038179077,0.013133603,0.028710667,38.948116,-3.616539,38.725594,LYI
52174729955000,3.099973,6.20424833655543,0.414086676756809,7.39405631582278,-0.043066,0.00061086525,0.028099801,38.940395,-3.606394,38.730045,LYI
52174735071000,3.105089,6.20174908173981,0.393704039429859,7.39932779339733,-0.03940081,-0.005192355,0.03023783,38.93308,-3.5996034,38.731823,LYI
52174740060000,3.110078,6.1970685708464,0.372641730634796,7.4063484619906,-0.03634648,0.004581489,0.025350908,38.928608,-3.593158,38.732452,LYI
52174745059000,3.115077,6.19237867829154,0.351537204343652,7.41338320288009,-0.037873644,0.00030543262,0.029626964,38.918907,-3.5822752,38.74072,LYI
52174750098000,3.120116,6.18765125909091,0.330263808068182,7.42047423295455,-0.03970624,-0.00061086525,0.024740042,38.91411,-3.5747252,38.74481,LYI
52174754992000,3.12501,6.16474492170247,0.314675307432242,7.40744357618952,-0.041233405,0.004276057,0.024740042,38.909897,-3.5626361,38.74956,LYI
52174759994000,3.130012,6.13589309247139,0.300249533406946,7.38820932463361,-0.039095376,-0.0015271631,0.025045475,38.90774,-3.552092,38.75736,LYI
52174765045000,3.135063,6.12025284102662,0.295100384486688,7.37481484102662,-0.02687807,-0.007330383,0.02107485,38.899525,-3.5363882,38.75984,LYI
52174770163000,3.140181,6.10851800517142,0.292753412414288,7.36308000517142,-0.026267206,0.0030543262,0.023518313,38.888744,-3.5178504,38.759373,LYI
52174775136000,3.145154,6.09711563340356,0.290472933298219,7.35167763340356,-0.03268129,-0.00030543262,0.015577064,38.881542,-3.5009944,38.761856,LYI
52174779979000,3.149997,6.08601133288642,0.28825206855679,7.34057333288642,-0.022602014,-0.0009162979,0.014966198,38.87058,-3.486609,38.760773,LYI
52174785057000,3.155075,6.06987903506519,0.281607687791387,7.32728923168708,-0.025961773,0.0036651916,0.018020526,38.86123,-3.4689677,38.759026,LYI
52174789983000,3.160001,6.05124012929672,0.272288186250494,7.31330997937574,-0.025045475,0.0061086523,0.013744468,38.854996,-3.4562879,38.757862,LYI
52174794969000,3.164987,6.03428069443845,0.279729639825054,7.31868269423326,-0.024129177,-0.0012217305,0.014966198,38.845295,-3.441089,38.7576,LYI
52174800070000,3.170088,6.01845409827214,0.300831705615551,7.33978485917927,-0.01863139,-0.0012217305,0.006414085,38.840557,-3.4299567,38.754272,LYI
52174805002000,3.17502,6.01761644064261,0.326749477981216,7.34879287001483,-0.013439035,-0.0018325958,0.01160644,38.86135,-3.4159744,38.745403,LYI
52174809977000,3.179995,6.02232673031142,0.35501123566782,7.35350306131488,-0.00580322,-0.004581489,0.011911872,38.88633,-3.406477,38.73711,LYI
52174815063000,3.185081,6.03031040461034,0.367168195339506,7.35173813252315,-0.011911872,-0.0106901415,0.002443461,38.914345,-3.3990765,38.725838,LYI
52174820195000,3.190213,6.03979119052855,0.371908563549383,7.34699786331019,-0.009773844,-0.011301007,0.012217305,38.93435,-3.3918333,38.71456,LYI
52174825174000,3.195192,6.05466154747191,0.388116232887641,7.35418333426966,-0.011301007,-0.013744468,0.015577064,38.941856,-3.3830352,38.71501,LYI
52174829976000,3.199994,6.0718853502809,0.409646116790262,7.36710107397004,-0.02076942,-0.0125227375,0.017104227,38.946198,-3.3717685,38.71476,LYI
52174835002000,3.20502,6.09105492014205,0.416488047590374,7.36680393119898,-0.02076942,-0.011911872,0.016798794,38.951107,-3.3633308,38.717476,LYI
52174839982000,3.21,6.11127864048553,0.406376203256652,7.35163639170995,-0.02076942,-0.013744468,0.020463986,38.95388,-3.352094,38.720596,LYI
52174844970000,3.214988,6.11679442256025,0.413365395574872,7.35098069672066,-0.024740042,-0.012217305,0.018020526,38.967182,-3.350708,38.71974,LYI
52174850073000,3.220091,6.11196723860134,0.432674141491505,7.36063496382853,-0.026572637,-0.011911872,0.018020526,38.97802,-3.348736,38.719944,LYI
52174855088000,3.225106,6.10183271593109,0.426916834924506,7.36728759500581,-0.03145956,-0.014966198,0.01740966,38.98917,-3.3445468,38.72518,LYI
52174860716000,3.230734,6.08618276877662,0.400833669558653,7.37250411695703,-0.027794369,-0.012217305,0.011301007,39.001892,-3.3429537,38.72851,LYI
52174865061000,3.235079,6.08616718019522,0.388977701881875,7.37781240111981,-0.01740966,-0.01282817,0.015577064,39.006027,-3.3311374,38.741306,LYI
52174870139000,3.240157,6.09580569319691,0.38174883096918,7.38504131732237,-0.015577064,-0.014049901,0.019242255,39.012417,-3.319835,38.75307,LYI
52174875148000,3.245166,6.10531323782578,0.374618186148053,7.39217200681796,-0.025350908,-0.021991149,0.01740966,39.01505,-3.3042574,38.763584,LYI
52174879981000,3.249999,6.11448671819938,0.367738089038747,7.39905214703201,-0.023518313,-0.024740042,0.011911872,39.017586,-3.292112,38.77272,LYI
52174885059000,3.255077,6.12289864522431,0.36059934712494,7.39955226632899,-0.022296581,-0.016187929,0.018020526,39.024883,-3.278616,38.77779,LYI
52174889983000,3.260001,6.12972305269175,0.353775006165943,7.39272788261457,-0.018325957,-0.023518313,0.013744468,39.038254,-3.2693727,38.78767,LYI
52174894988000,3.265006,6.13665972193922,0.346838404520984,7.38579123751085,-0.021991149,-0.01038471,0.016493361,39.043545,-3.2539926,38.790367,LYI
52174900075000,3.270093,6.14371003891462,0.339788156255668,7.37874094507477,-0.022907447,-0.013133603,0.0125227375,39.053318,-3.2424855,38.799274,LYI
52174904967000,3.274985,6.15588990661165,0.339736187132938,7.37565701298178,-0.026267206,-0.015882496,0.018020526,39.07144,-3.2331138,38.79867,LYI
52174909979000,3.279997,6.18004152259233,0.354227166808896,7.38048743705344,-0.0290161,-0.014660766,0.01038471,39.09517,-3.2269561,38.79745,LYI
52174915063000,3.285081,6.19923559970661,0.360877120636289,7.37307262334281,-0.021380283,-0.011911872,0.01740966,39.107536,-3.2176075,38.80068,LYI
52174920141000,3.290159,6.20815317667553,0.351959720584945,7.34186175575319,-0.03176499,-0.006414085,0.01985312,39.123775,-3.206097,38.802494,LYI
52174925084000,3.295102,6.22020576632357,0.343145778922754,7.31425150838413,-0.027794369,-0.016798794,0.01038471,39.144524,-3.2033496,38.811146,LYI
52174930693000,3.300711,6.25241287188968,0.33241003970021,7.29814789955032,-0.019242255,-0.020158553,0.018020526,39.157356,-3.1960433,38.816563,LYI
52174934998000,3.305016,6.27256386605579,0.326590376287925,7.28990787155366,-0.019547688,-0.018936822,0.022296581,39.151516,-3.1850564,38.835663,LYI
52174939983000,3.310001,6.27094368184348,0.333071116520736,7.30286934525216,-0.01985312,-0.011911872,0.016187929,39.146946,-3.1768215,38.85348,LYI
52174944977000,3.314995,6.26932057252426,0.339563557187267,7.31585421980588,-0.0009162979,-0.016187929,0.01038471,39.145676,-3.1762457,38.875626,LYI
52174950082000,3.3201,6.26766138688658,0.346200303203014,7.32912770490735,-0.013439035,-0.010995574,0.016493361,39.142006,-3.1677406,38.892735,LYI
52174954989000,3.325007,6.26606655360076,0.352579639676916,7.34188637119392,-0.010079277,-0.013744468,0.014966198,39.150356,-3.1671655,38.912834,LYI
52174959975000,3.329993,6.26444604437657,0.359061679957918,7.35485044498744,-0.009468411,-0.0009162979,0.015882496,39.15501,-3.1618817,38.926773,LYI
52174965093000,3.335111,6.26512279092251,0.360136649194647,7.36645541725008,-0.0033597588,0.0015271631,0.015577064,39.160984,-3.1592686,38.944016,LYI
52174970105000,3.340123,6.27198071169215,0.346420702627042,7.37331343350002,-0.0076358155,-0.0021380284,0.013133603,39.16718,-3.1548667,38.959,LYI
52174974986000,3.345004,6.27865938513121,0.333063253465733,7.3799921999238,-0.012217305,-0.0061086523,0.008246681,39.175926,-3.154988,38.96791,LYI
52174979977000,3.349995,6.28548857159594,0.319404775947993,7.38682148146878,-0.004886922,-0.0061086523,0.015577064,39.1787592368421,-3.15326549272853,38.970793601108,LYI
52174985094000,3.355112,6.29269985710579,0.306088893373254,7.39181928578842,-0.02321288,0.004276057,0.01282817,39.181664,-3.1514995,38.97375,LYI
52174989985000,3.360003,6.30204923302395,0.301414229820359,7.3731205339521,-0.02076942,-0.0030543262,0.009773844,39.19446,-3.1614108,38.97917,LYI
52174995127000,3.365145,6.31004425130386,0.29759531913076,7.35570189167212,-0.022602014,-0.0036651916,0.015271631,39.189114,-3.1577578,38.98304,LYI
52175000065000,3.370083,6.29678406668847,0.306435442207683,7.36454192244135,-0.022907447,-0.004276057,0.013744468,39.18774,-3.1568391,38.98867,LYI
52175004995000,3.375013,6.28354536475371,0.315261243497523,7.37336763157304,-0.021380283,-0.0009162979,0.017104227,39.18269,-3.1537356,38.997116,LYI
52175009977000,3.379995,6.27416607666698,0.311924986877299,7.35770255333396,-0.022907447,-0.002443461,0.009773844,39.18243,-3.1521766,39.00668,LYI
52175015091000,3.385109,6.26492803092521,0.307305939890597,7.33922646185042,-0.01985312,0.0021380284,0.015271631,39.176094,-3.149117,39.01367,LYI
52175020117000,3.390135,6.2428015786199,0.30237175865748,7.34809218402756,-0.022907447,-0.004276057,0.009468411,39.17861,-3.1537342,39.017464,LYI
52175025086000,3.395104,6.21796238849567,0.297403899883078,7.36299576035077,-0.021991149,-0.008246681,0.01740966,39.173893,-3.1562526,39.019684,LYI
52175029971000,3.399989,6.21128982300369,0.300939112247911,7.33209966201671,-0.021991149,-0.011911872,0.01160644,39.180717,-3.1657212,39.02001,LYI
52175034986000,3.405004,6.20662412891005,0.305604708906159,7.29477488875073,-0.0106901415,0.0061086523,0.009773844,39.182632,-3.1754835,39.015606,LYI
52175039985000,3.410003,6.2018170708405,0.308434784579751,7.2919039291595,-0.004581489,0.0030543262,0.007941248,39.185333,-3.1834538,39.01282,LYI
52175044958000,3.414976,6.1970000963892,0.310843271805401,7.2967209036108,-0.019242255,0.006414085,0.01160644,39.18588,-3.1882749,39.003452,LYI
52175050084000,3.420102,6.19203492224133,0.313325858879337,7.30168607775867,-0.017715093,0.0033597588,-0.0027488936,39.181828,-3.1942918,39.008743,LYI
52175054992000,3.42501,6.18728090844543,0.315702865777283,7.30644009155457,-0.01038471,0.0012217305,-0.0015271631,39.170856,-3.1948266,39.013134,LYI
52175059978000,3.429996,6.18463215723925,0.312064134478504,7.31107404406208,-0.010995574,0.014966198,-0.0015271631,39.16541,-3.196642,39.01348,LYI
52175065052000,3.43507,6.18229011544245,0.307380050884905,7.31575807874494,-0.016798794,0.016493361,0.0030543262,39.158367,-3.197745,39.01798,LYI
52175070199000,3.440217,6.17991437852323,0.302628577046462,7.32050950296896,-0.015271631,0.014660766,0.004276057,39.14002,-3.194069,39.02396,LYI
52175075000000,3.445018,6.17769834725275,0.298196514505495,7.32494151923077,-0.016798794,0.020463986,0.005497787,39.120243,-3.1877038,39.02726,LYI
52175079972000,3.44999,6.18723280171026,0.305374524972746,7.32455833519028,-0.02076942,0.018020526,0.002443461,39.10237,-3.1817887,39.033195,LYI
52175084989000,3.455007,6.20164900582087,0.317388033416012,7.3221556846827,-0.017104227,0.015271631,0.00580322,39.082024,-3.1759589,39.037582,LYI
52175089979000,3.459997,6.21598762621393,0.32933688873431,7.31976596452468,-0.01740966,0.013439035,0.003970624,39.063248,-3.1680005,39.04009,LYI
52175094992000,3.46501,6.23039233644047,0.341340818936841,7.31736522962444,-0.014966198,0.016187929,0.009773844,39.040867,-3.1596346,39.042175,LYI
52175100003000,3.470021,6.23938457254734,0.349648215946652,7.32970222745266,-0.0143553335,0.02076942,0.00580322,39.04479,-3.152619,39.04001,LYI
52175104990000,3.475008,6.24618501418197,0.35644866231525,7.34783678581803,-0.008857546,0.012217305,0.004276057,39.04586,-3.1459246,39.04102,LYI
52175109974000,3.479992,6.25298136491528,0.363245017779676,7.36596043508472,-0.008552114,0.01038471,-0.0009162979,39.054043,-3.1444423,39.04391,LYI
52175115113000,3.485131,6.25998907888367,0.370252736626323,7.38464772111633,-0.008552114,0.010995574,-0.0018325958,39.061184,-3.1436412,39.048546,LYI
52175120090000,3.490108,6.25772447328244,0.362480915826972,7.37952682697201,-0.004276057,0.012217305,0.0009162979,39.068714,-3.1441402,39.053432,LYI
52175124993000,3.495011,6.24733493003651,0.341702035457462,7.3535532400708,-0.013439035,0.004886922,0.0067195175,39.075455,-3.1412652,39.060585,LYI
52175129975000,3.499993,6.22249446327103,0.347521732794393,7.32382733448598,-0.0061086523,0.013133603,0.00030543262,39.08647,-3.1466403,39.06036,LYI
52175135046000,3.505064,6.19072374781308,0.365676490983178,7.29205642945794,-0.018020526,0.006414085,0.0061086523,39.091278,-3.1424675,39.06681,LYI
52175139981000,3.509999,6.17158655242728,0.370768436213643,7.27019218559155,-0.023518313,0.017104227,0.008552114,39.09289,-3.13619,39.07003,LYI
52175144976000,3.514994,6.16168361981161,0.365816969905807,7.25533789007349,-0.0021380284,0.01038471,0.0067195175,39.094593,-3.1332195,39.079987,LYI
52175149999000,3.520017,6.16082823675889,0.360977484664032,7.25258411391304,-0.0030543262,0.01038471,0.014966198,39.096607780004,-3.12957889616148,39.0826838358461,LYI
52175155058000,3.525076,6.16561579041502,0.356190030988142,7.25737146760869,-0.011911872,0.0061086523,0.003970624,39.098637,-3.1259122,39.0854,LYI
52175160055000,3.530073,6.17317605541295,0.365766096081121,7.26778777258744,-0.017104227,0.0015271631,0.0018325958,39.103237,-3.1246157,39.092697,LYI
52175165090000,3.535108,6.1826242154012,0.384662623238954,7.28196016055648,-0.004886922,0.0018325958,0.010079277,39.11031,-3.1260633,39.09707,LYI
52175170171000,3.540189,6.19216963135369,0.387096842848729,7.30460675203691,-0.004886922,0.002443461,0.00061086525,39.12375,-3.1263738,39.10226,LYI
52175174984000,3.545002,6.2012190351821,0.378047429571022,7.33175505801512,-0.011301007,-0.0030543262,0.0009162979,39.13056,-3.124731,39.10938,LYI
52175180054000,3.550072,6.20451570692726,0.376005996337457,7.34415570692726,-0.008246681,0.003970624,0.004886922,39.14177,-3.1294677,39.112503,LYI
52175185773000,3.555791,6.20180561969322,0.381426063273627,7.34144561969322,-0.0106901415,0.005497787,0.004581489,39.154446,-3.1322134,39.118626,LYI
52175190059000,3.560077,6.19977459435923,0.385488033353785,7.33941459435923,-0.021685716,0.005497787,0.004581489,39.169598,-3.1283708,39.12121,LYI
52175195045000,3.565063,6.19741185700148,0.390213414319644,7.33705185700148,-0.019547688,0.002443461,-0.0009162979,39.1865,-3.128022,39.124138,LYI
52175199995000,3.570013,6.1939165911271,0.397203992869704,7.32216926139089,-0.014049901,0.00580322,-0.0036651916,39.21288,-3.1270475,39.12228,LYI
52175205038000,3.575056,6.18909097224221,0.406855432198241,7.29321494340528,-0.014049901,0.0009162979,-0.0021380284,39.239235,-3.1256063,39.123745,LYI
52175209968000,3.579986,6.18008096844641,0.416886547025095,7.27982574708622,-0.01160644,0.011911872,0.0027488936,39.271038,-3.1306436,39.116894,LYI
52175215082000,3.5851,6.16582625161697,0.427973496264472,7.28299347663799,-0.021685716,0.014966198,0.009162978,39.301105,-3.1322188,39.11399,LYI
52175220171000,3.590189,6.15164121955889,0.439006246495052,7.28614572061316,-0.019547688,0.015882496,0.0009162979,39.34447,-3.1398823,39.110622,LYI
52175225035000,3.595053,6.13808335044305,0.449551205646465,7.28915859439881,-0.02107485,0.016493361,0.008246681,39.3786,-3.140465,39.107162,LYI
52175229953000,3.599971,6.12437496222107,0.460213234656879,7.29220491702995,-0.01282817,0.009162978,0.006414085,39.421555,-3.1538143,39.100456,LYI
52175235071000,3.605089,6.11010909582821,0.471308855737663,7.29537512427398,-0.0061086523,0.009468411,0.0143553335,39.45686,-3.1630898,39.092148,LYI
52175239957000,3.609975,6.09772497857,0.481541057329738,7.30562909378869,-0.010995574,0.009773844,0.013744468,39.495068,-3.1731637,39.08608,LYI
52175245045000,3.615063,6.0879932004993,0.491272784591572,7.33482417395646,-0.005497787,0.007330383,0.017715093,39.527733,-3.1844356,39.08129,LYI
52175249998000,3.620016,6.08060632174186,0.494665522564003,7.35831602604579,-0.0106901415,0.009468411,0.01282817,39.566666,-3.199101,39.06805,LYI
52175255762000,3.62578,6.07793990792677,0.481333308706405,7.37164823433485,-0.004886922,0.013744468,0.013133603,39.6012,-3.2152991,39.05558,LYI
52175259985000,3.630003,6.07598635734712,0.471565449733359,7.38141608922809,-0.017104227,0.009468411,0.0143553335,39.617725,-3.227257,39.044384,LYI
52175265076000,3.635094,6.07363127186262,0.459789894433388,7.3931916396097,-0.016798794,-0.0018325958,0.01863139,39.632515,-3.2421298,39.034515,LYI
52175270115000,3.640133,6.0732926803125,0.44731451153418,7.40327094507812,-0.013744468,0.003970624,0.034513887,39.641758,-3.2521465,39.021667,LYI
52175274986000,3.645004,6.08240373359375,0.431370151643066,7.40554870839844,-0.014660766,-0.004886922,0.028710667,39.65764,-3.2641068,39.01618,LYI
52175280282000,3.6503,6.09230973609375,0.414034629166504,7.40802520902344,-0.012217305,-0.0012217305,0.024129177,39.635593,-3.267825,39.008026,LYI
52175285065000,3.655083,6.101256188125,0.398378321763672,7.41026182203125,-0.01282817,-0.016493361,0.024740042,39.614998,-3.2705646,39.00789,LYI
52175290136000,3.660154,6.11078133801729,0.381125153977764,7.41089070770023,-0.014966198,-0.01740966,0.029321533,39.59459,-3.273374,39.0027,LYI
52175295058000,3.665076,6.12048625123533,0.356862734126004,7.39148067858761,-0.026267206,-0.019547688,0.02443461,39.57833,-3.2754154,39.002064,LYI
52175300072000,3.67009,6.13143044534257,0.331776640858353,7.37186661403002,-0.019242255,-0.02443461,0.02107485,39.564545,-3.2740211,39.00259,LYI
52175305063000,3.675081,6.14982875442648,0.3041797343495,7.3534687852194,-0.01740966,-0.006414085,0.016798794,39.552647,-3.2700846,38.997044,LYI
52175310232000,3.68025,6.16809920191231,0.277409795727453,7.33519879145491,-0.00580322,-0.014660766,0.015271631,39.539143,-3.2661822,39.0038,LYI
52175315045000,3.685063,6.17604005075373,0.273439329847532,7.32725785969506,-0.01740966,-0.0067195175,0.015271631,39.526016,-3.2581027,39.00073,LYI
52175320176000,3.690194,6.18450555987596,0.269206531087949,7.3187922621759,-0.01863139,-0.0030543262,0.012217305,39.49944,-3.258305,39.003605,LYI
52175325630000,3.695648,6.18251038641734,0.259936559969177,7.29203831850406,-0.0125227375,0.00580322,0.013744468,39.471527,-3.2566938,39.002754,LYI
52175329958000,3.699976,6.17825184430289,0.251419462400082,7.26648706581732,-0.023518313,0.0033597588,0.005497787,39.449177,-3.2532763,39.003777,LYI
52175335062000,3.70508,6.18431183291511,0.238089999145266,7.27012656326211,-0.010079277,0.0015271631,0.0027488936,39.422432,-3.2554917,39.004673,LYI
52175339967000,3.709985,6.19352055934131,0.224276755653793,7.28393979713782,-0.014049901,0.004886922,0.011911872,39.394867,-3.250686,39.004814,LYI
52175345046000,3.715064,6.19262268350168,0.216695158917457,7.29509278216509,-0.011301007,-0.0012217305,-0.0021380284,39.38165,-3.2587914,39.006153,LYI
52175350104000,3.720122,6.18768048956229,0.211752861764106,7.30497737647179,-0.01160644,-0.0015271631,0.0070249503,39.356792,-3.259297,39.00559,LYI
52175355042000,3.72506,6.1755095430006,0.221797618598112,7.33302185567383,-0.0027488936,-0.0067195175,-0.0036651916,39.34258,-3.2654912,39.007008,LYI
52175360047000,3.730065,6.16106932890139,0.236237847775658,7.36671558804981,-0.00580322,-0.009162978,0.003970624,39.318687,-3.2638915,39.00829,LYI
52175365081000,3.735099,6.16126767411997,0.269845632860991,7.37076046707974,-0.019547688,-0.015882496,0.00061086525,39.302235,-3.2644622,39.00988,LYI
52175370120000,3.740138,6.16560123221983,0.308846868415948,7.36642708997845,-0.010079277,-0.009773844,-0.002443461,39.283066,-3.2679365,39.008667,LYI
52175374978000,3.744996,6.16881821585334,0.331028419368598,7.35779317932447,-0.011911872,-0.005192355,0.0015271631,39.257603,-3.2704897,39.002705,LYI
52175379974000,3.749992,6.17133146340285,0.341081624764406,7.34522667914062,-0.016187929,-0.01038471,0.0033597588,39.234642,-3.275204,38.997875,LYI
52175384995000,3.755013,6.17385728725114,0.351185136432211,7.3325972961496,-0.008857546,-0.009162978,-0.00030543262,39.219616,-3.289994,38.99191,LYI
52175390055000,3.760073,6.17640273012555,0.361367125884331,7.31986981597941,-0.010995574,-0.010079277,-0.0027488936,39.20405,-3.3007247,38.988255,LYI
52175395207000,3.765225,6.1844112336669,0.356547941672446,7.32773654291093,-0.017104227,0.01038471,0.0061086523,39.184612,-3.3057315,38.981525,LYI
52175399995000,3.770013,6.19349738042208,0.347461690551868,7.34136600023779,-0.015577064,0.006414085,0.0027488936,39.171593,-3.3142774,38.9818,LYI
52175404986000,3.775004,6.20972496052241,0.351530492003562,7.32173187206886,-0.011911872,0.004581489,0.00061086525,39.15858,-3.323856,38.979874,LYI
52175410061000,3.780079,6.22896014950035,0.361148046322351,7.28807036667656,-0.013744468,0.010079277,0.005192355,39.144535,-3.3315814,38.977146,LYI
52175415076000,3.785094,6.23131857271409,0.355961502050419,7.28633031806744,-0.01985312,0.010995574,0.01038471,39.129745,-3.3371181,38.97586,LYI
52175420051000,3.790069,6.22686189786259,0.344819689272719,7.29747207500117,-0.01160644,0.008857546,0.0027488936,39.118248,-3.3466325,38.9738,LYI
52175425058000,3.795076,6.22237655696179,0.333606210563584,7.30868549750713,-0.009162978,0.011301007,0.014660766,39.10097,-3.351414,38.977875,LYI
52175430035000,3.800053,6.2179180904822,0.32245991866517,7.31983173353912,-0.017104227,0.0033597588,0.0143553335,39.091618,-3.3589697,38.98504,LYI
52175435061000,3.805079,6.21966953596234,0.324677791200837,7.33706095271967,-0.013744468,0.009162978,0.010079277,39.095024,-3.3677762,38.984726,LYI
52175439995000,3.810013,6.22955477399582,0.344448494355649,7.36177430585774,-0.0021380284,0.003970624,0.009468411,39.097656,-3.3758464,38.9899,LYI
52175444974000,3.814992,6.23207970263953,0.361606952081402,7.36445426113238,-0.0021380284,0.004276057,0.014049901,39.088757,-3.3736966,38.99032,LYI
52175450001000,3.820019,6.22722955418094,0.376157397457183,7.34505376858755,0.004886922,0.00061086525,0.0033597588,39.08611,-3.3784525,38.992996,LYI
52175455073000,3.825091,6.22226421298405,0.380411817423897,7.32253178711949,-0.007941248,0.0021380284,0.011301007,39.077465,-3.3775659,38.993343,LYI
52175459979000,3.829997,6.217399561959,0.375547064804307,7.29820802402154,-0.0027488936,0.008857546,0.011301007,39.075665,-3.3853562,38.992878,LYI
52175465055000,3.835073,6.19892354876426,0.376232859011407,7.27973780296578,-0.004886922,0.0036651916,-0.00030543262,39.059273,-3.388408,39.00312,LYI
52175470083000,3.840101,6.17146024952472,0.380810059619772,7.26600620114068,-0.0125227375,0.008552114,0.00580322,39.03648,-3.3880584,39.008762,LYI
52175474975000,3.844993,6.15326395493106,0.378449272858361,7.27077706182,-0.016798794,0.0012217305,0.009773844,39.007755,-3.380422,39.029266,LYI
52175479979000,3.849997,6.14365293809476,0.368838376449235,7.29480429029832,-0.0067195175,0.004581489,0.0015271631,38.98174,-3.3756368,39.04467,LYI
52175485071000,3.855089,6.13387290257709,0.359058463476561,7.3192540599649,-0.008246681,0.017104227,-0.008246681,38.956192,-3.368083,39.056553,LYI
52175490048000,3.860066,6.1243137437453,0.349499424422161,7.34315164512409,-0.009773844,0.0143553335,0.00030543262,38.928055,-3.3610857,39.071625,LYI
52175494973000,3.864991,6.11721489534324,0.340036230686471,7.35025879068647,-0.023823744,0.012217305,0.0012217305,38.906586,-3.3541977,39.082268,LYI
52175500002000,3.87002,6.11238132175833,0.33036908351666,7.34059164351666,-0.01985312,0.016798794,-0.004886922,38.885166,-3.3508306,39.09148,LYI
52175504995000,3.875013,6.117185225,0.332794045,7.3430166,-0.012217305,0.016798794,-0.0018325958,38.86179,-3.331912,39.09676,LYI
52175509977000,3.879995,6.13139663721207,0.347005219785544,7.35722776489277,-0.01985312,0.015882496,-0.0015271631,38.842064,-3.3125744,39.10058,LYI
52175515063000,3.885081,6.14267435384011,0.355130050768022,7.3645644,-0.027488936,0.011911872,-0.0015271631,38.8312743424901,-3.29971727343874,39.1056634871542,LYI
52175520097000,3.890115,6.15056566713809,0.356708313427617,7.3645644,-0.027488936,0.004581489,0.0036651916,38.820595,-3.2869916,39.110695,LYI
52175525083000,3.895101,6.15838173549401,0.358271527098802,7.3645644,-0.02321288,0.0106901415,0.0106901415,38.79838,-3.2626765,39.115814,LYI
52175530052000,3.90007,6.16617115459962,0.359829410919924,7.3645644,-0.023823744,0.010079277,0.010995574,38.794415,-3.2377264,39.12435,LYI
52175535067000,3.905085,6.17403268344137,0.361401716688273,7.3645644,-0.015577064,0.0076358155,0.008552114,38.788883,-3.2156734,39.131477,LYI
52175540058000,3.910076,6.18185658981209,0.362966497962417,7.3645644,-0.016187929,0.005497787,0.0106901415,38.781704,-3.1913736,39.138515,LYI
52175545046000,3.915064,6.18474127420424,0.362042534204237,7.36831665159152,-0.004886922,0.006414085,0.009773844,38.77664,-3.1731973,39.14501,LYI
52175550046000,3.920064,6.17993316093985,0.357234420939853,7.37793287812029,-0.006414085,0.008246681,0.0027488936,38.773224,-3.1534076,39.151493,LYI
52175554962000,3.92498,6.1716583727246,0.361518116824742,7.38192389926362,-0.0076358155,0.0030543262,-0.0009162979,38.76212,-3.1417704,39.162006,LYI
52175560049000,3.930067,6.15730858753068,0.380651040549828,7.37714057093765,-0.011301007,-0.007330383,0.004581489,38.750595,-3.1291966,39.17325,LYI
52175565048000,3.935066,6.14321901789597,0.399436988803996,7.37074708280929,-0.01038471,-0.002443461,0.01282817,38.7382,-3.1167505,39.17937,LYI
52175570181000,3.940199,6.12877346171026,0.418697539324126,7.36111691313547,-0.012217305,-0.0061086523,0.004276057,38.730804,-3.105327,39.190342,LYI
52175574957000,3.944975,6.12101809333931,0.433833921233572,7.34779355818399,-0.0070249503,-0.005192355,0.007330383,38.721184,-3.0951054,39.19749,LYI
52175580574000,3.950592,6.12637376079251,0.444545384765034,7.32101494129829,-0.017104227,-0.0076358155,0.004886922,38.71711,-3.0839453,39.20613,LYI
52175585062000,3.95508,6.12983820670568,0.447381270569847,7.30778576396715,-0.0143553335,-0.004276057,0.004886922,38.7124584120444,-3.0790833237084,39.2105947657686,LYI
52175590039000,3.960057,6.13200084541536,0.438731246376299,7.30994826719296,-0.013439035,-0.0021380284,0.01038471,38.7073,-3.0736916,39.215546,LYI
52175594982000,3.965,6.13414871022186,0.43014031417041,7.31209599744113,-0.010995574,-0.003970624,0.014049901,38.699566,-3.0621068,39.22732,LYI
52175600060000,3.970078,6.13635523611451,0.42131475201352,7.3143023851005,-0.010079277,0.014966198,0.009162978,38.695045,-3.0541987,39.235,LYI
52175605077000,3.975095,6.13853525588676,0.41259520783449,7.31648226829999,-0.017715093,0.015271631,0.00580322,38.68942,-3.044329,39.24825,LYI
52175610053000,3.980071,6.14358013967081,0.39726214720412,7.32637408178256,-0.0143553335,0.0036651916,0.009162978,38.683144,-3.0370243,39.259293,LYI
52175615273000,3.985291,6.15010492892225,0.381636316112501,7.33547500671856,-0.01863139,0.00580322,0.011911872,38.678127,-3.027338,39.266026,LYI
52175620098000,3.990116,6.16081016013344,0.373072126672227,7.33333391576314,-0.017715093,0.0036651916,0.0125227375,38.676888,-3.030317,39.266747,LYI
52175625418000,3.995436,6.17261364822537,0.36362933126865,7.33097316884441,-0.015271631,-0.0033597588,0.018325957,38.680054,-3.0253837,39.267956,LYI
52175630067000,4.000085,6.1829283881012,0.355377535059772,7.32891017778704,-0.0125227375,0.0009162979,0.007330383,38.68878,-3.0237641,39.26626,LYI
52175635003000,4.005021,6.19387989509777,0.346616324888333,7.32671983064591,-0.014966198,0.0009162979,0.01282817,38.6990478486183,-3.02455352394874,39.2634500184221,LYI
52175640055000,4.010073,6.20845120712993,0.340679332731723,7.33034279259338,-0.018020526,-0.0033597588,0.0125227375,38.709557,-3.0253615,39.260574,LYI
52175644991000,4.015009,6.22354264499308,0.335648888462275,7.33537334191763,-0.01740966,-0.004886922,0.007330383,38.737244,-3.032577,39.2528,LYI
52175650117000,4.020135,6.23380320672419,0.339627589717346,7.34027344242785,-0.01863139,-0.005192355,0.0125227375,38.750336,-3.0356333,39.249214,LYI
52175654981000,4.024999,6.24304273242091,0.344247400805316,7.34489334999504,-0.0143553335,-0.0036651916,0.010079277,38.767654,-3.0421772,39.24549,LYI
52175660056000,4.030074,6.23557580480157,0.349016190867222,7.34115976923077,-0.0143553335,0.0015271631,0.007941248,38.78525,-3.0460408,39.24164,LYI
52175665060000,4.035078,6.22618397593337,0.353712164143067,7.33646370769231,-0.019547688,0.0009162979,0.0067195175,38.80298,-3.049797,39.23917,LYI
52175670067000,4.040085,6.21250551101585,0.358481527510717,7.31513566244642,-0.01038471,-0.005192355,0.007330383,38.821163,-3.0574603,39.237896,LYI
52175674969000,4.044987,6.19846529556375,0.363161566749078,7.29173546625461,-0.009162978,-0.004581489,0.011911872,38.83762,-3.0615354,39.23512,LYI
52175680040000,4.050058,6.1921770674772,0.371952692826748,7.27589895075988,-0.01282817,-0.0027488936,0.009773844,38.83297,-3.066057,39.23869,LYI
52175684983000,4.055001,6.18753571697225,0.381235587698794,7.26197460845181,-0.015577064,0.0033597588,0.015882496,38.82367,-3.0685587,39.24106,LYI
52175690080000,4.060098,6.17879874975472,0.379162955287647,7.27485681884941,-0.01863139,0.005497787,0.014966198,38.79893,-3.0678787,39.25154,LYI
52175694957000,4.064975,6.16954127045241,0.374534239802785,7.29337168078886,-0.021685716,-0.0027488936,0.01038471,38.774128,-3.066128,39.263004,LYI
52175700058000,4.070076,6.15985859628363,0.369692927994648,7.31273692802141,-0.016187929,-0.0033597588,0.007330383,38.75154,-3.0675144,39.272617,LYI
52175705079000,4.075097,6.15032777742431,0.364927543444824,7.3317984662207,-0.020463986,-0.0033597588,0.008552114,38.7401979151576,-3.06645242961481,39.2787110221111,LYI
52175710053000,4.080071,6.15079759029023,0.365162429170485,7.335834,-0.021380283,-0.005497787,0.011301007,38.728962,-3.0654004,39.284748,LYI
52175715086000,4.085104,6.15399882831905,0.366763014758584,7.335834,-0.021685716,0.0012217305,0.009162978,38.706825,-3.0600915,39.299133,LYI
