timestamp,rel_time,acc_x,acc_y,acc_z,gyro_x,gyro_y,gyro_z,azimuth,pitch,roll,label
330228949000,0,2.72929572562023,9.14669844973029,-2.50001786205503,-0.016493361,0.02107485,0.014660766,347.01733,-31.572685,-25.01727,STD
330233991000,0.005042,2.7290518408471,9.14889336175704,-2.50123726045497,-0.01282817,0.013744468,0.016187929,346.67108,-32.312325,-24.612743,STD
330239387000,0.010438,2.72879083286698,9.15124237907087,-2.50254227310194,-0.007941248,0.013744468,0.016187929,346.33093,-33.057415,-24.213,STD
330244046000,0.015097,2.72856547404946,9.15327056136612,-2.50366904365833,-0.0070249503,0.021380283,0.02687807,345.99594,-33.80647,-23.808462,STD
330249333000,0.020384,2.72830973846923,9.15557212818195,-2.50494769485636,-0.0033597588,0.013133603,0.022602014,345.6761,-34.557323,-23.400383,STD
330253989000,0.02504,2.72808452476363,9.15759900450018,-2.50607373986828,-0.010995574,0.0125227375,0.018936822,345.35886,-35.308758,-22.991444,STD
330258992000,0.030043,2.72784252644551,9.15977693882581,-2.50728370619015,-0.0076358155,0.018936822,0.02687807,345.04846,-36.066147,-22.578718,STD
330264374000,0.035425,2.72758219565437,9.16211986158027,-2.50858533296295,-0.015577064,0.010995574,0.024740042,344.75272,-36.817875,-22.163258,STD
330269059000,0.04011,2.72735557920017,9.16415936234292,-2.50971839157138,-0.009468411,0.024740042,0.031154128,344.45578,-37.576874,-21.749132,STD
330274049000,0.0451,2.72711420970039,9.16633163743485,-2.51092521386723,-0.007330383,0.02107485,0.016493361,344.17764,-38.330086,-21.332367,STD
330278990000,0.050041,2.72687521036203,9.16848258156895,-2.51212018560346,-0.0106901415,0.01160644,0.019242255,343.90067,-39.086613,-20.91149,STD
330283981000,0.055032,2.72663379249162,9.17065529198655,-2.51332724974746,-0.0076358155,0.016798794,0.019547688,343.6335,-39.84274,-20.495058,STD
330289389000,0.06044,2.7263722040638,9.17300953320841,-2.51463516457231,-0.011911872,0.018020526,0.01740966,343.37723,-40.595535,-20.074854,STD
330294061000,0.065112,2.72614621642794,9.17504337473736,-2.51576507915471,-0.004581489,0.016187929,0.016798794,343.1282,-41.351357,-19.654045,STD
330299067000,0.070118,2.7259040729979,9.17722261504,-2.51697577102105,0.0015271631,0.019242255,0.014049901,342.8868,-42.10397,-19.234848,STD
330303989000,0.07504,2.72566599270173,9.17936528798638,-2.51816614764233,-0.008857546,0.01740966,0.007330383,342.65576,-42.852066,-18.814949,STD
330308995000,0.080046,2.72542384927169,9.18154452828902,-2.51937683950867,-0.007941248,0.02321288,0.018020526,342.42715,-43.604584,-18.39403,STD
330314379000,0.08543,2.72516342173926,9.18388832169482,-2.52067894997778,0.0009162979,0.025045475,0.017104227,342.21143,-44.352036,-17.975836,STD
330319150000,0.090201,2.72493264540992,9.18596526046507,-2.52183280752758,-0.004581489,0.022602014,0.0143553335,342.0012,-45.094654,-17.556402,STD
330324004000,0.095055,2.72469785431735,9.18807833126591,-2.52300673847428,-0.009468411,0.022907447,0.016798794,341.7967,-45.837486,-17.137392,STD
330328987000,0.100038,2.72445682341206,9.19024755907814,-2.52421186783304,0.0015271631,0.018325957,0.02565634,341.6007,-46.580406,-16.71684,STD
330333977000,0.105028,2.72421545391228,9.19241983417007,-2.52541869012889,0.008857546,0.026267206,0.020463986,341.41147,-47.31635,-16.302055,STD
330339407000,0.110458,2.72395280133036,9.19478365255667,-2.52673192561316,0.004276057,0.021685716,0.022602014,341.23044,-48.050297,-15.88162,STD
330344036000,0.115087,2.72372889363207,9.19679877508182,-2.52785144072488,0.0009162979,0.028710667,0.025045475,341.05313,-48.78195,-15.467002,STD
330349059000,0.12011,2.72348592790113,9.19898541592084,-2.52906624400986,0.0009162979,0.020158553,0.02687807,340.970378323275,-49.151857927077,-15.2554271974452,STD
330353978000,0.125029,2.72324799271688,9.20112678289022,-2.53025589508667,0.019242255,0.01160644,0.027183503,340.88934,-49.514107,-15.048233,STD
330358976000,0.130027,2.72300623625197,9.2033025405875,-2.53146465216776,0.010079277,0.022602014,0.027183503,340.72437,-50.23378,-14.63717,STD
330364955000,0.136006,2.72271702818801,9.20590535276678,-2.53291066228939,0.005192355,0.01038471,0.029626964,340.575,-50.955185,-14.219784,STD
330368964000,0.140015,2.72252311028728,9.2076505733767,-2.53388023154471,0.006414085,0.010995574,0.029932396,340.42734,-51.6706,-13.808919,STD
330373998000,0.145049,2.72227961247929,9.20984200279809,-2.5350976951594,0.008552114,0.008552114,0.032070424,340.28928,-52.38029,-13.39658,STD
330378937000,0.149988,2.72204070988222,9.21199207628086,-2.53629218319932,0.008857546,0.013744468,0.036651913,340.1554,-53.084724,-12.987224,STD
330383914000,0.154965,2.72179996920078,9.21415869213908,-2.53749586146915,0.0106901415,0.011301007,0.030543262,340.03192,-53.783615,-12.580652,STD
330389367000,0.160418,2.7215362040941,9.21653252301608,-2.53881465946099,0.0076358155,0.01863139,0.019242255,339.91125,-54.47545,-12.179226,STD
330394013000,0.165064,2.72131147409491,9.21855504607762,-2.53993828599135,-0.0021380284,0.01282817,0.027183503,339.7985,-55.161335,-11.774872,STD
330399000000,0.170051,2.72107024970706,9.22072601519253,-2.54114438274274,-0.0012217305,0.022602014,0.02107485,339.69025,-55.840515,-11.382945,STD
330403984000,0.175035,2.72082917043113,9.22289567833044,-2.54234975394965,-0.0036651916,0.01740966,0.012217305,339.59213,-56.51044,-10.989521,STD
330408974000,0.180025,2.72058780093135,9.22506795342236,-2.5435565762455,-0.01160644,0.010079277,0.012217305,339.49747,-57.17294,-10.599645,STD
330414268000,0.185319,2.72033172675664,9.22737256751788,-2.54483692038062,-0.013133603,0.013133603,0.010079277,339.40875,-57.82885,-10.216342,STD
330419034000,0.190085,2.7201011922805,9.22944732965978,-2.54598956868964,-0.0033597588,0.019242255,0.0106901415,339.32614,-58.479214,-9.834966,STD
330423995000,0.195046,2.71986122552931,9.23160698030729,-2.54718937738899,-0.012217305,0.016187929,0.008857546,339.25098,-59.116844,-9.457194,STD
330428935000,0.199986,2.72075302853843,9.23016094292315,-2.54461041634786,-0.009162978,0.021685716,0.007941248,339.17706,-59.753487,-9.084527,STD
330434931000,0.205982,2.72218250130444,9.22730199739111,-2.54032200103509,-0.0033597588,0.02076942,0.00061086525,339.1117,-60.380627,-8.71611,STD
330439381000,0.210432,2.72324340087228,9.22518019825543,-2.53713930454713,-0.010079277,0.020463986,0.006414085,339.0447,-61.017212,-8.347108,STD
330444004000,0.215055,2.72434554440085,9.2229759111983,-2.53383287626312,-0.009773844,0.027794369,0.0030543262,338.98312,-61.648228,-7.986748,STD
330448951000,0.220002,2.72552493095414,9.22061713809173,-2.53029471906628,-0.018020526,0.01985312,-0.0015271631,338.9297,-62.2677,-7.626893,STD
330453984000,0.225035,2.72672482028558,9.21821735942883,-2.52669505357776,-0.008552114,0.02443461,0.00061086525,338.87524,-62.884556,-7.272479,STD
330458997000,0.230048,2.72791994152909,9.21582711694183,-2.52310969234312,-0.012217305,0.016493361,0.0070249503,338.83063,-63.487568,-6.9193406,STD
330464377000,0.235428,2.72920255718639,9.21326188562723,-2.51926184804981,-0.0076358155,0.013744468,0.006414085,338.7884,-64.08704,-6.5725474,STD
330469087000,0.240138,2.73032544189752,9.21101611620497,-2.51589319626143,-0.0106901415,0.007330383,0.009468411,338.75217,-64.67602,-6.2256827,STD
330474006000,0.245057,2.73149815312768,9.20867069374465,-2.51237506502001,-0.009468411,0.011911872,0.010079277,338.71826,-65.258965,-5.8845897,STD
330478993000,0.250044,2.73268707585685,9.2062928482863,-2.50880829931542,-0.0061086523,0.011911872,0.01282817,338.6906,-65.83369,-5.544903,STD
330483998000,0.255049,2.73388028986517,9.20390642026965,-2.50522865978233,-0.007330383,0.013133603,0.0125227375,338.66553,-66.398865,-5.2106204,STD
330489386000,0.260437,2.73516481275765,9.2013373744847,-2.50137509378747,-0.01160644,0.006414085,0.014966198,338.64572,-66.95594,-4.878145,STD
330494079000,0.26513,2.73628364459403,9.19909971081194,-2.49801860061488,-0.009162978,0.009773844,0.018936822,338.62637,-67.506,-4.550743,STD
330499007000,0.270058,2.73745850146376,9.19674999707247,-2.49449403245922,0.0015271631,0.010995574,0.013744468,338.6136,-68.04808,-4.2283616,STD
330504806000,0.275857,2.73884100856352,9.19398498287296,-2.49034651404716,-0.010079277,0.009468411,0.015577064,338.60284,-68.57643,-3.9073536,STD
330508997000,0.280048,2.73984016139247,9.19198667721506,-2.48734905764692,-0.010079277,0.0030543262,0.018936822,338.600119816934,-68.8068216590389,-3.7700435104119,STD
330514420000,0.285471,2.74113302843885,9.1894009431223,-2.48347045920777,0.0012217305,0.005192355,0.015271631,338.5966,-69.10494,-3.5923693,STD
330519078000,0.290129,2.74224351612132,9.18717996775735,-2.48013899847948,-0.008246681,0.01160644,0.019242255,338.59036,-69.61569,-3.2809,STD
330523951000,0.295002,2.74340526074921,9.18485647850158,-2.47665376702199,-0.014966198,0.0076358155,0.009468411,338.5925,-70.12072,-2.9760118,STD
330529000000,0.300051,2.74460896455101,9.18244907089797,-2.47304265813036,-0.017715093,0.008552114,0.016493361,338.5925,-70.61599,-2.6708834,STD
330533997000,0.305048,2.74580027132416,9.18006645735168,-2.46946874029883,-0.021991149,0.008552114,0.016798794,338.59818,-71.0991,-2.373971,STD
330539387000,0.310438,2.74708527102543,9.17749645794914,-2.46561374387858,-0.010995574,0.008246681,0.022296581,338.6053,-71.57698,-2.0780528,STD
330544099000,0.31515,2.74820863254536,9.17524973490929,-2.46224366166481,-0.02076942,0.014660766,0.01740966,338.61404,-72.0381,-1.7897143,STD
330549017000,0.320068,2.74938110537112,9.17290478925776,-2.45872624563609,-0.013133603,0.0033597588,0.015271631,338.62946,-72.49815,-1.5018095,STD
330554006000,0.325057,2.75057050490909,9.17052599018183,-2.4551580495061,-0.01863139,0.013133603,0.017715093,338.6398,-72.94216,-1.2205658,STD
330558993000,0.330044,2.75175942763826,9.16814814472348,-2.45159128380151,-0.019242255,0.014049901,0.010995574,338.6589,-73.37994,-0.9449005,STD
330564371000,0.335422,2.75304156648677,9.16558386702647,-2.44774486993358,-0.0143553335,0.008552114,0.013744468,338.67828,-73.8083,-0.6704376,STD
330569098000,0.340149,2.75416850407265,9.1633299918547,-2.4443640595294,-0.0143553335,0.0106901415,0.014049901,338.69812,-74.22523,-0.40330803,STD
330574499000,0.34555,2.75545612622229,9.16075474755541,-2.44050119576952,-0.015271631,0.010079277,0.0076358155,338.72253,-74.63346,-0.14074986,STD
330578995000,0.350046,2.75652799239241,9.15861101521518,-2.43728559949764,-0.01985312,0.003970624,0.011911872,338.74896,-75.030754,0.120988354,STD
330583992000,0.355043,2.75771929916555,9.15622840166889,-2.4337116816661,-0.020158553,0.007330383,0.009468411,338.7757,-75.419,0.37438664,STD
330589361000,0.360412,2.75899929237448,9.15366841525103,-2.42987170471242,-0.01863139,0.004886922,0.009162978,338.807,-75.79633,0.6263792,STD
330594028000,0.365079,2.76011192569653,9.15144314860693,-2.42653380706988,-0.009468411,0.0061086523,0.0061086523,338.83832,-76.165565,0.8724605,STD
330598961000,0.370012,2.76128797458825,9.14909105082349,-2.42300566285076,-0.0015271631,0.008552114,0.009162978,338.87112,-76.52439,1.1162909,STD
330604010000,0.375061,2.76249167839006,9.14668364321988,-2.41939455395913,-0.013133603,0.008246681,0.008246681,338.90634,-76.86998,1.3543289,STD
330608990000,0.380041,2.76367893228845,9.1443091354231,-2.41583279474339,-0.013744468,0.006414085,0.007330383,338.9424,-77.210106,1.589301,STD
330614357000,0.385408,2.76495844868859,9.14175010262283,-2.4119942482151,-0.010995574,0.014660766,0.018325957,338.97644,-77.53668,1.8228921,STD
330619007000,0.390058,2.76606702913588,9.13953294172824,-2.40866850918836,-0.012217305,0.015271631,0.022296581,339.0149,-77.85133,2.0510478,STD
330623922000,0.394973,2.76723878674845,9.1371894265031,-2.40515323879772,-0.016493361,0.007941248,0.0143553335,339.05453,-78.154915,2.2750945,STD
330628964000,0.400015,2.77318914609332,9.12796058445275,-2.41238790502345,-0.010079277,0.012217305,0.015882496,339.09113,-78.449135,2.498416,STD
330633931000,0.404982,2.78193257226174,9.11472732547095,-2.42609380824507,-0.021380283,0.005192355,0.0067195175,339.13507,-78.72703,2.713833,STD
330639265000,0.410316,2.79132202971743,9.10051629196805,-2.44081240856401,-0.013439035,0.004276057,0.014660766,339.1842,-78.98687,2.9441276,STD
330643995000,0.415046,2.79964826401916,9.08791445685955,-2.45386433573096,-0.009162978,0.011301007,0.021380283,339.2344,-79.23161,3.167535,STD
330648995000,0.420046,2.80844978019434,9.07459327809793,-2.46766129890957,-0.018936822,0.009468411,0.014049901,339.28833,-79.46343,3.385793,STD
330653968000,0.425019,2.81720376818218,9.06134403370161,-2.481383758487,-0.015577064,0.0027488936,0.0106901415,339.34174,-79.68703,3.6030397,STD
330658930000,0.429981,2.82593839283443,9.04812409589858,-2.49507586474545,-0.024129177,0.00580322,0.01985312,339.39325,-79.89213,3.817558,STD
330664278000,0.435329,2.83535249453541,9.03387576309514,-2.50983309656128,-0.035430185,0.0036651916,0.014966198,339.44946,-80.08716,4.023968,STD
330668998000,0.440049,2.84366112580478,9.02130057034417,-2.52285742980188,-0.021685716,-0.00061086525,0.019547688,339.5051,-80.272125,4.2318516,STD
330673998000,0.445049,2.85246264197997,9.00797939158254,-2.53665439298049,-0.028710667,0.005192355,0.0125227375,339.55963,-80.43872,4.4310536,STD
330678955000,0.450006,2.86118846511605,8.99477277495827,-2.55033270227575,-0.02443461,0.010995574,0.009468411,339.61542,-80.59837,4.6292315,STD
330683929000,0.45498,2.86994421340712,8.98152086632621,-2.56405792124583,-0.042760566,0.010079277,0.004886922,339.67218,-80.73975,4.821471,STD
330690355000,0.461406,2.88125592199547,8.96440048738177,-2.58178977832297,-0.036651913,0.0027488936,0.010995574,339.72913,-80.87494,5.0124106,STD
330693984000,0.465035,2.88764406243542,8.95473197583658,-2.591803614198,-0.04337143,0.005497787,0.005497787,339.78436,-80.99337,5.195009,STD
330698966000,0.470017,2.89641389315237,8.94145875331849,-2.60555090830916,-0.048258353,0.0070249503,0.009468411,339.8417,-81.09945,5.3789725,STD
330703948000,0.474999,2.90518372386933,8.92818553080041,-2.61929820242032,-0.042455133,0.004886922,0.0061086523,339.89996,-81.1971,5.5560164,STD
330708939000,0.47999,2.9139693973154,8.91488833016056,-2.6330703310652,-0.055588737,0.0076358155,0.0018325958,339.95642,-81.27776,5.7304363,STD
330714412000,0.485463,2.92360353692075,8.90030696788808,-2.6481724869605,-0.05222898,0.003970624,0.004276057,340.01538,-81.35159,5.9028916,STD
330719047000,0.490098,2.93176254241515,8.88795823517606,-2.66096227182706,-0.063224554,-0.0009162979,0.004276057,340.04418678463,-81.3805472243744,5.98344960821903,STD
330723963000,0.495014,2.94041619311859,8.87486085221763,-2.67452744602426,-0.06352998,-0.0021380284,-0.00061086525,340.07474,-81.41126,6.0688915,STD
330728992000,0.500043,2.94926875808759,8.86146241061919,-2.6884044315893,-0.064446285,-0.0021380284,0.0012217305,340.13318,-81.46162,6.234331,STD
330733985000,0.505036,2.95805795214013,8.84815988150783,-2.70218207901945,-0.07788532,-0.0143553335,0.0009162979,340.1971,-81.498924,6.3952637,STD
330739417000,0.510468,2.96761991931285,8.8336877529012,-2.71717109981669,-0.063224554,-0.027183503,-0.0012217305,340.26126,-81.53185,6.553196,STD
330744070000,0.515121,2.97581061026548,8.82129106394563,-2.7300105537507,-0.042455133,-0.021685716,0.00030543262,340.32352,-81.55341,6.7089686,STD
330748999000,0.52005,2.98448714491098,8.80815904592242,-2.74361160005216,-0.038179077,-0.02443461,-0.008552114,340.39212,-81.56865,6.858803,STD
330753993000,0.525044,2.99327809926675,8.79485385257531,-2.75739200687495,-0.0290161,-0.026267206,-0.01038471,340.45856,-81.57748,7.008031,STD
330759988000,0.531039,3.0038311171608,8.77888175924012,-2.7739345657261,-0.0143553335,-0.016493361,-0.021685716,340.52274,-81.58368,7.1490417,STD
330764405000,0.535456,3.01160637654996,8.7671138299221,-2.78612280299807,-0.004886922,-0.016798794,-0.03145956,340.5902,-81.582375,7.287501,STD
330769052000,0.540103,3.01978650568317,8.75473312638105,-2.79894570057627,0.009162978,-0.012217305,-0.028099801,340.65323,-81.57533,7.4235444,STD
330774008000,0.545059,3.02851056851602,8.74152917399253,-2.8126212504789,0.025350908,0.00030543262,-0.040317107,340.71436,-81.568436,7.549676,STD
330778989000,0.55004,3.03727863892974,8.7282586157102,-2.82636578519742,0.042455133,0.00580322,-0.04886922,340.7758,-81.55412,7.67537,STD
330783993000,0.555044,3.04608719631786,8.71492678000556,-2.84017378594657,0.07544186,0.012217305,-0.051618114,340.83322,-81.537735,7.7966127,STD
330789260000,0.560311,3.0553587134568,8.70089425029807,-2.85470750695891,0.09437868,0.02687807,-0.044898596,340.8864,-81.51399,7.915615,STD
330794006000,0.565057,3.06371311261029,8.68824978741753,-2.86780358440804,0.1301143,0.03756821,-0.048563786,340.93878,-81.49144,8.028617,STD
330798965000,0.570016,3.07244245635283,8.67503784232176,-2.88148741248857,0.15699236,0.044898596,-0.03573562,340.98724,-81.45608,8.145891,STD
330804014000,0.575065,3.08133022738653,8.66158611600827,-2.89541958590633,0.18845193,0.046120327,-0.022907447,341.03418,-81.417656,8.259916,STD
330808940000,0.579991,3.09000148112233,8.64846209069231,-2.90901235402989,0.21319197,0.047647487,-0.018936822,341.07852,-81.37222,8.372824,STD
330814264000,0.585315,3.09937333554566,8.63427769954694,-2.92370336042246,0.22266038,0.04520403,-0.0061086523,341.12317,-81.3146,8.489777,STD
330819038000,0.590089,3.10777702318973,8.62155863806534,-2.93687670086539,0.24220806,0.03390302,0.005497787,341.1696,-81.25109,8.605394,STD
330823961000,0.595012,3.11644299601582,8.60844260545664,-2.95046119081104,0.24587326,0.02565634,0.011911872,341.21545,-81.178276,8.720974,STD
330829905000,0.600956,3.12230476996286,8.59425896036784,-2.96561174996989,0.24404067,0.01863139,0.044593163,341.2637,-81.08902,8.845223,STD
330833998000,0.605049,3.12269818640337,8.58580052846389,-2.97505370140814,0.24037547,0.011911872,0.05131268,341.31403,-80.999504,8.961669,STD
330839430000,0.610481,3.12322030663421,8.57457497212325,-2.98758452970342,0.24678956,-0.009162978,0.06872234,341.39,-80.8447,9.140395,STD
330843976000,0.615027,3.12365726513374,8.56518038833743,-2.99807148578411,0.24740042,-0.029626964,0.07880162,341.46747,-80.68177,9.315722,STD
330848964000,0.620015,3.12413670837959,8.55487238483465,-3.00957807111858,0.24037547,-0.04428773,0.093767814,341.54892,-99.49456,9.494173,STD
330854012000,0.625063,3.12462191878557,8.54444038770512,-3.02122306766397,0.23335053,-0.05497787,0.102319926,341.6348,-99.67797,9.670365,STD
330858993000,0.630044,3.12510068919607,8.53414685012546,-3.03271350502384,0.23060162,-0.05222898,0.11026118,341.72064,-99.87057,9.847348,STD
330864390000,0.635441,3.12561944525016,8.52299362340041,-3.04516359344608,0.21930063,-0.05009095,0.11789699,341.8094,-100.06933,10.023341,STD
330869053000,0.640104,3.12606764971195,8.51335725204246,-3.05592045138807,0.20219639,-0.055588737,0.11728613,341.89914,-100.27095,10.195907,STD
330874004000,0.645055,3.12654353654238,8.50312571127616,-3.06734168314247,0.18417588,-0.045814894,0.109650314,341.9834,-100.47469,10.365471,STD
330879011000,0.650062,3.1270248060556,8.49277844312491,-3.07889209869373,0.16279559,-0.028710667,0.105068825,342.06668,-100.679924,10.532559,STD
330883988000,0.655039,3.12750319198876,8.48249317178702,-3.09037330863953,0.14874569,-0.02107485,0.09040806,342.14926,-100.880684,10.691482,STD
330889294000,0.660345,3.12801320118332,8.47152800206253,-3.10261347339188,0.122478485,-0.016493361,0.07819075,342.22723,-101.07951,10.846915,STD
330894070000,0.665121,3.12847226713002,8.46165810937422,-3.1136310057811,0.112399206,-0.004581489,0.06994407,342.30026,-101.2755,10.9965925,STD
330899592000,0.670643,3.12900303810107,8.45024656259347,-3.12636945089276,0.086132,0.015271631,0.040927973,342.36868,-101.45929,11.134259,STD
330903993000,0.675044,3.12942605929693,8.44115163007226,-3.13652191321373,0.064751714,0.027794369,0.028710667,342.43536,-101.64444,11.271808,STD
330908988000,0.680039,3.12990617537813,8.43082916064636,-3.14804464652281,0.05009095,0.04062254,0.009773844,342.49512,-101.8175,11.3969965,STD
330914407000,0.685458,3.13042704605761,8.41963046959151,-3.16054548572239,0.046731193,0.08246681,-0.021685716,342.5418,-101.98205,11.513488,STD
330919061000,0.690112,3.13087438544538,8.41001269727756,-3.17128158198274,0.040317107,0.09712757,-0.027794369,342.59232,-102.14595,11.629444,FKL
330924026000,0.695077,3.1313516179465,8.39975222466503,-3.18273510968636,0.03848451,0.12461651,-0.048563786,342.6255,-102.29625,11.731229,FKL
330928993000,0.700044,3.1318290426863,8.3894876189316,-3.194193251097,0.028405234,0.15851954,-0.06383542,342.652,-102.44404,11.831397,FKL
330933986000,0.705037,3.13230896652883,8.37916928262659,-3.20571137069905,0.040011674,0.16920967,-0.08155051,342.67636,-102.58618,11.923311,FKL
330939282000,0.710333,3.13281801453003,8.36822477850655,-3.21792846691624,0.040011674,0.19028452,-0.099571034,342.68698,-102.72107,12.010071,FKL
330944074000,0.715125,3.13327861838611,8.35832182085111,-3.22898290896171,0.03390302,0.20769419,-0.10873401,342.69495,-102.85299,12.092995,FKL
330949135000,0.720186,3.13376507834345,8.34786295843579,-3.2406578946028,0.04337143,0.22204952,-0.12614368,342.6966,-102.978325,12.167465,FKL
330953993000,0.725044,3.13423202607568,8.33782360779094,-3.25186458898028,0.036957346,0.22174409,-0.12461651,342.6973,-103.103096,12.243505,FKL
330958970000,0.730021,3.13471041200883,8.32753833645305,-3.26334579892608,0.029932396,0.23304509,-0.13347405,342.68933,-103.22029,12.311049,FKL
330964281000,0.735332,3.13522090180007,8.31656283392633,-3.275597497946,0.032375857,0.23548855,-0.13316862,342.68393,-103.33962,12.380278,FKL
330969242000,0.740293,3.13569774982386,8.30631062755558,-3.28704179823556,0.041233405,0.23518312,-0.12767084,342.6756,-103.45689,12.447577,FKL
330974034000,0.745085,3.13615835367993,8.29640766990014,-3.29809624028103,0.04184427,0.23732115,-0.11911872,342.6656,-103.573326,12.514887,FKL
330978999000,0.75005,3.13663558618106,8.2861471972876,-3.30954976798464,0.044898596,0.24587326,-0.113926366,342.6535,-103.6904,12.581888,FKL
330983989000,0.75504,3.13711522166558,8.27583506066392,-3.32106096702615,0.047036625,0.25534168,-0.09468412,342.64084,-103.81217,12.6543255,FKL
330989439000,0.76049,3.13763907204446,8.26457230623526,-3.3336333186847,0.06078109,0.27458394,-0.0842994,342.6224,-103.93335,12.7251215,FKL
330993945000,0.764996,3.13807218577056,8.25526038486727,-3.34402800062478,0.06994407,0.28405234,-0.06261369,342.6047,-104.06084,12.803438,FKL
330998989000,0.77004,3.1385570116992,8.24483665397953,-3.35566376975611,0.0870483,0.29901853,-0.04642576,342.57968,-104.19065,12.882659,FKL
331003999000,0.77505,3.13903856957043,8.23448318614694,-3.36722110586792,0.094989546,0.30604348,-0.021380283,342.55493,-104.326775,12.969325,FKL
331008978000,0.780029,3.13951714774226,8.22419378168816,-3.37870692952075,0.096516706,0.3109304,-0.010079277,342.52634,-104.46305,13.055715,FKL
331015587000,0.786638,3.14015240043107,8.21053588370302,-3.39395292440357,0.09896017,0.2910773,0.01740966,342.5041,-104.609184,13.151815,FKL
331018973000,0.790024,3.14047786050133,8.20353851003413,-3.40176393040648,0.10903945,0.29810223,0.024740042,342.47208,-104.7522,13.2449,FKL
331023965000,0.795016,3.14095768822452,8.19322224028956,-3.41327974315502,0.10567969,0.2782491,0.035124753,342.4546,-104.89958,13.343536,FKL
331028953000,0.800004,3.11429317846169,8.20039640435787,-3.45560114716337,0.09896017,0.24801129,0.053450707,342.43848,-105.04956,13.444745,FKL
331033997000,0.805048,3.06093840589417,8.22464827442514,-3.52835761837534,0.099265605,0.2180789,0.06047566,342.42783,-105.19755,13.543345,FKL
331039231000,0.810282,2.96073962050421,8.24168622066178,-3.56820530302117,0.09285152,0.18845193,0.06566802,342.43634,-105.38646,13.656677,FKL
331044060000,0.815111,2.83401113836405,8.25119105035281,-3.57770993421936,0.08399397,0.1518,0.070554934,342.4558,-105.57463,13.768773,FKL
331049013000,0.820064,2.70402849764335,8.2609399469069,-3.58745862718367,0.06536258,0.12186762,0.057421334,342.47992,-105.75473,13.862862,FKL
331053997000,0.825048,2.57849728852756,8.2554990377439,-3.59749244556989,0.044593163,0.089186326,0.052839845,342.51596,-105.93473,13.957605,FKL
331058999000,0.83005,2.45591740935068,8.24017624618829,-3.60770742661265,0.029626964,0.0693332,0.04520403,342.55618,-106.1069,14.04549,FKL
331064306000,0.835357,2.34728471949782,8.2326147715736,-3.5967021373459,0.0143553335,0.061391957,0.025045475,342.59088,-106.23895,14.085763,FKL
331069043000,0.840094,2.25681725132342,8.22850295939086,-3.58025351457578,-0.0070249503,0.040927973,0.0067195175,342.63486,-106.36554,14.122323,FKL
331074120000,0.845171,2.1715325014378,8.1970752990099,-3.56988734159277,-0.016798794,0.015577064,-0.016493361,342.6816,-106.47138,14.130239,FKL
331078936000,0.849987,2.10005642725786,8.1454535009901,-3.56591645318984,-0.03848451,0.016493361,-0.02687807,342.72662,-106.57052,14.1366415,FKL
331084813000,0.855864,2.02675538701533,8.07970053897656,-3.5625722,-0.03940081,0.0009162979,-0.05497787,342.7866,-106.65009,14.113436,FKL
331089189000,0.86024,1.99526449672378,8.02616612412834,-3.5625722,-0.040011674,0.0018325958,-0.071776666,342.84186,-106.72654,14.091451,FKL
331094005000,0.865056,1.96060724634806,7.96724890705591,-3.5625722,-0.04062254,-0.015577064,-0.08460484,342.92218,-106.806305,14.057968,FKL
331098982000,0.870033,1.93609357155906,7.89651550948723,-3.60256334220469,-0.01985312,-0.023823744,-0.10415252,342.9988,-106.883415,14.018565,FKL
331103961000,0.875012,1.92124525708947,7.81732455066431,-3.67680491455263,0.0061086523,-0.025350908,-0.102319926,343.07916,-106.96312,13.981392,FKL
331108980000,0.880031,1.93048370834629,7.73805674287195,-3.7364688693278,0.021991149,-0.029321533,-0.109650314,343.2069,-107.08399,13.956648,FKL
331114022000,0.885073,1.95551544790047,7.65878965474339,-3.78653243556247,0.065973446,-0.029932396,-0.110872045,343.3334,-107.213646,13.933301,FKL
331118978000,0.890029,1.98972059109559,7.56557946944566,-3.83036330423396,0.09437868,-0.024129177,-0.11301007,343.5357,-107.45616,13.956354,FKL
331123989000,0.89504,2.04732456237451,7.43466102481449,-3.86178365220428,0.13775012,-0.0106901415,-0.10873401,343.73108,-107.702484,13.9764185,FKL
331128936000,0.899987,2.11665937660519,7.34317977114114,-3.8572221264819,0.16401732,-0.009468411,-0.108123146,344.09424,-108.20334,14.107435,FKL
331133984000,0.905035,2.2024851350429,7.29549884955124,-3.80954110531611,0.17348573,-0.0030543262,-0.09743301,344.4299,-108.683014,14.224095,FKL
331139163000,0.910214,2.2560096760181,7.23785589321267,-3.67727707330317,0.17715092,-0.00580322,-0.08674286,344.85757,-109.42495,14.430991,FKL
331143987000,0.915038,2.26720840336134,7.17439628235294,-3.46076822773109,0.18478674,-0.02076942,-0.06841691,345.2546,-110.119576,14.611363,FKL
331149415000,0.920466,2.27829897769291,7.10525463326968,-3.21757367180726,0.1704314,-0.03145956,-0.055283304,345.6583,-110.94445,14.834339,FKL
331154373000,0.925424,2.25696604524318,7.08925493393238,-3.00424423593171,0.16340645,-0.04428773,-0.055588737,346.0374,-111.71383,15.027475,FKL
331158834000,0.929885,2.24955904414541,7.080837632858,-2.8257081884515,0.13713925,-0.061391957,-0.044593163,346.23422,-112.16871,15.132338,FKL
331163829000,0.93488,2.30720459455714,7.10485682119904,-2.70080961293432,0.101098195,-0.071776666,-0.046731193,346.4258,-112.6027,15.226249,FKL
331168871000,0.939922,2.36745586674164,7.1251445,-2.58452416076667,0.06291912,-0.06688975,-0.040011674,346.57898,-112.963715,15.308011,FKL
331173866000,0.944917,2.43762418675924,7.1251445,-2.51903358546841,0.032986723,-0.053145275,-0.03359759,346.72836,-113.30814,15.384649,FKL
331178835000,0.949886,2.51136856219244,7.12138291027205,-2.46715031987398,0.007330383,-0.05375614,-0.03726278,346.84784,-113.60969,15.46115,FKL
331183818000,0.954869,2.61637629107822,7.08797114268854,-2.51965408463693,-0.01863139,-0.043066,-0.03359759,346.95828,-113.89928,15.540352,FKL
331188909000,0.95996,2.72626193211714,7.05395162049037,-2.58617091330998,-0.035430185,-0.049480084,-0.028405234,347.06348,-114.17113,15.627976,FKL
331193895000,0.964946,2.85169961145164,7.0214308502627,-2.7394838642732,-0.03145956,-0.047036625,-0.020463986,347.16055,-114.436035,15.716215,FKL
331198995000,0.970046,2.97229334651712,6.9856504632186,-2.89345606952139,0.007941248,-0.03848451,0.0021380284,347.25223,-114.732834,15.829685,FKL
331203862000,0.974913,3.01039098134593,6.92638750026337,-3.01198195123059,0.021380283,-0.036957346,0.0061086523,347.3406,-115.01507,15.936628,FKL
331208876000,0.979927,3.04963929468713,6.86533459369721,-3.13408771882663,0.07238753,-0.036651913,0.03604105,347.44025,-115.3821,16.08513,FKL
331214242000,0.985293,3.04636039776407,6.74034133936006,-3.18533310894372,0.14080444,-0.030848695,0.06078109,347.5334,-115.74487,16.229668,FKL
331218919000,0.98997,3.03772687933693,6.62378866029298,-3.21986718265227,0.20005837,-0.036957346,0.076358154,347.62762,-116.10986,16.374355,FKL
331223899000,0.99495,2.94243551232838,6.4223736078307,-3.16630663688098,0.24556783,-0.040317107,0.10598512,347.73138,-116.5358,16.54089,FKL
331228848000,0.999899,2.82575279733927,6.20247151036834,-3.09001401316163,0.28008172,-0.061391957,0.118202426,347.83685,-116.95807,16.699291,FKL
331233862000,1.004913,2.70194823600272,6.02234335186602,-2.9632428407039,0.31795537,-0.08093964,0.112704635,347.94995,-117.4129,16.864218,FKL
331238960000,1.010011,2.57328213568817,5.86047329235739,-2.80967368431523,0.33933565,-0.093462385,0.110872045,348.06363,-117.859436,17.026367,FKL
331243893000,1.014944,2.44273075181347,5.72529301036269,-2.65456182849741,0.3231477,-0.1001819,0.10415252,348.1765,-118.290215,17.169935,FKL
331248932000,1.019983,2.29687471020078,5.63152812079016,-2.48266007488126,0.3032946,-0.10751228,0.09193522,348.2879,-118.70994,17.305523,FKL
331253891000,1.024942,2.15418121619901,5.57200501054726,-2.35587358877612,0.2648101,-0.087659165,0.08735373,348.38257,-119.06808,17.420578,FKL
331258897000,1.029948,2.01107227836816,5.54815353751244,-2.27477848083582,0.1994475,-0.06261369,0.06627888,348.4714,-119.40106,17.524906,FKL
331264021000,1.035072,1.90704086331649,5.54596096715987,-2.25041651881992,0.13103059,-0.011301007,0.047647487,348.53754,-119.671234,17.609526,FKL
331269110000,1.040161,1.8498798324161,5.56794596138578,-2.28998946251353,0.08246681,0.05222898,0.020158553,348.58795,-119.91971,17.689003,FKL
331273964000,1.045015,1.81338062489906,5.61355517092867,-2.33777187281292,0.025045475,0.11636983,-0.010079277,348.6138,-120.104645,17.737814,FKL
331278945000,1.049996,1.82622101273217,5.7291188401974,-2.41481428919695,-0.02687807,0.16829337,-0.02687807,348.6234,-120.273605,17.78828,FKL
331284140000,1.055191,1.84647736870871,5.85580978978979,-2.50220960710711,-0.060170226,0.21746802,-0.040317107,348.61832,-120.423836,17.822378,FKL
331289476000,1.060527,1.96924457415415,6.07747278478478,-2.69659098902236,-0.06352998,0.24129178,-0.043066,348.60556,-120.56508,17.857626,FKL
331294493000,1.065544,2.0846724357958,6.28588418768769,-2.87935174484484,-0.056199603,0.24251351,-0.037873644,348.58826,-120.69744,17.88636,FKL
331299363000,1.070414,2.19358101510613,6.47145202515893,-3.04887818031462,-0.03145956,0.2125811,-0.03268129,348.57327,-120.8298,17.913069,FKL
331304053000,1.075104,2.27585223609525,6.52952570633552,-3.15534673898287,0.004276057,0.19914207,-0.023823744,348.55524,-120.96518,17.943817,FKL
331308971000,1.080022,2.34421081964024,6.57715904897444,-3.26269076208693,0.03634648,0.16340645,-0.0143553335,348.5564,-121.14369,17.981304,FKL
331314447000,1.085498,2.33140524311411,6.56435365073254,-3.36086591279505,0.0888809,0.08827003,-0.019547688,348.57117,-121.32923,18.009722,FKL
331318991000,1.090042,2.32077914016767,6.55372769572684,-3.4423319253622,0.15607607,0.06994407,-0.019242255,348.5861,-121.54645,18.055805,FKL
331323973000,1.095024,2.28859758831133,6.53120937008555,-3.49579354532267,0.17440203,0.03573562,-0.023823744,348.62344,-121.756485,18.08653,FKL
331329005000,1.100056,2.24826714241213,6.50432242175005,-3.53612403801376,0.20647246,0.010079277,-0.0421497,348.66064,-121.97649,18.111334,FKL
331334005000,1.105056,2.17622215860697,6.4526141919403,-3.55483436517413,0.24953845,-0.0021380284,-0.063224554,348.71335,-122.22475,18.126701,FKL
331340561000,1.111612,2.05127580137977,6.36098688360199,-3.55899932782753,0.25350907,0.021991149,-0.106901415,348.75616,-122.45695,18.131884,FKL
331343962000,1.115013,1.98645844919403,6.31345416919403,-3.56115994985075,0.24037547,0.032070424,-0.12156218,348.8192,-122.69873,18.126602,FKL
331348931000,1.119982,1.93675558292728,6.34841127918914,-3.53567268633067,0.2284636,0.07574729,-0.14385876,348.8583,-122.92581,18.11536,FKL
331353998000,1.125049,1.92321857931932,6.47024435877813,-3.48603691220011,0.20250183,0.121256754,-0.16890424,348.89053,-123.13671,18.100948,FKL
331358981000,1.130032,1.93035692103604,6.61260431936611,-3.44556401697197,0.15302174,0.16523905,-0.1872302,348.92657,-123.33046,18.062473,FKL
331364259000,1.13531,1.96911615709295,6.79778747098918,-3.41541794448326,0.09896017,0.20433442,-0.2180789,348.94577,-123.50506,18.02033,FKL
331368968000,1.140019,2.00679661526294,6.9666697397554,-3.38813759112923,0.038789943,0.22418754,-0.21991149,348.94537,-123.6275,17.972038,FKL
331374079000,1.14513,2.09858484132083,7.21010806574806,-3.35222040846311,-0.01985312,0.24923302,-0.22052236,348.92935,-123.72963,17.92344,FKL
331378957000,1.150008,2.18618863054219,7.44244853810028,-3.31794061643702,-0.07727446,0.25778514,-0.22815818,348.90027,-123.78412,17.87114,FKL
331383983000,1.155034,2.27714833852874,7.71400041276272,-3.25051336544695,-0.11881329,0.26206118,-0.22235495,348.86826,-123.82922,17.826113,FKL
331389367000,1.160418,2.37507472966574,8.0273651643454,-3.1558511862117,-0.15485434,0.2406809,-0.22357668,348.83932,-123.858765,17.77619,FKL
331393994000,1.165045,2.45923249560015,8.29667027310712,-3.07449867816536,-0.17287487,0.19914207,-0.23701571,348.78732,-123.849655,17.730947,FKL
331399046000,1.170097,2.47454681328052,8.48628721307203,-3.0078300942458,-0.18875736,0.18173242,-0.2434298,348.73645,-123.8338,17.688662,FKL
331404019000,1.17507,2.40007783603669,8.55082683091838,-2.96811327873449,-0.17837265,0.13836098,-0.2556471,348.7013,-123.81753,17.633326,FKL
331409826000,1.180877,2.2617598335277,8.51676187099125,-2.93135448134111,-0.17623462,0.092240654,-0.2666427,348.63715,-123.73899,17.584982,FKL
331414524000,1.185575,2.12238999963557,8.4306805231414,-2.90675983498542,-0.15057829,0.038179077,-0.27947086,348.58557,-123.66835,17.527174,FKL
331418964000,1.190015,1.99325929485424,8.30669852788104,-2.8953023981804,-0.06719518,0.02565634,-0.28160888,348.53436,-123.59346,17.450363,FKL
331423995000,1.195046,1.8518557113872,8.08516620446097,-2.90472929718255,-0.02076942,0.0076358155,-0.27855456,348.49863,-123.516945,17.365261,FKL
331428909000,1.19996,1.75674003582578,7.85148677399283,-2.92390256378401,0.06291912,0.0106901415,-0.2593123,348.4789,-123.463425,17.256504,FKL
331433944000,1.204995,1.77199610706602,7.56670766251846,-2.96967061820291,0.16646078,0.013744468,-0.23243423,348.46603,-123.42935,17.150354,FKL
331439226000,1.210277,1.84325939588594,7.33314438933265,-3.05040004623379,0.27855456,0.034208454,-0.18112154,348.47144,-123.43716,17.040257,FKL
331444018000,1.215069,1.97727385161041,7.20307140814223,-3.16470642960577,0.39522982,0.064446285,-0.11362094,348.47992,-123.47818,16.944979,FKL
331448967000,1.220018,2.12028160263486,7.0745832017091,-3.28731340348941,0.5317582,0.10720685,-0.05131268,348.48877,-123.5943,16.884975,FKL
331453993000,1.225044,2.33451089321702,7.03173737938401,-3.48011978290903,0.6218608,0.17379116,0.018936822,348.49454,-123.7368,16.852432,FKL
331458915000,1.229966,2.54430726572904,6.98977813993235,-3.66893653569521,0.63713247,0.23976462,0.083383106,348.49274,-123.96062,16.88421,FKL
331464110000,1.235161,2.78755981799279,6.95159252777932,-3.81834744522687,0.61269784,0.29871312,0.12797627,348.48282,-124.19844,16.936354,FKL
331468979000,1.24003,3.02025468699751,6.91711927884669,-3.94762238745033,0.5491679,0.32742378,0.16829337,348.47263,-124.43327,17.007452,FKL
331474025000,1.245076,3.22875336860086,6.93564536486748,-3.99073133690235,0.44806966,0.30573806,0.18112154,348.45755,-124.71548,17.134998,FKL
331479974000,1.251025,3.45449589205776,6.99082680541516,-3.98571483754513,0.3390302,0.2510656,0.19120082,348.44907,-124.97725,17.268171,FKL
331483947000,1.254998,3.56445919656474,7.085065398037,-3.92611839362023,0.2321288,0.16462818,0.17654006,348.43634,-125.269966,17.447954,FKL
331489252000,1.260303,3.65076437710457,7.29603357263118,-3.76309758605134,0.1554652,0.05955936,0.13683382,348.4392,-125.53133,17.608541,FKL
331493950000,1.265001,3.68454070775928,7.45422827160532,-3.64985536291431,0.105068825,-0.061086524,0.08460484,348.43472,-125.77405,17.79017,FKL
331499015000,1.270066,3.59933753615396,7.54313600293264,-3.61651502168932,0.07941248,-0.12767084,0.03573562,348.4365,-125.99073,17.950481,FKL
331503925000,1.274976,3.51674176664121,7.62932296459447,-3.58419496731327,0.07971791,-0.24465153,0.005497787,348.43942,-126.14372,18.0846,FKL
331508991000,1.280042,3.42570546833474,7.71645836591716,-3.59572589967878,0.09468412,-0.33322698,-0.029932396,348.44318,-126.28186,18.196348,FKL
331514151000,1.285202,3.32962975776839,7.80417958721894,-3.63332070880811,0.11484267,-0.3998113,-0.051618114,348.46786,-126.41496,18.286781,FKL
331518930000,1.289981,3.24697435367626,7.89375275842294,-3.69452574228422,0.14874569,-0.42332962,-0.050396383,348.50287,-126.516235,18.332836,FKL
331523997000,1.295048,3.17646338942168,8.01127083584229,-3.83084703801221,0.15577064,-0.41050145,-0.04062254,348.54257,-126.61125,18.369848,FKL
331528966000,1.300017,3.11725963471698,8.13065429150944,-3.97143494301887,0.14813483,-0.3652974,-0.022296581,348.59024,-126.689835,18.374529,FKL
331533990000,1.305041,3.09456442566038,8.26682601981132,-4.13937967962264,0.110872045,-0.30634892,-0.0021380284,348.63202,-126.76244,18.385637,FKL
331538981000,1.310032,3.06878312651942,8.41815678928254,-4.31424726797361,0.06872234,-0.24404067,0.010995574,348.67856,-126.83069,18.376028,FKL
331544049000,1.3151,3.01122571679514,8.7275275378743,-4.56965805294248,0.005497787,-0.1994475,0.011911872,348.715,-126.88387,18.37442,FKL
331549842000,1.320893,2.945434462941,9.08115515164542,-4.86160648966795,-0.08735373,-0.16065755,0.015271631,348.75784,-126.925575,18.363018,FKL
331553905000,1.324956,2.90489144384766,9.264555171875,-5.00777684418945,-0.20922135,-0.13041973,0.02107485,348.79138,-126.94374,18.35788,FKL
331558994000,1.330045,2.86205687363281,9.40257839375,-5.10772465509766,-0.32559118,-0.10934488,0.009162978,348.8145,-126.93758,18.35367,FKL
331564117000,1.335168,2.80837287048579,9.45272038505958,-5.13687566415215,-0.43768495,-0.09010262,-0.0030543262,348.86322,-126.89464,18.298155,FKL
331569075000,1.340126,2.73873864665445,9.35262104628781,-5.04548063744271,-0.52381694,-0.07238753,-0.015577064,348.90417,-126.82887,18.244162,FKL
331573967000,1.345018,2.6658261294509,9.24212526837675,-4.95154687891784,-0.61544675,-0.06566802,-0.038789943,348.95175,-126.72511,18.16549,FKL
331578978000,1.350029,2.56965497728257,9.06901741138277,-4.83614164092184,-0.68539083,-0.082161374,-0.06566802,348.9974,-126.60596,18.084259,FKL
331583906000,1.354957,2.47507676177956,8.89877683679359,-4.72264792452906,-0.72387534,-0.084910266,-0.10751228,349.03168,-126.46597,17.993685,FKL
331589262000,1.360313,2.39943674668248,8.74609853638938,-4.61375412998393,-0.75961095,-0.079107046,-0.14569137,349.06393,-126.31003,17.89867,FKL
331594047000,1.365098,2.3433258746384,8.62335616400092,-4.52257393544808,-0.8054258,-0.053450707,-0.18570304,349.0847,-126.13993,17.798243,FKL
331599028000,1.370079,2.28940506482618,8.48857657096115,-4.42117491799591,-0.8927795,-0.024129177,-0.21899518,349.09933,-125.94256,17.685848,FKL
331603995000,1.375046,2.29751139843217,8.25754559763974,-4.23067595128664,-0.9407325,0.051923547,-0.22999077,349.09308,-125.745926,17.582838,FKL
331608904000,1.379955,2.30552307382413,8.02921238885481,-4.04240145408998,-1.071763,0.1301143,-0.26419923,349.06952,-125.501785,17.471441,FKL
331614268000,1.385319,2.42138688371157,7.83235236559904,-3.9587568328509,-1.2211196,0.19547687,-0.29443705,349.0298,-125.24603,17.370132,FKL
331619692000,1.390743,2.58153130820416,7.65441418325769,-3.9231692242528,-1.3481796,0.26358834,-0.3399465,348.9632,-124.96283,17.27097,FKL
331623941000,1.394992,2.70994757035176,7.44531746331658,-3.90040725427136,-1.5155567,0.31398472,-0.3555236,348.86823,-124.63828,17.204353,FKL
331628994000,1.400045,2.86729532170657,7.08770890130062,-3.88133480559661,-1.5494597,0.3652974,-0.3827071,348.7494,-124.315125,17.135115,FKL
331633905000,1.404956,2.99150682188728,6.7303694217664,-3.88097567603506,-1.6255124,0.38545597,-0.40286562,348.61353,-123.985306,17.115227,FKL
331639276000,1.410327,3.06534366644001,6.31843786610759,-3.9198371090964,-1.6887369,0.3631594,-0.43279803,348.4733,-123.653824,17.087698,FKL
331643965000,1.415016,3.12980484017075,5.9588126446434,-3.95376398670293,-1.7476854,0.3118467,-0.45662177,348.3295,-123.370766,17.108833,FKL
331649036000,1.420087,3.13174466369748,5.88624335092437,-3.81259917714286,-1.7800614,0.2938262,-0.46761733,348.18384,-123.08502,17.126848,FKL
331654108000,1.425159,3.10453260229692,5.94973825557423,-3.59490249650794,-1.7168368,0.29168814,-0.42821655,348.05453,-122.82117,17.146408,FKL
331658988000,1.430039,3.90490289813268,7.83153537590734,-4.11802420012636,-1.486846,0.3643811,-0.33933565,347.9334,-122.7285,17.237862,FKL
331665408000,1.436459,5.77378193400491,12.1044920492664,-5.52939488190944,-1.0888673,0.39950588,-0.19792034,347.83728,-122.70915,17.345924,FKL
331668982000,1.440033,6.81418281783784,14.4832377113514,-6.3151018627027,-0.5329799,0.14202617,0.10751228,347.81558,-122.74306,17.477325,FKL
331674036000,1.445087,9.25840233878782,16.1266009995429,-7.76850443435415,0.2302962,-0.29871312,0.32467487,347.84225,-122.931335,17.600615,FKL
331679027000,1.450078,12.0636144431849,17.0573022757108,-9.3415202175793,1.2412782,-0.08399397,-0.25717425,347.69162,-123.22823,17.650606,FKL
331683988000,1.455039,13.9962383679541,17.7359482933955,-6.62715928346626,1.7873917,1.6010778,-0.59895337,347.2125,-123.52205,18.035227,FKL
331689270000,1.460321,15.229237226454,18.2209882141769,0.385522736015771,1.8414533,0.9841039,0.46609017,347.40927,-124.059586,18.333395,FKL
331693946000,1.464997,14.2677527280258,16.6578184717519,4.65758438381073,0.40103304,0.34880406,1.6303993,346.97107,-124.65256,19.21316,FKL
331699010000,1.470061,8.03966700224007,9.93087187513847,4.39280426037348,-1.8356501,-0.046731193,1.8454239,346.68286,-125.04358,20.000393,FKL
331703997000,1.475048,1.90628163207944,3.30621099889223,4.13205021701219,-2.835331,0.04886922,1.276403,346.013,-124.97648,21.177322,FKL
331708988000,1.480039,-1.22876181775555,1.94177264959177,1.65602040160843,-4.373795,0.37384954,0.01740966,345.33923,-124.27072,22.12951,FKL
331714252000,1.485303,-3.55016472823236,2.22989009100261,-1.68202524555029,-5.3334646,0.8268061,-1.054048,344.57907,-123.48607,22.93648,FKL
331718922000,1.489973,-4.65772162652547,2.92405174017541,-4.39968318622877,-5.646838,1.1102476,-1.6285667,344.17612,-122.38695,22.936443,FKL
331724002000,1.495053,-3.65911756942527,4.69430462168315,-6.79179423381228,-5.4281487,1.0821478,-2.1227567,343.61115,-121.039925,22.687109,FKL
331728962000,1.500013,-2.69519892631527,5.95597466040952,-9.0770257940629,-4.9217415,0.893085,-2.5696046,343.38318,-119.493576,21.796776,FKL
331734978000,1.506029,-1.59450880792593,4.60692364522387,-11.5380554591947,-4.4113636,0.7131852,-2.8860328,343.12802,-117.927925,20.806383,FKL
331739240000,1.510291,-0.887002837700877,3.78753067932369,-12.9244751105317,-4.07386,0.5390886,-3.1355712,342.9693,-116.52535,19.709702,FKL
331744046000,1.515097,-0.3997229191799,3.44934384685154,-12.9535666559216,-3.7974439,0.4166101,-3.2479706,342.82602,-115.1964,18.569378,FKL
331749068000,1.520119,0.109457220398199,3.0959576061784,-12.9839656864976,-3.5115588,0.3652974,-3.2415564,342.7235,-114.1553,17.52167,FKL
331754035000,1.525086,1.17618407468383,3.0213566163962,-12.4042050167879,-3.195436,0.312763,-3.137404,342.63367,-113.198944,16.475779,FKL
331759012000,1.530063,2.60760853551763,3.12360124129827,-11.430658419418,-2.8738155,0.23304509,-2.9663615,342.55182,-112.346344,15.459045,FKL
331764247000,1.535298,4.51266706094795,3.38019227388776,-10.254323196278,-2.6462681,0.09162979,-2.7177396,342.47455,-111.6778,14.597119,FKL
331768981000,1.540032,6.62635373562082,3.7581070304449,-9.0414799214888,-2.6083946,-0.10781772,-2.3848178,342.44174,-111.11304,13.804993,FKL
331773983000,1.545034,8.69961956324426,4.09162920449133,-7.96186229675574,-2.7198775,-0.29046643,-1.9663752,342.38947,-110.69641,13.329877,FKL
331779070000,1.550121,10.5496403101266,4.32459486835443,-7.18987858987342,-2.9626966,-0.39278635,-1.5262468,342.39716,-110.33831,12.948877,FKL
331783976000,1.555027,12.0266921185323,4.41882532467393,-6.58826260761072,-3.3512068,-0.3277292,-1.2281445,342.34616,-110.073524,12.991886,FKL
331789255000,1.560306,12.6607252142755,4.11448961274187,-6.3853719564426,-3.7568212,-0.13072516,-1.0913107,342.31815,-109.81458,13.1117935,FKL
331793968000,1.565019,13.2267790085997,3.84278394683245,-6.20423468821843,-4.120286,-0.008552114,-1.0503827,342.25223,-109.64196,13.569113,FKL
331798965000,1.570016,13.1665591528526,3.52830188477575,-5.90587823908268,-4.270559,0.26725355,-1.0118983,342.11258,-109.48662,14.073547,FKL
331805088000,1.576139,12.1408423875725,3.104895594132,-5.38705676556493,-4.498106,0.56382865,-0.8185594,341.96106,-109.32484,14.62568,FKL
331808940000,1.579991,10.4494707099935,2.27128889036577,-5.29393201845199,-4.831944,0.6579019,-0.75655663,341.76974,-109.21538,15.270523,FKL
331814267000,1.585318,7.27140547419987,0.663512869807315,-5.35224501036904,-4.9162436,0.9071349,-0.71959925,341.47708,-109.20936,15.96809,FKL
331819225000,1.590276,4.46560933118971,-0.745728407877813,-5.42133483601286,-5.0610185,1.1551461,-0.8078693,341.17404,-109.08181,16.531551,FKL
331824035000,1.595086,3.13645272702657,-1.31481022028262,-5.62402151226942,-5.1557026,1.3622295,-0.9941832,340.82227,-109.01289,17.073738,FKL
331828912000,1.599963,1.78878188326282,-1.89181895190388,-5.82953147486884,-5.2070155,1.5085317,-1.2519683,340.4679,-108.5802,17.12357,FKL
331834001000,1.605052,0.792871236053974,-2.12290962507816,-6.06432098955077,-5.264131,1.6285667,-1.5766432,340.0627,-108.13602,17.1066,FKL
331839289000,1.61034,-0.036303436053974,-2.17707677492184,-6.31849001044924,-5.2534413,1.7366899,-1.8945986,339.6232,-107.69428,17.020012,FKL
331843997000,1.615048,-0.631853728176278,-2.20365560675105,-6.5025798125879,-5.188384,1.8011361,-2.155438,339.18527,-107.04503,16.63655,FKL
331849029000,1.62008,-0.857781956711986,-2.16976639606188,-6.57788936626817,-5.0921726,1.8264871,-2.3420575,338.73355,-106.38666,16.179377,FKL
331853905000,1.624956,-1.07670605097672,-2.136927804782,-6.65086420405532,-4.9528956,1.842675,-2.4828618,338.286,-105.58469,15.504252,FKL
331858991000,1.630042,-0.743115347946042,-2.30090037347926,-6.37609871086791,-4.8075094,1.8655825,-2.620612,337.8365,-104.781334,14.768947,FKL
331864252000,1.635303,-0.12758675697633,-2.56591953270552,-5.92300127882413,-4.6401324,1.8747455,-2.737898,337.39468,-76.005005,13.991532,FKL
331868927000,1.639978,0.290971915319149,-2.83137262765957,-5.55750263297872,-4.4751987,1.8338175,-2.8313603,336.9717,-76.82738,13.121913,FKL
331874889000,1.64594,0.515940092364066,-3.24193960303388,-5.18068080076832,-4.2971315,1.7342464,-2.917187,336.5696,-77.63464,12.213957,FKL
331878947000,1.649998,0.654731158616216,-3.47614124108108,-4.91150707102703,-4.1163154,1.5824465,-2.9889636,336.1861,-78.26342,11.412293,FKL
331883992000,1.655043,0.796504875967568,-3.67014739783784,-4.54961094994595,-3.923893,1.3918564,-3.051272,335.85135,-78.8583,10.585224,FKL
331889244000,1.660295,0.944095671513514,-3.87211376756757,-4.17286596918919,-3.719864,1.1618657,-3.0842586,335.57175,-79.34167,9.7930975,FKL
331893981000,1.665032,1.12964565992138,-3.97498221656392,-3.72866152505137,-3.5188892,1.0296134,-3.0955596,335.32654,-79.778915,8.986831,FKL
331899073000,1.670124,1.3474831304476,-4.05776031251675,-3.21456514374162,-3.4315355,0.75991637,-3.0897565,335.1932,-80.152954,8.180551,FKL
331903928000,1.674979,1.5855153023213,-4.09659511839656,-2.78155656072196,-3.2806518,0.49541172,-3.0702088,335.09283,-80.39171,7.420663,FKL
331908928000,1.679979,1.86462257300337,-4.09169855433071,-2.39962031979753,-3.1349604,0.27214047,-2.9975157,335.06216,-80.54472,6.681642,FKL
331914072000,1.685123,2.11431621984503,-4.06345467851413,-1.98671516030994,-3.03936,0.09590584,-2.9071076,335.09103,-80.501335,6.012033,FKL
331918984000,1.690035,2.32014858724704,-4.01628483654512,-1.57505042550593,-2.9706378,-0.014660766,-2.7968466,335.16846,-80.38071,5.3734775,FKL
331923980000,1.695031,2.48553429935631,-3.96775495631229,-1.16167607450789,-2.9278772,-0.07452556,-2.6685648,335.28006,-80.08485,4.828278,FKL
331928946000,1.699997,2.55959750795266,-3.91837955265781,-0.761734964628322,-2.9190195,-0.076052725,-2.5488353,335.40985,-79.71847,4.315228,FKL
331933928000,1.704979,2.41711249309129,-3.83171857032076,-0.158660340754318,-2.9165761,-0.025045475,-2.415972,335.53992,-79.18328,3.8954108,FKL
331939093000,1.710144,1.9184602716602,-3.6817741598872,0.793312093232288,-2.9452868,0.06994407,-2.2944098,335.6614,-78.58785,3.5068169,FKL
331944597000,1.715648,1.38707947267536,-3.52198828669722,1.80776635783292,-2.983466,0.24404067,-2.1630738,335.7468,-77.860466,3.172184,FKL
331948959000,1.72001,1.04551920063038,-3.39079707778667,2.57605476882129,-3.0466905,0.47311515,-2.0118847,335.79144,-77.07986,2.8712883,FKL
331953927000,1.724978,0.707515599029418,-3.23845743896338,3.42820466387833,-3.1291573,0.75991637,-1.8420641,335.77118,-76.25189,2.6000957,FKL
331958928000,1.729979,0.302218330820773,-3.17220443186633,4.27469536646284,-3.2064316,1.0940597,-1.6530013,335.6844,-75.18463,2.2371104,FKL
331964074000,1.735125,-0.168915027963138,-3.17644891790543,5.1363176559125,-3.2754595,1.4263704,-1.4636332,335.5173,-74.07434,1.9014546,FKL
331968988000,1.740039,-0.673230101379587,-3.1690003704231,5.99131727882494,-3.3298264,1.7397442,-1.2910637,335.28912,-72.930305,1.6037236,FKL
331974001000,1.745052,-1.35672835536796,-3.12568008913174,6.96361762923601,-3.3692272,2.025629,-1.1734722,334.97165,-71.79952,1.3291025,FKL
331979032000,1.750083,-2.11808152883919,-2.95504428950467,8.00924775390266,-3.3600643,2.2427917,-1.0958922,334.59058,-70.4188,0.92634463,FKL
331983984000,1.755035,-3.08383416791444,-2.42221521497326,9.23885345454546,-3.2950072,2.370768,-1.0619892,334.16348,-69.083435,0.54016155,FKL
331988954000,1.760005,-4.05309721642089,-1.88744936270729,10.4729286427916,-3.2088752,2.3726006,-1.0894781,333.7121,-67.45365,-0.076393984,FKL
331996554000,1.767605,-5.54143035639949,-1.035087062716,12.3722563538026,-3.0631838,2.2024746,-1.1954633,333.30167,-65.88039,-0.69290614,FKL
331998985000,1.770036,-6.06646811492727,-0.487320439119399,13.0768523813336,-2.903748,2.1255057,-1.1954633,332.88046,-64.35916,-1.2923728,FKL
332004017000,1.775068,-7.15325955915259,0.646518166367275,14.5353168858733,-2.8145616,1.953547,-1.3072516,332.60342,-62.49828,-2.3216078,FKL
332008983000,1.780034,-8.49097884724173,2.02527629511099,15.7541312239393,-2.6355782,1.707063,-1.4993688,332.41028,-60.733597,-3.3310878,FKL
332014152000,1.785203,-10.1600715558678,3.73146022177578,16.7926775830289,-2.5094345,1.3671165,-1.7055358,332.33337,-59.004112,-4.3131795,FKL
332018965000,1.790016,-11.8628397327542,5.19739727644354,17.3346713234543,-2.5460863,1.0900891,-1.9419407,332.38583,-57.148163,-5.51458,FKL
332023969000,1.79502,-13.8953152054165,6.5050380050281,17.1485654806336,-2.758973,1.070236,-2.219579,332.53052,-55.3126,-6.7193313,FKL
332028902000,1.799953,-15.4298428342846,7.6797080657344,17.0353752883371,-2.9620855,1.1279627,-2.453235,332.81857,-53.507076,-8.212925,FKL
332033930000,1.804981,-16.2543669141933,8.6966205874239,17.0307945086568,-2.8389962,1.0855075,-2.595261,333.19754,-51.77797,-9.644398,FKL
332038946000,1.809997,-16.9490197737902,9.65428958346889,17.214930843534,-2.4474316,0.8188649,-2.6032023,333.70337,-50.232212,-11.361659,FKL
332044024000,1.815075,-17.3396101790362,10.4849127467466,17.862619005185,-2.0076087,0.3735441,-2.4911084,334.28366,-48.770535,-12.920682,FKL
332048947000,1.819998,-17.3593591715024,11.0540019554849,18.3847474479332,-1.7241671,-0.06505715,-2.3295345,334.94208,-47.50331,-14.443668,FKL
332054044000,1.825095,-16.6318206642488,11.1510070222576,18.7048647760334,-1.7373008,-0.30634892,-2.2131648,335.6492,-46.311436,-15.796048,FKL
332059984000,1.831035,-16.3024946649624,10.9178427860902,18.976141416391,-2.0131063,-0.4166101,-2.060143,336.38104,-45.18436,-16.975155,FKL
332064098000,1.835149,-16.5335567016541,10.4497948620301,19.073898098797,-2.4749205,-0.41050145,-1.9501873,337.12488,-44.048595,-18.028643,FKL
332068931000,1.839982,-16.8050012381955,9.89994663233083,19.1887396267669,-3.0879238,-0.18295415,-2.1444426,337.84738,-42.799034,-18.960928,FKL
332073953000,1.845004,-17.295306357547,9.32910500146012,19.2760372903815,-3.642284,-0.14721853,-2.0320432,338.52408,-41.538883,-19.714867,FKL
332079062000,1.850113,-17.9070160937215,8.74865024183245,19.3474779694287,-3.4498615,-0.4382958,-1.289842,339.12305,-40.4123,-20.309557,FKL
332083910000,1.854961,-18.4120394228541,7.21723639977181,19.0239694626997,-2.6655104,-0.5177083,-0.5128214,339.63904,-39.259563,-20.938139,FKL
332088971000,1.860022,-18.8501850373881,4.46074973526417,18.2242479566439,-1.8909334,-0.36835176,-0.04153884,340.06418,-38.252674,-21.432571,FKL
332094036000,1.865087,-19.2136169859551,1.76935540926966,17.3406377275281,-1.1902709,-0.08093964,0.226631,340.35605,-37.45481,-21.884092,FKL
332098994000,1.870045,-19.2732852405381,-0.599821152439385,16.147274834861,-0.8891144,-0.12339478,0.33383787,340.60712,-36.81967,-22.21396,FKL
332103908000,1.874959,-19.33242396644,-2.94797234732407,14.964502496304,-0.33444872,-0.3866777,0.5580254,340.78113,-36.271626,-22.600077,FKL
332108951000,1.880002,-18.1800070561622,-5.05432781903276,14.3388254851794,0.15118915,-0.4972443,0.5751296,340.95624,-35.78808,-23.011858,FKL
332113981000,1.885032,-15.6916972702375,-6.8203595983706,14.3638756524528,0.5039638,-0.74128497,0.35979962,341.21222,-35.423744,-23.323967,FKL
332119036000,1.890087,-13.3250012372756,-8.19954399800547,14.0322011278348,0.7693848,-1.6148223,0.17134771,341.6489,-34.99872,-23.564728,FKL
332123963000,1.895014,-11.5891591193765,-7.85795261668021,12.1883047716629,1.3530666,-2.531731,0.18845193,342.14435,-34.749256,-23.734262,FKL
332130089000,1.90114,-9.43089469594445,-7.43323396395065,9.89569079197754,2.1044307,-2.0228803,0.6221663,342.38617,-34.506638,-23.741146,FKL
332133991000,1.905042,-7.70858019961353,-5.15439918228019,7.22277254458068,2.5827382,-1.6542231,0.8017606,342.88422,-34.31094,-23.554184,FKL
332139109000,1.91016,-5.15132279207729,-0.442416006743962,2.67653720340387,2.6148088,-1.0534371,1.1191051,343.10007,-34.270966,-23.440006,FKL
332144011000,1.915062,-3.28949872685653,2.85418413511052,-0.25193449235036,2.6022859,-0.80878556,1.3060299,343.25925,-34.530582,-23.203226,FKL
332149031000,1.920082,-2.2347735365262,4.46612255120457,-1.18327681438033,2.4947736,-0.81122905,1.3787229,343.30893,-34.78968,-23.020494,FKL
332154358000,1.925409,-1.09702309555641,6.09671721980115,-2.1536734239847,2.3280075,-0.79626286,1.4709635,343.17908,-35.755325,-22.771923,FKL
332158990000,1.930041,0.165067527281071,6.33760024377055,-2.73382789905927,2.112372,-0.6753115,1.6554449,342.99548,-36.6935,-22.521498,FKL
332163961000,1.935012,1.51952618145316,6.59611266003824,-3.35644186615679,1.8570304,-0.39614612,1.8674151,342.7135,-37.766083,-22.182898,FKL
332168939000,1.93999,2.75578443894081,6.36317059364486,-3.63576751800623,1.5439619,-0.051923547,1.9663752,342.38196,-38.784348,-21.865929,FKL
332173966000,1.945017,3.79062553686397,5.25334085451713,-3.3058182066459,1.1655309,0.1459968,1.8976529,342.01724,-39.732178,-21.564009,FKL
332179001000,1.950052,4.54311928448881,4.02957848024481,-2.72689844476773,0.72143185,0.17745635,1.642922,341.5687,-40.69211,-21.11779,FKL
332183988000,1.955039,4.93604419891642,2.67830046990067,-1.84521345642621,0.20861048,0.13194689,1.287093,341.1353,-41.524933,-20.720715,FKL
332188977000,1.960028,5.16290763110038,1.5132185171392,-0.86874688324303,-0.321926,0.09468412,0.915687,340.72614,-42.114246,-20.23585,FKL
332193980000,1.965031,5.18650763622303,0.573937633113979,0.226294143020392,-0.7816021,-0.023518313,0.754724,340.37878,-42.578598,-19.746153,FKL
332200219000,1.97127,4.9222539952034,-0.323557867107873,1.47922511603926,-0.98868537,-0.42638394,0.39645153,340.2205,-42.712143,-19.210009,FKL
332204107000,1.975158,4.59821244766242,-0.734261573337381,2.19889859800648,-1.4086553,-0.59223384,0.3359759,340.00818,-42.690754,-18.661524,FKL
332208948000,1.979999,4.1235058781296,-1.03141188814776,2.94236968418548,-1.4801265,-0.95417154,0.24251351,340.01102,-42.451836,-18.008617,FKL
332214002000,1.985053,3.5372816665196,-1.06909774593823,3.52440653939787,-1.5030339,-1.344209,0.17898351,340.058,-42.10408,-17.31459,FKL
332218986000,1.990037,2.88833382859637,-0.970099716631595,4.00795143413608,-1.353372,-1.7699821,0.08032878,340.21957,-41.586918,-16.578918,FKL
332224007000,1.995058,1.76780864203414,0.0267555202712181,3.89927173065233,-1.0800097,-2.159714,-0.06047566,340.46448,-41.076015,-15.782597,FKL
332229075000,2.000126,0.636794572028681,1.03294200515938,3.78957471068506,-0.7556403,-2.4718661,-0.19456059,340.77252,-40.469936,-15.014287,FKL
332234668000,2.005719,-0.241108630436807,2.07573211879482,3.3936904502375,-0.42119157,-2.6251934,-0.31306845,341.12006,-39.938763,-14.215344,FKL
332238964000,2.010015,-0.746905322428984,2.84592249577163,2.96452965291981,-0.118507855,-2.5561657,-0.41508293,341.4758,-39.484127,-13.416016,FKL
332243970000,2.015021,-1.14673734547502,3.66426984962121,2.5416029422502,0.103847094,-2.254398,-0.48563787,341.89767,-39.259872,-12.896939,FKL
332248993000,2.020044,-1.27970378665029,4.37342421969697,2.22642321650287,0.2669481,-1.7266107,-0.4978552,342.25128,-39.102436,-12.4555235,FKL
332253954000,2.025005,-1.36771496066304,4.76313513078674,2.27850092572984,0.2761111,-1.0210613,-0.46609017,342.57782,-39.147038,-12.262324,FKL
332258991000,2.030042,-1.40590469213261,4.79177734215735,2.76064600514597,0.11484267,-0.22174409,-0.42241332,342.7777,-39.187172,-12.211355,FKL
332263968000,2.035019,-1.55210246211325,4.70496835236427,3.62333707262113,-0.18234327,0.5369505,-0.40225476,342.91583,-39.32479,-12.328103,FKL
332269020000,2.040071,-1.83925007110333,4.46960148231173,4.99317281471103,-0.60994893,1.1893547,-0.41141775,342.91568,-39.381096,-12.59316,FKL
332274015000,2.045066,-2.23872231555649,4.20616676726813,6.47998508785835,-1.1267409,1.6710218,-0.43982297,342.7838,-39.28506,-12.967596,FKL
332278953000,2.050004,-2.80891704768128,3.8991388313828,8.15069535059022,-1.6526959,1.9343048,-0.4877759,342.57788,-39.068134,-13.435869,FKL
332284244000,2.055295,-3.42769501175558,3.56736253922065,9.9348642842905,-2.1300871,2.019826,-0.5177083,342.2883,-38.569233,-13.948838,FKL
332288969000,2.06002,-4.08199788835879,3.23466610633118,11.4504814703864,-2.496301,1.9941696,-0.5177083,341.99405,-37.98069,-14.483065,FKL
332293933000,2.064984,-4.7693967199902,2.8851412189527,13.0427616210277,-2.643214,1.8576412,-0.50915617,341.77765,-37.090527,-15.006601,FKL
332299009000,2.07006,-5.4367029039298,2.44776231744609,14.5254907882946,-2.8160887,1.6673567,-0.45265114,341.57837,-36.126534,-15.495481,FKL
332304433000,2.075484,-6.12037595327173,1.91440039350322,15.9898113035564,-2.8661797,1.3542882,-0.29932398,341.4128,-35.194286,-15.899236,FKL
332308987000,2.080038,-6.66315836246054,1.30162870750125,16.9002420054826,-2.6661212,0.9691377,-0.25259277,341.3502,-34.071514,-16.28847,FKL
332314006000,2.085057,-7.22215818044526,0.419207664828045,17.5031632433959,-2.533869,0.59986967,-0.24281894,341.31937,-32.964706,-16.582157,FKL
332319195000,2.090246,-7.85490440739192,-0.496562107199599,18.0769399088553,-2.171015,0.39828414,-0.31948254,341.3689,-31.82354,-16.867264,FKL
332323961000,2.095012,-9.25942400347855,-1.38965323868216,17.8593920747554,-1.7391334,0.36377025,-0.38515055,341.4497,-30.780392,-17.09564,FKL
332328959000,2.10001,-10.7323129966051,-2.32621838244,17.6312544174262,-1.3396275,0.36896262,-0.3652974,341.6007,-29.68138,-17.362137,FKL
332333984000,2.105035,-11.2401627193444,-2.43213001419837,17.2775214058254,-0.9599747,0.2874121,-0.31795537,341.77975,-28.731085,-17.59527,FKL
332339022000,2.110073,-11.1582194953295,-2.03060997058424,16.8473212979789,-0.6267477,0.09712757,-0.2660318,341.96704,-27.91364,-17.79008,FKL
332343933000,2.114984,-10.9283054482116,-1.63200700483133,16.3393958194609,-0.29535335,-0.17134771,-0.22418754,342.2945,-27.105526,-18.234121,FKL
332348971000,2.120022,-10.2658063131039,-1.20260922905577,15.5664800194948,0.03726278,-0.4266894,-0.1704314,342.62756,-26.424843,-18.602924,FKL
332353960000,2.125011,-9.6097506987625,-0.777387811162909,14.8010816618071,0.40469822,-0.66767573,-0.1255328,342.9829,-25.947233,-18.896147,FKL
332358999000,2.13005,-8.87028466224189,-0.52941440326942,13.8935439688627,0.7644979,-0.93554014,-0.081855945,343.359,-25.5794,-19.097404,FKL
332363962000,2.135013,-8.13420514970501,-0.303527642903146,12.9861022818748,1.1511755,-1.1866057,-0.06505715,343.75623,-25.332813,-19.22889,FKL
332369031000,2.140082,-7.28730903822848,-0.0571359910105687,11.9036662138903,1.5265522,-1.4001031,-0.07788532,344.13898,-25.288696,-19.22637,FKL
332374071000,2.145122,-6.33994254643181,0.205211643896326,10.6550854791142,1.9083431,-1.5809193,-0.10170906,344.54697,-25.352478,-19.167551,FKL
332378981000,2.150032,-5.47976975875113,0.492438391223857,9.45836761092765,2.2800546,-1.7125608,-0.12522738,344.9404,-25.596315,-18.998365,FKL
332384141000,2.155192,-4.6440489709997,0.828704773451416,8.22209450375263,2.6090055,-1.7690657,-0.14996742,345.3542,-25.923063,-18.812511,FKL
332388954000,2.160005,-3.90891484846271,1.32130903501411,6.84483694611155,2.850908,-1.784032,-0.15974127,345.74234,-26.412106,-18.54038,FKL
332394018000,2.165069,-3.18267090321204,2.03001072448817,5.15728475518339,2.9431489,-1.711339,-0.16982053,346.1335,-26.936735,-18.289783,FKL
332399024000,2.170075,-2.46474491783983,2.73059537249512,3.48906076865369,3.0317242,-1.5128077,-0.17959438,346.48123,-27.626062,-18.01853,FKL
332403992000,2.175043,-2.00880179221331,3.29597165761208,2.64123445707409,2.937651,-1.2049317,-0.17715092,346.80182,-28.279356,-17.802752,FKL
332408981000,2.180032,-1.64803776101935,3.8145699907126,2.09557883929212,2.682004,-0.8414669,-0.15271631,347.0815,-28.901184,-17.65774,FKL
332413955000,2.185006,-1.30985177864396,4.1809584596135,1.92139662184736,2.2785273,-0.48349985,-0.108123146,347.25336,-29.84907,-17.549437,FKL
332419989000,2.19104,-0.917100783999345,4.50273055171962,2.01130346889944,1.7461584,-0.13652839,-0.052839845,347.3543,-30.661022,-17.531393,FKL
332424015000,2.195066,-0.659189916945309,4.69525924228132,2.14084311868205,1.1435398,0.13958271,0.008246681,347.40897,-31.306902,-17.553709,FKL
332428992000,2.200043,-0.360245064684145,4.82679484280816,2.6350985918381,0.5369505,0.34788775,0.076052725,347.3995,-31.809294,-17.633562,FKL
332433903000,2.204954,-0.0652645202890116,4.95658614965713,3.1227997428667,-0.034208454,0.49357912,0.12675454,347.30542,-32.182674,-17.671015,FKL
332438961000,2.210012,0.118009652513759,5.04692198292129,3.77275567724295,-0.5335908,0.59406644,0.17562376,347.16528,-32.41921,-17.73371,FKL
332443975000,2.215026,0.260633547426138,5.12242882819079,4.46490112375295,-0.9456194,0.64873886,0.21502456,346.99628,-32.53183,-17.810404,FKL
332449089000,2.22014,0.28932124205359,5.22707837156724,5.51712960656218,-1.2681563,0.6603453,0.25473082,346.7609,-32.529,-17.771729,FKL
332454154000,2.225205,0.196133779318504,5.35950256610718,6.91984591692619,-1.4886786,0.6227771,0.29077184,346.51718,-32.4503,-17.726536,FKL
332458985000,2.230036,-0.0435839127484418,5.55720569218317,7.70448182635042,-1.6187929,0.56505036,0.31948254,346.24246,-32.288013,-17.578455,FKL
332463967000,2.235018,-0.435949452137292,5.82979643458276,7.98120277268006,-1.6603317,0.46883908,0.34513888,345.9767,-32.09826,-17.407629,FKL
332468972000,2.240023,-0.785701339926915,6.06035807354623,8.21798171480775,-1.6249015,0.35888332,0.36193767,345.7123,-31.877419,-17.126663,FKL
332474139000,2.24519,-0.94687212954401,6.10359918929933,8.27694700325707,-1.5439619,0.24648413,0.364992,345.4659,-31.664042,-16.825785,FKL
332478906000,2.249957,-1.09556598557356,6.14349282173499,8.33134753161741,-1.4123205,0.1432479,0.35796702,345.2621,-31.494171,-16.572739,FKL
332483985000,2.255036,-1.28362553659676,6.16052251884319,8.36151780018024,-1.2767084,0.05467244,0.34972036,345.0767,-31.35,-16.30188,FKL
332489926000,2.260977,-1.521351736097,6.16518391135507,8.38016288349992,-1.1410962,-0.028405234,0.30940324,344.9191,-31.238747,-16.019901,FKL
332493984000,2.265035,-1.69677396045305,6.14838651744769,8.39500624675774,-1.0106765,-0.06169739,0.28710666,344.78598,-31.162569,-15.7664,FKL
332499023000,2.270074,-1.95546038807712,6.06493909159606,8.4200404832267,-0.95111716,-0.10903945,0.2312125,344.6875,-31.095932,-15.507115,FKL
332504580000,2.275631,-2.24665032648427,5.96067307351573,8.45182876401482,-0.86070913,-0.1563815,0.12522738,344.646,-31.064734,-15.299683,FKL
332508993000,2.280044,-2.61652583623748,5.59079756376252,8.57512032224237,-0.73761976,-0.15943582,0.09010262,344.60022,-31.058027,-15.094362,FKL
332513982000,2.285033,-3.03467877486399,5.17264462513601,8.71450432042892,-0.6994407,-0.14263703,0.01863139,344.62158,-31.024635,-14.963719,FKL
332518956000,2.290007,-3.32334562983993,4.76285758366053,8.84989464965267,-0.636827,-0.09407325,-0.064751714,344.64792,-31.025434,-14.850845,FKL
332524084000,2.295135,-3.40245147017014,4.35249610793315,8.98338578747609,-0.5757405,-0.027183503,-0.13408493,344.6807,-31.02945,-14.7585125,FKL
332528921000,2.299972,-3.47957868459596,3.97612334050117,9.09690865918803,-0.50579643,0.0580322,-0.19303341,344.76617,-30.957104,-14.793125,FKL
332533927000,2.304978,-3.56339252449495,3.603617720338,9.19469145619658,-0.4288274,0.13347405,-0.23732115,344.85422,-30.900883,-14.849379,FKL
332538920000,2.309971,-3.63516564108352,3.25503350225734,9.2925505778781,-0.33475417,0.21777347,-0.2733622,344.94635,-30.789358,-14.951737,FKL
332543975000,2.315026,-3.6826783744234,2.95095171120817,9.3923274171165,-0.24648413,0.27000242,-0.2950479,345.03812,-30.697721,-15.067271,FKL
332549002000,2.320053,-3.73894937541461,2.66662807592723,9.47924631932858,-0.15699236,0.32406402,-0.29810223,345.1288,-30.569374,-15.221938,FKL
332554008000,2.325059,-3.81604902100714,2.4256918469796,9.53707117931451,-0.067500606,0.35521814,-0.28893927,345.21707,-30.466776,-15.382535,FKL
332559674000,2.330725,-3.88794147198935,2.18290450667554,9.56892722000443,0.050701816,0.37720928,-0.2764165,345.30585,-30.347614,-15.56008,FKL
332563959000,2.33501,-3.92434563078288,2.03425409656982,9.55375882050713,0.15974127,0.3827071,-0.24862215,345.38647,-30.254305,-15.734735,FKL
332568927000,2.339978,-3.96655236611222,1.86190981712871,9.53617268078658,0.2602286,0.3817908,-0.21533,345.47156,-30.157808,-15.922444,FKL
332573954000,2.345005,-4.00334979471588,1.70772744495386,9.49012655269548,0.35308012,0.38148534,-0.18936823,345.55118,-30.091358,-16.105906,FKL
332579062000,2.350113,-4.03661128468188,1.56517762811073,9.42360347353084,0.42241332,0.3747658,-0.14019357,345.6183,-30.051054,-16.276617,FKL
332583910000,2.354961,-4.07956570434265,1.50656666091612,9.32115038191553,0.48991394,0.37415496,-0.099265605,345.68994,-30.004448,-16.46081,FKL
332588962000,2.360013,-4.13425112492564,1.51232299566924,9.18011994003569,0.52106804,0.37384954,-0.079107046,345.7564,-29.968796,-16.636925,FKL
332593998000,2.365049,-4.18876335336109,1.51806109975015,9.03953615038668,0.5186246,0.35613444,-0.040927973,345.8144,-29.931494,-16.811457,FKL
332598966000,2.370017,-4.24267116860498,1.54458716184474,8.90451922944715,0.5143485,0.34788775,0.007330383,345.86444,-29.903997,-16.981562,FKL
332604088000,2.375139,-4.29887539839588,1.6710471557147,8.7827429825265,0.4822781,0.33261612,0.04550946,345.91238,-29.870113,-17.139404,FKL
332608973000,2.380024,-4.34882737233503,1.79277097801396,8.66765433819797,0.42546764,0.3051272,0.08582657,345.96094,-29.84473,-17.315273,FKL
332613967000,2.385018,-4.36020741814721,1.92933164658947,8.56144073572335,0.3539964,0.2678644,0.11453723,346.00784,-29.808329,-17.478975,FKL
332618945000,2.389996,-4.37155100406091,2.06545479600254,8.4555674251269,0.27214047,0.23976462,0.14385876,346.0518,-29.782188,-17.645952,FKL
332623962000,2.395013,-4.37093848219525,2.23646390029551,8.33199704485488,0.19822577,0.21105394,0.16126843,346.0984,-29.740068,-17.799166,FKL
332629393000,2.400444,-4.35995972286016,2.45054864692348,8.1837837651715,0.112399206,0.16676621,0.18295415,346.14407,-29.67612,-17.934807,FKL
332633938000,2.404989,-4.34005289464613,2.63869994825816,8.09188153782545,0.04428773,0.12217305,0.17989981,346.1949,-29.62704,-18.070364,FKL
332638945000,2.409996,-4.31367727819949,2.84970579787312,8.00396264802897,-0.01985312,0.08827003,0.18997909,346.24246,-29.56017,-18.190742,FKL
332644001000,2.415052,-4.29789166149737,3.04511766609988,7.93528419834417,-0.0711658,0.05100725,0.19028452,346.29218,-29.515852,-18.301113,FKL
332649040000,2.420091,-4.29359561456423,3.22125576979436,7.88802772693848,-0.096516706,0.028099801,0.1740966,346.34665,-29.461561,-18.40608,FKL
332653965000,2.425016,-4.28520928991681,3.41636637761221,7.83530054571716,-0.12339478,0.020158553,0.16829337,346.39127,-29.44325,-18.494965,FKL
332658931000,2.429982,-4.26347129339062,3.68591767072859,7.76139135752811,-0.12614368,-0.0036651916,0.1414153,346.45135,-29.42118,-18.578642,FKL
332664254000,2.435305,-4.23952284512275,3.9550279712683,7.69055134974867,-0.12461651,-0.01160644,0.12095132,346.5059,-29.429667,-18.658619,FKL
332668981000,2.440032,-4.21313990403584,4.03747433072048,7.69384926473374,-0.10476339,-0.01038471,0.089186326,346.57202,-29.437973,-18.73968,FKL
332673975000,2.445026,-4.18526674816784,4.12457759264224,7.69733345924091,-0.09040806,-0.0018325958,0.06811147,346.6292,-29.514383,-18.807236,FKL
332678905000,2.449956,-4.15026364611399,4.2177815388601,7.70686530397237,-0.056505036,0.005192355,0.025045475,346.69974,-29.592308,-18.882301,FKL
332683918000,2.454969,-4.09661201743371,4.32996211978055,7.73125243106776,-0.03176499,0.009162978,0.002443461,346.76883,-29.66837,-18.958286,FKL
332688910000,2.459961,-4.02859270707783,4.42664654451297,7.75829473251101,-0.028710667,0.025350908,-0.014660766,346.83032,-29.764286,-19.031668,FKL
332693967000,2.465018,-3.92903055048458,4.49302136508076,7.79148201903084,-0.0015271631,0.040317107,-0.042455133,346.89926,-29.86512,-19.1104,FKL
332699026000,2.470077,-3.82829427233567,4.54534132793864,7.82802821286193,0.01038471,0.059864793,-0.06872234,346.95078,-29.981836,-19.179226,FKL
332703943000,2.474994,-3.72782971671238,4.56447741474144,7.87108440816824,0.021380283,0.08399397,-0.09407325,347.00574,-30.097097,-19.256653,FKL
332708912000,2.479963,-3.63451178954209,4.57204007458063,7.91902051394892,0.022602014,0.106595986,-0.11178834,347.04395,-30.213531,-19.31809,FKL
332713995000,2.485046,-3.55726701252834,4.55364847929575,7.97787346522593,0.018020526,0.12950343,-0.13194689,347.08524,-30.322742,-19.389502,FKL
332721029000,2.49208,-3.45036924301366,4.51405620107971,8.06883864941251,0.0012217305,0.1572978,-0.1572978,347.11514,-30.42446,-19.447447,FKL
332724016000,2.495067,-3.40494858332804,4.40958869803112,8.16649334518895,-0.021685716,0.17165314,-0.16554448,347.14432,-30.518145,-19.507908,FKL
332729020000,2.500071,-3.32885719361702,4.23457852553191,8.33009029787234,-0.020463986,0.18509217,-0.16493362,347.16937,-30.597178,-19.553204,FKL
332734016000,2.505067,-3.26426279142756,4.06287443395324,8.47660952701027,-0.050396383,0.19517145,-0.16340645,347.1943,-30.657925,-19.601944,FKL
332738990000,2.510041,-3.25582584434998,3.90679086896918,8.53988640984768,-0.07391469,0.1908954,-0.17470746,347.22238,-30.71629,-19.65192,FKL
332744841000,2.515892,-3.24852355540603,3.72270663820629,8.61021154834547,-0.10170906,0.18845193,-0.1685988,347.23984,-30.71467,-19.678286,FKL
332748960000,2.520011,-3.27033948638584,3.58817502586413,8.61748348737211,-0.112399206,0.18142697,-0.16065755,347.2609,-30.710335,-19.703535,FKL
332754059000,2.52511,-3.29734590349341,3.42163540670108,8.62648557940824,-0.12644911,0.17623462,-0.13836098,347.27753,-30.667398,-19.725643,FKL
332758999000,2.53005,-3.33075922728738,3.26353372434816,8.61866779378022,-0.12522738,0.17806722,-0.13316862,347.29617,-30.625828,-19.748657,FKL
332763977000,2.535028,-3.36692002908884,3.10533064715085,8.60510773499573,-0.116675265,0.17989981,-0.111177474,347.30542,-30.588083,-19.763918,FKL
332768961000,2.540012,-3.41618220318982,2.96334136956762,8.56713965640269,-0.09865474,0.18203785,-0.08582657,347.32123,-30.527023,-19.789223,FKL
332773943000,2.544994,-3.47336396133493,2.8313832683046,8.51435626892228,-0.093767814,0.19242255,-0.061391957,347.34616,-30.443356,-19.826551,FKL
332778993000,2.550044,-3.53961529504091,2.72145974686976,8.45486000128167,-0.08307768,0.19303341,-0.042455133,347.36707,-30.369814,-19.85824,FKL
332783975000,2.555026,-3.6148777300207,2.64149351407867,8.38900555486542,-0.0580322,0.20616703,-0.013439035,347.37527,-30.306751,-19.88942,FKL
332788974000,2.560025,-3.68195437983926,2.58153974121236,8.32932942190375,-0.03726278,0.20219639,-0.0009162979,347.39502,-30.227875,-19.937029,FKL
332793985000,2.565036,-3.73771811931829,2.54901084465963,8.27821207843517,-0.028405234,0.21013765,0.023823744,347.40018,-30.15848,-19.98339,FKL
332798955000,2.570006,-3.80141852053802,2.52651718888774,8.2315517316089,-0.025045475,0.21044308,0.04520403,347.41196,-30.085615,-20.047724,FKL
332803950000,2.575001,-3.88060929705122,2.52156772013451,8.19195660175892,-0.011301007,0.21533,0.07391469,347.41364,-30.02265,-20.108967,FKL
332808930000,2.579981,-3.94837163767798,2.54240437889741,8.1526054098211,-0.006414085,0.21624629,0.102319926,347.4152,-29.95783,-20.181765,FKL
332814680000,2.585731,-4.00868554786418,2.60774455323111,8.10737008214677,0.005497787,0.21227567,0.12095132,347.4122,-29.901657,-20.250328,FKL
332819021000,2.590072,-4.06249193476214,2.66193604249374,8.07814062769154,0.0021380284,0.20463985,0.13500121,347.41104,-29.842583,-20.332487,FKL
332823990000,2.595041,-4.14827752709064,2.73818981387081,8.05907703555333,0.0021380284,0.19211712,0.14752395,347.408122642003,-29.8177185176435,-20.3685193685533,FKL
332828968000,2.600019,-4.22722454716878,2.81605528975107,8.0445175,0.00580322,0.18448131,0.16035213,347.4052,-29.792809,-20.404617,FKL
332833999000,2.60505,-4.28433701699644,2.89952731869244,8.0445175,-0.0012217305,0.1695151,0.15149458,347.40656,-29.746973,-20.490763,FKL
332839186000,2.610237,-4.34535703868253,2.98814118082868,8.04687197721939,-0.004581489,0.16035213,0.15821409,347.40057,-29.71819,-20.582329,FKL
332843978000,2.615029,-4.42334781786841,3.09584282537024,8.07286887776159,-0.0143553335,0.13591751,0.15241088,347.40546,-29.684011,-20.668089,FKL
332849087000,2.620138,-4.50649783682933,3.21066914047099,8.10058552318524,-0.020463986,0.122783914,0.14446963,347.4094,-29.661644,-20.761759,FKL
332853931000,2.624982,-4.55935700931069,3.29102799337455,8.11404889074467,-0.023823744,0.10995574,0.13897185,347.41846,-29.637539,-20.848368,FKL
332858922000,2.629973,-4.59464191015041,3.35277666195442,8.11845959546,-0.037873644,0.08307768,0.12217305,347.4372,-29.607317,-20.929667,FKL
332863943000,2.634994,-4.61973498813362,3.42176104913575,8.15084634385317,-0.034208454,0.065973446,0.105374254,347.4621,-29.594658,-21.022404,FKL
332868990000,2.640041,-4.62912207486891,3.50155128638571,8.22594313575452,-0.059253927,0.043982297,0.086437434,347.4971,-29.568987,-21.108557,FKL
332873931000,2.644982,-4.62184285862816,3.57632528765343,8.28102669458484,-0.06872234,0.030848695,0.06872234,347.54,-29.55537,-21.197952,FKL
332878952000,2.650003,-4.58216463270758,3.64576237722537,8.30086572986075,-0.07696902,0.020158553,0.04795292,347.59143,-29.53335,-21.28428,FKL
332884742000,2.655793,-4.54681834555157,3.7035089162278,8.312668,-0.07696902,0.011911872,0.035124753,347.64194,-29.517698,-21.36116,FKL
332888949000,2.66,-4.52919539147931,3.72818105192897,8.312668,-0.07788532,0.0012217305,0.026572637,347.6982,-29.498186,-21.435848,FKL
332894005000,2.665056,-4.50734431498004,3.75506010858574,8.312668,-0.087964594,-0.00061086525,0.008857546,347.74432,-29.483948,-21.502167,FKL
332898974000,2.670025,-4.48127322385537,3.76250898065274,8.312668,-0.074830994,-0.0067195175,-0.0012217305,347.7925,-29.475664,-21.563784,LYI
332903928000,2.674979,-4.45528083395163,3.76993536669015,8.312668,-0.08399397,-0.014660766,-0.011911872,347.84003,-29.465883,-21.619446,LYI
332908927000,2.679978,-4.43132172709104,3.7732618,8.30035142709104,-0.08124508,-0.015577064,-0.026572637,347.89044,-29.460947,-21.67646,LYI
332913953000,2.685004,-4.40905442657291,3.7732618,8.27808412657291,-0.07788532,-0.012217305,-0.036651913,347.94235,-29.453207,-21.732546,LYI
332918943000,2.689994,-4.38652655746413,3.75849741194261,8.24817410197751,-0.06658431,-0.011911872,-0.04917465,347.9914,-29.447735,-21.783117,LYI
332923972000,2.695023,-4.36318333955021,3.72114826328034,8.20615640723149,-0.05589417,-0.0067195175,-0.058337633,348.04016,-29.442293,-21.835833,LYI
332928962000,2.700013,-4.33281042313495,3.68158754060756,8.17189967674106,-0.038179077,-0.005192355,-0.070249505,348.089,-29.44249,-21.886374,LYI
332933934000,2.704985,-4.28853028843769,3.63730745728456,8.15221948558586,-0.024129177,-0.0012217305,-0.082161374,348.13834,-29.443323,-21.939346,LYI
332938931000,2.709982,-4.24505639009439,3.59568047389316,8.14397940259803,-0.007941248,0.0009162979,-0.08460484,348.1867,-29.44442,-21.992464,LYI
332943969000,2.71502,-4.2028037620901,3.55812239713924,8.15336884825338,0.01038471,0.0018325958,-0.087659165,348.2373,-29.448044,-22.047314,LYI
332948908000,2.719959,-4.16319041148965,3.51539536169482,8.16712493262716,0.028405234,0.0015271631,-0.095294975,348.28302,-29.451431,-22.097687,LYI
332954472000,2.725523,-4.12251039812959,3.45437581952476,8.19254974186468,0.045814894,-0.00061086525,-0.092240654,348.32635,-29.460089,-22.145964,LYI
332958905000,2.729956,-4.09547464021686,3.40645931591917,8.20392467570232,0.05955936,-0.00580322,-0.092240654,348.36798,-29.465233,-22.187183,LYI
332963963000,2.735014,-4.0811505537309,3.35393753251848,8.18960073878758,0.07269296,-0.008246681,-0.09285152,348.40848,-29.474602,-22.227655,LYI
332968960000,2.740011,-4.05182134649855,3.29525391629173,8.17377158853411,0.06566802,-0.0106901415,-0.080634214,348.4474,-29.471441,-22.257902,LYI
332973970000,2.745021,-3.96912766988389,3.21256010333817,8.15201008272859,0.076052725,-0.015577064,-0.07269296,348.4879,-29.475319,-22.28735,LYI
332979178000,2.750229,-3.88605628614111,3.13090679538037,8.12976351976942,0.058948494,-0.016798794,-0.059864793,348.52127,-29.468426,-22.314194,LYI
332983940000,2.754991,-3.8527330341804,3.1197990447268,8.11495306957863,0.043982297,-0.011911872,-0.044898596,348.55136,-29.465935,-22.339497,LYI
332988933000,2.759984,-3.81779330359665,3.10815246786555,8.09942417881789,0.030543262,-0.009468411,-0.038179077,348.58054,-29.453373,-22.349277,LYI
332993999000,2.76505,-3.78066106641988,3.09933030248546,8.09062394764675,0.03176499,-0.020463986,-0.019242255,348.60358,-29.44437,-22.352768,LYI
332998983000,2.770034,-3.74279946864093,3.09302008011634,8.08746891882602,0.008857546,-0.016798794,-0.0076358155,348.62354,-29.42593,-22.360409,LYI
333003977000,2.775028,-3.7048619045743,3.08669719678741,8.08430755969064,-0.0125227375,-0.024129177,0.011911872,348.63657,-29.411386,-22.352398,LYI
333008928000,2.779979,-3.67033685541523,3.08851304491963,8.08043441513586,-0.024740042,-0.0125227375,0.026267206,348.6439,-29.394472,-22.348982,LYI
333013952000,2.785003,-3.63811365388442,3.09771962586108,8.07583100449675,-0.03023783,-0.00580322,0.042760566,348.64725,-29.376953,-22.33944,LYI
333018978000,2.790029,-3.60500291802667,3.11040052136889,8.08264177671111,-0.048563786,-0.00061086525,0.06169739,348.6399,-29.354343,-22.319733,LYI
333024109000,2.79516,-3.57005985024,3.12787200965333,8.10448113706667,-0.052839845,0.00580322,0.07544186,348.62817,-29.33583,-22.300467,LYI
333028968000,2.800019,-3.54253669383628,3.14560123081859,8.12289540312075,-0.0720821,0.011911872,0.08674286,348.60733,-29.31557,-22.273195,LYI
333033925000,2.804976,-3.53792146949251,3.16867735253743,8.13212580361657,-0.07696902,0.029321533,0.10323623,348.57874,-29.300678,-22.247686,LYI
333038982000,2.810033,-3.53884626193548,3.19408134451613,8.13972944516129,-0.07238753,0.03726278,0.103847094,348.54013,-29.291561,-22.21172,LYI
333043978000,2.815029,-3.57588817457204,3.23112312822366,8.13561381556989,-0.08307768,0.047036625,0.11056661,348.49292,-29.28027,-22.177397,LYI
333048965000,2.820016,-3.6128633583828,3.26809818333763,8.13150560004301,-0.09010262,0.051618114,0.115453534,348.44095,-29.275742,-22.1418,LYI
333053935000,2.824986,-3.70051157757951,3.29136362476121,8.13473279862496,-0.0852157,0.06383542,0.116980694,348.38586,-29.27205,-22.11026,LYI
333058897000,2.829948,-3.80027043392464,3.31131553144747,8.13972057998321,-0.08399397,0.07544186,0.11575896,348.33032,-29.266,-22.079685,LYI
333063963000,2.835014,-3.85445240538391,3.33336751419394,8.13038934123585,-0.07666359,0.089186326,0.115453534,348.26715,-29.27146,-22.060081,LYI
333068994000,2.840045,-3.90235325047415,3.35547555806822,8.11933526158611,-0.06780604,0.099265605,0.11484267,348.20407,-29.277313,-22.04269,LYI
333073956000,2.845007,-3.94876222014925,3.371036,8.121710709375,-0.062308256,0.10445796,0.10415252,348.15533,-29.283167,-22.046274,LYI
333078937000,2.849988,-3.99326039253731,3.371036,8.15730929375,-0.057421334,0.10751228,0.0983493,348.10516,-29.29143,-22.05082,LYI
333084010000,2.855061,-4.04227123571635,3.37451453555278,8.19303944250938,-0.03970624,0.11362094,0.1001819,348.0586,-29.305738,-22.070465,LYI
333088969000,2.86002,-4.11081470262677,3.39736229423651,8.22502625695179,-0.03970624,0.11942416,0.098043874,348.01517,-29.315195,-22.091658,LYI
333094097000,2.865148,-4.18114644534872,3.41630841438405,8.25694805101731,-0.03481932,0.115453534,0.09437868,347.97665,-29.327753,-22.117615,LYI
333098972000,2.870023,-4.2425827951817,3.3879532253467,8.27585144457941,-0.018020526,0.116675265,0.07788532,347.94128,-29.34106,-22.147797,LYI
333104042000,2.875093,-4.30353902029224,3.35790666380943,8.29605163891747,-0.007941248,0.106595986,0.077579886,347.9153,-29.353868,-22.182102,LYI
333108999000,2.88005,-4.33773385289154,3.32371167818481,8.32047702942992,-0.006414085,0.096516706,0.0842994,347.8924,-29.367203,-22.217255,LYI
333113982000,2.885033,-4.37071823040975,3.28808842964708,8.34298227703006,-0.0009162979,0.07696902,0.0888809,347.8818,-29.375546,-22.259253,LYI
333118994000,2.890045,-4.39584100220577,3.24502079408554,8.35374942014356,0.010995574,0.06078109,0.0888809,347.87228,-29.385933,-22.29836,LYI
333124027000,2.895078,-4.42106903701211,3.20177270753701,8.36456167698519,0.019242255,0.055283304,0.07788532,347.86713,-29.387012,-22.342392,LYI
333128979000,2.90003,-4.43861955788041,3.16354661412726,8.35645546939599,0.030848695,0.04062254,0.082161374,347.8625,-29.393782,-22.37712,LYI
333133932000,2.904983,-4.44818568528789,3.13006499339518,8.32775633800544,0.038179077,0.03023783,0.07880162,347.86322,-29.399082,-22.413591,LYI
333139725000,2.910776,-4.44168167078928,3.10381228803814,8.3069011848565,0.04337143,0.01985312,0.082161374,347.8734,-29.397127,-22.451477,LYI
333143989000,2.91504,-4.42626049933912,3.09224638932213,8.29919039784743,0.04886922,0.018020526,0.079107046,347.88654,-29.395895,-22.489693,LYI
333148977000,2.920028,-4.40572551545323,3.07454945792367,8.28616805071562,0.054061573,0.02076942,0.079107046,347.90088,-29.395756,-22.52971,LYI
333153943000,2.924994,-4.38106341796308,3.04988720592201,8.26643847573118,0.060170226,0.008552114,0.071776666,347.92075,-29.395868,-22.566557,LYI
333158926000,2.929977,-4.35668897739217,3.04790522038041,8.24142708976391,0.06352998,0.008857546,0.065973446,347.93536,-29.393705,-22.60442,LYI
333163967000,2.935018,-4.33252439067323,3.07609722420122,8.20920792116459,0.06627888,0.0067195175,0.06352998,347.95343,-29.392353,-22.63875,LYI
333169062000,2.940113,-4.30569454167701,3.10361083498883,8.17665875821538,0.07086037,0.0021380284,0.058337633,347.97253,-29.392208,-22.670341,LYI
333174059000,2.94511,-4.24231524252959,3.11549443806804,8.14496890182932,0.070554934,-0.0009162979,0.054367006,347.992,-29.39112,-22.7015,LYI
333178913000,2.949964,-4.18074967957951,3.12703796605413,8.11418591946031,0.07269296,-0.005497787,0.054061573,348.00714,-29.401861,-22.726639,LYI
333183926000,2.954977,-4.12936595476929,3.1504935316615,8.0831005372971,0.07788532,0.0018325958,0.054367006,348.02173,-29.41241,-22.754103,LYI
333188984000,2.960035,-4.08519355425862,3.18141421201897,8.05218013368594,0.073303826,0.0036651916,0.04428773,348.0408,-29.419163,-22.780455,LYI
333193990000,2.965041,-4.03858904106377,3.20964196034468,8.02944664552533,0.07666359,0.011301007,0.036651913,348.04865,-29.438978,-22.795847,LYI
333198953000,2.970004,-3.98869350254571,3.23458968618669,8.01697250039367,0.063224554,0.013744468,0.035124753,348.05817,-29.452265,-22.810894,LYI
333203969000,2.97502,-3.94059577333014,3.26621146505466,8.00340522497805,0.067500606,0.02107485,0.030543262,348.06155,-29.479906,-22.821802,LYI
333209728000,2.980779,-3.90098400086186,3.34543510190727,7.98139882259197,0.058643065,0.01985312,0.02076942,348.0679,-29.499218,-22.832201,LYI
333213903000,2.984954,-3.8722673573378,3.40286845559014,7.96544523169739,0.058643065,0.028710667,0.019547688,348.06436,-29.527002,-22.83506,LYI
333218967000,2.990018,-3.8594532,3.47730194757445,7.96406810499157,0.058337633,0.024129177,0.010079277,348.0681,-29.549467,-22.837196,LYI
333224003000,2.995054,-3.8594532,3.55408505384904,7.97310144767747,0.04886922,0.026267206,0.013744468,348.06635,-29.570446,-22.841286,LYI
333228980000,3.000031,-3.86440261202364,3.60615083607092,7.97995468017118,0.03756821,0.026267206,0.01038471,348.0586,-29.608288,-22.835508,LYI
333233993000,3.005044,-3.87418628807826,3.63550186423477,7.9848464671184,0.025045475,0.03390302,0.011301007,348.0475,-29.643284,-22.831099,LYI
333238925000,3.009976,-3.8786068,3.65631628090685,7.98957432696895,0.038789943,0.034208454,0.013744468,348.0379,-29.694729,-22.820396,LYI
333244032000,3.015083,-3.8786068,3.67077918409069,7.9943952946969,0.02687807,0.04184427,0.024740042,348.02374,-29.73625,-22.812153,LYI
333249010000,3.020061,-3.89820775591757,3.69219451693817,8.02358473763494,0.01863139,0.043066,0.025045475,348.00912,-29.78644,-22.804062,LYI
333253963000,3.025014,-3.93544731658489,3.72012418743867,8.07478898773307,0.02565634,0.036957346,0.027794369,347.99155,-29.837656,-22.794249,LYI
333258985000,3.030036,-3.97588479170124,3.7349546,8.12057533609959,0.027183503,0.03970624,0.041233405,347.96863,-29.891214,-22.783472,LYI
333263979000,3.03503,-4.0190260864153,3.7349546,8.15940271757171,0.017104227,0.04520403,0.044593163,347.9488,-29.94099,-22.773363,LYI
333268991000,3.040042,-4.05756465501361,3.72969407598911,8.19869056175424,0.015882496,0.054061573,0.04795292,347.92307,-29.993065,-22.76585,LYI
333273958000,3.045009,-4.08245892212686,3.70977866229851,8.23852144112414,0.013133603,0.04550946,0.054061573,347.89853,-30.041313,-22.75477,LYI
333279705000,3.050756,-4.11227004627767,3.68771611871227,8.27371531237425,0.0030543262,0.039095376,0.055588737,347.8742,-30.078884,-22.753935,LYI
333284001000,3.055052,-4.1355522917505,3.67219476579477,8.28923671931589,0.00030543262,0.03756821,0.057726767,347.8495,-30.117283,-22.751238,LYI
333288928000,3.059979,-4.16225425251509,3.65439362384306,8.30703792322686,0.002443461,0.03268129,0.058643065,347.8286,-30.146158,-22.749187,LYI
333293997000,3.065048,-4.1890864938151,3.62779231386719,8.31688294759115,-0.0015271631,0.026572637,0.05222898,347.81012,-30.171263,-22.747314,LYI
333298986000,3.070037,-4.21241583409831,3.56169220512695,8.28577680867513,-0.009468411,0.023518313,0.05497787,347.78986,-30.196352,-22.743475,LYI
333303920000,3.074971,-4.23548798582357,3.49632080073242,8.25501359171549,0.004276057,0.025961773,0.05955936,347.7759,-30.217207,-22.747791,LYI
333309066000,3.080117,-4.23376671308716,3.45667330444612,8.22592255017584,0.009468411,0.020463986,0.049785517,347.7672,-30.231882,-22.751213,LYI
333314053000,3.085104,-4.22176985259985,3.42968036834966,8.19892967671439,0.002443461,0.018325957,0.04734206,347.7548,-30.247904,-22.754095,LYI
333318954000,3.090005,-4.20997987601105,3.40315292102487,8.17240229094449,0.003970624,0.017715093,0.037873644,347.75037,-30.255043,-22.770868,LYI
333323952000,3.095003,-4.17201994561306,3.38099009992619,8.10194197444414,0.00580322,0.011911872,0.031154128,347.7473,-30.260275,-22.785526,LYI
333329024000,3.100075,-4.10928058308885,3.36306468141895,7.98990781631147,0.011911872,0.013133603,0.029321533,347.74457,-30.266209,-22.802122,LYI
333333955000,3.105006,-4.06237596130898,3.35343585098219,7.90448549017808,0.01282817,0.004276057,0.018325957,347.7516,-30.264917,-22.818445,LYI
333339086000,3.110137,-4.03982296967138,3.35794645872958,7.85937941270424,0.0076358155,-0.009468411,0.011911872,347.75864,-30.263744,-22.833178,LYI
333343961000,3.115012,-4.01297457456711,3.36331614508658,7.81868048412926,0.01160644,-0.013744468,-0.0015271631,347.76608,-30.27122,-22.847107,LYI
333348996000,3.120047,-3.95979360180876,3.37395233963825,7.78677201153634,-0.0030543262,-0.013133603,-0.0036651916,347.7737,-30.27303,-22.858019,LYI
333353854000,3.124905,-3.92001639714512,3.3806129,7.74898579214909,-0.0030543262,-0.0143553335,-0.016187929,347.78268,-30.28096,-22.87037,LYI
333358837000,3.129888,-3.90109443267248,3.3806129,7.69695038984933,-0.009162978,-0.006414085,-0.013439035,347.7866,-30.285112,-22.882864,LYI
333363824000,3.134875,-3.8881836,3.39411855518365,7.66594749028436,-0.014966198,-0.004886922,-0.006414085,347.78503,-30.29161,-22.887907,LYI
333368926000,3.139977,-3.8881836,3.43753749201224,7.68042048601896,-0.024740042,0.0033597588,-0.004276057,347.78165,-30.295088,-22.896692,LYI
333373839000,3.14489,-3.89957567360032,3.466804,7.69587200706143,-0.031154128,0.002443461,-0.0027488936,347.7773,-30.303493,-22.902586,LYI
333378840000,3.149891,-3.9382267998386,3.466804,7.71519746928276,-0.03756821,0.009162978,-0.0036651916,347.77057,-30.309168,-22.9122,LYI
333383823000,3.154874,-3.97424034588385,3.47388575941289,7.7485480096522,-0.04795292,0.0036651916,-0.0067195175,347.75854,-30.318825,-22.916098,LYI
333388842000,3.159893,-4.00491421901723,3.49689116426292,7.81373007013401,-0.05955936,0.0106901415,-0.0070249503,347.74316,-30.32645,-22.924171,LYI
333393906000,3.164957,-4.03586311193363,3.52010283395022,7.87949654837269,-0.06566802,0.01740966,-0.00061086525,347.7354,-30.330902,-22.935707,LYI
333398851000,3.169902,-4.08927152111186,3.53296647490434,7.9347971290907,-0.073303826,0.004276057,0.0009162979,347.73145,-30.33126,-22.944729,LYI
333404072000,3.175123,-4.1495517421063,3.54167169986272,7.99229681135517,-0.07360926,0.0009162979,0.0027488936,347.72314,-30.33275,-22.95636,LYI
333408843000,3.179894,-4.18539506089429,3.51926980105903,8.05950264811728,-0.083383106,-0.005497787,0.006414085,347.7193,-30.323751,-22.964403,LYI
333414260000,3.185311,-4.22609081683513,3.49523230853956,8.13524037190659,-0.09437868,-0.013744468,0.00061086525,347.7188,-30.311613,-22.978582,LYI
333418936000,3.189987,-4.26121011937957,3.49133015475776,8.19377267863367,-0.08735373,-0.019547688,0.0021380284,347.71628,-30.303242,-22.989763,LYI
333423888000,3.194939,-4.29840233199721,3.48719767710003,8.25575984349948,-0.096516706,-0.03268129,0.0021380284,347.72485,-30.275057,-23.001371,LYI
333428871000,3.199922,-4.33657660218794,3.47582751240169,8.30137477848357,-0.09621128,-0.034208454,0.00061086525,347.73227,-30.251678,-23.014042,LYI
333433865000,3.204916,-4.37515421995362,3.4613609246219,8.33995264801371,-0.093767814,-0.04550946,-0.0012217305,347.74347,-30.227043,-23.021036,LYI
333438865000,3.209916,-4.3861775,3.46375795797309,8.35424144718007,-0.09865474,-0.039095376,-0.0070249503,347.75842,-30.189974,-23.036362,LYI
333443956000,3.215007,-4.3861775,3.47306332848554,8.35889422960206,-0.096516706,-0.04917465,-0.007330383,347.7767,-30.156721,-23.044159,LYI
333448900000,3.219951,-4.38297191514762,3.48599755455712,8.36375865179718,-0.09193522,-0.058337633,-0.004886922,347.80106,-30.11682,-23.058798,LYI
333453908000,3.224959,-4.37784134022251,3.50138927933248,8.36888933386821,-0.08399397,-0.06078109,-0.011301007,347.82776,-30.078241,-23.073687,LYI
333458901000,3.229952,-4.35148321711165,3.49255244216366,8.35757065204577,-0.08246681,-0.058948494,-0.008857546,347.84995,-30.043112,-23.084677,LYI
333464499000,3.23555,-4.31430509199029,3.47396335533981,8.33898069174757,-0.090713486,-0.058948494,-0.006414085,347.87393,-30.007624,-23.095367,LYI
333468952000,3.240003,-4.27424535116529,3.45607854431984,8.31466036050707,-0.07727446,-0.064751714,-0.009773844,347.90103,-29.980766,-23.102999,LYI
333473957000,3.245008,-4.21815743239395,3.43270853749391,8.27726854480741,-0.06841691,-0.06261369,-0.0125227375,347.92538,-29.951899,-23.111874,LYI
333478944000,3.249995,-4.17298846652201,3.40684363465592,8.24111790359579,-0.06994407,-0.06658431,-0.0125227375,347.95016,-29.921925,-23.112957,LYI
333483933000,3.254984,-4.143367116708,3.37722269724117,8.20656013468692,-0.065973446,-0.06414085,-0.009468411,347.97284,-29.896393,-23.116003,LYI
333488896000,3.259947,-4.09657705556803,3.35111714465656,8.17575897838293,-0.061086524,-0.06780604,-0.006414085,347.9984,-29.871319,-23.108788,LYI
333493971000,3.265022,-4.02835382961819,3.32837605350926,8.14846981148231,-0.055588737,-0.062308256,-0.0067195175,348.0215,-29.84799,-23.104565,LYI
333499034000,3.270085,-3.96967831132857,3.31040340839292,8.12753709183289,-0.051618114,-0.06261369,-0.0067195175,348.04202,-29.82423,-23.096327,LYI
333503958000,3.275009,-3.92974554234099,3.30152932073767,8.1186629578472,-0.052534413,-0.06383542,-0.0012217305,348.05994,-29.801752,-23.088573,LYI
333508957000,3.280008,-3.89497859273128,3.29163959273128,8.10691865455213,-0.03726278,-0.05375614,-0.0012217305,348.0746,-29.783878,-23.073425,LYI
333513931000,3.284982,-3.8818632284141,3.2785242284141,8.08505971402349,-0.03726278,-0.0421497,-0.004581489,348.08817,-29.76269,-23.058386,LYI
333519116000,3.290167,-3.86584246119494,3.26648788331444,8.06181160837331,-0.04642576,-0.0421497,-0.0070249503,348.1017,-29.742048,-23.03584,LYI
333523954000,3.295005,-3.81734776704754,3.27861153575229,8.03352312821631,-0.03848451,-0.039095376,0.0021380284,348.11023,-29.727312,-23.015923,LYI
333528948000,3.299999,-3.7672893746184,3.29112611208024,8.00432249367641,-0.03359759,-0.028405234,-0.00061086525,348.12497,-29.70918,-22.999146,LYI
333534764000,3.305815,-3.75822875986999,3.29854195986999,8.01723629934997,-0.033292156,-0.013439035,-0.004581489,348.13596,-29.693348,-22.983307,LYI
333538901000,3.309952,-3.76201608628238,3.30232928628238,8.03617293141191,-0.0290161,-0.002443461,0.002443461,348.14328,-29.681206,-22.968155,LYI
333543992000,3.315043,-3.76088061089606,3.31241145516129,8.05573514426523,-0.03848451,-0.003970624,-0.0021380284,348.1475,-29.672428,-22.946474,LYI
333548960000,3.320011,-3.7566173902509,3.32520125064516,8.07278816039426,-0.04550946,0.0030543262,-0.0033597588,348.14557,-29.666811,-22.928263,LYI
333553982000,3.325033,-3.76675938879211,3.33905447237905,8.0996931049428,-0.05131268,0.0015271631,-0.0030543262,348.14642,-29.658699,-22.90704,LYI
333558933000,3.329984,-3.79661450590828,3.35398197897996,8.13949958138315,-0.056199603,0.004276057,0.00580322,348.14328,-29.650194,-22.887733,LYI
333563926000,3.334977,-3.82309088632708,3.36376361320375,8.16865630093834,-0.06719518,0.012217305,-0.00061086525,348.14536,-29.635786,-22.869057,LYI
333568968000,3.340019,-3.84620761631559,3.36838691092493,8.1871495883761,-0.07727446,0.012217305,0.0021380284,348.14343,-29.62294,-22.84673,LYI
333573933000,3.344984,-3.86346236249244,3.36903143968542,8.2077689062311,-0.076052725,0.012217305,0.0027488936,348.1473,-29.61142,-22.828833,LYI
333579084000,3.350135,-3.87340995208711,3.36405769682396,8.23263788021779,-0.076358154,0.028099801,0.006414085,348.14676,-29.598019,-22.814213,LYI
333583929000,3.35498,-3.89042232356268,3.35998235955466,8.25153773093721,-0.087964594,0.02107485,0.008246681,348.1582,-29.579454,-22.797205,LYI
333588918000,3.359969,-3.91778891922388,3.35656153509701,8.26522095732799,-0.09101892,0.022296581,0.004581489,348.16586,-29.563139,-22.786541,LYI
333593992000,3.365043,-3.94562177277869,3.35308242840266,8.27913731144841,-0.08246681,0.024129177,0.007330383,348.17242,-29.544083,-22.774012,LYI
333598950000,3.370001,-3.9634415998573,3.3518825,8.28667719051017,-0.07788532,0.02443461,0.007330383,348.176763448276,-29.5345505172414,-22.7698783310345,LYI
333604722000,3.375773,-3.97823216967535,3.3518825,8.29160748341063,-0.07147124,0.029321533,-0.0009162979,348.18182,-29.523453,-22.765066,LYI
333608928000,3.379979,-3.99567296190968,3.34992893968172,8.28960700175674,-0.05589417,0.01985312,0.00030543262,348.18994,-29.508123,-22.751368,LYI
333613924000,3.384975,-4.02533857695567,3.34498467050739,8.2797187731735,-0.045814894,0.015271631,0.0070249503,348.2012,-29.489388,-22.747332,LYI
333618979000,3.39003,-4.04325278769029,3.33862482853167,8.27068007087903,-0.038179077,0.009162978,0.008857546,348.21408,-29.471872,-22.7444,LYI
333623960000,3.395011,-4.04715694914061,3.33081630179244,8.26287142183664,-0.028405234,0.012217305,0.0067195175,348.2252,-29.458115,-22.742264,LYI
333629316000,3.400367,-4.050989,3.32231945861876,8.255207,-0.018936822,0.014966198,0.005192355,348.24127,-29.44554,-22.744812,LYI
333633938000,3.404989,-4.050989,3.31407961651154,8.255207,-0.010079277,0.01160644,0.014966198,348.2552,-29.436636,-22.745247,LYI
333638893000,3.409944,-4.050989,3.30524612069993,8.255207,-0.0125227375,0.0033597588,0.01740966,348.27356,-29.42276,-22.749102,LYI
333643979000,3.41503,-4.05424265778466,3.29098384065066,8.24544636638265,-0.008246681,-0.005192355,0.022296581,348.2891,-29.414515,-22.750208,LYI
333648993000,3.420044,-4.05796218357862,3.27610604817971,8.23428817738187,0.006414085,-0.019547688,0.043066,348.30185,-29.41073,-22.745169,LYI
333653919000,3.42497,-4.05492098020606,3.265691,8.226477,0.018020526,-0.02321288,0.038789943,348.32547,-29.405453,-22.742899,LYI
333658923000,3.429974,-4.03497205432407,3.265691,8.226477,0.029626964,-0.032986723,0.04062254,348.34506,-29.40719,-22.731874,LYI
333663894000,3.434945,-4.02077905859707,3.26273151719414,8.23091616240354,0.03726278,-0.0421497,0.04886922,348.3662,-29.40515,-22.723804,LYI
333668987000,3.440038,-4.01654992113067,3.25427324226134,8.2436033981618,0.040927973,-0.038179077,0.05375614,348.3868,-29.404713,-22.717072,LYI
333674074000,3.445125,-4.0138125578426,3.2469142526142,8.25369959741332,0.03359759,-0.03940081,0.061391957,348.4067,-29.405237,-22.701452,LYI
333678992000,3.450043,-4.02677312537149,3.2512344417905,8.23641893093011,0.05131268,-0.04428773,0.06078109,348.4271,-29.412413,-22.686848,LYI
333683903000,3.454954,-4.03971524556962,3.25554848185654,8.21916286075949,0.04337143,-0.039095376,0.057421334,348.43848,-29.410276,-22.67289,LYI
333688933000,3.459984,-4.05307685392946,3.2794433108581,8.20912350791447,0.048258353,-0.03848451,0.056199603,348.45084,-29.415842,-22.656858,LYI
333693948000,3.464999,-4.06641411714339,3.30611806939739,8.20023178246783,0.05681047,-0.01985312,0.05955936,348.4588,-29.420193,-22.646671,LYI
333698955000,3.470006,-4.08603643170058,3.35807771556947,8.16277988983519,0.053145275,-0.021380283,0.048563786,348.4738,-29.425589,-22.637947,LYI
333703947000,3.474998,-4.10804517196391,3.41970214234417,8.11436079914373,0.04642576,-0.013133603,0.04795292,348.4804,-29.433636,-22.634262,LYI
333708924000,3.479975,-4.10699781028101,3.4542677338314,8.07916690143476,0.029321533,-0.0027488936,0.039095376,348.49585,-29.44009,-22.635742,LYI
333713915000,3.484966,-4.08670839318278,3.46644138409033,8.05481972803294,0.021685716,0.02076942,0.03604105,348.50626,-29.447414,-22.641779,LYI
333718995000,3.490046,-4.06316539174606,3.48136458417564,8.02896043817316,0.012217305,0.016798794,0.01863139,348.52325,-29.45968,-22.653734,LYI
333723960000,3.495011,-4.02869540619304,3.50598596570008,7.99941467750621,0.0036651916,0.0076358155,0.012217305,348.53525,-29.470572,-22.668734,LYI
333728951000,3.500002,-3.99445009230313,3.519319123704,7.97377072986743,-0.0021380284,0.005497787,0.009773844,348.5477,-29.484318,-22.682707,LYI
333733929000,3.50498,-3.96143543290463,3.50045354776415,7.95962149866442,-0.008246681,0.004886922,0.0036651916,348.56393,-29.49404,-22.696262,LYI
333738939000,3.50999,-3.93020879359835,3.48302819679917,7.94386717152814,-0.013744468,-0.0027488936,-0.007941248,348.57797,-29.507406,-22.7036,LYI
333744008000,3.515059,-3.90514694579246,3.47049727289623,7.92298234197212,-0.006414085,0.0027488936,-0.0070249503,348.58813,-29.522793,-22.712975,LYI
333748919000,3.51997,-3.88086627217346,3.45835693608673,7.90274848954569,-0.0143553335,-0.004276057,-0.0027488936,348.60028,-29.529161,-22.714426,LYI
333753955000,3.525006,-3.86103606286687,3.44844183143344,7.8876874554142,-0.024129177,-0.005192355,-0.005497787,348.61197,-29.535788,-22.71965,LYI
333758936000,3.529987,-3.84192275392167,3.43888517696083,7.87335237391566,-0.025350908,-0.0015271631,-0.003970624,348.62167,-29.543346,-22.723028,LYI
333763932000,3.534983,-3.82662657271308,3.4380736,7.88580812246852,-0.02565634,0.002443461,-0.00061086525,348.62314,-29.547575,-22.724375,LYI
333769405000,3.540456,-3.81538652587413,3.4380736,7.90383462237762,-0.035430185,0.007941248,-0.00061086525,348.623773790556,-29.5473854092044,-22.7263239059599,LYI
333773949000,3.545,-3.85507972672545,3.4380736,7.93470701982366,-0.040317107,0.009773844,-0.0021380284,348.6243,-29.547228,-22.727942,LYI
333779283000,3.550334,-3.90010857344188,3.43660599159882,7.96907708059109,-0.04795292,0.010995574,0.0030543262,348.62128,-29.54988,-22.72721,LYI
333783937000,3.554988,-3.92450232165287,3.42135989896696,7.98127389101731,-0.052839845,0.02076942,0.0027488936,348.61554,-29.546759,-22.727774,LYI
333788892000,3.559943,-3.95047374889512,3.40512775694055,7.99425953684066,-0.056505036,0.020463986,0.0015271631,348.6256,-29.537075,-22.730326,LYI
333793957000,3.565008,-3.97793313382384,3.3901896,8.01180167805339,-0.06078109,0.021380283,0.003970624,348.6328,-29.526632,-22.734943,LYI
333799006000,3.570057,-4.01350942585663,3.3901896,8.06770738595754,-0.06811147,0.03756821,0.0076358155,348.6374,-29.514732,-22.743101,LYI
333804007000,3.575058,-4.04632505477989,3.38855204270696,8.12383667969777,-0.070554934,0.03359759,0.016187929,348.64963,-29.498653,-22.75206,LYI
333808939000,3.57999,-4.06959999558147,3.3807937021025,8.18202423423127,-0.07727446,0.03573562,0.0061086523,348.66193,-29.478146,-22.768415,LYI
333813940000,3.584991,-4.09320055903417,3.37292682023653,8.24102584822602,-0.07941248,0.036651913,0.00580322,348.66574,-29.459656,-22.783247,LYI
333818954000,3.590005,-4.102422244021,3.37458520696092,8.28005133754618,-0.0852157,0.027794369,0.002443461,348.67422,-29.437248,-22.79788,LYI
333823959000,3.59501,-4.10708225617344,3.37924517045499,8.31267093602956,-0.08246681,0.038179077,0.0076358155,348.67715,-29.41797,-22.81579,LYI
333828933000,3.599984,-4.11151178359026,3.37448926887713,8.33143063851136,-0.07788532,0.045814894,0.002443461,348.686,-29.389788,-22.833345,LYI
333833944000,3.604995,-4.11588912954483,3.3657344855514,8.3445630877497,-0.08093964,0.04184427,0.0036651916,348.6919,-29.362535,-22.848429,LYI
333838930000,3.609981,-4.1180267,3.3614593,8.33859262100224,-0.074830994,0.040927973,-0.0015271631,348.6999,-29.33616,-22.865479,LYI
333843967000,3.615018,-4.1180267,3.3614593,8.31402583092279,-0.08124508,0.03604105,-0.0018325958,348.70746,-29.307308,-22.87929,LYI
333848949000,3.62,-4.10273658462659,3.35381422900845,8.29799417956686,-0.069027774,0.027488936,-0.0033597588,348.72067,-29.283081,-22.892178,LYI
333853950000,3.625001,-4.07482933390308,3.33986057936292,8.28869155219967,-0.06841691,0.01985312,-0.004276057,348.73422,-29.255024,-22.903751,LYI
333859802000,3.630853,-4.05798012369952,3.31721388520521,8.283937,-0.063224554,0.017715093,0.0012217305,348.75122,-29.235418,-22.914497,LYI
333863914000,3.634965,-4.0547540547227,3.29785777451462,8.283937,-0.051923547,0.006414085,0.01160644,348.76956,-29.21854,-22.920391,LYI
333868964000,3.640015,-4.04998961771126,3.27326902759588,8.28218808751689,-0.040011674,-0.00030543262,0.013744468,348.78833,-29.200191,-22.92307,LYI
333873983000,3.645034,-4.03000595353913,3.23330154275023,8.24721680563351,-0.029321533,-0.004276057,0.01160644,348.80655,-29.1855,-22.922798,LYI
333878994000,3.650045,-4.01025306811413,3.19561733514267,8.21386383514267,-0.011301007,-0.01160644,0.009162978,348.82343,-29.174078,-22.92004,LYI
333883938000,3.654989,-3.99205816016908,3.17287370021136,8.19112020021135,-0.003970624,-0.016187929,0.015882496,348.83835,-29.163715,-22.916035,LYI
333889147000,3.660198,-3.97370818607857,3.15010288607857,8.16734946519641,-0.0027488936,-0.0143553335,0.022907447,348.85397,-29.152977,-22.912716,LYI
333894062000,3.665113,-3.96559826671261,3.14199296671261,8.14707466678153,-0.0033597588,-0.020158553,0.03145956,348.8691,-29.144735,-22.905373,LYI
333898975000,3.670026,-3.95749164741558,3.13388634741558,8.12680811853894,0.011301007,-0.004581489,0.034513887,348.8837,-29.13932,-22.902052,LYI
333903949000,3.675,-3.94853240520237,3.13496029739882,8.1144430655149,0.004886922,-0.008246681,0.03176499,348.90134,-29.128857,-22.892479,LYI
333908942000,3.679993,-3.93925026167136,3.13960136916432,8.10516072813744,-0.0030543262,0.008857546,0.022602014,348.91364,-29.121363,-22.89244,LYI
333913925000,3.684976,-3.93003994696941,3.15023414807581,8.08992275687897,-0.006414085,0.014049901,0.029321533,348.92487,-29.114435,-22.887402,LYI
333919004000,3.690055,-3.92068059211083,3.16427313149894,8.07120414489128,-0.0143553335,0.02687807,0.026572637,348.93668,-29.102116,-22.891249,LYI
333923971000,3.695022,-3.91422727513197,3.18066992752663,8.05829757831846,-0.03359759,0.035430185,0.027794369,348.94186,-29.088234,-22.893,LYI
333929717000,3.700768,-3.90894574208657,3.20179611485747,8.04773456737691,-0.03145956,0.0421497,0.0290161,348.9459,-29.077698,-22.897776,LYI
333933923000,3.704974,-3.9073372,3.21982021410269,8.04915345111856,-0.047036625,0.03604105,0.022602014,348.9564,-29.0619,-22.900293,LYI
333938916000,3.709967,-3.9073372,3.24338228296048,8.05857824913767,-0.054061573,0.02107485,0.015882496,348.9669,-29.04918,-22.902067,LYI
333943989000,3.71504,-3.9073372,3.27547656592321,8.06947971179876,-0.042455133,0.030543262,0.019242255,348.9746,-29.041967,-22.906246,LYI
333948967000,3.720018,-3.9073372,3.31606008489827,8.08165477172895,-0.052534413,0.03176499,0.013439035,348.99002,-29.025688,-22.907219,LYI
333953963000,3.725014,-3.90851787450338,3.35424384284251,8.09594350501741,-0.047036625,0.034208454,0.019547688,348.9963,-29.023012,-22.906687,LYI
333958934000,3.729985,-3.91826726479623,3.37374257252714,8.12519152319271,-0.05131268,0.026572637,0.013439035,349.0086,-29.013113,-22.906734,LYI
333963934000,3.734985,-3.92792812148038,3.39306424296076,8.15201802724568,-0.051618114,0.017104227,0.008246681,349.0088,-29.015337,-22.903364,LYI
333968976000,3.740027,-3.93690826386461,3.41102452772922,8.1654885221313,-0.054367006,0.01863139,0.01282817,349.00748,-29.016191,-22.90034,LYI
333974165000,3.745216,-3.94540443077466,3.42873676922534,8.17955287188989,-0.043676864,0.021685716,0.008246681,349.00854,-29.019104,-22.896944,LYI
333978934000,3.749985,-3.94137480670549,3.43276639329451,8.19567128401271,-0.03756821,0.017104227,0.01282817,349.00705,-29.021658,-22.89013,LYI
333983945000,3.754996,-3.93714070181754,3.43700049818246,8.21260761514029,-0.04734206,0.02107485,0.009468411,349.009,-29.021578,-22.888117,LYI
333988928000,3.759979,-3.9456590381586,3.4380736,8.21370278717857,-0.03940081,0.024740042,0.006414085,349.0105,-29.027863,-22.88436,LYI
333994108000,3.765159,-3.95904003725949,3.4380736,8.20924236099622,-0.046731193,0.017715093,0.009773844,349.01236,-29.027838,-22.878635,LYI
333998996000,3.770047,-3.98015206162195,3.4278375589187,8.21499992392724,-0.043066,0.024129177,0.009468411,349.009,-29.032003,-22.875853,LYI
334004115000,3.775166,-4.00971108435333,3.40813154376445,8.22977922952467,-0.0421497,0.01985312,0.0061086523,349.00858,-29.033354,-22.86888,LYI
334008924000,3.779975,-4.02732491374674,3.39470031270319,8.2233878478828,-0.04795292,0.02321288,0.010079277,349.00372,-29.035978,-22.8675,LYI
334013929000,3.78498,-4.03694399542444,3.38508128124624,8.19934039479229,-0.035124753,0.016187929,0.007941248,349.0039,-29.042097,-22.864075,LYI
334018963000,3.790014,-4.03890795447437,3.36558620069505,8.18065613727194,-0.03726278,0.02321288,0.005192355,349.0034,-29.034754,-22.870811,LYI
334024007000,3.795058,-4.03424482297519,3.33760736300801,8.16666669408244,-0.04734206,0.013133603,0.0012217305,349.00775,-29.028118,-22.872154,LYI
334028989000,3.80004,-4.03644078907104,3.3185467147541,8.14792590710383,-0.045814894,0.02321288,-0.00030543262,349.00916,-29.024864,-22.883951,LYI
334033930000,3.804981,-4.04601748907104,3.3089698147541,8.12398390710382,-0.04428773,0.019242255,-0.005497787,349.0165,-29.01803,-22.890923,LYI
334038922000,3.809973,-4.05753324434538,3.29745397843266,8.11373645274519,-0.040011674,0.025045475,-0.0009162979,349.0188,-29.013449,-22.901888,LYI
334043990000,3.815041,-4.07119876982637,3.28378850051619,8.11829170717973,-0.040317107,0.026267206,0.0030543262,349.02402,-29.007324,-22.911493,LYI
334048937000,3.819988,-4.0797195,3.2770357485124,8.11582813600207,-0.04734206,0.02107485,-0.007941248,349.0375,-28.996353,-22.92658,LYI
334053943000,3.824994,-4.0797195,3.28198837876033,8.10097019354339,-0.044898596,0.02565634,-0.012217305,349.04636,-28.989092,-22.942509,LYI
334058926000,3.829977,-4.07801666891754,3.2848446,8.09751001102816,-0.04734206,0.03390302,-0.008246681,349.06207,-28.970314,-22.962032,LYI
334063913000,3.834964,-4.07396513332202,3.2848446,8.10966466012046,-0.046731193,0.02565634,-0.008246681,349.08173,-28.952198,-22.979565,LYI
334069067000,3.840118,-4.0688016826992,3.28652088650398,8.12146726220178,-0.04734206,0.029932396,-0.007941248,349.09402,-28.93199,-23.003424,LYI
334074015000,3.845066,-4.05402361231093,3.30499363844535,8.1251618665991,-0.058948494,0.026267206,-0.005192355,349.10815,-28.909788,-23.022587,LYI
334079209000,3.85026,-4.03851081974895,3.32438480125526,8.12904015585529,-0.052839845,0.019242255,-0.004581489,349.1191,-28.893847,-23.039583,LYI
334083925000,3.854976,-4.0298288397973,3.3327289,8.12468859366554,-0.038179077,0.02107485,-0.0070249503,349.12918,-28.877449,-23.057549,LYI
334088925000,3.859976,-4.02578458304054,3.3327289,8.11255557001689,-0.048258353,0.016798794,0.00030543262,349.13852,-28.857924,-23.070461,LYI
334094008000,3.865059,-4.02113847755696,3.33328905537244,8.10253816707061,-0.051618114,0.020463986,-0.0030543262,349.14563,-28.845388,-23.082731,LYI
334099037000,3.870088,-4.01335656931653,3.33717996886411,8.10642916181936,-0.053145275,0.019242255,-0.0015271631,349.15094,-28.832476,-23.090763,LYI
334103954000,3.875005,-4.0057479706253,3.34098422848602,8.11023350088867,-0.05131268,0.016493361,-0.0012217305,349.15277,-28.823061,-23.099926,LYI
334108940000,3.879991,-4.00798159467184,3.33742913078835,8.11643164559223,-0.051618114,0.014660766,0.0009162979,349.1538,-28.81323,-23.108326,LYI
334113954000,3.885005,-4.01544079103689,3.32996997336699,8.12389091984466,-0.061086524,0.007330383,-0.0012217305,349.15732,-28.801086,-23.115147,LYI
334118988000,3.890039,-4.02368767661897,3.323152,8.13035177338516,-0.050701816,0.005497787,-0.00580322,349.15753,-28.793556,-23.120861,LYI
334124028000,3.895079,-4.03965561045406,3.323152,8.1263597065586,-0.0580322,0.010995574,-0.0061086523,349.15723,-28.779497,-23.126162,LYI
334128923000,3.899974,-4.0551641493673,3.323152,8.12248249086097,-0.05681047,0.008857546,-0.007330383,349.15903,-28.765833,-23.132168,LYI
334133980000,3.905031,-4.05452280843373,3.32013043576807,8.11508868222892,-0.05375614,0.005192355,-0.002443461,349.1587,-28.751762,-23.138086,LYI
334138938000,3.909989,-4.04558422138554,3.3156611889119,8.10614990850904,-0.053145275,0.0012217305,-0.0070249503,349.16162,-28.73625,-23.144852,LYI
334143983000,3.915034,-4.03655913579514,3.31600190676378,8.11168460442568,-0.058948494,0.010079277,-0.009162978,349.16098,-28.720596,-23.157148,LYI
334148978000,3.920029,-4.02768251378734,3.32044017142327,8.12943798747449,-0.0580322,0.014660766,-0.008552114,349.16217,-28.706799,-23.167505,LYI
334153976000,3.925027,-4.02545983964273,3.32795357617657,8.14508707617657,-0.06658431,0.020463986,-0.01282817,349.16324,-28.688763,-23.180113,LYI
334158928000,3.929979,-4.03360554792168,3.34017218112333,8.15730568112333,-0.06688975,0.014660766,-0.014049901,349.16455,-28.673779,-23.190199,LYI
334164010000,3.935061,-4.04167545899281,3.35109330379333,8.16848986003924,-0.076052725,0.005497787,-0.008246681,349.16443,-28.654808,-23.196426,LYI
334168974000,3.940025,-4.04556184244604,3.33943386935906,8.16071676847613,-0.07788532,0.010995574,-0.018936822,349.16757,-28.635668,-23.207275,LYI
334173967000,3.945018,-4.04947093039568,3.327706319776,8.15289826602354,-0.07666359,0.016798794,-0.01985312,349.16507,-28.61216,-23.215752,LYI
334179040000,3.950091,-4.04822103316425,3.31207984362261,8.15539816489901,-0.073303826,0.018325957,-0.0125227375,349.163,-28.588964,-23.224627,LYI
334184646000,3.955697,-4.04326978170248,3.29227432075994,8.16530108143503,-0.07880162,0.006414085,-0.015271631,349.16516,-28.562925,-23.232977,LYI
334188926000,3.959977,-4.03788261186828,3.28307970593414,8.17254576970287,-0.064446285,0.015271631,-0.019242255,349.1607,-28.539652,-23.24901,LYI
334195405000,3.966456,-4.02737756028105,3.27782718014052,8.18305076644375,-0.07971791,0.011911872,-0.012217305,349.158,-28.509075,-23.257607,LYI
334199002000,3.970053,-4.02330578426371,3.27177783180388,8.18747150927613,-0.063224554,0.0125227375,-0.011911872,349.15665,-28.487,-23.269405,LYI
334203936000,3.974987,-4.03504628507537,3.23264259753189,8.17964449511347,-0.06536258,0.007330383,-0.01038471,349.1546,-28.457968,-23.27743,LYI
334208906000,3.979957,-4.04687244823588,3.19322182040749,8.17176037261885,-0.06536258,0.004886922,-0.007941248,349.15543,-28.42946,-23.283634,LYI
334213923000,3.984974,-4.050989,3.16818264614417,8.1746745973845,-0.060170226,0.0036651916,-0.004581489,349.1562,-28.402704,-23.28831,LYI
334219083000,3.990134,-4.050989,3.15041658898077,8.18355757958835,-0.05222898,0.009773844,-0.009773844,349.1577,-28.3765,-23.294928,LYI
334223945000,3.994996,-4.06142329546816,3.13075840453184,8.19651700174686,-0.059864793,0.00580322,-0.0018325958,349.16068,-28.340492,-23.302328,LYI
334228938000,3.999989,-4.08528881872629,3.10689288127371,8.21560956987422,-0.061391957,0.0012217305,-0.0015271631,349.16605,-28.307188,-23.31267,LYI
334233924000,4.004975,-4.10276768254932,3.10109802443096,8.226477,-0.054061573,0.004276057,-0.0009162979,349.16843,-28.270178,-23.323187,LYI
334238918000,4.009969,-4.11183953173369,3.11924162807284,8.226477,-0.04734206,0.010079277,0.0009162979,349.17056,-28.233765,-23.332745,LYI
334243965000,4.015016,-4.11138235847162,3.12995479727302,8.22979906669485,-0.047647487,0.009162978,0.0012217305,349.17267,-28.195192,-23.345387,LYI
334248955000,4.020006,-4.09117805364126,3.12490366832259,8.239900902653,-0.048258353,0.01038471,0.0018325958,349.17288,-28.159372,-23.359274,LYI
334254855000,4.025906,-4.07679026058583,3.13082674882933,8.24855930058783,-0.06047566,0.01160644,0.0021380284,349.17215,-28.125246,-23.373514,LYI
334258934000,4.029985,-4.07289828417854,3.14250271869084,8.25245135827439,-0.05100725,0.0012217305,0.008552114,349.17126,-28.09807,-23.383827,LYI
334263909000,4.03496,-4.06246583062224,3.15268872235452,8.25328773756482,-0.052839845,0.00580322,0.0067195175,349.17184,-28.062656,-23.394274,LYI
334269034000,4.040085,-4.0436139113309,3.15740171448051,8.24857464701364,-0.04520403,0.004886922,0.004886922,349.17316,-28.033615,-23.399668,LYI
334273989000,4.04504,-4.0318356,3.16376860769544,8.24391881041688,-0.051923547,0.009162978,0.007941248,349.16962,-28.006458,-23.404373,LYI
334278936000,4.049987,-4.0318356,3.17342642638875,8.23908980022424,-0.04062254,0.012217305,0.0076358155,349.1678,-27.985687,-23.409157,LYI
334283897000,4.054948,-4.03038338032787,3.17804766516393,8.22007870491803,-0.04886922,0.007941248,0.009162978,349.1648,-27.955282,-23.40993,LYI
334288920000,4.059971,-4.02644040767213,3.17410465133607,8.17670633508197,-0.038179077,0.004276057,0.004276057,349.1631,-27.93231,-23.412434,LYI
334294545000,4.065596,-4.02279966731735,3.17127516829338,8.12989768208092,-0.042760566,-0.0027488936,0.0061086523,349.16318,-27.908298,-23.410757,LYI
334299028000,4.070079,-4.03093627196058,3.19161667990145,8.11769252023121,-0.043676864,-0.0009162979,0.0027488936,349.16507,-27.88708,-23.411785,LYI
334303969000,4.07502,-4.03990414248081,3.21403635620203,8.10424043352601,-0.036957346,0.006414085,0.0018325958,349.17038,-27.870335,-23.414534,LYI
334308937000,4.079988,-4.03387377920274,3.22911493119589,8.10951677823233,-0.03726278,0.007330383,0.0012217305,349.17706,-27.851566,-23.416548,LYI
334313900000,4.084951,-4.02482998538674,3.24268062191989,8.11856076091713,-0.034208454,0.0106901415,0.0018325958,349.18198,-27.83579,-23.420843,LYI
334318985000,4.090036,-4.03542813216057,3.23666040087957,8.16722459380556,-0.038179077,0.003970624,0.0018325958,349.183772664898,-27.8307878866566,-23.4233426109742,LYI
334324452000,4.095503,-4.0550244138486,3.22196318961355,8.23581147740245,-0.027794369,0.00580322,0.0009162979,349.1857,-27.82541,-23.42603,LYI
334328990000,4.100041,-4.06665151258363,3.21172148741637,8.25824983572263,-0.03604105,0.006414085,0.0009162979,349.18762,-27.812426,-23.433037,LYI
334333938000,4.104989,-4.07671538834024,3.20165761165976,8.26328190495912,-0.042760566,0.010995574,-0.00030543262,349.18832,-27.80298,-23.436913,LYI
334338918000,4.109969,-4.08632981630542,3.1986535,8.27800463261084,-0.040011674,0.0106901415,0.0015271631,349.18823,-27.786882,-23.438797,LYI
334343968000,4.115019,-4.09585939019704,3.1986535,8.29706378039409,-0.05497787,0.008246681,0.0030543262,349.18817,-27.764708,-23.441387,LYI
334348962000,4.120013,-4.1037047990247,3.18254755930987,8.29825928506362,-0.04795292,0.012217305,0.0106901415,349.18362,-27.750628,-23.44594,LYI
334353983000,4.125034,-4.11084653081836,3.15874186952324,8.2911176775583,-0.03573562,0.009773844,0.011911872,349.1818,-27.733913,-23.448858,LYI
334359087000,4.130138,-4.11810631952077,3.13454265807713,8.28385801519877,-0.043676864,0.022602014,0.008246681,349.18323,-27.715567,-23.454538,LYI
334363937000,4.134988,-4.12500482563493,3.11154771773355,8.27695962914006,-0.04428773,0.020158553,0.008857546,349.18594,-27.703196,-23.455002,LYI
334368978000,4.140029,-4.12470056354805,3.09417666033198,8.25694332066396,-0.04795292,0.017715093,0.013439035,349.18652,-27.688375,-23.458456,LYI
