timestamp,rel_time,acc_x,acc_y,acc_z,gyro_x,gyro_y,gyro_z,azimuth,pitch,roll,label
12511787574000,0,0.0184531639394565,9.9129685371102,0.604000641648231,0.018936822,0.05467244,0.06841691,129.89001,-124.301834,29.480732,STD
12511792549000,0.004975,0.0256008565167923,9.91606588336367,0.603762385392355,0.032375857,0.05222898,0.077579886,129.70903,-123.861755,29.137053,STD
12511797523000,0.009949,0.0327471123720021,9.91916260703498,0.603524177027184,0.03359759,0.06505715,0.07971791,129.5252,-123.42394,28.7978,STD
12511802585000,0.015011,0.0399614070452506,9.92083046795583,0.604308531434168,0.027794369,0.06169739,0.08155051,129.35254,-122.9946,28.46267,STD
12511807596000,0.020022,0.0469153468160146,9.91771317175336,0.608384977555489,0.029626964,0.053450707,0.08155051,129.1818,-122.571945,28.131714,STD
12511812525000,0.024951,0.0537554923219208,9.91464688698346,0.612394716715735,0.021380283,0.050701816,0.08307768,129.00667,-122.15873,27.819288,STD
12511817514000,0.02994,0.0606789019240644,9.9115432767751,0.616453265847499,0.02687807,0.047647487,0.08155051,128.8385,-121.752655,27.508722,STD
12511822537000,0.034963,0.0676494945140758,9.90841851548493,0.620539473963124,0.031154128,0.043066,0.08124508,128.67635,-121.35173,27.202013,STD
12511827523000,0.039949,0.0745687409114076,9.90531677154849,0.624595582596312,0.031154128,0.04795292,0.07513642,128.51587,-120.95485,26.897299,STD
12511832504000,0.04493,0.0814810486340529,9.90221813806526,0.628647623731874,0.01863139,0.04184427,0.07238753,128.36461,-120.563324,26.595745,STD
12511837888000,0.050314,0.0889526135364263,9.89886880205367,0.633027505176136,0.01863139,0.028099801,0.07788532,128.2184,-120.179665,26.298157,STD
12511842533000,0.054959,0.0953986423201419,9.89597919102583,0.636806210471194,0.03573562,0.038789943,0.07360926,128.06941,-119.7991,26.00209,STD
12511847519000,0.059945,0.102317888717474,9.89287744708939,0.640862319104382,0.026572637,0.03390302,0.07452556,127.93411,-119.4233,25.710398,STD
12511852700000,0.065126,0.109507743427577,9.88965439547794,0.645077060145006,0.02443461,0.04428773,0.0729984,127.79393,-119.054596,25.422405,STD
12511857528000,0.069954,0.116207727704817,9.88665094186279,0.649004635853195,0.032375857,0.050701816,0.063224554,127.65947,-118.68967,25.135378,STD
12511862534000,0.07496,0.123154728800894,9.88353675611353,0.65307701447689,0.019547688,0.048258353,0.063224554,127.52868,-118.32927,24.854403,STD
12511867514000,0.07994,0.130065648788602,9.88043874472093,0.657128242112927,0.01985312,0.04642576,0.057726767,127.397964,-117.9733,24.573372,STD
12511872534000,0.08496,0.137032078173802,9.87731584970269,0.661212009729976,0.0012217305,0.028099801,0.050701816,127.27627,-117.61821,24.294327,STD
12511877523000,0.089949,0.143955487775946,9.87421223949433,0.66527055886174,0.00580322,0.028710667,0.06291912,127.153564,-117.275185,24.024006,STD
12511882508000,0.094934,0.15087334643834,9.87111111764853,0.669325853995403,0.009468411,0.010079277,0.05497787,127.043495,-116.92816,23.747412,STD
12511887558000,0.099984,0.157881407871658,9.86796955991106,0.673434026598211,0.022907447,0.0143553335,0.057421334,126.93091,-116.59413,23.482388,STD
12511892529000,0.104955,0.164779838244931,9.86487714733423,0.67747793273852,0.028099801,0.012217305,0.06536258,126.82865,-116.26425,23.218878,STD
12511897517000,0.109943,0.171701860112137,9.86177415921651,0.681535668370759,0.03726278,0.00580322,0.06536258,126.728775,-115.94048,22.957624,STD
12511902538000,0.114964,0.178669677232274,9.85865064210763,0.685620249487333,0.049480084,0.005192355,0.07269296,126.63146,-115.62684,22.70461,STD
12511907528000,0.119954,0.185594474569355,9.85554640980862,0.689679612118623,0.04917465,0.015271631,0.077579886,126.53522,-115.317215,22.454895,STD
12511912510000,0.124936,0.192508170026937,9.85244715423475,0.69373246675371,0.051923547,0.033292156,0.08277224,126.439674,-115.01649,22.211422,STD
12511917530000,0.129956,0.199474599412137,9.84932425921651,0.697816234370759,0.05222898,0.051923547,0.087659165,126.34354,-114.72148,21.973455,STD
12511922518000,0.134944,0.206396621279343,9.84622127109878,0.701873970002998,0.025961773,0.05955936,0.09193522,126.24786,-114.42942,21.74071,STD
12511927507000,0.139933,0.213320030881487,9.84311766089042,0.705932519134762,0.025350908,0.0693332,0.09162979,126.1482,-114.1455,21.512665,STD
12511932541000,0.144967,0.220305888555809,9.83998605660321,0.710027675745166,0.03359759,0.07086037,0.09101892,126.05122,-113.86513,21.289066,STD
12511937706000,0.150132,0.227473539506916,9.83677295844201,0.714229400793384,0.020158553,0.07452556,0.09010262,125.95288,-113.58648,21.069283,STD
12511942631000,0.155057,0.234308134073072,9.83370916203468,0.718235885955529,0.00580322,0.0729984,0.08368854,125.85741,-113.31183,20.85089,STD
12511947494000,0.15992,0.241056689073117,9.83068393524709,0.722191934147104,0.0076358155,0.058337633,0.08002335,125.76704,-113.042595,20.63579,STD
12511952561000,0.164987,0.24808834200037,9.82753180196872,0.726313936241843,0.0070249503,0.05009095,0.07727446,125.67697,-112.77446,20.422686,STD
12511957537000,0.169963,0.254993711048329,9.82443627893869,0.730361909879778,0.009773844,0.038179077,0.07971791,125.594505,-112.51194,20.212381,STD
12511962512000,0.174938,0.26189769236135,9.8213413779993,0.734409070018188,0.017104227,0.019547688,0.07360926,125.51786,-112.251526,20.001453,STD
12511967516000,0.179942,0.268841917987553,9.81822843643132,0.738479821642832,0.022602014,0.002443461,0.070249505,125.44645,-111.99698,19.794767,STD
12511972534000,0.18496,0.275805571902878,9.81510678559436,0.74256196226083,0.040011674,0.0009162979,0.065973446,125.37732,-111.74737,19.589272,STD
12511977539000,0.189965,0.282751185264018,9.81199322193574,0.746633527385,0.053145275,-0.01863139,0.070249505,125.32064,-111.50356,19.386898,STD
12511982506000,0.194932,0.289644064697542,9.80890329772148,0.750674179527207,0.04917465,-0.025350908,0.062002823,125.26126,-111.25969,19.183664,STD
12511987553000,0.199979,0.296647962926048,9.80576360625593,0.75477991163144,0.0580322,-0.027183503,0.07360926,125.20891,-111.029335,18.989862,STD
12511992546000,0.204972,0.303576923467941,9.80265750768501,0.758841714761305,0.069027774,-0.029932396,0.074830994,125.15931,-110.79803,18.793758,STD
12511997525000,0.209951,0.310486455720712,9.79956011838305,0.762892128897816,0.06780604,-0.035430185,0.084910266,125.11337,-110.5756,18.606466,STD
12512002543000,0.214969,0.313543929201626,9.79697532897874,0.767023567493588,0.06688975,-0.030848695,0.093462385,125.066444,-110.35835,18.422602,STD
12512007528000,0.219954,0.301371288388003,9.79649798580135,0.771319794410781,0.06841691,-0.03604105,0.09040806,125.02519,-110.14462,18.24073,STD
12512012527000,0.224953,0.289164461622246,9.79601930204131,0.775628086960239,0.06169739,-0.02565634,0.09621128,124.96653,-109.94841,18.090652,STD
12512017514000,0.22994,0.276986937101175,9.7955417673521,0.779926037539184,0.06261369,-0.01740966,0.10995574,124.911934,-109.758095,17.94404,STD
12512023168000,0.235594,0.263180696146266,9.79500036347547,0.784798829312465,0.07513642,-0.011911872,0.109650314,124.85635,-109.56963,17.797728,STD
12512027526000,0.239952,0.252539097617526,9.79458305924937,0.788554688270364,0.0720821,-0.010079277,0.11728613,124.801956,-109.38849,17.659988,STD
12512032519000,0.244945,0.240346921974112,9.79410495002475,0.792857809834566,0.06261369,-0.011301007,0.11728613,124.74805,-109.20926,17.5223,STD
12512037571000,0.249997,0.228010676960989,9.79362119120183,0.797211779420455,0.055283304,-0.006414085,0.11026118,124.69331,-109.03325,17.38721,STD
12512042531000,0.254957,0.215899082490463,9.79314624192202,0.801486460565746,0.07513642,-0.0009162979,0.11911872,124.64088,-108.86657,17.258694,STD
12512047517000,0.259943,0.203723999823117,9.79266880298871,0.805783549313815,0.07513642,-0.0070249503,0.121256754,124.59131,-108.696335,17.128128,STD
12512052575000,0.265001,0.19137310368765,9.79218446963039,0.810142689884961,0.07788532,-0.015882496,0.12492194,124.54273,-108.53443,17.002676,STD
12512057605000,0.270031,0.179090579456452,9.79170281743734,0.814477699191577,0.08399397,-0.017104227,0.13164146,124.495224,-108.37723,16.880781,STD
12512062541000,0.274967,0.1670375894753,9.7912301662992,0.818731696395842,0.09132435,-0.025961773,0.13072516,124.4537,-108.22229,16.759138,STD
12512067513000,0.279939,0.154896692760088,9.79075406794854,0.823016719511646,0.09285152,-0.025045475,0.13347405,124.41121,-108.072914,16.6427,STD
12512072537000,0.284963,0.142628819651233,9.79027299029092,0.827346557833006,0.099571034,-0.034208454,0.1423316,124.37567,-107.92903,16.529009,STD
12512077524000,0.28995,0.130451295130163,9.78979545560172,0.831644508411951,0.094989546,-0.046120327,0.13836098,124.34138,-107.78409,16.414307,STD
12512082503000,0.294929,0.118293305438883,9.78931868695974,0.835935564343887,0.10140363,-0.05009095,0.13897185,124.30895,-107.6472,16.305237,STD
12512087559000,0.299985,0.105947293010864,9.78883454511321,0.840292981253281,0.119729586,-0.050396383,0.13713925,124.2797,-107.51195,16.19592,STD
12512093038000,0.305464,0.0925683764576365,9.78830989851964,0.845014952623251,0.12461651,-0.063224554,0.13622294,124.2563,-107.37884,16.088345,STD
12512097524000,0.30995,0.081614220652238,9.78788033753793,0.848881125933286,0.122783914,-0.06261369,0.13775012,124.22992,-107.24955,15.983214,STD
12512102555000,0.314981,0.0693292545673161,9.78739858958899,0.853216997070778,0.12461651,-0.0571159,0.15241088,124.20706,-107.12678,15.883129,STD
12512107605000,0.320031,0.0569978932616402,9.78691502227788,0.857569242994916,0.12736541,-0.056505036,0.15027285,124.18574,-107.00218,15.7803545,STD
12512112528000,0.324954,0.044976647378899,9.78644361596648,0.861812036397792,0.11881329,-0.046731193,0.15210545,124.16144,-106.883766,15.685045,STD
12512117516000,0.329942,0.0327966810041046,9.78596598552138,0.866110848807613,0.118507855,-0.045814894,0.13958271,124.13977,-106.76429,15.586454,STD
12512122534000,0.33496,0.0205434590175933,9.78548548239917,0.870435516143716,0.11209377,-0.04184427,0.13775012,124.11544,-106.64879,15.493473,STD
12512127524000,0.33995,0.00835860893535111,9.78500766044226,0.87473605221529,0.11789699,-0.038789943,0.13591751,124.091446,-106.533356,15.398589,STD
12512132512000,0.344938,-0.00382135743944326,9.78453002999715,0.879034864625111,0.11728613,-0.018936822,0.12767084,124.06177,-106.41657,15.303643,STD
12512137558000,0.349984,-0.0161429513302237,9.78404684570966,0.883383663225744,0.1160644,-0.013133603,0.122783914,124.0361,-106.302864,15.210431,STD
12512142535000,0.354961,-0.0282960573140552,9.78357026857949,0.887672995495928,0.106595986,-0.017104227,0.12308934,124.008095,-106.18958,15.118296,STD
12512147518000,0.359944,-0.0404638144202301,9.78309311691389,0.891967498751369,0.12461651,-0.015577064,0.118202426,123.97719,-106.07839,15.025258,STD
12512152553000,0.364979,-0.0527585479200476,9.78261098594134,0.896306817212365,0.122783914,-0.018020526,0.12339478,123.94966,-105.96914,14.936568,STD
12512157530000,0.369956,-0.0649116539038791,9.78213440881116,0.900596149482549,0.12950343,-0.016493361,0.12889257,123.92104,-105.86337,14.84833,STD
12512162676000,0.375102,-0.0774774331670492,9.78164164893335,0.905031131170789,0.13713925,-0.014660766,0.12736541,123.89365,-105.759026,14.76108,STD
12512167512000,0.379938,-0.0892862377758113,9.78117857338553,0.909198945287448,0.14630222,-0.023518313,0.12705997,123.869774,-105.65922,14.677007,STD
12512172539000,0.384965,-0.101561436445838,9.7806972084602,0.913531369101435,0.14782938,-0.022296581,0.12736541,123.842964,-105.56104,14.594498,STD
12512177530000,0.389956,-0.113748728381804,9.78021929074738,0.917832767003885,0.16401732,-0.01863139,0.13469578,123.818794,-105.46884,14.515218,STD
12512182505000,0.394931,-0.125896950658188,9.77974290512901,0.922120375612317,0.17073683,-0.008552114,0.13897185,123.792816,-105.3769,14.436817,STD
12512187589000,0.400015,-0.138311334990476,9.7792560821172,0.92650192378624,0.17012598,-0.0036651916,0.13561209,123.767784,-105.28743,14.359681,STD
12512192529000,0.404955,-0.150374092386523,9.77878304795544,0.93075936831401,0.16798794,-0.0021380284,0.13958271,123.74161,-105.2032,14.287367,STD
12512197522000,0.409948,-0.162566268029937,9.77830493873082,0.935062489878212,0.15699236,0.0070249503,0.14019357,123.71206,-105.11785,14.2148,STD
12512202604000,0.41503,-0.184903107784091,9.75962071420455,0.978978182471591,0.15393804,0.018936822,0.14569137,123.681984,-105.03703,14.14616,STD
12512207527000,0.419953,-0.242943459630682,9.67479266903409,1.16649317791193,0.14080444,0.028405234,0.15088372,123.65046,-104.955826,14.079034,STD
12512212523000,0.424949,-0.297679719049128,9.594363568542,1.34235039392829,0.121256754,0.023823744,0.1518,123.62857,-104.810776,13.951692,STD
12512217560000,0.429986,-0.307235650427892,9.5752513066561,1.36146220679477,0.1133155,0.03390302,0.15332718,123.600334,-104.669785,13.828834,STD
12512222577000,0.435003,-0.316361229806533,9.55928604562224,1.37938671253487,0.09315695,0.03359759,0.14508049,123.556015,-104.504326,13.697925,STD
12512227563000,0.439989,-0.320658001562134,9.58076985953388,1.38368352018357,0.09407325,0.035124753,0.1423316,123.50956,-104.345055,13.571335,STD
12512232579000,0.445005,-0.324980626336723,9.60238293827049,1.38800618106722,0.08552113,0.026267206,0.14446963,123.4655,-104.18295,13.444544,STD
12512237586000,0.450012,-0.31940514664477,9.62208723370389,1.36174305924709,0.08368854,0.02076942,0.14202617,123.42105,-104.022705,13.317802,STD
12512242816000,0.455242,-0.31181241816574,9.64233465411824,1.3288412323143,0.09010262,0.016493361,0.13683382,123.38,-103.86534,13.192706,STD
12512247560000,0.459986,-0.304925247247094,9.66070057427994,1.29899682180394,0.08552113,-0.0036651916,0.13439035,123.37658,-103.66982,13.029714,STD
12512252516000,0.464942,-0.29773030224861,9.67988723117736,1.26781872347145,0.09865474,-0.013439035,0.12767084,123.38879,-103.4567,12.846336,STD
12512257537000,0.469963,-0.292529168584307,9.67344813357919,1.23367560370826,0.11026118,-0.040317107,0.1255328,123.4129,-103.24853,12.666711,STD
12512262484000,0.47491,-0.287676010569555,9.66374163511576,1.19970356855153,0.10445796,-0.047647487,0.11759156,123.43476,-103.04134,12.487562,STD
12512267521000,0.479947,-0.30067212491859,9.64517420557387,1.15254113476176,0.121256754,-0.057421334,0.11636983,123.473404,-102.8471,12.313266,STD
12512272474000,0.4849,-0.314886665949456,9.62622159634402,1.10515931483368,0.1255328,-0.05497787,0.115453534,123.510765,-102.65373,12.140769,STD
12512277528000,0.489954,-0.31164430999212,9.61591019661151,1.03986841404649,0.116675265,-0.048258353,0.11453723,123.62637,-102.38944,11.894422,STD
12512282491000,0.494917,-0.306962507549251,9.60654639617809,0.974323130959417,0.11453723,-0.04795292,0.11636983,123.74051,-102.13442,11.656212,STD
12512287600000,0.500026,-0.340137248021144,9.58869738270063,0.883058929947141,0.10354166,-0.03848451,0.12003502,123.92491,-101.79965,11.3380165,STD
12512292463000,0.504889,-0.375944650396925,9.57079378433445,0.793540424007689,0.11026118,-0.035124753,0.11881329,124.103294,-101.47785,11.031658,STD
12512297526000,0.509952,-0.412057501560421,9.55998392322616,0.703258301773836,0.10476339,-0.025961773,0.12370021,124.40911,-101.01097,10.582329,STD
12512302494000,0.51492,-0.447222014398559,9.55119307843681,0.615347026563193,0.10781772,-0.016187929,0.12156218,124.69273,-100.56733,10.15627,STD
12512307561000,0.519987,-0.462945697343284,9.55133569850746,0.519005770626866,0.108123146,-0.02443461,0.11575896,125.106476,-99.92854,9.541421,STD
12512312539000,0.524965,-0.467852878055584,9.556242474421,0.420861971915594,0.10293079,-0.02565634,0.119729586,125.477615,-99.333725,8.97322,STD
12512317555000,0.529981,-0.472660466230335,9.58482869753636,0.328107257693678,0.10720685,-0.028710667,0.118507855,125.82143,-98.71419,8.382806,STD
12512322548000,0.534974,-0.477391554801623,9.62267758395172,0.238216792205402,0.110872045,-0.025350908,0.116675265,126.13742,-98.130844,7.8300505,STD
12512327566000,0.539992,-0.44833504050213,9.6546049272672,0.176794964421789,0.11362094,-0.035430185,0.110872045,126.423996,-97.601364,7.32513,STD
12512332563000,0.544989,-0.404644862353419,9.68373179042402,0.128250325976872,0.11728613,-0.044898596,0.11362094,126.68951,-97.10177,6.85026,STD
12512337580000,0.550006,-0.375502275225464,9.70201693103448,0.0874867962997347,0.12583824,-0.0421497,0.11453723,126.96144,-96.4903,6.2743754,STD
12512342563000,0.554989,-0.352061252402004,9.71608133716475,0.0499811651671088,0.12308934,-0.0421497,0.11789699,127.21988,-95.91137,5.7308583,STD
12512348272000,0.560698,-0.311486790949759,9.7106712863042,0.0559251245299381,0.1328632,-0.056199603,0.106901415,127.469124,-95.3749,5.2243876,STD
12512352558000,0.564984,-0.277184103256317,9.70058226732868,0.0740853719597876,0.14660765,-0.053145275,0.11148291,127.69907,-94.870735,4.749316,STD
12512357569000,0.569995,-0.237078931060368,9.68878663641726,0.0953175231196048,0.14630222,-0.05009095,0.11362094,127.91409,-94.40394,4.308072,STD
12512362558000,0.574984,-0.197149834256219,9.6770427923508,0.116456457890375,0.14110987,-0.059253927,0.108123146,128.12003,-93.95926,3.8868551,STD
12512367513000,0.579939,-0.157085668998301,9.66511301104503,0.154346884760408,0.15668693,-0.061391957,0.10934488,128.32256,-93.53603,3.4841158,STD
12512372579000,0.585005,-0.115865529438403,9.65274715038233,0.203811054814783,0.15515977,-0.06352998,0.12095132,128.5169,-93.13439,3.1016865,STD
12512377504000,0.58993,-0.0822959197963081,9.63345735200509,0.258896878306811,0.16279559,-0.05681047,0.12614368,128.69879,-92.77224,2.7553303,STD
12512382506000,0.594932,-0.0670498386547846,9.59280084553363,0.335127273401231,0.16554448,-0.03481932,0.13133603,128.86868,-92.43309,2.4277043,STD
12512387576000,0.600002,-0.0592532312879377,9.54930610583658,0.41712768511284,0.15974127,-0.032070424,0.13347405,129.0373,-92.123184,2.123158,STD
12512392545000,0.604971,-0.0638823333200389,9.50301513385214,0.505080599554475,0.15821409,-0.027488936,0.13103059,129.19241,-88.16286,1.8322679,STD
12512397458000,0.609884,-0.0728728299740467,9.45395656518267,0.585454729147534,0.1441642,-0.02443461,0.13744467,129.34755,-88.41891,1.5529994,STD
12512402577000,0.615003,-0.0924470673837093,9.39523420553005,0.653964557526452,0.12736541,-0.03023783,0.14935656,129.49825,-88.634415,1.2871277,STD
12512407458000,0.619884,-0.118212556962677,9.33652450579151,0.71912328970399,0.11728613,-0.027488936,0.13927728,129.64606,-88.79529,1.0275031,STD
12512412560000,0.624986,-0.161747628490248,9.26880291862192,0.786844523304623,0.089491755,-0.03176499,0.13958271,129.79251,-88.87402,0.78587884,STD
12512418377000,0.630803,-0.206323190278805,9.18444102105263,0.890218014016121,0.07422013,-0.03176499,0.1328632,129.94077,-88.86826,0.53808683,FKL
12512422566000,0.634992,-0.232953884822191,9.11596189473684,0.992936425414889,0.046120327,-0.03573562,0.129198,130.08662,-88.771385,0.30295274,FKL
12512427534000,0.63996,-0.265773887509268,9.03838185732892,1.10525621739305,0.028099801,-0.0290161,0.1301143,130.2345,-88.5957,0.05614586,FKL
12512432551000,0.644977,-0.304284537342952,8.97580230958822,1.17746367012323,0.020463986,-0.016493361,0.129198,130.37715,-88.37604,-0.18007481,FKL
12512437593000,0.650019,-0.337949055919796,8.91270022056181,1.25381354587156,0.005497787,0.0012217305,0.10903945,130.53926,-88.076385,-0.44895634,FKL
12512442579000,0.655005,-0.351497705699423,8.84947332658659,1.34413790917431,-0.027488936,0.019242255,0.096516706,130.69206,-87.762024,-0.7012405,FKL
12512447523000,0.659949,-0.363565611334256,8.78409497064637,1.43365222464914,-0.0720821,0.034513887,0.08582657,130.84872,-87.40613,-0.97100216,FKL
12512452678000,0.665104,-0.358686346262107,8.68163030223364,1.52635826101996,-0.106595986,0.042760566,0.073303826,130.997,-87.050285,-1.2293149,FKL
12512457644000,0.67007,-0.356273488817166,8.57397712042915,1.60922543802414,-0.16065755,0.021685716,0.06078109,131.16168,-86.64749,-1.4995463,FKL
12512462560000,0.674986,-0.381528508139472,8.35930900348681,1.61343460644613,-0.19547687,0.005497787,0.036957346,131.31772,-86.25325,-1.759899,FKL
12512467542000,0.679968,-0.40712258996692,8.141758849173,1.61770028526598,-0.24007004,-0.018936822,0.009162978,131.49132,-85.82796,-2.0204403,FKL
12512472567000,0.684993,-0.451724637527612,7.9622514029385,1.55061297303678,-0.25809056,-0.028405234,-0.011911872,131.66042,-85.41687,-2.26883,FKL
12512477518000,0.689944,-0.49976878233053,7.79409720214814,1.46893792787516,-0.28802297,-0.039095376,-0.03573562,131.83243,-85.005714,-2.5093033,FKL
12512482568000,0.694994,-0.536023916506604,7.63875105001312,1.38098507201959,-0.3213151,-0.05589417,-0.057421334,132.00653,-84.60838,-2.7380729,FKL
12512487942000,0.700368,-0.572036015080906,7.47669653592233,1.28645338964401,-0.34391713,-0.0580322,-0.07452556,132.17508,-84.219955,-2.958412,FKL
12512492564000,0.70499,-0.604858067636404,7.32752082218685,1.1925432417609,-0.37384954,-0.052534413,-0.09896017,132.34218,-83.83758,-3.1862793,FKL
12512497532000,0.709958,-0.64142004972884,7.16038064583379,1.08285733911516,-0.398895,-0.040927973,-0.11453723,132.50333,-83.46462,-3.4039211,FKL
12512502582000,0.715008,-0.661791775749481,7.02044767110913,0.954805875062828,-0.44623706,-0.038789943,-0.1423316,132.64334,-83.09097,-3.6328187,FKL
12512507586000,0.720012,-0.676016265865242,6.89242706202632,0.822043853442169,-0.4905248,-0.034513887,-0.16493362,132.77586,-82.72437,-3.8535671,FKL
12512512573000,0.724999,-0.696973052121571,6.74466322936649,0.700199348967831,-0.5216789,-0.034208454,-0.1872302,132.89651,-82.368095,-4.080152,FKL
12512517558000,0.729984,-0.720527595243734,6.58920309718768,0.582426549732583,-0.5555819,-0.03145956,-0.21074851,133.0126,-82.009926,-4.303209,FKL
12512522540000,0.734966,-0.724528145186601,6.43837513167689,0.453221596117091,-0.593761,-0.028710667,-0.23579398,133.11366,-81.667595,-4.5295086,FKL
12512527529000,0.739955,-0.719721922955437,6.28938214213862,0.318647273272307,-0.6200282,-0.028405234,-0.25717425,133.21231,-81.32874,-4.752155,FKL
12512532535000,0.744961,-0.728170570746416,6.13837044073159,0.244693806699951,-0.6337727,-0.036957346,-0.2779437,133.28941,-81.00106,-4.9814525,FKL
12512537549000,0.749975,-0.74241221440435,5.98645937676718,0.197221626474543,-0.66981375,-0.03970624,-0.31337386,133.36392,-80.66693,-5.2128587,FKL
12512542529000,0.754955,-0.76299184729239,5.83201383542018,0.143557085904356,-0.6881397,-0.03970624,-0.3481932,133.42174,-80.366684,-5.4374003,FKL
12512547533000,0.759959,-0.786765226226808,5.67510966453021,0.0865010201518008,-0.7113526,-0.054061573,-0.37568212,133.48383,-80.060974,-5.6626062,FKL
12512552537000,0.764963,-0.791754322678395,5.54044856963827,0.023348554912038,-0.7458665,-0.050396383,-0.40042216,133.53545,-79.75167,-5.8983707,FKL
12512557720000,0.770146,-0.786848555293536,5.41289861763194,-0.045332239701522,-0.752586,-0.036957346,-0.41905355,133.58755,-79.44832,-6.133655,FKL
12512562536000,0.774962,-0.792843186973573,5.29261143867321,-0.0172405345079082,-0.7675522,-0.02565634,-0.43676865,133.63235,-79.13576,-6.382167,FKL
12512567577000,0.780003,-0.804811226798552,5.16575024602112,0.0617485338355893,-0.75716746,-0.028099801,-0.44715336,133.67613,-78.83398,-6.6275253,FKL
12512572521000,0.784947,-0.816548975041896,5.04133014356686,0.139217677634489,-0.75533485,-0.04184427,-0.45631635,133.70947,-78.53711,-6.8746653,FKL
12512577545000,0.789971,-0.828476654486588,4.91489677084635,0.217940367449551,-0.75747293,-0.09743301,-0.464563,133.75449,-78.24755,-7.1167865,FKL
12512582446000,0.794872,-0.84409986420621,4.81861789862332,0.311773581936145,-0.7486154,-0.16554448,-0.47891834,133.81363,-77.94457,-7.3676796,FKL
12512587470000,0.799896,-0.8628906641281,4.73875694990236,0.419820755066393,-0.7489208,-0.2302962,-0.4914411,133.88603,-77.64621,-7.6114316,FKL
12512592464000,0.80489,-0.895074084079602,4.68648905870647,0.516432855323383,-0.74189585,-0.30268374,-0.50732356,133.99532,-77.32969,-7.8555837,FKL
12512597450000,0.809876,-0.938707937445426,4.65739960375673,0.603700501305716,-0.7247916,-0.3747658,-0.5149594,134.12009,-77.02445,-8.089761,FKL
12512602502000,0.814928,-0.988196691418838,4.68798205644048,0.631474022333119,-0.68477994,-0.4251622,-0.54275376,134.27585,-76.69879,-8.333952,FKL
12512607532000,0.819958,-1.04141979711813,4.76338157582175,0.613733021062517,-0.6273586,-0.4550946,-0.5644395,134.44211,-76.39146,-8.566642,FKL
12512612521000,0.824947,-1.08436176596512,4.87811329811585,0.581779983978753,-0.5290093,-0.42424592,-0.58368176,134.60645,-76.08616,-8.806831,FKL
12512617515000,0.829941,-1.11312095971136,5.05066871084386,0.529054750398878,-0.40530908,-0.35246924,-0.61269784,134.76466,-75.80364,-9.047242,FKL
12512622541000,0.834967,-1.12194191772126,5.27617191835198,0.550782316612411,-0.23518312,-0.31215215,-0.6249151,134.90645,-75.55355,-9.295557,FKL
12512627518000,0.839944,-1.1025467056765,5.57194905392675,0.676851270849441,-0.03573562,-0.22876903,-0.62796944,135.01215,-75.34092,-9.547233,FKL
12512632503000,0.844929,-1.04768734826065,5.87291034045288,0.891787885424701,0.07880162,-0.18051068,-0.6209445,135.09587,-75.141174,-9.81026,FKL
12512637594000,0.85002,-0.946444791399189,6.18628009218827,1.22444197062197,0.28985557,-0.17440203,-0.6093381,135.16347,-75.00876,-10.067554,FKL
12512642463000,0.854889,-0.840882070140858,6.47142267331157,1.55154447754664,0.5009095,-0.22296582,-0.5888741,135.24826,-74.885,-10.308672,FKL
12512647523000,0.859949,-0.718831363069963,6.74716685409515,1.90413542586754,0.65209866,-0.31337386,-0.56779927,135.3385,-74.796234,-10.537343,FKL
12512652499000,0.864925,-0.616213601134567,7.01585657538769,2.22216801129565,0.76144356,-0.4196644,-0.535118,135.48871,-74.729004,-10.700318,FKL
12512657532000,0.869958,-0.558344580047023,7.2810893809905,2.46811130937469,0.79534656,-0.5140431,-0.52442783,135.65692,-74.67718,-10.853596,FKL
12512662459000,0.874885,-0.518460803936333,7.53951163483318,2.68128312926232,0.75900006,-0.6062838,-0.5186246,135.90855,-74.618324,-10.933864,FKL
12512667511000,0.879937,-0.523397269268442,7.80114296755433,2.82443977854301,0.65209866,-0.6768387,-0.5149594,136.17493,-74.55538,-11.003371,FKL
12512673275000,0.885701,-0.506192714985358,8.05048131909522,2.94830157207917,0.5164866,-0.72387534,-0.5198463,136.4923,-74.46153,-11.037718,FKL
12512677528000,0.889954,-0.469176497788549,8.18209412541654,2.99765651402605,0.3359759,-0.7593055,-0.52503866,136.81975,-74.341576,-11.063543,FKL
12512682531000,0.894957,-0.417379987501412,8.27776287234042,3.05745727574845,0.13072516,-0.79045963,-0.54305923,137.1669,-74.1775,-11.076621,FKL
12512687555000,0.899981,-0.34943533960836,8.25964440425532,3.1208722924308,-0.1133155,-0.8240572,-0.5647449,137.51843,-73.97251,-11.085304,FKL
12512692494000,0.90492,-0.286879652526034,8.23962921585838,3.15592108678965,-0.3585779,-0.8564331,-0.5842926,137.88216,-73.731125,-11.075784,FKL
12512697534000,0.90996,-0.239009859488248,8.21090751398393,3.08890338253496,-0.59559363,-0.8527679,-0.5748242,138.23749,-73.44873,-11.059017,FKL
12512702532000,0.914958,-0.190542799147123,8.18528672635875,3.0175901971531,-0.79901177,-0.8368854,-0.5561928,138.62793,-73.11062,-11.033395,FKL
12512707530000,0.919956,-0.138132517418276,8.17099297372089,2.92706341220386,-0.94134337,-0.799928,-0.50610185,139.0009,-72.75052,-10.991451,FKL
12512712529000,0.924955,-0.0819534058317195,8.1585755664191,2.83921041762715,-1.0525209,-0.75228053,-0.43463063,139.35924,-72.365456,-10.938493,FKL
12512717512000,0.929938,-0.0101719233994547,8.15408913312024,2.76294255061578,-1.128879,-0.70341134,-0.35216382,139.6955,-71.97561,-10.865263,FKL
12512722559000,0.934985,0.0624350271295894,8.13728025327663,2.68581591107543,-1.1383474,-0.6783658,-0.25809056,140.0074,-71.609184,-10.763501,FKL
12512727525000,0.939951,0.132610633054422,7.95977754240083,2.61151229232705,-1.1291844,-0.6038403,-0.22418754,140.28429,-71.2405,-10.659121,FKL
12512732505000,0.944931,0.202984075967364,7.781774421144,2.53699919901918,-1.1117748,-0.52564955,-0.17012598,140.55739,-70.895615,-10.528296,FKL
12512737537000,0.949963,0.114730409613999,7.64273688670089,2.44039907532431,-1.0363328,-0.43279803,-0.15118915,140.80061,-70.57237,-10.403182,FKL
12512743224000,0.95565,-0.0428395642308913,7.50041539934671,2.32349229471769,-0.9294315,-0.21471913,-0.18203785,140.9826,-70.26778,-10.292783,FKL
12512747527000,0.959953,-0.253335605207522,7.3801460298034,2.30123859556463,-0.75655663,-0.12034045,-0.19822577,141.17274,-70.00768,-10.168168,FKL
12512752558000,0.964984,-0.54162487619489,7.23371363581537,2.30581461235635,-0.700357,0.076358154,-0.2406809,141.27664,-69.742165,-10.086248,FKL
12512757532000,0.969958,-0.864368068966258,7.06597528478401,2.30537580526542,-0.5928447,0.2434298,-0.28008172,141.3484,-69.52863,-10.060798,FKL
12512762525000,0.974951,-1.22404890546959,6.87585819838814,2.30023751143348,-0.51007247,0.37598756,-0.33383787,141.3799,-69.321,-10.064303,FKL
12512767505000,0.979931,-1.54322729243077,6.71673616541538,2.22236126584615,-0.45753807,0.4972443,-0.3924809,141.3513,-69.10085,-10.1628475,FKL
12512772555000,0.984981,-1.84509662517802,6.57217888321758,2.10331423068132,-0.44409904,0.6102544,-0.46578476,141.29541,-68.88942,-10.288373,FKL
12512777530000,0.989956,-2.13061778129583,6.47562865130787,2.02831565255554,-0.43035457,0.7489208,-0.54702985,141.18753,-68.66758,-10.516455,FKL
12512782519000,0.994945,-2.39730410195907,6.45471219919011,2.02308651222502,-0.4334089,0.890947,-0.6206391,141.05466,-68.443,-10.767863,FKL
12512787652000,1.000078,-2.58097442670157,6.59681536649215,2.06131991099476,-0.44226643,1.0231993,-0.7134906,140.86502,-68.20135,-11.141342,FKL
12512792560000,1.004986,-2.68776771651684,6.85683367213277,2.13096774242813,-0.47342056,1.1184943,-0.7816021,140.65216,-67.95242,-11.529946,FKL
12512797526000,1.009952,-2.76300075377449,7.18818441575106,2.20761961146754,-0.49968776,1.1982121,-0.818254,140.39983,-67.68752,-11.991157,FKL
12512802565000,1.014991,-2.80934885824049,7.58677725270841,2.29104603495966,-0.5390886,1.255328,-0.838718,140.13351,-67.40983,-12.463047,FKL
12512807530000,1.019956,-2.84455952963618,8.00748311567879,2.36228475653671,-0.57696223,1.3142766,-0.83169305,139.84212,-67.124626,-12.949902,FKL
12512812818000,1.025244,-2.86812057848702,8.49284121405043,2.42354343434447,-0.61483586,1.3594806,-0.83108217,139.54318,-66.83248,-13.436712,FKL
12512817510000,1.029936,-2.86136464980583,8.92452006243155,2.4927780205815,-0.6450737,1.3949108,-0.79320854,139.23087,-66.54397,-13.906698,FKL
12512822536000,1.034962,-2.78707788758339,9.38941130010953,2.60301001616051,-0.6478226,1.391551,-0.74067414,138.91815,-66.26368,-14.361219,FKL
12512827491000,1.039917,-2.71384054042617,9.84773523220153,2.71168481482625,-0.65087694,1.35551,-0.70432764,138.60632,-65.99333,-14.793999,FKL
12512832524000,1.04495,-2.63945031474659,10.3132739507119,2.8220703368615,-0.61850107,1.2400564,-0.61575216,138.31133,-65.75688,-15.179203,FKL
12512837566000,1.049992,-2.51547820110591,10.7024623321991,2.95912740395576,-0.5696318,1.0409144,-0.4804455,138.05276,-65.54024,-15.526538,FKL
12512842579000,1.055005,-2.26532736882178,10.8913517883879,3.16333204424713,-0.47647488,0.75747293,-0.32650748,137.84325,-65.367325,-15.816299,FKL
12512847451000,1.059877,-2.01316066367664,10.9895007307011,3.27415700032493,-0.36193767,0.36987892,-0.172264,137.7395,-65.25523,-15.975666,FKL
12512852546000,1.064972,-1.73450344474202,10.9510649858212,3.24533046758566,-0.23823744,-0.062002823,-0.052839845,137.71872,-65.19162,-16.066874,FKL
12512857458000,1.069884,-1.46626155448042,10.9439479141521,3.13721101327158,-0.129198,-0.4841107,0.033292156,137.83344,-65.16986,-16.031666,FKL
12512862527000,1.074953,-1.19021096491791,10.9929246916445,2.87451770130239,-0.020463986,-0.8405506,0.13439035,138.03601,-65.20007,-15.926273,FKL
12512867471000,1.079897,-0.92781231565364,11.0496310684715,2.58088941208259,0.06994407,-1.1059716,0.22418754,138.32925,-65.268936,-15.727319,FKL
12512872543000,1.084969,-0.692440580353945,11.1519665358685,2.0947955679448,0.17684549,-1.2623531,0.3222314,138.6759,-65.38204,-15.47983,FKL
12512877483000,1.089909,-0.504789446938294,11.2162752315717,1.61062357851589,0.25961772,-1.3228287,0.4016439,139.0378,-65.55794,-15.167184,FKL
12512882591000,1.095017,-0.422945955163862,11.1873892175967,1.08104814700325,0.36682457,-1.2822062,0.4783075,139.40091,-65.77456,-14.830246,FKL
12512887540000,1.099966,-0.370115415529412,11.1281362352941,0.583847213764706,0.42271876,-1.153619,0.5143485,139.7133,-66.05661,-14.481043,FKL
12512892529000,1.104955,-0.394554635558056,10.976613542711,0.129277589552941,0.48563787,-0.9593639,0.50915617,139.99045,-66.3642,-14.139199,FKL
12512897512000,1.109938,-0.407780476223307,10.8254317052571,-0.293431960876185,0.50976706,-0.72418076,0.48075095,140.16869,-66.725845,-13.834382,FKL
12512902580000,1.115006,-0.393837570108206,10.6720595535766,-0.646652255596093,0.5195409,-0.49938235,0.43493605,140.29858,-67.08853,-13.557556,FKL
12512907527000,1.119953,-0.355082385204926,10.5426450686453,-1.02033692701393,0.5198463,-0.30268374,0.40500367,140.33047,-67.4811,-13.341971,FKL
12512912561000,1.124987,-0.218814464780941,10.4891116852413,-1.51187478319201,0.5186246,-0.09254608,0.40500367,140.2998,-67.867134,-13.1540365,FKL
12512917549000,1.129975,-0.0719763571300448,10.4762113497758,-1.98755240224215,0.50335294,0.19028452,0.43554693,140.16286,-68.27547,-13.011812,FKL
12512922571000,1.134997,0.115564000655098,10.5981121015793,-2.42827221464223,0.4166101,0.355829,0.50610185,139.99966,-68.66852,-12.866418,FKL
12512927563000,1.139989,0.312427933312921,10.7380281396203,-2.79482062424985,0.3622431,0.63071835,0.5513059,139.69243,-69.116486,-12.755161,FKL
12512932559000,1.144985,0.556588592508675,10.962655907328,-2.83876956636048,0.24587326,0.7867944,0.66431594,139.36469,-69.54964,-12.60802,FKL
12512937643000,1.150069,0.808683553771074,11.1939103052351,-2.86294683442768,0.14049901,0.8246681,0.8042041,138.96086,-70.03906,-12.441534,FKL
12512942642000,1.155068,1.06828084013605,11.4299081519274,-2.82046726145125,0.0580322,0.77640975,0.9465357,138.53421,-70.52255,-12.24712,FKL
12512947540000,1.159966,1.31191101944959,11.634173310135,-2.79003368285261,-0.016187929,0.64965516,1.0980303,138.12738,-71.03727,-11.961715,FKL
12512952594000,1.16502,1.51683794736703,11.7280978233219,-2.8071109602805,-0.08674286,0.48288897,1.2336423,137.74365,-71.5509,-11.636147,FKL
12512957531000,1.169957,1.71702082095793,11.8198479858869,-2.82379289907383,-0.13347405,0.30573806,1.3390167,137.42096,-72.09288,-11.214954,FKL
12512962553000,1.174979,1.86831354627264,11.8357881422307,-2.89682975620591,-0.18600847,0.14660765,1.4187346,137.14056,-72.62823,-10.757858,FKL
12512967495000,1.179921,2.01269051935176,11.8448118856053,-2.97353002020972,-0.19761491,0.06994407,1.4654657,136.88986,-73.16461,-10.280084,FKL
12512972508000,1.184934,2.26327671276055,11.8299606950587,-3.01692513485345,-0.19700404,0.082161374,1.5195273,136.67726,-73.71862,-9.73696,FKL
12512977514000,1.18994,2.5371990897577,11.809670266321,-3.05243357053222,-0.16065755,0.1863139,1.5812247,136.46448,-74.27342,-9.187362,FKL
12512982532000,1.194958,2.77991497162334,11.69067010489,-3.01041982492274,-0.10629055,0.3359759,1.65911,136.2439,-74.84971,-8.604982,FKL
12512987521000,1.199947,3.01876513780222,11.564731184421,-2.96264985517179,-0.005497787,0.54336464,1.740966,135.9817,-75.43966,-8.022507,FKL
12512992530000,1.204956,3.22964812386427,11.7574562985351,-2.56378914602262,0.12583824,0.77213365,1.8298469,135.69171,-76.06907,-7.3865232,FKL
12512997455000,1.209881,3.42642712442055,12.0635565094567,-2.04341764592991,0.3115413,0.98532563,1.915368,135.35216,-76.72743,-6.7487216,FKL
12513002536000,1.214962,3.47519023743974,13.281398799364,-1.55328066038568,0.5152648,1.1872166,2.0060816,134.97939,-77.42041,-6.055736,FKL
12513007532000,1.219958,3.40648173404452,15.1610703890655,-1.10667472211509,0.7293731,1.4248432,2.1276436,134.5399,-78.15199,-5.3529305,FKL
12513012525000,1.224951,5.32893623426291,16.4469422508841,0.567132395933111,0.9095783,1.7244726,2.3270912,134.08864,-78.86256,-4.563942,FKL
12513017505000,1.229931,8.44675442341113,17.3721680829544,2.97657456840962,1.1026118,1.7974709,2.931237,133.61732,-79.643524,-3.6398375,FKL
12513022533000,1.234959,11.2087688717336,18.0088007947128,4.19509905763091,1.4807373,1.636508,3.5295794,133.14499,-80.44819,-2.6800485,FKL
12513027549000,1.239975,13.7486139690391,18.4776945366548,4.73237391046263,1.642922,1.2709051,5.46816,132.63301,-81.25344,-1.1890966,FKL
12513032533000,1.244959,12.614443441302,18.7779914194237,0.886503587833511,1.1786644,0.57879484,7.2876225,132.63647,-81.27102,0.9261199,FKL
12513037607000,1.250033,9.70557516508198,19.0042897518192,-5.12924371008053,-0.8472701,-0.35521814,6.3035183,132.80693,-80.519325,2.7273612,FKL
12513042564000,1.25499,8.2464997509113,17.8855226658566,-9.24198701109761,-2.8860328,-4.5051312,3.4352007,134.24557,-79.21048,4.9182534,FKL
12513047565000,1.259991,7.60151658809234,15.9554237828068,-12.3359646338801,-2.5781567,-7.1184125,1.5861117,135.45186,-77.84578,6.9913297,FKL
12513052578000,1.265004,6.56216806122846,13.2268957861384,-14.3840837106006,-0.064446285,-5.042082,0.9850202,136.12202,-77.544,8.1421385,FKL
12513057569000,1.269995,5.3152274651027,10.0816271497128,-15.8543566172491,2.2956316,-1.6203201,0.8313876,137.22633,-77.42331,8.946363,FKL
12513062558000,1.274984,4.30271697893411,7.6724637313795,-15.0758766648311,4.033238,1.6224581,0.83291477,137.74702,-77.93389,9.450463,FKL
12513068450000,1.280876,3.29679293290088,5.42361810584282,-12.3319694051708,5.199685,4.1712933,0.9431759,137.4934,-78.57693,9.828193,FKL
12513072567000,1.284993,2.80644594787761,4.49337755962077,-9.07252960805861,5.9913664,5.9229493,1.1456778,136.46776,-79.27926,10.026746,FKL
12513077567000,1.289993,2.42469427797888,4.00844985007542,-3.76411843589744,6.5683284,6.9733324,1.582141,134.91302,-79.55805,10.3152895,FKL
12513082553000,1.294979,1.89172662162991,3.72757436206112,1.48210436687766,7.0823717,7.052134,2.0958786,133.14554,-100.64567,10.638216,FKL
12513087635000,1.300061,1.2419037315498,3.58316916368312,6.79621193774107,7.421707,5.68685,2.5274549,131.51933,-101.37503,11.088095,FKL
12513092583000,1.305009,-0.175546949426342,3.04916027039927,10.3588789990821,7.199047,2.8481593,2.792876,130.36292,-102.53524,11.7880535,FKL
12513097537000,1.309963,-2.16125015278568,2.23049319574117,12.7626252764571,6.3691864,-0.59742624,2.823419,129.80635,-103.873955,12.502837,FKL
12513102597000,1.315023,-3.68745962191753,1.65098421554639,14.7483640929897,5.3435435,-3.7824776,2.593123,130.00731,-104.9844,13.148121,FKL
12513107559000,1.319985,-4.42720578478351,1.46972194630928,15.9878067265979,4.476115,-5.7204475,2.2934935,130.83606,-106.00896,13.686955,FKL
12513112557000,1.324983,-4.68247224618627,1.23733230521678,16.5129072679647,4.004527,-5.9125648,2.0995438,132.00293,-106.65436,13.957931,FKL
12513117527000,1.329953,-4.34331438839823,0.945943245291048,16.1594182625452,3.7885861,-5.5411587,1.9795089,133.55154,-107.15525,14.093024,FKL
12513122534000,1.33496,-3.71312712891024,0.62452703178605,15.8406997713399,3.5628715,-4.3667703,1.9077321,134.8806,-107.415695,14.138273,FKL
12513127524000,1.33995,-2.73756370291204,0.270646140878415,15.5681158405884,3.3890803,-3.1105258,1.738217,136.05937,-107.59835,14.13854,FKL
12513132520000,1.344946,-2.09780522172738,-0.207718467274574,14.9407375390851,2.898861,-2.1777346,1.6175711,136.99817,-107.757484,14.228088,FKL
12513138357000,1.350783,-1.82697777571974,-0.942077432531072,13.7063890579521,2.366492,-1.4434745,1.4880677,137.61052,-107.83637,14.31913,FKL
12513142496000,1.354922,-1.72101442478002,-1.38947697434005,12.5905753548112,1.8793269,-1.3185526,1.4343116,138.14734,-107.97068,14.565037,FKL
12513147524000,1.35995,-1.77568622983253,-1.77673558949759,10.7226226894692,1.7907515,-1.1050552,1.321607,138.41942,-108.0417,14.800246,FKL
12513152514000,1.36494,-1.84918366920303,-2.12473193790119,8.89532709087631,1.7198911,-0.8405506,1.2592987,138.65779,-108.16825,15.09518,FKL
12513157495000,1.369921,-2.00400470806888,-2.31825811299135,7.18369481635413,1.7073684,-0.5571091,1.2409728,138.81194,-108.27562,15.382085,FKL
12513162856000,1.375282,-2.1759875831079,-2.52044448060315,5.34616019925859,1.7278323,-0.26511553,1.2217305,138.91437,-108.485374,15.647392,FKL
12513167521000,1.379947,-2.44455262864442,-2.56072930987877,3.85114777124537,1.740966,0.03634648,1.1997393,138.9221,-108.68249,15.92033,FKL
12513172840000,1.385266,-2.7466448586442,-2.5987883465704,2.16637033994485,1.7556267,0.35002577,1.1606439,138.87665,-108.96858,16.154087,FKL
12513177534000,1.38996,-2.92245596438026,-2.45904101877256,1.11601204775511,1.7250835,0.65148777,1.1111639,138.74141,-109.23699,16.392014,FKL
12513182873000,1.395299,-3.11295935927805,-2.29657793141463,-0.0636404501635122,1.6349808,0.90285885,1.0955868,138.56213,-109.55123,16.569101,FKL
12513187544000,1.39997,-3.12168779494634,-2.09582381990244,-0.844835982944585,1.4816537,1.0629056,1.0974194,138.32031,-109.842,16.746485,FKL
12513192500000,1.404926,-3.13094879412683,-1.88282074204878,-1.67369598304371,1.3045027,1.1759156,1.1246029,138.04578,-110.1537,16.87691,FKL
12513197525000,1.409951,-3.33115097770231,-1.80241151280807,-3.35137129283912,1.1450669,1.3607023,1.1557571,137.70665,-110.447136,17.019882,FKL
12513202533000,1.414959,-3.54521945866486,-1.73260657230739,-5.08718753502814,1.0177015,1.4010195,1.1896601,137.38141,-110.72525,17.167631,FKL
12513207476000,1.419902,-3.7909920856399,-1.5389404392893,-5.67154744424957,1.0714576,1.2904528,1.2269229,137.07112,-111.048035,17.284708,FKL
12513212452000,1.424878,-4.04347601657989,-1.32563495139308,-6.09380534051338,1.2996159,1.3045027,1.2889256,136.72075,-111.39477,17.425339,FKL
12513217503000,1.429929,-4.1121712800152,-0.825545676964096,-5.94746185045593,1.5155567,1.4312572,1.4052955,136.41331,-111.80672,17.456617,FKL
12513222534000,1.43496,-4.08928902279635,-0.189418470393617,-5.52185148389058,1.6190983,1.484708,1.4828753,136.13174,-112.25627,17.48762,FKL
12513227524000,1.43995,-3.94506103075518,0.595610889643118,-4.75472714439708,1.7895297,1.3979651,1.6307048,135.87833,-112.78567,17.482592,FKL
12513232554000,1.44498,-3.71036522330491,1.50016808690053,-3.72793254644742,1.9181169,1.2266175,1.78617,135.64816,-113.3616,17.494295,FKL
12513237533000,1.449959,-3.38149210996055,2.33690138789941,-2.59986231113215,2.047315,0.9789116,1.9000963,135.45892,-113.928154,17.498228,FKL
12513242566000,1.454992,-2.98695504142012,3.1449892956213,-1.3877303552426,2.1923954,0.6203337,1.9709567,135.36705,-114.55759,17.503548,FKL
12513247555000,1.459981,-1.98870849809403,5.75182856139045,0.538185554812126,2.3606887,0.17348573,2.0244074,135.3519,-115.13269,17.532541,FKL
12513252603000,1.465029,-0.545153938907243,9.67882353557814,3.00407507534943,2.5418103,-0.36010507,2.1025982,135.47705,-115.76274,17.538794,FKL
12513257563000,1.469989,0.731702242290816,12.596874897449,4.86860667936224,2.7843237,-1.0338894,2.330451,135.75943,-116.38034,17.62885,FKL
12513262561000,1.474987,1.79156742759082,14.030379327449,5.85276737286224,3.0601294,-1.9660698,2.8793132,136.31017,-117.11633,17.73709,FKL
12513267541000,1.479967,2.84761557140714,15.4587210764286,6.83338367010714,3.2760704,-3.1151073,3.7736201,137.01993,-117.51338,18.022554,FKL
12513272568000,1.484994,3.91363043465306,16.9005431591837,7.82325477979592,3.3509014,-4.1657953,4.957477,138.0557,-118.10569,18.445705,FKL
12513277620000,1.490046,4.06034014382794,17.8844031683905,7.60438298115031,3.2910366,-4.883257,6.1208696,139.42633,-118.906296,19.023726,FKL
12513282583000,1.495009,3.17820381048816,18.3346597694538,6.0422661377477,3.1771102,-5.067738,6.5726047,140.99173,-119.79551,19.65355,FKL
12513287511000,1.499937,2.59598722780035,17.8889019634359,4.52832314277423,3.182608,-4.8264465,6.19173,142.49947,-120.559364,20.551804,FKL
12513292566000,1.504992,2.47155866055883,15.9943758947019,3.03517983293259,3.3399057,-4.330118,5.469382,143.99413,-121.390686,21.461277,FKL
12513298025000,1.510451,2.34298352802177,13.9014299216404,1.41692335040353,3.574478,-3.673438,4.791627,145.39342,-122.159225,22.058002,FKL
12513302543000,1.514969,2.30237910538664,11.6357067679242,0.0120122860454206,3.8679988,-2.883895,4.2314634,146.54056,-122.868385,22.56633,FKL
12513307464000,1.51989,2.25815281858108,9.16788391722973,-1.51821510388514,4.137696,-1.9633209,3.7473528,147.55493,-123.84866,23.088367,FKL
12513312524000,1.52495,1.99292011708898,6.90851035965429,-2.32032627114516,4.358218,-1.0363328,3.3444872,148.27625,-124.76431,23.567062,FKL
12513317474000,1.5299,1.69029412268709,4.75288210390886,-2.95351299330191,4.5164323,-0.6178902,3.161533,148.84381,-125.653595,24.014992,FKL
12513322567000,1.534993,1.04627721918748,3.34635127919834,-3.45360513407049,4.5900416,0.14263703,2.867096,148.90237,-126.557,24.489721,FKL
12513327462000,1.539888,0.347427521867904,2.1893153593642,-3.89790672702142,4.710993,0.8885035,2.6322184,148.83945,-127.44786,24.964273,FKL
12513332566000,1.544992,-0.553322329115627,1.58376375131654,-4.61944422037779,4.746423,1.6594155,2.4859161,148.80135,-128.68677,25.612183,FKL
12513337517000,1.549943,-1.47610547088533,1.16760660083953,-5.39295384777714,4.6627345,2.4810293,2.3900104,148.53006,-129.85432,26.301315,FKL
12513342565000,1.554991,-2.62106634683544,0.867754501386377,-5.61742359168174,4.4037275,3.3362405,2.3811526,148.18439,-131.11203,27.045542,FKL
12513347510000,1.559936,-3.83425845864979,0.629873721448664,-5.58412010464135,3.8453968,3.8814378,2.434298,147.71729,-132.25279,27.836288,FKL
12513352570000,1.564996,-5.16163371249632,0.245012834954354,-5.28968012619024,2.9471195,3.5225544,2.4862216,147.26378,-133.0975,28.344175,FKL
12513357533000,1.569959,-6.50069534930794,-0.193564868581526,-4.88842832376558,1.7492126,2.5411994,2.5082128,146.86351,-133.73553,28.80576,FKL
12513362557000,1.574983,-7.97612136396787,-0.908932236541204,-5.08516003426302,0.5109888,1.2788464,2.447737,146.80952,-134.42873,29.174225,FKL
12513367556000,1.579982,-9.50582285412041,-1.7602065545338,-5.59073914913801,-0.63316184,-0.0421497,2.2553146,147.02118,-134.86044,29.331057,FKL
12513372552000,1.584978,-11.0537064805701,-2.74717756586126,-7.1279486685447,-1.6340646,-1.4248432,1.9098701,147.57533,-135.02904,29.116829,FKL
12513377569000,1.589995,-12.6319063100991,-3.90809103195635,-9.95800948769625,-2.4468207,-2.6316075,1.5146403,148.37994,-134.94748,28.645725,FKL
12513382562000,1.594988,-13.2635217199843,-5.18018107368835,-12.3131482177245,-2.8814514,-3.523776,1.1688906,149.47157,-134.69864,27.69908,FKL
12513387610000,1.600036,-13.3965170282963,-6.52913136097465,-14.4458200958931,-2.792876,-4.1841216,0.89827734,150.72359,-134.32935,26.509605,FKL
12513393197000,1.605623,-11.9082165533758,-7.97178848406692,-16.0303104934276,-2.1676552,-4.6132545,0.7476991,152.20912,-134.13959,24.86112,FKL
12513397543000,1.609969,-10.1094282731528,-9.0742715677156,-16.9587172779327,-1.2577715,-4.6593747,0.7141015,153.65732,-134.03488,23.147438,FKL
12513402566000,1.614992,-7.01563795814541,-10.0015636953733,-17.6990562676905,-0.21624629,-3.9391646,0.6429357,154.99277,-134.45844,21.456596,FKL
12513407572000,1.619998,-3.2737039037325,-10.7005551539658,-18.2209692348367,0.9025534,-2.495079,0.39828414,156.03064,-135.12076,19.877033,FKL
12513412561000,1.624987,0.201886825,-10.9738853963244,-18.6017587165402,2.1007655,-0.31642818,-0.12339478,156.44211,-136.4047,18.973078,FKL
12513417564000,1.62999,3.4799775,-10.9021024402717,-18.8697490187775,3.3313537,0.9465357,-0.8579602,156.5765,-137.87344,18.076202,FKL
12513422565000,1.634991,5.57834255448371,-10.2288642500246,-17.5980759241067,3.962683,3.6813793,-1.284955,156.12074,-139.8031,18.420307,FKL
12513427567000,1.639993,6.70531004281917,-9.05945878728221,-15.0565050216557,5.376836,5.926309,-2.1227567,155.27654,-142.04224,18.704464,FKL
12513432564000,1.64499,7.02389929138627,-7.39442476773697,-10.8514694594405,6.933626,6.669427,-2.8441887,154.28905,-144.56604,19.668089,FKL
12513437595000,1.650021,6.58386961372813,-5.24985969159777,-5.0477118737935,8.431773,6.4574566,-3.374725,152.94234,-147.25027,20.786648,FKL
12513442566000,1.654992,6.31028797159608,-3.0154762806732,0.0477688703224504,9.589057,5.7351084,-3.7073412,151.433,-149.8881,22.096853,FKL
12513447568000,1.659994,6.2424983071869,-0.618622188021833,4.35242211633478,9.99742,4.7418413,-3.8014145,149.9738,-152.60152,23.254784,FKL
12513452589000,1.665015,7.7633826564243,0.538556274028395,7.62950251820302,9.700234,3.751018,-3.876551,148.38347,-154.76219,24.31276,FKL
12513457569000,1.669995,11.1198976062265,0.233858225850725,9.66565927573268,8.918327,2.0476203,-4.626388,146.85231,-156.7642,24.861647,FKL
12513462497000,1.674923,13.5941101369927,1.58832524483589,11.1331773768007,7.680714,0.044593163,-4.8936415,145.43648,-158.24614,25.381277,FKL
12513467569000,1.679995,15.1902094647397,4.83997797219791,12.0295541669334,6.0203824,-1.3362677,-4.5594983,144.11339,-159.39566,25.625881,FKL
12513472531000,1.684957,16.5044606008149,7.97189225041789,11.3336876797326,3.9205332,-1.9950858,-3.6978729,143.12465,-160.21861,26.116703,FKL
12513477561000,1.689987,17.3851525387589,11.0568308724405,7.75556176163811,1.9926424,-1.8738291,-2.410169,142.42078,-160.76604,26.5145,FKL
12513482510000,1.694936,18.0486849425988,12.4139309231374,4.00280600312561,0.54641896,-1.0928379,-1.0253373,141.7927,-160.65906,27.127386,FKL
12513487637000,1.700063,18.4685526807549,11.6079795245724,-0.191036205219187,-0.45845437,-0.013439035,0.15057829,141.419,-160.33759,27.927303,FKL
12513492497000,1.704923,18.2397628279937,10.0991273563196,-3.91231721341082,-1.1200215,1.1328496,1.0115929,141.07536,-159.63527,28.803104,FKL
12513497534000,1.70996,17.0665487042391,7.42288237077554,-7.38955112453604,-1.4990633,2.4104743,1.604743,140.82661,-158.92146,30.058702,FKL
12513502510000,1.714936,15.5080775260738,4.79734334656883,-10.4626691862831,-1.7644843,3.6334264,2.0201313,140.82042,-158.31897,31.350468,FKL
12513507590000,1.720016,13.1757635920164,2.15088008528324,-12.9282589407103,-1.9339994,4.2003093,2.364354,140.86923,-157.77565,32.826187,FKL
12513512462000,1.724888,10.9899913256898,-0.655973139107463,-14.9105541813468,-2.0476203,4.0173554,2.705522,141.21114,-157.71239,34.28177,FKL
12513517533000,1.729959,8.83472258058145,-4.20811961412012,-16.0766171877662,-2.062892,2.713769,2.824641,141.67926,-157.67146,35.570824,FKL
12513528379000,1.740805,5.28774819768203,-11.1686781507618,-18.3622753081596,-2.017077,-1.4657712,2.2241604,142.67197,-157.9495,35.86066,FKL
12513528871000,1.741297,5.50970740564539,-11.2549956166931,-18.3909010720628,-0.9776898,-1.9126191,1.8771889,143.39641,-158.5081,36.78749,FKL
12513533998000,1.746424,7.82268476180017,-12.1544867708197,-18.6892024776147,-0.54153204,-1.6227635,1.2223413,144.75034,-159.32343,36.513504,FKL
12513538340000,1.750766,9.78580649847696,-12.7730247928663,-18.9284975816056,0.32284227,-0.34269542,0.4801401,145.83902,-160.34203,36.30265,FKL
12513542526000,1.754952,11.7120406513707,-12.2451815864204,-19.054549776555,1.0152581,0.40622538,0.021685716,146.80663,-161.31882,35.967937,FKL
12513547473000,1.759899,13.9884573628771,-11.6213783512823,-19.2035178148767,1.2678508,1.9068159,-1.0253373,147.15251,-162.32805,36.285824,FKL
12513552548000,1.764974,15.5353833778593,-10.2412539462667,-17.9448691145878,1.5430456,3.299894,-1.9721785,147.28096,-163.37907,36.717556,FKL
12513557705000,1.770131,16.9380109176972,-8.73304286055437,-16.3136583641791,1.5699236,4.23238,-2.674979,147.0024,-164.2367,37.324947,FKL
12513562543000,1.774969,17.4833321223028,-7.19586769944563,-12.8480993158209,1.6077974,4.453513,-3.1435125,146.40414,-164.98459,38.243084,FKL
12513568142000,1.780568,18.1144303911301,-5.41690041398721,-8.83742029313433,1.7455474,4.067752,-3.3310483,145.53496,-165.5098,39.356236,FKL
12513587536000,1.799962,19.1066906106837,1.67388236212803,5.89644918409058,1.8716911,-1.3686435,-1.541213,142.80704,-167.06516,42.059376,FKL
12513592552000,1.804978,19.2584358502603,3.11158345888537,7.14256174330918,1.4969252,-1.9883664,-0.72204274,142.67241,-167.1361,42.37485,FKL
12513597552000,1.809978,19.3415250612432,4.23573672008778,6.43385673157089,1.0671816,-2.0790799,0.017715093,142.88066,-167.28203,42.520878,FKL
12513602813000,1.815239,18.3697325882833,4.68643866442131,4.93995320475607,0.7131852,-1.8008307,0.61086524,143.12463,-167.229,42.79052,FKL
12513607584000,1.82001,16.9241117973056,4.70509172596448,3.18655485318432,0.38087448,-1.2797627,1.0827587,143.55083,-167.20349,43.137756,FKL
12513612558000,1.824984,13.5207076067394,4.50131647627907,1.50464489807309,0.0720821,-0.9783007,1.4034629,143.9988,-167.10944,43.477993,FKL
12513617513000,1.829939,9.13799811314665,4.18150925302326,-0.0943908889700998,-0.24801129,-0.33750305,1.5344934,144.42406,-166.9969,44.06242,FKL
12513622532000,1.834958,6.06766504195804,3.95786343852511,-0.766047130959949,-0.4288274,0.25411993,1.7067575,144.91512,-166.89763,44.502872,FKL
12513627534000,1.83996,4.17955462191142,3.82082316011867,-0.623931290612418,-0.8216137,0.70249504,1.7547104,145.33142,-166.69449,45.078815,FKL
12513632533000,1.844959,2.76142666984404,3.62493213548387,-0.453522977447448,-1.2504412,0.9764681,1.7095064,145.64125,-166.45096,45.344685,FKL
12513637535000,1.849961,1.59203766370241,3.39755089677419,-0.267905667117117,-1.6548339,1.104139,1.6203201,145.90237,-166.13956,45.699104,FKL
12513642522000,1.854948,0.681436816417492,3.1664547282898,-0.188729120373261,-1.9761491,1.1249083,1.5289958,146.19194,-165.9328,46.122005,FKL
12513647526000,1.859952,-0.0522886219733814,2.93147093435405,-0.183933532741919,-2.2192733,1.0900891,1.4566082,146.43204,-165.6503,46.55853,FKL
12513652503000,1.864929,-0.664858931747,2.73580913140862,-0.1654716976687,-2.3765712,0.999681,1.4101825,146.67809,-165.37662,46.953907,FKL
12513657531000,1.869957,-1.20009370608499,2.56529172747393,-0.137052151778477,-2.4471262,0.8341365,1.3949108,146.91359,-165.06664,47.316235,FKL
12513662526000,1.874952,-1.68522235245493,2.40795121413206,-0.26472368995618,-2.43216,0.36957347,1.4010195,147.21461,-164.76434,47.530663,FKL
12513667559000,1.879985,-2.13645303266607,2.25914117830893,-0.519140932702918,-2.273335,-0.5476407,1.4239268,147.61223,-164.47557,47.5826,FKL
12513672581000,1.885007,-2.47164158261201,2.03782582417541,-1.16912633970067,-1.9437732,-1.4419475,1.4828753,148.1103,-164.23865,47.487537,FKL
12513677572000,1.889998,-2.71313685083889,1.7598783663775,-2.13055102926883,-1.5787812,-2.0949624,1.5515977,148.73007,-164.03848,47.21819,FKL
12513682559000,1.894985,-2.91971827736483,1.33097637743007,-3.40037792407828,-1.2565498,-2.4205534,1.6279559,149.48167,-163.9085,46.744286,FKL
12513687597000,1.900023,-3.08663318806959,0.715775655326678,-5.05522019670851,-1.0308352,-2.4486532,1.6475036,150.28506,-163.82063,46.173317,FKL
12513692557000,1.904983,-3.23964304282803,0.050727129670031,-6.72571215535714,-0.8362745,-2.196977,1.6022996,151.13982,-163.82533,45.46423,FKL
12513697545000,1.909971,-3.37872231794449,-0.695665281867236,-8.45956767678572,-0.66675943,-1.7159204,1.4996742,151.93005,-163.85252,44.7952,FKL
12513702512000,1.914938,-3.43384641683029,-1.50314999188539,-9.86988275435784,-0.4550946,-1.0332786,1.3179418,152.67236,-163.98718,44.049274,FKL
12513707574000,1.92,-3.34157247545582,-2.44045850290523,-10.7440569891805,-0.20341812,-0.2764165,1.0690142,153.24892,-164.12631,43.42538,FKL
12513712454000,1.92488,-3.13885290618893,-3.28921185667752,-11.3009444462541,0.0870483,0.09896017,0.91721416,153.80698,-164.40485,42.686573,FKL
12513718207000,1.930633,-2.66380187989078,-4.17597386429393,-11.3642842156543,0.23640485,0.80939645,0.57787853,154.03186,-164.61755,42.192627,FKL
12513722463000,1.934889,-2.19798395597242,-4.7283195054857,-11.2208624223281,0.5216789,1.4434745,0.24007004,154.18068,-164.9816,41.710976,FKL
12513727530000,1.939956,-1.34674254761712,-5.1170367585074,-10.5565988629081,0.7528914,1.9089539,-0.08155051,154.12619,-165.29745,41.345005,FKL
12513732520000,1.944946,-0.501602287879342,-5.37276545744059,-9.80541745027423,0.88178396,2.1734586,-0.3827071,153.78296,-165.55998,41.10395,FKL
12513737535000,1.949961,0.363247251745887,-5.34203487599634,-8.83081546078611,0.9166033,2.232407,-0.6789767,153.29381,-165.78271,40.89686,FKL
12513742512000,1.954938,1.22876628813559,-5.27504649952031,-7.87099482353694,0.84940815,2.1019874,-0.9783007,152.74756,-165.9984,40.83674,FKL
12513747568000,1.959994,2.16300368474576,-4.92922386056924,-6.95224217473617,0.70371675,1.817935,-1.2635747,152.11916,-166.1433,40.710968,FKL
12513752563000,1.964989,3.04921779866542,-4.55561082501166,-6.24362142232384,0.5332854,1.3909402,-1.5543466,151.63301,-166.35928,40.736107,FKL
12513757569000,1.969995,3.82773568809146,-4.08581536164256,-6.12729099919739,0.38789943,0.9059132,-1.8267925,151.09526,-166.49496,40.63462,FKL
12513762495000,1.974921,4.59632219763938,-3.62010189251511,-6.04250266139526,0.2932153,0.4364632,-2.0720549,150.5698,-166.57874,40.600395,FKL
12513767515000,1.979941,5.40365597808272,-3.11263500123789,-6.24087609523078,0.25473082,0.094989546,-2.3124304,149.99518,-166.5961,40.44094,FKL
12513772821000,1.985247,6.35556043383138,-2.57647791157951,-6.35866736659552,0.2434298,-0.0852157,-2.5363126,149.36238,-166.52267,40.286083,FKL
12513777531000,1.989957,8.34131679188901,-2.10310561141942,-5.399887886873,0.26297748,-0.22571471,-2.6823094,148.71399,-166.42445,40.03356,FKL
12513782504000,1.99493,10.4379550867129,-1.60330084524191,-4.38757146380292,0.25686884,-0.49663344,-2.6890287,148.04395,-166.25601,39.75918,FKL
12513787798000,2.000224,12.7693116478333,-0.42321223235538,-3.49371544436036,0.10476339,-0.87995136,-2.470339,147.44173,-166.0841,39.423077,FKL
12513792459000,2.004885,14.8470889033796,0.779954756209828,-2.75330515712212,-0.21074851,-1.0177015,-1.9410243,146.95891,-165.94113,39.108936,FKL
12513797523000,2.009949,16.0712071069415,1.95504855941399,-3.31174552922636,-0.6417139,-0.6942484,-1.1667526,146.61667,-165.75291,39.280926,FKL
12513802515000,2.014941,17.0654456458083,3.08627133416212,-4.14248727822349,-1.078788,-0.10140363,-0.3643811,146.4583,-165.60265,39.537003,FKL
12513807513000,2.019939,17.7519825322,3.33491419215,-5.1262549114,-1.3787229,0.21777347,0.12186762,146.33273,-165.26584,40.139904,FKL
12513812546000,2.024972,18.2918231188,3.1517540111,-6.1914762756,-1.4999796,0.8356637,0.25411993,146.25006,-164.96599,40.99725,FKL
12513817545000,2.029971,18.5365697356117,2.77147000988668,-6.79523175575979,-1.4950926,1.3997977,0.4260785,146.19405,-164.57826,41.92812,FKL
12513822529000,2.034955,18.6430459779602,2.29871904274114,-7.18280239610957,-1.4040737,1.8173242,0.4804455,146.07352,-164.20856,42.942516,FKL
12513827507000,2.039933,18.0627945112919,1.83212522947661,-7.37865237696671,-1.1963795,2.0711386,0.47342056,145.98785,-163.99304,44.009174,FKL
12513832555000,2.044981,16.5570652063577,1.36643601830247,-7.32173494778979,-0.9260717,2.1389446,0.44348818,145.8709,-163.82938,45.091106,FKL
12513837660000,2.050086,14.9026747750963,1.02187505510039,-7.15677643980937,-0.6221663,2.0491474,0.4120286,145.80132,-163.82219,46.15228,FKL
12513842610000,2.055036,13.2058552303792,0.776725476921517,-6.92124051251268,-0.30451632,1.8020525,0.3631594,145.72366,-163.86208,47.14178,FKL
12513847501000,2.059927,11.6674095805882,0.561378346088235,-6.67384007273529,-0.018936822,1.4419475,0.31581733,145.69797,-163.97949,47.92945,FKL
12513852446000,2.064872,10.2049044992157,0.361734782215686,-6.41383909935294,0.22327125,1.0183123,0.28038713,145.71306,-164.13559,48.6094,FKL
12513857448000,2.069874,8.88675827296965,0.170626650836751,-6.13117933593109,0.41355577,0.5491679,0.26236662,145.77159,-164.31079,49.041668,FKL
12513862445000,2.074871,7.70902322380025,-0.0109408506419196,-5.8318384371411,0.5381723,0.09132435,0.24465153,145.89232,-164.505,49.353302,FKL
12513867439000,2.079865,6.73578900975441,-0.177671671394336,-5.60798019914835,0.591623,-0.32406402,0.24220806,146.07133,-164.70479,49.449802,FKL
12513872466000,2.084892,5.90146954842543,-0.335000452810457,-5.4363488211527,0.59986967,-0.6722572,0.23457226,146.30864,-164.90959,49.438934,FKL
12513877442000,2.089868,5.20825373347039,-0.452600923571219,-5.32589355179638,0.56291234,-0.95478237,0.21288654,146.58492,-165.10197,49.26781,FKL
12513882433000,2.094859,4.61399776556045,-0.541505394032305,-5.26038500335781,0.5027421,-1.135904,0.16401732,146.88171,-165.28152,49.028034,FKL
12513887455000,2.099881,4.12621093994967,-0.528496124521389,-5.28968843686965,0.453262,-1.1976013,0.08460484,147.16641,-165.44157,48.687084,FKL
12513892449000,2.104875,3.74109507357826,-0.42258925372924,-5.40522315656769,0.39828414,-1.1432343,-0.006414085,147.42683,-165.57587,48.323956,FKL
12513897442000,2.109868,3.65210209342391,-0.100066288334749,-5.57734659922634,0.33841935,-0.98746365,-0.094989546,147.62448,-165.67386,47.913074,FKL
12513902559000,2.114985,3.82317172174733,0.422389675597698,-5.80389823785263,0.27122417,-0.75136423,-0.17837265,147.758,-165.74266,47.531,FKL
12513907499000,2.119925,4.10082049792531,0.747586994087137,-5.8767617846473,0.20341812,-0.61636305,-0.2302962,147.80554,-165.74063,47.089016,FKL
12513912520000,2.124946,4.5331213060166,0.839035233605636,-5.75621637702282,0.15118915,-0.34300083,-0.25625798,147.76935,-165.7193,46.743103,FKL
12513917538000,2.129964,4.98892875,0.931654693526157,-5.63218654657948,0.06261369,-0.08735373,-0.29565877,147.56416,-165.53683,46.36743,FKL
12513922542000,2.134968,5.61567975,1.03289908002515,-5.4827305582495,-0.043982297,0.13713925,-0.31398472,147.32544,-165.34732,46.059895,FKL
12513927520000,2.139946,6.23824772838807,1.1374970660721,-5.3428766654681,-0.1554652,0.3304781,-0.3277292,147.05937,-165.1575,45.89477,FKL
12513932537000,2.144963,6.8594646379766,1.26899554324273,-5.26125699775387,-0.26053402,0.47708577,-0.31948254,146.77383,-164.9545,45.778183,FKL
12513937799000,2.150225,7.49835581864543,1.40589434192538,-5.1827595073365,-0.35796702,0.5852089,-0.2855795,146.49342,-164.75296,45.79931,FKL
12513942535000,2.154961,7.9041514002863,1.51545916168024,-5.20710721681131,-0.41691554,0.634689,-0.24098633,146.21227,-164.54718,45.844383,FKL
12513947458000,2.159884,8.3259697382124,1.62935012613403,-5.23241629065939,-0.45020768,0.6545421,-0.18051068,145.94281,-164.3384,45.99751,FKL
12513952590000,2.165016,8.63293014068366,1.67918834262004,-5.30944914597906,-0.46089783,0.6386596,-0.12156218,145.69249,-164.13667,46.156002,FKL
12513957468000,2.169894,8.8867692704999,1.70687988405453,-5.39713897899625,-0.43004912,0.58368176,-0.09254608,145.46152,-163.9476,46.309826,FKL
12513962531000,2.174957,8.95080442193887,1.68266282043021,-5.51522937535527,-0.3726278,0.5308419,-0.06963864,145.24014,-163.76872,46.51213,FKL
12513967516000,2.179942,8.94615761008371,1.64084233858283,-5.64069086941795,-0.31031954,0.46975538,-0.05955936,145.0397,-163.60434,46.696056,FKL
12513972528000,2.184954,8.84604998125509,1.58381802420538,-5.71307663096984,-0.23976462,0.4007276,-0.06047566,144.864,-163.46498,46.88146,FKL
12513977483000,2.189909,8.70585669631214,1.52097266280562,-5.76141917783211,-0.16279559,0.3286455,-0.07788532,144.70074,-163.34029,47.04579,FKL
12513982518000,2.194944,8.54262345820552,1.44640809125767,-5.79498536779141,-0.10445796,0.25411993,-0.09040806,144.56154,-163.23965,47.175083,FKL
12513987579000,2.200005,8.37071731729294,1.36742427783742,-5.82286200782209,-0.06994407,0.18081611,-0.112399206,144.42807,-163.1452,47.28021,FKL
12513992528000,2.204954,8.24563722950314,1.33117718516614,-5.77801251593458,-0.056199603,0.115453534,-0.15057829,144.30774,-163.06346,47.34488,FKL
12513997499000,2.209925,8.14279464921304,1.31648540259233,-5.69475918362308,-0.040317107,0.055283304,-0.17654006,144.1988,-162.98795,47.38952,FKL
12514002605000,2.215031,8.15247400265058,1.33090835420894,-5.55300771757609,-0.04184427,-0.015577064,-0.21288654,144.09406,-162.91473,47.389973,FKL
12514007555000,2.219981,8.2088002159766,1.35690515157664,-5.39269395283795,-0.03390302,-0.055283304,-0.24190263,143.98996,-162.84363,47.380573,FKL
12514012546000,2.224972,8.32678820792492,1.41355465522419,-5.17513681864442,-0.045814894,-0.13805555,-0.25411993,143.89903,-162.76286,47.338696,FKL
12514017525000,2.229951,8.500813862878,1.49808114973931,-4.90664063529718,-0.05589417,-0.22540927,-0.26083946,143.81001,-162.68068,47.28324,FKL
12514022564000,2.23499,8.67648825075712,1.65215283815869,-4.66934594603271,-0.07788532,-0.3323107,-0.2864958,143.72293,-162.58049,47.22692,FKL
12514027543000,2.239969,8.84977564577024,1.84950801348678,-4.45755016283061,-0.119729586,-0.44104472,-0.2996294,143.65723,-162.47833,47.14978,FKL
12514032580000,2.245006,9.02291246255071,2.0585700747007,-4.397387861215,-0.17287487,-0.52503866,-0.30634892,143.58548,-162.34898,47.098488,FKL
12514037601000,2.250027,9.19418633857722,2.27266249425151,-4.43069109556743,-0.22815818,-0.57757306,-0.30298916,143.52995,-162.21376,47.02905,FKL
12514042630000,2.255056,9.34611795585738,2.52364315670628,-4.59372915432937,-0.26847526,-0.57451874,-0.30543262,143.43806,-162.02704,46.98452,FKL
12514047562000,2.259988,9.48291556856087,2.79252059631479,-4.83430377036852,-0.31031954,-0.5335908,-0.3032946,143.35603,-161.83594,46.93976,FKL
12514052571000,2.264997,9.61358811992656,3.06029231924043,-5.13507202807306,-0.31795537,-0.44501534,-0.2828306,143.2427,-161.6153,46.913506,FKL
12514057570000,2.269996,9.73850176768458,3.32399966579049,-5.47280235214534,-0.30970868,-0.3390302,-0.25625798,143.12668,-161.39767,46.90539,FKL
12514062561000,2.274987,9.81215174164766,3.57079313314167,-5.79451472836324,-0.27305678,-0.21288654,-0.22327125,142.9701,-161.15553,46.896595,FKL
12514067556000,2.279982,9.84060595945276,3.80316863448002,-6.10276817686131,-0.19975294,-0.089186326,-0.19914207,142.80676,-160.93307,46.91776,FKL
12514072570000,2.284996,9.84723067821096,3.99238276004354,-6.26582737245201,-0.10445796,0.004886922,-0.1826487,142.59721,-160.69255,46.9173,FKL
12514078129000,2.290555,9.83142718820503,4.15568787373837,-6.29216688917475,-0.01160644,0.05467244,-0.14721853,142.39676,-160.48315,46.943195,FKL
12514082549000,2.294975,9.77503883177109,4.20225741138629,-6.20693131790824,0.07941248,0.056199603,-0.13591751,142.1534,-160.2599,46.925945,FKL
12514087589000,2.300015,9.67026551159349,4.17844518918599,-6.0116722197336,0.15088372,0.02107485,-0.115453534,141.93456,-160.06894,46.91894,FKL
12514092519000,2.304945,9.53094432541568,4.08605761255938,-5.81824583907363,0.21044308,-0.03023783,-0.1142318,141.69705,-159.86525,46.888752,FKL
12514097526000,2.309952,9.34585975771972,3.9104649868171,-5.61892422565321,0.226631,-0.1142318,-0.10629055,141.49493,-159.68175,46.847187,FKL
12514102584000,2.31501,9.12599187817558,3.70855677106425,-5.41836760098087,0.24740042,-0.2012801,-0.102319926,141.29828,-159.49866,46.798233,FKL
12514107554000,2.31998,8.86921715723394,3.47979369161354,-5.22228489180971,0.26297748,-0.23823744,-0.10476339,141.11871,-159.32568,46.743206,FKL
12514112551000,2.324977,8.60543810948342,3.26067759697379,-5.03208588425212,0.25778514,-0.32834008,-0.1001819,140.99611,-159.18008,46.672256,FKL
12514117569000,2.329995,8.33217957286045,3.05689161638396,-4.85145756742483,0.22937989,-0.4092797,-0.09743301,140.88408,-159.03745,46.596027,FKL
12514122527000,2.334953,8.06635620600858,2.8579026602289,-4.68209958412017,0.19914207,-0.47128254,-0.10415252,140.81155,-158.92236,46.513817,LYI
12514127564000,2.33999,7.80510236480687,2.66072964008788,-4.52929040729614,0.1518,-0.50854534,-0.10873401,140.75587,-158.80362,46.421284,LYI
12514132479000,2.344905,7.56305259602058,2.49658316955256,-4.42910902324566,0.10567969,-0.5290093,-0.11759156,140.72464,-158.69992,46.32228,LYI
12514137594000,2.35002,7.33483775854605,2.37772125331457,-4.41484555556634,0.04550946,-0.5186246,-0.12797627,140.69397,-158.58643,46.223846,LYI
12514142461000,2.354887,7.12620242395103,2.2213954804028,-4.49887720051338,-0.016493361,-0.49388456,-0.13988814,140.67784,-158.48337,46.12624,LYI
12514148135000,2.360561,6.90625058979169,1.92097367751999,-4.86367523605489,-0.07452556,-0.45204028,-0.15088372,140.65305,-158.3703,46.036865,LYI
12514152542000,2.364968,6.80639919811321,1.74062976037736,-5.13244562264151,-0.1151481,-0.4034765,-0.16065755,140.61711,-158.25021,45.932213,LYI
12514157569000,2.369995,6.86514827907632,1.66380405363747,-5.40359500929316,-0.14935656,-0.36713,-0.17379116,140.5709,-158.12024,45.835533,LYI
12514162522000,2.374948,6.9277642908598,1.59690674261985,-5.66322649845942,-0.16615535,-0.3475823,-0.17867808,140.56654,-158.04529,45.706112,LYI
12514167551000,2.379977,7.01895630480248,1.58032640792667,-5.88291636596953,-0.18967366,-0.33444872,-0.18234327,140.55168,-157.96222,45.58469,LYI
12514172537000,2.384963,7.10936858985283,1.56388784185386,-6.100727795559,-0.18081611,-0.3203988,-0.17654006,140.55843,-157.91351,45.44918,LYI
12514177573000,2.389999,7.22487800441925,1.58595286680654,-6.26340019683957,-0.1591304,-0.29810223,-0.16218472,140.5618,-157.86563,45.322132,LYI
12514182552000,2.394978,7.34407462431926,1.61575201066869,-6.41239587169896,-0.1337795,-0.28344148,-0.1432479,140.56702,-157.82391,45.200634,LYI
12514187571000,2.399997,7.44008378760427,1.66383683380213,-6.49318732377304,-0.09315695,-0.25259277,-0.11026118,140.5938,-157.81169,45.07497,LYI
12514192553000,2.404979,7.5187546414161,1.72399702070805,-6.525581292871,-0.07971791,-0.21930063,-0.076358154,140.62245,-157.80437,44.958794,LYI
12514197526000,2.409952,7.56366133675076,1.81556345889001,-6.51575587749748,-0.053450707,-0.17745635,-0.061391957,140.65088,-157.81705,44.850624,LYI
12514202623000,2.415049,7.57843821352169,1.93870420151362,-6.46649962159435,-0.027488936,-0.10048734,-0.042455133,140.6759,-157.84052,44.766663,LYI
12514207562000,2.419988,7.53268442129979,2.06882315224319,-6.39853368513627,-0.019547688,-0.07360926,-0.02565634,140.70705,-157.86325,44.686806,LYI
12514212563000,2.424989,7.43729889098532,2.20939140702306,-6.31318868453878,-0.015577064,0.008552114,-0.017715093,140.71223,-157.89188,44.64165,LYI
12514217994000,2.43042,7.33775922492845,2.3629355055561,-6.23098080089806,-0.020158553,0.1133155,-0.0036651916,140.69994,-157.90085,44.61167,LYI
12514222570000,2.434996,7.25558762307313,2.49268025652818,-6.16610849315109,-0.017104227,0.14446963,0.00030543262,140.6849,-157.9114,44.58396,LYI
12514227559000,2.439985,7.18611910249493,2.63441395591802,-6.1517809070343,-0.024129177,0.18600847,0.007330383,140.62598,-157.88991,44.57519,LYI
12514232567000,2.444993,7.12913894072076,2.77686429837632,-6.17314843980991,-0.02107485,0.2171626,0.009162978,140.5634,-157.87122,44.571327,LYI
12514237558000,2.449984,7.0723522020197,2.91883108336221,-6.19444343902777,-0.02443461,0.23884831,0.0125227375,140.47601,-157.81563,44.56024,LYI
12514242564000,2.45499,7.01539479590119,3.0612245367061,-6.21580243844364,-0.027488936,0.24923302,0.005497787,140.38374,-157.76047,44.5528,LYI
12514247559000,2.459985,6.99640482463069,3.17139566338063,-6.21958874751109,-0.013744468,0.25961772,-0.00030543262,140.29314,-157.7106,44.5511,LYI
12514252630000,2.465056,7.00587558651455,3.25900071763444,-6.21011793618059,-0.014966198,0.24801129,0.0027488936,140.20796,-157.6594,44.546864,LYI
12514257559000,2.469985,7.01508114465409,3.3441526230608,-6.20091232997904,0.0070249503,0.20677789,-0.010079277,140.07124,-157.54439,44.485565,LYI
12514262548000,2.474974,7.02439876071376,3.43034107024523,-6.19159466527229,0.027794369,0.17012598,-0.016493361,139.944,-157.4354,44.425728,LYI
12514267558000,2.479984,7.04279692081673,3.49427529880478,-6.1843805876494,0.053145275,0.10720685,-0.025350908,139.8305,-157.33229,44.349148,LYI
12514272575000,2.485001,7.07151025119522,3.53255960605578,-6.17959504924303,0.10354166,0.043676864,-0.031154128,139.72794,-157.24103,44.26516,LYI
12514277569000,2.489995,7.11832978478702,3.5417478020284,-6.15004672742393,0.1282817,-0.032070424,-0.04153884,139.61743,-157.1097,44.14897,LYI
12514282558000,2.494984,7.18616981211968,3.51751927505071,-6.0918980096856,0.1432479,-0.11056661,-0.049785517,139.52472,-156.99077,44.020073,LYI
12514287912000,2.500338,7.23774101681614,3.46424190901345,-6.02124920901345,0.15241088,-0.1704314,-0.06505715,139.44733,-156.86887,43.87772,LYI
12514292685000,2.505111,7.26643787668161,3.39454947390135,-5.95155677390135,0.15393804,-0.23518312,-0.07238753,139.39124,-156.75381,43.720108,LYI
12514297503000,2.509929,7.28157419816478,3.30347119746193,-5.88945947871925,0.15241088,-0.29168814,-0.08857546,139.34633,-156.64749,43.571312,LYI
12514302642000,2.515068,7.25515061297833,3.14252723895939,-5.84862299012105,0.122478485,-0.3539964,-0.099571034,139.31802,-156.54015,43.409878,LYI
12514307545000,2.519971,7.22994048685084,2.98897436319797,-5.80966184912144,0.094989546,-0.3827071,-0.10354166,139.31079,-156.45262,43.269302,LYI
12514312570000,2.524996,7.20410306409118,2.83160067347716,-5.76973124877001,0.07788532,-0.42241332,-0.112704635,139.31459,-156.36134,43.11293,LYI
12514317553000,2.529979,7.17425101041234,2.6771156967962,-5.74789955900326,0.032986723,-0.4541783,-0.118202426,139.32318,-156.26295,42.95593,LYI
12514322572000,2.534998,7.12196899115989,2.52977611041234,-5.8191928832394,-0.009468411,-0.46761733,-0.12980886,139.33162,-156.162,42.795986,LYI
12514327521000,2.539947,7.07423589272325,2.39107733680669,-5.89709441338076,-0.053145275,-0.46517387,-0.13103059,139.38055,-156.11064,42.664448,LYI
12514332541000,2.544967,7.05112931961934,2.29402963325964,-6.02649131927329,-0.08399397,-0.43096542,-0.12522738,139.42285,-156.05421,42.53987,LYI
12514337597000,2.550023,7.03193627868354,2.2004253561519,-6.16175146643038,-0.11484267,-0.38881573,-0.116980694,139.47795,-156.01308,42.41092,LYI
12514342561000,2.554987,7.07044907682025,2.16672665778228,-6.36394370691646,-0.14538592,-0.33933565,-0.100792766,139.52718,-155.97021,42.29709,LYI
12514347523000,2.559949,7.11685838244415,2.14297986812089,-6.57706636047306,-0.17134771,-0.27122417,-0.07696902,139.58156,-155.94995,42.189648,LYI
12514352638000,2.565064,7.26276318612352,2.24168014486202,-6.93324569989487,-0.18173242,-0.18387043,-0.051923547,139.62547,-155.9313,42.103878,LYI
12514357468000,2.569894,7.40053839663601,2.33488099269382,-7.26957926967149,-0.17470746,-0.101098195,-0.032375857,139.67068,-155.93271,42.02086,LYI
12514362566000,2.574992,7.56691892493808,2.43635314492284,-7.32712494970471,-0.1423316,-0.010995574,0.00580322,139.70865,-155.94652,41.969124,LYI
12514367482000,2.579908,7.73285008058678,2.53501470811583,-7.3047018458754,-0.109650314,0.08093964,0.038179077,139.73227,-155.96474,41.941,LYI
12514372553000,2.584979,7.86994511935807,2.65058522461384,-7.18664531193581,-0.06994407,0.14660765,0.07941248,139.75092,-156.00806,41.90523,LYI
12514377543000,2.589969,7.98977518956871,2.77041544497493,-7.02846931895687,-0.033292156,0.22174409,0.11911872,139.7574,-156.06262,41.899067,LYI
12514382554000,2.59498,7.99892428060825,2.86549366000391,-6.76997441741639,0.007330383,0.28863382,0.15302174,139.75671,-156.12036,41.93428,LYI
12514387596000,2.600022,7.96114897168981,2.95048809274399,-6.4677721925973,0.020463986,0.3295618,0.18875736,139.75882,-156.1869,41.986637,LYI
12514392568000,2.604994,7.86268806115794,3.0102615525888,-6.19645345590006,0.018020526,0.34513888,0.19730948,139.74117,-156.23477,42.077446,LYI
12514397543000,2.609969,7.7336088756773,3.05806872673089,-5.93829483534016,-0.013439035,0.3585779,0.20861048,139.72809,-156.2859,42.180927,LYI
12514403262000,2.615688,7.56536038049209,3.08928417677212,-5.73796031243898,-0.03940081,0.37018433,0.21563543,139.69418,-156.30487,42.31148,LYI
12514407572000,2.619998,7.43236771792619,3.10540451098418,-5.61705795313415,-0.0852157,0.364992,0.2134974,139.6625,-156.31367,42.438423,LYI
12514412559000,2.624985,7.25685618030794,3.07637461969206,-5.51901507811994,-0.09407325,0.3417791,0.21013765,139.61026,-156.29549,42.569935,LYI
12514417568000,2.629994,7.06734661197326,3.01806391302674,-5.44612682163695,-0.11636983,0.31887165,0.20066923,139.55789,-156.26468,42.69608,LYI
12514422564000,2.63499,6.90857050992268,2.94229539467684,-5.43581845368755,-0.12614368,0.28130344,0.18570304,139.50531,-156.21422,42.80093,LYI
12514427565000,2.639991,6.76614318994845,2.85683892337431,-5.45955634861221,-0.14752395,0.22296582,0.1731803,139.46155,-156.15717,42.89229,LYI
12514432587000,2.645013,6.68388308351296,2.76034928365861,-5.55084050468978,-0.16126843,0.15668693,0.16065755,139.42162,-156.09511,42.954628,LYI
12514437781000,2.650207,6.6355850866589,2.6540940839499,-5.68607453277017,-0.17898351,0.09560041,0.14966199,139.39108,-156.02753,43.00179,LYI
12514442566000,2.654992,6.63043156618895,2.55274911101263,-5.85737419992457,-0.20525073,0.02107485,0.14508049,139.38316,-155.96637,43.011993,LYI
12514447546000,2.659972,6.65291547265699,2.44482721453894,-6.0687213430511,-0.22602014,-0.035124753,0.13591751,139.38022,-155.90112,43.009903,LYI
12514452581000,2.665007,6.68795675027584,2.32612742229624,-6.29686284032476,-0.24129178,-0.07696902,0.13225232,139.40225,-155.85738,42.979736,LYI
12514457573000,2.669999,6.73771982470074,2.19674332486728,-6.54070211285521,-0.2556471,-0.10903945,0.1328632,139.43245,-155.80994,42.938885,LYI
12514462549000,2.674975,6.80210275579745,2.06349194385729,-6.74003964428887,-0.25992316,-0.11789699,0.13805555,139.48685,-155.79376,42.877796,LYI
12514467542000,2.679968,6.88006270216745,1.92591542425434,-6.9005454162271,-0.24129178,-0.11789699,0.13225232,139.54146,-155.77754,42.81109,LYI
12514473191000,2.685617,7.0019302882178,1.77320684444217,-7.02723643407506,-0.22327125,-0.08552113,0.14477506,139.62064,-155.80083,42.741104,LYI
12514477571000,2.689997,7.1223671284557,1.65707136002871,-7.08315361065423,-0.19639318,-0.03481932,0.1441642,139.68738,-155.82501,42.67397,LYI
12514482551000,2.694977,7.25988714401278,1.50803668755618,-7.0712090035354,-0.19181168,0.018020526,0.15577064,139.77896,-155.8892,42.619846,LYI
12514487580000,2.700006,7.39937471846599,1.33968939325876,-6.97982027575152,-0.18112154,0.07696902,0.16646078,139.85526,-155.95802,42.57976,LYI
12514492549000,2.704975,7.50667435697755,1.2177964629908,-6.84629054710711,-0.17104226,0.13316862,0.17287487,139.94301,-156.0568,42.57149,LYI
12514497522000,2.709948,7.58203879236475,1.14243227352388,-6.66730056638315,-0.18081611,0.19486602,0.17195857,140.0158,-156.15234,42.578865,LYI
12514502576000,2.715002,7.64996451254859,1.0968617812419,-6.4892109856972,-0.19333886,0.2275473,0.16982053,140.10265,-156.27495,42.632587,LYI
12514507590000,2.720016,7.70739667664706,1.08728975389216,-6.31691454337686,-0.19792034,0.2764165,0.16829337,140.17142,-156.39464,42.703403,LYI
12514512529000,2.724955,7.75265892665832,1.12180487984981,-6.15818656245307,-0.18387043,0.3210097,0.16737708,140.24066,-156.51923,42.816875,LYI
12514517542000,2.729968,7.78501278136132,1.20962253373448,-6.01028303361895,-0.15118915,0.35979962,0.16279559,140.2984,-156.64316,42.937572,LYI
12514522512000,2.734938,7.82473941017561,1.32306396781736,-5.85596981938786,-0.13103059,0.3903429,0.14966199,140.3548,-156.75977,43.092983,LYI
12514527521000,2.739947,7.8776919544004,1.48192170102358,-5.68748414980432,-0.10476339,0.40225476,0.14538592,140.40813,-156.88248,43.250877,LYI
12514532521000,2.744947,7.93052312050511,1.65684514467829,-5.51573368725195,-0.06414085,0.41813725,0.13225232,140.4293,-156.98402,43.430023,LYI
12514537581000,2.750007,7.98394501627581,1.86082019518942,-5.33604166700742,-0.048258353,0.41416663,0.12095132,140.45149,-157.08342,43.60345,LYI
12514542478000,2.754904,8.03297261419576,2.04942296714367,-5.16534985569548,-0.029932396,0.41172317,0.09437868,140.43895,-157.15102,43.792656,LYI
12514547553000,2.759979,8.07933996775424,2.23025583968708,-4.99379045386377,-0.040011674,0.38331795,0.07452556,140.43166,-157.21378,43.97019,LYI
12514552517000,2.764943,8.12376730249286,2.40067316054784,-4.85152694981772,-0.067500606,0.344528,0.054061573,140.38933,-157.22807,44.153393,LYI
12514557552000,2.769978,8.16652734633954,2.55746040140901,-4.77075774107794,-0.07696902,0.2950479,0.026267206,140.34721,-157.23753,44.319252,LYI
12514562537000,2.774963,8.2014280911494,2.68665715701978,-4.71915305414137,-0.086437434,0.24984388,0.023823744,140.2863,-157.20323,44.49066,LYI
12514567557000,2.779983,8.2155488685138,2.74313908691991,-4.7473941173879,-0.100792766,0.19333886,0.02443461,140.23187,-157.16179,44.640408,LYI
12514572526000,2.784952,8.23278770314083,2.77948809951368,-4.79344135452888,-0.09590584,0.15210545,0.008857546,140.15515,-157.08594,44.780144,LYI
12514577552000,2.789978,8.26204747619048,2.74535117142857,-4.90560532857143,-0.08399397,0.10048734,0.018020526,140.10374,-157.01625,44.905388,LYI
12514582559000,2.794985,8.27978609186156,2.68601243310989,-5.01501498250161,-0.064751714,0.07238753,0.02443461,140.04665,-156.93634,45.01368,LYI
12514587622000,2.800048,8.26293280565073,2.54877725254481,-5.11854331410199,-0.03940081,0.025350908,0.031154128,140.01044,-156.864,45.105064,LYI
12514592600000,2.805026,8.24636246025126,2.41384604005164,-5.22033356389592,-0.004886922,-0.016493361,0.034208454,139.98895,-156.81473,45.184776,LYI
12514597540000,2.809966,8.22991860603804,2.27994483681414,-5.32134678888227,0.010995574,-0.04550946,0.046731193,139.98169,-156.77153,45.257732,LYI
12514602608000,2.815034,8.2085542817809,2.14240682896477,-5.41986508352163,0.023518313,-0.052839845,0.03573562,139.97803,-156.73274,45.322742,LYI
12514607562000,2.819988,8.17281989279438,2.00740981072056,-5.49927502108963,0.026572637,-0.086437434,0.033292156,139.99437,-156.70056,45.37712,LYI
12514612576000,2.825002,8.13665270943175,1.87077778619968,-5.57964672616955,0.041233405,-0.09101892,0.016798794,140.04066,-156.72652,45.422684,LYI
12514617567000,2.829993,8.13858219236461,1.74990563021604,-5.58498156099438,0.040927973,-0.09590584,0.0106901415,140.09637,-156.75131,45.46075,LYI
12514622528000,2.834954,8.14795558025057,1.63273451329782,-5.57560787947124,0.024129177,-0.09254608,0.008246681,140.14594,-156.77222,45.496956,LYI
12514627548000,2.839974,8.28244039122932,1.60500414513247,-5.49181494778195,0.013744468,-0.099571034,-0.0125227375,140.2128,-156.81894,45.51849,LYI
12514632478000,2.844904,8.44539513287991,1.60021137038879,-5.39116667816465,-0.0061086523,-0.0983493,-0.021380283,140.27881,-156.86186,45.543724,LYI
12514637615000,2.850041,8.57858546891991,1.66674574533431,-5.32698166146951,-0.04642576,-0.10445796,-0.03359759,140.34973,-156.91165,45.571484,LYI
12514642489000,2.854915,8.69747955444526,1.74448419505266,-5.27439395898604,-0.086437434,-0.111177474,-0.04184427,140.41762,-156.9557,45.598038,LYI
12514647563000,2.859989,8.82125234680382,1.82541256884644,-5.21964836965467,-0.1142318,-0.106901415,-0.050701816,140.48155,-156.99332,45.658512,LYI
12514652511000,2.864937,8.94195155385746,1.90433129047269,-5.16626224903747,-0.14110987,-0.100792766,-0.05955936,140.5429,-157.02129,45.71558,LYI
12514657551000,2.869977,9.00889771710591,1.97808277565887,-5.11334942620669,-0.16768251,-0.07238753,-0.06078109,140.59695,-157.04346,45.77789,LYI
12514662520000,2.874946,9.05586950587306,2.04854045880959,-5.06168021332544,-0.17379116,-0.05100725,-0.06383542,140.6469,-157.06166,45.83746,LYI
12514667567000,2.879993,9.05862506953339,2.0898116916133,-5.02221871622446,-0.16768251,-0.03848451,-0.06078109,140.67973,-157.05696,45.939236,LYI
12514672476000,2.884902,9.04428731625496,2.11848669913592,-4.98876470712616,-0.14630222,-0.03634648,-0.067500606,140.70563,-157.0512,46.03973,LYI
12514677569000,2.889995,8.97909538732744,2.12243885652994,-4.94742840876949,-0.11026118,-0.06780604,-0.06688975,140.72989,-157.03844,46.143074,LYI
12514682483000,2.894909,8.89964124391697,2.11776506616347,-4.90536429547125,-0.07574729,-0.11728613,-0.07269296,140.75363,-157.02661,46.23849,LYI
12514687570000,2.899996,8.79530553676117,2.12677371686689,-4.90061454709274,-0.044593163,-0.16340645,-0.086437434,140.77208,-157.01154,46.32462,LYI
12514692519000,2.904945,8.68598376770783,2.14043894988948,-4.9097247500048,-0.033292156,-0.2284636,-0.1133155,140.80016,-156.995,46.389915,LYI
12514697521000,2.909947,8.58801798264352,2.16315650520694,-4.94581342830441,-0.0125227375,-0.24984388,-0.13164146,140.8232,-156.98003,46.447678,LYI
12514702568000,2.914994,8.49583009479306,2.19081287156208,-4.99651671849132,-0.0033597588,-0.3136793,-0.12980886,140.86913,-156.96382,46.47834,LYI
12514707574000,2.92,8.40049794183663,2.22029385665264,-5.07406963544836,-0.0036651916,-0.3747658,-0.13775012,140.90341,-156.93782,46.482872,LYI
12514712564000,2.92499,8.30251796989317,2.25123476438977,-5.17204939200388,0.004581489,-0.40622538,-0.14538592,140.94603,-156.91583,46.47992,LYI
12514717554000,2.92998,8.21376452431791,2.29042460268881,-5.26080252961645,0.008552114,-0.42913285,-0.14080444,140.99203,-156.88748,46.444237,LYI
12514722580000,2.935006,8.12811832443654,2.33324765294583,-5.34644838171214,0.009468411,-0.44165558,-0.14172074,141.03784,-156.8578,46.402645,LYI
12514728234000,2.94066,7.98857510208127,2.37369093300297,-5.43906612705649,0.00061086525,-0.44104472,-0.14660765,141.08109,-156.82312,46.333862,LYI
12514732544000,2.94497,7.86994245887017,2.40232641922696,-5.50860936531219,-0.00580322,-0.4334089,-0.13805555,141.12892,-156.79274,46.267662,LYI
12514737581000,2.950007,7.75177333440514,2.41650657566988,-5.61102326902465,-0.016493361,-0.4382958,-0.13500121,141.16841,-156.75089,46.172485,LYI
12514742577000,2.955003,7.64454845513008,2.42116848672903,-5.72291069219526,-0.014049901,-0.41447207,-0.12003502,141.20546,-156.71602,46.091473,LYI
12514747557000,2.959983,7.54610254581907,2.42003801657702,-5.85495543227384,-0.022907447,-0.39858958,-0.11026118,141.23294,-156.67178,45.979168,LYI
12514752544000,2.96497,7.45268513513936,2.41536720944743,-5.99975181892421,-0.03726278,-0.376293,-0.09743301,141.25873,-156.6324,45.879517,LYI
12514757530000,2.969956,7.37631356064635,2.40779619394559,-6.12604948572305,-0.050701816,-0.35369098,-0.08155051,141.2899,-156.5962,45.757645,LYI
12514762553000,2.974979,7.31235820544079,2.39795690852935,-6.23920147349151,-0.059253927,-0.3231477,-0.081855945,141.31194,-156.5589,45.645157,LYI
12514767511000,2.979937,7.29019390607905,2.39644565921874,-6.34970107656214,-0.06047566,-0.2950479,-0.06963864,141.3387,-156.53098,45.5118,LYI
12514772552000,2.984978,7.2939135807073,2.40016525616766,-6.46128898502966,-0.07422013,-0.258396,-0.05681047,141.3555,-156.50063,45.390663,LYI
12514777809000,2.990235,7.29626787650954,2.40394648225555,-6.56918565060382,-0.07666359,-0.21502456,-0.049785517,141.36702,-156.47823,45.25867,LYI
12514782562000,2.994988,7.27964394887028,2.40616299436843,-6.56253607954811,-0.06811147,-0.20005837,-0.04337143,141.37978,-156.45917,45.133415,LYI
12514787558000,2.999984,7.26217011287495,2.4084928270038,-6.55554654514998,-0.05100725,-0.17195857,-0.03176499,141.39038,-156.44919,45.005714,LYI
12514792572000,3.004998,7.2446333207051,2.41083105375195,-6.54853182828204,-0.035124753,-0.14446963,-0.01985312,141.39885,-156.44284,44.88524,LYI
12514797955000,3.010381,7.22580592695754,2.41334135981204,-6.54100087078302,-0.019242255,-0.13744467,-0.020158553,141.4044,-156.44006,44.768913,LYI
12514802580000,3.015006,7.20962968767043,2.41549818045627,-6.53453037506817,-0.008857546,-0.12950343,-0.022907447,141.40579,-156.4417,44.66302,LYI
12514807466000,3.019892,7.19254058385275,2.41777671573578,-6.5276947335411,-0.007941248,-0.11636983,-0.011301007,141.4083,-156.44792,44.56436,LYI
12514812563000,3.024989,7.17471349376704,2.42015364867063,-6.52056389750682,-0.01282817,-0.12064589,-0.018325957,141.40517,-156.45056,44.462006,LYI
12514817487000,3.029913,7.15749148246981,2.42244990485489,-6.51367509298792,-0.032986723,-0.1301143,-0.008857546,141.4089,-156.45688,44.36787,LYI
12514822574000,3.035,7.17315705186289,2.43064492074516,-6.39653622909091,-0.069027774,-0.13561209,-0.004581489,141.4164,-156.45381,44.270668,LYI
12514827462000,3.039888,7.1964115965226,2.43994673860904,-6.25700900969697,-0.09468412,-0.13316862,-0.01038471,141.42316,-156.44911,44.17497,LYI
12514832648000,3.045074,7.2165896361037,2.47174712706824,-6.14706316036981,-0.12889257,-0.13591751,-0.008857546,141.42964,-156.4323,44.073242,LYI
12514837511000,3.049937,7.23434477725886,2.50725759477697,-6.05384795088639,-0.14966199,-0.13775012,-0.0106901415,141.43187,-156.41206,43.97305,LYI
12514842550000,3.054976,7.23168925550461,2.55388244437446,-6.05564301655162,-0.17837265,-0.13713925,-0.008857546,141.43222,-156.37872,43.897457,LYI
12514847462000,3.059888,7.21983828518164,2.60365654448027,-6.10067682752557,-0.17837265,-0.13561209,-0.0143553335,141.42969,-156.346,43.821976,LYI
12514852575000,3.065001,7.2075023708369,2.65546741049025,-6.14755343084597,-0.18509217,-0.13622294,-0.0061086523,141.428,-156.30104,43.764,LYI
12514857518000,3.069944,7.19557660815236,2.70555563867083,-6.19287145357485,-0.16615535,-0.13836098,-0.009162978,141.42108,-156.2587,43.704914,LYI
12514862561000,3.074987,7.18245452343794,2.73278304775119,-6.39383630302635,-0.1441642,-0.13439035,-0.0027488936,141.42155,-156.21933,43.650173,LYI
12514868095000,3.080521,7.16764928270789,2.75252348896545,-6.68007210801751,-0.12186762,-0.129198,-0.004581489,141.41869,-156.18243,43.59493,LYI
12514872573000,3.084999,7.17336036208018,2.72414772951578,-6.75556360738276,-0.09315695,-0.12675454,-0.004581489,141.411411890379,-156.164062113212,43.5601932237829,LYI
12514877564000,3.08999,7.19036075136934,2.66586065516488,-6.74584909921752,-0.06505715,-0.12156218,-0.003970624,141.4033,-156.14359,43.521477,LYI
12514882561000,3.094987,7.20738157791271,2.60750351019765,-6.73612291262131,-0.03481932,-0.102319926,0.00061086525,141.38556,-156.10612,43.45436,LYI
12514887591000,3.100017,7.2245148093542,2.54876097684061,-6.72633249465474,-0.0009162979,-0.087964594,0.0070249503,141.38113,-156.08931,43.34811,LYI
12514892567000,3.104993,7.17625988154657,2.50718781142355,-6.65965090281195,0.016798794,-0.0711658,0.01160644,141.3751,-156.07281,43.246914,LYI
12514897544000,3.10997,7.0924920927065,2.47461149499121,-6.56192190492091,0.02687807,-0.064751714,0.02565634,141.37303,-156.0655,43.151463,LYI
12514902549000,3.114975,7.0006345411095,2.40650411192475,-6.46707016907863,0.028099801,-0.06078109,0.028099801,141.3835,-156.07884,43.074165,LYI
12514907577000,3.120003,6.90307596362759,2.31359103777135,-6.37415719194404,0.024740042,-0.0571159,0.035124753,141.39775,-156.09697,43.002716,LYI
12514912545000,3.124971,6.82232161526877,2.23007788616735,-6.27083133702005,0.009468411,-0.02687807,0.030848695,141.3999,-156.10793,42.94106,LYI
12514917560000,3.129986,6.75526395814301,2.15344061375287,-6.15587515331605,-0.008246681,-0.023518313,0.03145956,141.41025,-156.12018,42.876987,LYI
12514922556000,3.134982,6.71084442289628,2.10440027246575,-6.07869236121331,-0.01282817,-0.004276057,0.03481932,141.42113,-156.138,42.827095,LYI
12514927568000,3.139994,6.68736158454012,2.0809173360274,-6.03642325217221,-0.04795292,0.009773844,0.03848451,141.43198,-156.14653,42.777798,LYI
12514932589000,3.145015,6.68886304818246,2.07550452222334,-6.02806304818246,-0.059864793,0.0009162979,0.0290161,141.44443,-156.16151,42.736988,LYI
12514937963000,3.150389,6.71995703058101,2.09105162164938,-6.05915703058101,-0.09468412,0.0125227375,0.031154128,141.45393,-156.16835,42.7073,LYI
12514942595000,3.155021,6.77487736822262,2.11851183411131,-6.12114116919011,-0.122783914,0.0076358155,0.029626964,141.47202,-156.17159,42.67242,LYI
12514947548000,3.159974,6.86003695601436,2.16109162800718,-6.22049426862158,-0.14080444,0.0125227375,0.03023783,141.48645,-156.17097,42.64383,LYI
12514952591000,3.165017,6.96910114354172,2.2049197921601,-6.30277948667034,-0.16187929,0.0033597588,0.020463986,141.4945,-156.15929,42.60761,LYI
12514957556000,3.169982,7.10005366805288,2.24857058808409,-6.36389055538419,-0.1685988,0.0027488936,0.021991149,141.50328,-156.14969,42.577084,LYI
12514962530000,3.174956,7.2478261426784,2.28529556728873,-6.42493044897678,-0.172264,-0.0012217305,0.021380283,141.5072,-156.13478,42.53902,LYI
12514967547000,3.179973,7.4363249028523,2.30567375843495,-6.48606518200615,-0.17715092,-0.004886922,0.02443461,141.5127,-156.1199,42.502502,LYI
12514972535000,3.184961,7.61085120637876,2.32343511787837,-6.51400800389263,-0.1554652,-0.0009162979,0.01985312,141.52089,-156.11142,42.4769,LYI
12514977573000,3.189999,7.76855557666403,2.33777201037044,-6.49489229693938,-0.13622294,0.013439035,0.018936822,141.52957,-156.10335,42.454655,LYI
12514982522000,3.194948,7.89383687740152,2.33711819018659,-6.45773929232896,-0.105068825,0.017104227,0.021380283,141.53899,-156.1065,42.44782,LYI
12514987602000,3.200028,7.97548881224208,2.31310276477441,-6.39049662276631,-0.08124508,0.028405234,0.027183503,141.54434,-156.11249,42.446774,LYI
12514992459000,3.204885,8.02371697009511,2.28031656659476,-6.30989502178645,-0.062002823,0.02565634,0.030848695,141.55693,-156.12668,42.46824,LYI
12514997526000,3.209952,8.01895898803804,2.22797990663791,-6.19570558871458,-0.021685716,0.032070424,0.029626964,141.56525,-156.14929,42.49416,LYI
12515002485000,3.214911,7.98377355056223,2.17853721826045,-6.08756586575685,-0.02107485,0.019547688,0.025350908,141.58942,-156.17122,42.535545,LYI
12515007536000,3.219962,7.88149655302258,2.13204762979337,-5.98528891676117,-0.01282817,0.02076942,0.026267206,141.61018,-156.20244,42.58132,LYI
12515012475000,3.224901,7.79170374535459,2.09620463573392,-5.90498344255085,-0.002443461,0.004276057,0.012217305,141.63474,-156.2323,42.63317,LYI
12515017515000,3.229941,7.73380921069519,2.09138004919786,-5.88809746524064,-0.00061086525,-0.0030543262,0.010995574,141.66112,-156.26418,42.688408,LYI
12515022490000,3.234916,7.67666133174072,2.08661768451197,-5.87142926343146,-0.021380283,-0.03176499,0.0125227375,141.69087,-156.2893,42.73304,LYI
12515027529000,3.239955,7.61877828409216,2.08179405523514,-5.85454663651357,-0.043676864,-0.04642576,0.011911872,141.71774,-156.31313,42.77779,LYI
12515032522000,3.244948,7.56847732804388,2.0917203203252,-5.85201699614066,-0.067500606,-0.042760566,0.009162978,141.74521,-156.33076,42.818447,LYI
12515037603000,3.250029,7.53987909697326,2.14891668292683,-5.89491429297679,-0.08002335,-0.028710667,0.012217305,141.7748,-156.34697,42.858253,LYI
12515042572000,3.254998,7.50872163379998,2.20417604055796,-5.94417028961628,-0.09987647,-0.01160644,0.014049901,141.79834,-156.3524,42.887356,LYI
12515047523000,3.259949,7.46574332369826,2.25670515826367,-6.02057625180784,-0.10293079,0.01038471,0.013133603,141.81763,-156.3586,42.920643,LYI
12515052548000,3.264974,7.42677068446826,2.31002868754504,-6.08996844867412,-0.116675265,0.03023783,0.010995574,141.8259,-156.3497,42.943546,LYI
12515057539000,3.269965,7.40468909489051,2.36302464087591,-6.12971567883212,-0.10751228,0.04337143,0.015577064,141.83287,-156.34602,42.97071,LYI
12515062644000,3.27507,7.38108259749317,2.4153319484403,-6.16878169437376,-0.093462385,0.045814894,0.014966198,141.8235,-156.33073,42.978386,LYI
12515067516000,3.279942,7.34590538923758,2.44171480871737,-6.18637020667232,-0.07391469,0.049785517,0.019242255,141.81458,-156.32082,42.99104,LYI
12515072505000,3.284931,7.30988340812365,2.46873124753558,-6.2043811031948,-0.05955936,0.03176499,0.020158553,141.80083,-156.3025,42.985027,LYI
12515077554000,3.28998,7.31957786788308,2.49160654647179,-6.22240327034072,-0.049785517,0.0106901415,0.019547688,141.78836,-156.2882,42.979786,LYI
12515082524000,3.29495,7.33287055900205,2.51376103167008,-6.24012676596537,-0.044593163,-0.00030543262,0.018325957,141.77814,-156.27628,42.972904,LYI
12515087645000,3.300071,7.34822466041913,2.51043965972058,-6.22755720569586,-0.03573562,0.0030543262,0.021380283,141.76549,-156.26102,42.95437,LYI
12515092496000,3.304922,7.36320275503493,2.50045426331005,-6.20758651714132,-0.031154128,0.0015271631,0.032070424,141.75874,-156.24799,42.933716,LYI
12515097526000,3.309952,7.35579231124751,2.48638843556886,-6.14436656192615,-0.03573562,-0.00580322,0.030848695,141.74782,-156.23076,42.90958,LYI
12515102550000,3.314976,7.34618869959082,2.47198309329341,-6.07714148088822,-0.05467244,-0.005192355,0.03359759,141.74059,-156.21535,42.889896,LYI
12515107531000,3.319957,7.3366672844511,2.4577010451497,-6.0104917737525,-0.05955936,-0.0012217305,0.03023783,141.74126,-156.20633,42.876198,LYI
12515112460000,3.324886,7.3272452697505,2.44356809688623,-5.94453786761477,-0.08368854,-0.01038471,0.027488936,141.74582,-156.19121,42.86053,LYI
12515117515000,3.329941,7.30689527101488,2.4343409760581,-5.89889638029048,-0.08979719,-0.02443461,0.023823744,141.74933,-156.17819,42.844437,LYI
12515123083000,3.335509,7.28313896713891,2.42483841481779,-5.85138357408893,-0.10629055,-0.027794369,0.021380283,141.75217,-156.15887,42.829037,LYI
12515127530000,3.339956,7.24596723444772,2.41969153389899,-5.86129566731023,-0.109650314,-0.040317107,0.0143553335,141.76414,-156.13547,42.82189,LYI
12515132512000,3.344938,7.19748479589473,2.41484333560614,-5.89038526206686,-0.118507855,-0.05222898,0.010079277,141.77681,-156.10858,42.81453,LYI
12515137645000,3.350071,7.19337546451009,2.40617529032661,-5.94957369273975,-0.11484267,-0.058948494,0.010995574,141.78961,-156.08199,42.80889,LYI
12515142557000,3.354983,7.20805444566258,2.39638930289162,-6.01807550260038,-0.1142318,-0.070554934,0.018020526,141.80661,-156.05429,42.800014,LYI
12515147531000,3.359957,7.22921432406319,2.39777753228013,-6.07987274366631,-0.1133155,-0.09560041,0.015577064,141.8272,-156.02628,42.77456,LYI
12515152609000,3.365035,7.25263735115114,2.40246214748097,-6.14077303477507,-0.09865474,-0.11148291,0.012217305,141.85,-156.00304,42.75023,LYI
12515157564000,3.36999,7.29048458655151,2.41072632239358,-6.21346903306601,-0.087659165,-0.10873401,0.0076358155,141.87576,-155.98508,42.71881,LYI
12515162524000,3.37495,7.33443989644253,2.42049409537323,-6.29161157388443,-0.07360926,-0.10873401,-0.0015271631,141.90233,-155.96936,42.68268,LYI
12515167524000,3.37995,7.37612381477623,2.43316974649775,-6.35035992546057,-0.06994407,-0.10415252,-0.008246681,141.92548,-155.95988,42.64619,LYI
12515172631000,3.385057,7.41781715477149,2.44706758293156,-6.40363484822164,-0.050396383,-0.08155051,-0.01740966,141.94044,-155.95404,42.613113,LYI
12515177532000,3.389958,7.457828719157,2.46040482521904,-6.45476083147052,-0.034208454,-0.046731193,-0.02321288,141.95247,-155.95203,42.58028,LYI
12515182511000,3.394937,7.49847707236562,2.4739543313095,-6.50670049084537,-0.017104227,-0.026572637,-0.03176499,141.95851,-155.95163,42.548294,LYI
12515187612000,3.400038,7.5048532964134,2.46227741497876,-6.47185939052465,-0.014966198,-0.0076358155,-0.04184427,141.95555,-155.94925,42.523155,LYI
12515193219000,3.405645,7.4783257212726,2.42513880978164,-6.34983260027665,-0.0067195175,-0.0018325958,-0.034513887,141.9539,-155.95334,42.501617,LYI
12515197527000,3.409953,7.46397675228609,2.40149073938602,-6.27354417148106,-0.020158553,0.007941248,-0.031154128,141.94537,-155.95518,42.48045,LYI
12515202573000,3.414999,7.45214040512737,2.37781771548008,-6.19857938978609,-0.016187929,-0.00061086525,-0.027488936,141.94196,-155.96347,42.45788,LYI
12515207685000,3.420111,7.43866701244772,2.35547593686517,-6.12706268432583,-0.013439035,0.009773844,-0.01160644,141.94273,-155.97214,42.457893,LYI
12515212558000,3.424984,7.41078337841068,2.35082868070106,-6.10382640350528,-0.026267206,0.0143553335,-0.013744468,141.94186,-155.97545,42.45234,LYI
12515217678000,3.430104,7.38331917138281,2.34591897971169,-6.07967672717565,-0.035430185,0.009468411,-0.013133603,141.94804,-155.98357,42.46145,LYI
12515222572000,3.434998,7.37831438355579,2.3409142964015,-6.05965809845168,-0.05100725,0.013133603,-0.007941248,141.95222,-155.98837,42.473885,LYI
12515227527000,3.439953,7.37496065315315,2.34042935788288,-6.04993192342342,-0.06719518,0.0061086523,-0.007330383,141.9586,-155.99081,42.482273,LYI
12515232521000,3.444947,7.37964411750881,2.36150448290247,-6.08974063689777,-0.07452556,0.013133603,-0.013133603,141.9608,-155.99171,42.494553,LYI
12515237523000,3.449949,7.3843350844105,2.38261336863494,-6.12961312083823,-0.09040806,0.027488936,-0.0033597588,141.96828,-155.99109,42.5115,LYI
12515242574000,3.455,7.38907200440658,2.40392903873384,-6.16987619888367,-0.09773844,0.025045475,-0.007941248,141.97142,-155.98663,42.52283,LYI
12515247512000,3.459938,7.39451308479532,2.42455623567251,-6.20617704239766,-0.087964594,0.020158553,0.0012217305,141.98277,-155.98776,42.540356,LYI
12515252556000,3.464982,7.40863726803119,2.44338874218324,-6.21088526734893,-0.09132435,0.017715093,0.00030543262,141.98952,-155.98216,42.555454,LYI
12515257715000,3.470141,7.42238449414101,2.46159878663356,-6.21498850585899,-0.076052725,0.024129177,0.008857546,141.99802,-155.98305,42.562298,LYI
12515262472000,3.474898,7.42690860427011,2.46612280228401,-6.21046439572989,-0.06872234,0.008857546,0.007330383,142.00818,-155.9797,42.56175,LYI
12515267790000,3.480216,7.42981190024402,2.4704580800488,-6.20505496009761,-0.057726767,0.008857546,0.007941248,142.01369609471,-155.980295337824,42.5639859413513,LYI
12515272566000,3.484992,7.40748940302587,2.46599358060517,-6.19612596121035,-0.049480084,0.0015271631,0.008857546,142.01865,-155.98083,42.565994,LYI
12515277873000,3.490299,7.38294542772404,2.46143244407739,-6.18545852343493,-0.055588737,-0.0021380284,0.014966198,142.03242,-155.97925,42.568016,LYI
12515282542000,3.494968,7.36662352746852,2.46551294044534,-6.16097528957839,-0.046120327,-0.009773844,0.01038471,142.04501,-155.98152,42.566975,LYI
12515287506000,3.499932,7.34927036557766,2.46985125356817,-6.13494513903997,-0.050701816,-0.015271631,0.0067195175,142.05927,-155.98076,42.564762,LYI
12515292567000,3.504993,7.33386800231496,2.44773030551325,-6.14839443661285,-0.054367006,-0.008246681,0.008552114,142.07257,-155.98232,42.564083,LYI
12515297459000,3.509885,7.31959750833587,2.41918956590517,-6.17217872569804,-0.063224554,-0.0021380284,0.008857546,142.0854,-155.98106,42.561317,LYI
12515302556000,3.514982,7.31309915231837,2.40261165695509,-6.1842030205732,-0.0693332,0.00061086525,0.009162978,142.09593,-155.97704,42.56046,LYI
12515307465000,3.519891,7.30880812354874,2.38973857064622,-6.19278498849945,-0.070554934,0.007330383,0.0012217305,142.10168,-155.97086,42.560947,LYI
12515312561000,3.524987,7.29802507063078,2.37554647063078,-6.19014171028526,-0.073303826,0.002443461,0.004581489,142.11392,-155.97319,42.55941,LYI
12515317574000,3.53,7.28355886982724,2.36108026982724,-6.18049767711933,-0.070554934,-0.00030543262,0.00580322,142.12099,-155.97438,42.55854,LYI
12515322565000,3.534991,7.27232210223541,2.34984350223541,-6.19519389329377,-0.07880162,-0.0021380284,0.009162978,142.13239,-155.97707,42.556774,LYI
12515327565000,3.539991,7.26284950085064,2.34037090085064,-6.22361169744807,-0.08124508,-0.014660766,0.00030543262,142.14296,-155.97916,42.550236,LYI
12515332610000,3.545036,7.26371110245316,2.34123250245316,-6.24797589172621,-0.07422013,-0.0061086523,-0.0067195175,142.15746,-155.9816,42.547005,LYI
12515337673000,3.550099,7.27097875247564,2.34850015247564,-6.26977881649763,-0.07422013,-0.010079277,-0.010995574,142.17506,-155.98111,42.537186,LYI
12515342574000,3.555,7.2780138606645,2.3555352606645,-6.29088411657757,-0.07544186,-0.0290161,-0.014966198,142.19498,-155.98291,42.52013,LYI
12515347566000,3.559992,7.28517959420435,2.36270099420435,-6.31238129225581,-0.077579886,-0.060170226,-0.008552114,142.22008,-155.98598,42.500607,LYI
12515352606000,3.565032,7.32017415166716,2.38304814604111,-6.37049333652995,-0.08032878,-0.074830994,-0.018020526,142.23894,-155.98468,42.47791,LYI
12515357572000,3.569998,7.37162917969903,2.4111144228386,-6.4500145436707,-0.08368854,-0.055283304,-0.02076942,142.26083,-155.9858,42.458706,LYI
12515362560000,3.574986,7.43199719958151,2.44228322865684,-6.47796913496413,-0.07391469,-0.025045475,-0.02107485,142.28041,-155.98792,42.433834,LYI
12515367551000,3.579977,7.49867399561578,2.47562167640494,-6.46844391390992,-0.06811147,0.002443461,-0.015882496,142.29684,-155.98947,42.414185,LYI
12515372552000,3.584978,7.55412550775558,2.51940069148061,-6.43223805273208,-0.06627888,0.023518313,-0.009162978,142.3084,-155.9899,42.393574,LYI
12515377553000,3.589979,7.60102501504113,2.5709900319624,-6.37595892802585,-0.06505715,0.03634648,0.002443461,142.3188,-155.9935,42.37962,LYI
12515382511000,3.594937,7.6132022707103,2.60773473192338,-6.32209887789306,-0.05955936,0.0571159,0.01863139,142.32544,-155.99721,42.383724,LYI
12515387579000,3.600005,7.59383446177175,2.63194424030327,-6.26883785833998,-0.057421334,0.0852157,0.022602014,142.32742,-156.00032,42.39256,LYI
12515392611000,3.605037,7.55390453925986,2.63804433218021,-6.22088339863234,-0.05497787,0.0870483,0.032070424,142.33102,-155.99548,42.41208,LYI
12515397523000,3.609949,7.4971370531778,2.62858310096541,-6.17830795695897,-0.048563786,0.11026118,0.03726278,142.32422,-155.99188,42.442905,LYI
12515402531000,3.614957,7.43029436372144,2.61705427324525,-6.14623550041288,-0.042760566,0.12522738,0.043066,142.31746,-155.98296,42.475468,LYI
12515407536000,3.619962,7.35553144721534,2.60386080118359,-6.1242461507019,-0.045814894,0.13713925,0.050396383,142.30899,-155.97522,42.513245,LYI
12515412571000,3.624997,7.27492878083826,2.59362130521696,-6.11508282580868,-0.024740042,0.13897185,0.046731193,142.29588,-155.96915,42.54818,LYI
12515417517000,3.629943,7.18617437170611,2.5889500667357,-6.12909693146943,-0.025961773,0.13927728,0.038789943,142.28204,-155.95908,42.585335,LYI
12515422461000,3.634887,7.10573243424616,2.57827180407235,-6.13574686237874,-0.007941248,0.12950343,0.03604105,142.2618,-155.95328,42.611534,LYI
12515427532000,3.639958,7.04193555450687,2.55373448744947,-6.12593174100647,-0.014049901,0.10293079,0.024740042,142.24059,-155.93951,42.630714,LYI
12515432521000,3.644947,7.01465785902857,2.52539838754286,-6.13670543591429,-0.025350908,0.06291912,0.01985312,142.2172,-155.92459,42.62852,LYI
12515437569000,3.649995,7.05609540066667,2.48856510266667,-6.187351443,-0.038179077,0.038789943,0.009773844,142.19151,-155.90517,42.621193,LYI
12515442582000,3.655008,7.1041665705832,2.46586050917134,-6.22607990229284,-0.048563786,0.026572637,0.0027488936,142.16782,-155.88681,42.602417,LYI
12515448070000,3.660496,7.17917026408525,2.48586145233565,-6.23108013808391,-0.06261369,0.027488936,-0.004276057,142.14378,-155.86375,42.57991,LYI
12515452527000,3.664953,7.23693279389213,2.49778918181581,-6.22747209668032,-0.06627888,0.042760566,-0.0070249503,142.1276,-155.84904,42.55804,LYI
12515457533000,3.669959,7.28288169763004,2.48525765071883,-6.17734575420406,-0.071776666,0.053450707,-0.0027488936,142.11258,-155.83186,42.53591,LYI
12515462520000,3.674946,7.32865620480962,2.47277368236473,-6.12740966352705,-0.07452556,0.060170226,-0.0036651916,142.0943,-155.81363,42.524574,LYI
12515467511000,3.679937,7.34763283438384,2.45115137602693,-6.0920486864377,-0.06291912,0.06352998,-0.0067195175,142.07571,-155.79823,42.515686,LYI
12515472465000,3.684891,7.3615200820763,2.42800596320617,-6.05964510848863,-0.064751714,0.06780604,-0.0009162979,142.05869,-155.78207,42.5102,LYI
12515477526000,3.689952,7.40151019455483,2.42682113100577,-6.07004244104817,-0.0720821,0.051618114,-0.0027488936,142.04605,-155.76761,42.51553,LYI
12515482586000,3.695012,7.44854056447873,2.43177169626092,-6.09232011392961,-0.07422013,0.03756821,-0.003970624,142.03468,-155.75562,42.523327,LYI
12515487538000,3.699964,7.49456712413546,2.43661659727742,-6.1141222949788,-0.06658431,0.027794369,-0.008246681,142.02795,-155.7468,42.53565,LYI
12515492463000,3.704889,7.54034273122542,2.44143508223425,-6.13580560306993,-0.08674286,0.025350908,-0.007941248,142.02412,-155.73329,42.54682,LYI
12515497524000,3.70995,7.58955048640714,2.44599721284958,-6.17784852849577,-0.08399397,0.026267206,-0.0033597588,142.02199,-155.72604,42.55646,LYI
12515502604000,3.71503,7.63927218407507,2.45051734143826,-6.22304981438261,-0.07513642,0.032070424,-0.0030543262,142.0184,-155.71576,42.566093,LYI
12515507541000,3.719967,7.65304130405473,2.46104114054063,-6.21691642297347,-0.07941248,0.039095376,0.003970624,142.02348,-155.71303,42.586815,LYI
12515512524000,3.72495,7.65464173997384,2.47384491199651,-6.19290931598082,-0.06811147,0.04520403,0.008552114,142.0269,-155.7146,42.608036,LYI
12515518127000,3.730553,7.65644130699265,2.48824176759902,-6.16591517179461,-0.058337633,0.058948494,0.012217305,142.0319,-155.72026,42.63464,LYI
12515522500000,3.734926,7.65784582360399,2.49947814981386,-6.14484692397625,-0.04337143,0.061391957,0.026572637,142.04288,-155.73213,42.661953,LYI
12515527484000,3.73991,7.65944658070228,2.5122844907603,-6.12083499918167,-0.02321288,0.06078109,0.01985312,142.04149,-155.73972,42.686592,LYI
12515532520000,3.744946,7.66106403911862,2.52522444521582,-6.09657254868699,-0.002443461,0.064446285,0.022602014,142.0463,-155.75502,42.71601,LYI
12515537499000,3.749925,7.63716306053889,2.53868370430919,-6.05962874218422,-0.002443461,0.04520403,0.028099801,142.05002,-155.7684,42.738693,LYI
12515542493000,3.754919,7.60517493021212,2.55239277350468,-6.01850134373209,-0.004276057,0.04550946,0.029932396,142.04846,-155.78479,42.766064,LYI
12515547487000,3.759913,7.5792673354457,2.55549327354457,-5.98194735059649,-0.018020526,0.044593163,0.027488936,142.0458,-155.78862,42.79546,LYI
12515552527000,3.764953,7.5562347567093,2.55319001567093,-5.94739855464306,-0.025045475,0.034513887,0.017104227,142.04326,-155.79189,42.821117,LYI
12515557577000,3.770003,7.53315647841191,2.55088218784119,-5.91278120949132,-0.035430185,0.035430185,0.02565634,142.03975,-155.78906,42.850735,LYI
12515562577000,3.775003,7.51030669791945,2.54859720979195,-5.87850661033117,-0.03970624,0.035124753,0.020463986,142.03125,-155.7811,42.873386,LYI
12515567576000,3.780002,7.48409484308162,2.53512341776281,-5.86548127926637,-0.04795292,0.022296581,0.01863139,142.03163,-155.77466,42.89563,LYI
12515572550000,3.784976,7.45451772905383,2.51009666917419,-5.87458186760281,-0.047647487,0.013133603,0.015882496,142.02957,-155.76793,42.917274,LYI
12515587964000,3.80039,7.3704909734291,2.4429982114069,-5.90935061594756,-0.023823744,-0.03481932,-0.015577064,142.02515,-155.73546,42.95884,LYI
12515592507000,3.804933,7.36174976588478,2.4451835247024,-5.93338903937918,-0.009773844,-0.032375857,-0.009468411,142.02881,-155.7315,42.968506,LYI
12515597460000,3.809886,7.35221967542318,2.44756605975689,-5.95959690010046,-0.01863139,-0.040011674,-0.010995574,142.03275,-155.72394,42.96321,LYI
12515602577000,3.815003,7.34237403179467,2.45002748351499,-5.98667253573761,-0.014660766,-0.056505036,-0.009773844,142.04094,-155.72345,42.95792,LYI
12515607559000,3.819985,7.33881944198503,2.44569163161678,-6.01212130496258,0.0021380284,-0.05009095,-0.00061086525,142.04779,-155.72523,42.95744,LYI
12515612540000,3.824966,7.34821330586845,2.42690395289484,-6.03560596467113,-0.023823744,-0.050701816,0.009162978,142.06027,-155.72017,42.95193,LYI
12515617481000,3.829907,7.35755572807872,2.41849169638207,-6.05125763596064,-0.034208454,-0.053450707,0.006414085,142.06856,-155.72552,42.9402,LYI
12515622536000,3.834962,7.36717906939668,2.43773852974853,-6.04644596530166,-0.03481932,-0.036957346,0.009162978,142.07742,-155.73106,42.935593,LYI
12515627464000,3.83989,7.38146112939761,2.45776258659918,-6.05028509117971,-0.05681047,-0.022907447,0.014049901,142.09041,-155.73544,42.929585,LYI
12515632546000,3.844972,7.41073012829508,2.48215333411847,-6.07955393726571,-0.06047566,-0.011911872,0.007941248,142.09755,-155.7414,42.925636,LYI
12515637574000,3.85,7.43527605789234,2.50444524385645,-6.09920102682394,-0.06261369,-0.013133603,0.0076358155,142.10556,-155.74265,42.92471,LYI
12515642623000,3.855049,7.44848853531287,2.52206188041716,-6.09479691367156,-0.07086037,-0.004276057,0.014966198,142.10951,-155.74255,42.92915,LYI
12515647533000,3.859959,7.46087676030986,2.53767224972122,-6.09357079018108,-0.0711658,0.0033597588,0.013133603,142.10985,-155.74026,42.930496,LYI
12515652617000,3.865043,7.46808386399566,2.53526992363448,-6.12960615809937,-0.06566802,0.012217305,0.012217305,142.11072,-155.7395,42.935642,LYI
12515657924000,3.87035,7.47560709359057,2.53276222407855,-6.16722214896137,-0.06352998,0.016187929,0.005192355,142.11093,-155.73592,42.942795,LYI
12515662563000,3.874989,7.48218336306311,2.53057017240341,-6.20010335898752,-0.04734206,0.029932396,0.0143553335,142.11215,-155.73947,42.956738,LYI
12515667891000,3.880317,7.48541797445913,2.52599886498397,-6.23677953025841,-0.054367006,0.011301007,0.008246681,142.11102,-155.73236,42.95898,LYI
12515672572000,3.884998,7.44949720697115,2.50354844391026,-6.25922990444712,-0.03940081,0.0018325958,0.0030543262,142.10837,-155.73482,42.96813,LYI
12515677781000,3.890207,7.41147522411095,2.47909542876067,-6.28206091142425,-0.01863139,-0.00030543262,-0.011301007,142.10611,-155.73907,42.965343,LYI
12515682559000,3.894985,7.39927093435277,2.46282299993777,-6.27799285731686,-0.0076358155,-0.0125227375,-0.01985312,142.10825,-155.74438,42.958088,LYI
12515687520000,3.899946,7.38659921365576,2.44592732823613,-6.27376899452347,-0.0061086523,-0.030543262,-0.028710667,142.1067,-155.7525,42.940067,LYI
12515692561000,3.904987,7.379805,2.43817282257492,-6.24933117201629,-0.0015271631,-0.041233405,-0.025961773,142.10715,-155.76381,42.921658,LYI
12515697455000,3.909881,7.374911,2.43327897587971,-6.21996788743866,0.0009162979,-0.04520403,-0.03268129,142.10399,-155.771,42.898018,LYI
12515702543000,3.914969,7.39840430901623,2.43857478502836,-6.18704073577156,-0.0009162979,-0.0720821,-0.03573562,142.11598,-155.78645,42.87042,LYI
12515707467000,3.919893,7.42607279757481,2.44549185901623,-6.15476075220027,0.0018325958,-0.08368854,-0.025350908,142.12737,-155.80447,42.846992,LYI
12515712561000,3.924987,7.45469653451985,2.45264774343829,-6.12136630940739,-0.005497787,-0.084910266,-0.02565634,142.1374,-155.81636,42.821346,LYI
12515717490000,3.929916,7.48239311861921,2.45957184126247,-6.0890535476237,-0.008246681,-0.0729984,-0.014049901,142.15385,-155.83424,42.800213,LYI
12515722545000,3.934971,7.47662043838772,2.45590682397313,-6.09015949097889,-0.026572637,-0.056199603,-0.007330383,142.16792,-155.84723,42.780155,LYI
12515727462000,3.939888,7.46080345921305,2.44912818265355,-6.10145726583493,-0.057421334,-0.038789943,-0.0012217305,142.18236,-155.85945,42.765278,LYI
12515732566000,3.944992,7.44438493944338,2.44209174065739,-6.11318470998081,-0.061086524,-0.023823744,0.00061086525,142.19211,-155.86852,42.769497,LYI
12515737713000,3.950139,7.4278280975048,2.43499601829175,-6.12501095508637,-0.07819075,-0.01282817,0.0021380284,142.2007,-155.87039,42.77786,LYI
12515742616000,3.955042,7.40977893098824,2.43557050126883,-6.15058686053229,-0.073303826,-0.01282817,0.0021380284,142.203893486668,-155.874326970283,42.7845139288622,LYI
12515747539000,3.959965,7.39032510790179,2.44043393164844,-6.18463143181349,-0.070554934,-0.00061086525,0.0009162979,142.2071,-155.87828,42.791195,LYI
12515752560000,3.964986,7.38209608480405,2.45181698794943,-6.20105967784577,-0.05131268,-0.004581489,0.0061086523,142.21721,-155.88687,42.804405,LYI
12515757565000,3.969991,7.37967217152971,2.46636016387863,-6.20833131642984,-0.04550946,-0.0067195175,0.006414085,142.22296,-155.89526,42.81273,LYI
12515762562000,3.974988,7.37725213264222,2.48088009397219,-6.21559133201517,-0.03176499,-0.014660766,0.009162978,142.23357,-155.9075,42.810215,LYI
12515767566000,3.979992,7.37482870366624,2.49542036417193,-6.2228615177244,-0.024129177,-0.01282817,0.0067195175,142.24078,-155.91855,42.80884,LYI
12515773141000,3.985567,7.34705744586514,2.50341558493364,-6.21138280273227,-0.011911872,-0.024740042,0.0033597588,142.2544,-155.93152,42.80125,LYI
12515777569000,3.989995,7.31819439467159,2.50753888411201,-6.19695125560795,0.00061086525,-0.029321533,0.0070249503,142.26729,-155.94685,42.7967,LYI
12515782544000,3.99497,7.28576583105644,2.51217154296757,-6.1807369496135,0.002443461,-0.032070424,0.0106901415,142.27733,-155.95703,42.78492,LYI
12515787647000,4.000073,7.25250292449803,2.51692339384997,-6.16410547152511,0.005497787,-0.0290161,0.0067195175,142.28555,-155.96889,42.773113,LYI
12515792670000,4.005096,7.24303085340886,2.52462968298549,-6.14602767923872,0.0070249503,-0.036957346,0.005192355,142.29845,-155.98198,42.7593,LYI
12515797525000,4.009951,7.24765183681177,2.53387145678791,-6.12754389037965,0.0076358155,-0.039095376,0.0030543262,142.3077,-155.99438,42.747154,LYI
12515802584000,4.01501,7.25506478452512,2.53514279358393,-6.12229027718361,-0.018325957,-0.030848695,0.003970624,142.3026,-155.99557,42.73084,LYI
12515807660000,4.020086,7.26434047655393,2.53050492335544,-6.12692826848256,-0.025961773,-0.013133603,0.007330383,142.29608,-156.00052,42.716724,LYI
12515812524000,4.02495,7.27322876773363,2.5260607545628,-6.13137255328913,-0.030848695,0.013133603,0.010079277,142.28485,-155.99876,42.709553,LYI
12515817553000,4.029979,7.28241857372514,2.52146582757716,-6.1359676002242,-0.06352998,0.03023783,0.013133603,142.27322,-155.99118,42.70522,LYI
12515822571000,4.034997,7.29183573654983,2.51578578237212,-6.15136210972081,-0.08582657,0.035124753,0.016187929,142.25987,-155.98543,42.704742,LYI
12515827566000,4.039992,7.3015842318117,2.50847437275321,-6.18304488473609,-0.08399397,0.03268129,0.009773844,142.24289,-155.97705,42.70563,LYI
12515832555000,4.044981,7.31132101716935,2.50117174560831,-6.21468960236397,-0.082161374,0.032986723,0.0106901415,142.24063,-155.9761,42.715336,LYI
12515837676000,4.050102,7.32131542041981,2.49367590403505,-6.24717158251477,-0.08246681,0.027794369,0.01160644,142.23831,-155.97397,42.72209,LYI
12515842528000,4.054954,7.33507203352509,2.48115471249752,-6.26543554687562,-0.071776666,0.015882496,0.017104227,142.23596,-155.97589,42.728737,LYI
12515847570000,4.059996,7.35422953310851,2.46199731293394,-6.27022489676652,-0.06963864,0.022602014,0.02565634,142.23232,-155.97717,42.739178,LYI
12515852535000,4.064961,7.36140620835333,2.45271523054889,-6.29281046943642,-0.06688975,-0.008246681,0.01863139,142.24356,-155.98376,42.730618,LYI
12515857568000,4.069994,7.35432595064388,2.45507531645204,-6.33765207695246,-0.048258353,-0.022907447,0.020158553,142.2553,-155.99738,42.730247,LYI
12515862503000,4.074929,7.34738355608872,2.45738944797043,-6.38162055163786,-0.040011674,-0.018325957,0.0106901415,142.26683,-156.01,42.727867,LYI
12515867560000,4.079986,7.34026953597415,2.45976078800862,-6.42667598760221,-0.03359759,-0.0033597588,0.014966198,142.28377,-156.02873,42.727005,LYI
12515872478000,4.084904,7.32239822795469,2.45955982739828,-6.44972929096329,-0.027183503,0.009162978,-0.00030543262,142.29044,-156.04262,42.7222,LYI
12515877563000,4.089989,7.28368950226042,2.45472123352874,-6.43521353461672,-0.014660766,0.019547688,-0.005192355,142.29884,-156.06175,42.722813,LYI
12515882489000,4.094915,7.24619113790054,2.45003393492474,-6.42115166327686,-0.00030543262,0.017715093,-0.009162978,142.30244,-156.0822,42.707138,LYI
12515887658000,4.100084,7.20684297602961,2.44511541148095,-6.40639611862487,-0.0018325958,0.017715093,-0.014660766,142.304704622125,-156.093327529623,42.6950299919347,LYI
12515892532000,4.104958,7.17510609140024,2.44658522515986,-6.38230858280048,0.02443461,-0.019242255,-0.021380283,142.30684,-156.10382,42.683613,LYI
12515897544000,4.10997,7.15286583489019,2.45992937906589,-6.33782806978037,0.026267206,-0.040927973,-0.03726278,142.30566,-156.12172,42.662228,LYI
12515902551000,4.114977,7.1339183497397,2.47402790104119,-6.29672128166956,0.034513887,-0.05589417,-0.04550946,142.30121,-156.13704,42.62401,LYI
12515907572000,4.119998,7.12952661416568,2.49159484333729,-6.27037077650927,0.03634648,-0.070249505,-0.05955936,142.29411,-156.14691,42.578156,LYI
