timestamp,rel_time,acc_x,acc_y,acc_z,gyro_x,gyro_y,gyro_z,azimuth,pitch,roll,label
2331772689000,0,0.125311709885355,9.81283202094501,-1.03389250322231,-0.014660766,-0.113926366,0.026572637,290.19275,-53.645676,-23.150627,STD
2331777665000,0.004976,0.13232814382141,9.81295094594925,-1.04162247290338,-0.021685716,-0.13103059,0.02107485,290.09186,-54.13439,-22.911695,STD
2331782670000,0.009981,0.139385469353956,9.81307056404536,-1.04939749264891,-0.022907447,-0.121256754,0.02107485,289.98767,-54.617252,-22.678108,STD
2331787663000,0.014974,0.146425874225886,9.81318989534483,-1.05715387098846,-0.022602014,-0.10842858,0.015577064,289.8939,-55.090096,-22.44732,STD
2331792651000,0.019962,0.153459228822558,9.81330910714571,-1.06490248207551,-0.022907447,-0.10567969,0.0076358155,289.80542,-55.55538,-22.219137,STD
2331797673000,0.024984,0.160540525290979,9.81342913153705,-1.07270391047952,-0.020158553,-0.0852157,0.002443461,289.71368,-56.01417,-21.997625,STD
2331802658000,0.029969,0.167569649722497,9.81354827163877,-1.08044786121508,-0.018325957,-0.084910266,-0.0036651916,289.63257,-56.46435,-21.778162,STD
2331807677000,0.034988,0.174646716025764,9.81366822433095,-1.08824462926759,-0.01985312,-0.07666359,-0.0106901415,289.54895,-56.906624,-21.565876,STD
2331812734000,0.040045,0.181777364420986,9.81378908521247,-1.09610042843904,-0.017104227,-0.06627888,-0.010079277,289.46887,-57.3439,-21.355494,STD
2331817736000,0.045047,0.188830459788379,9.81390863160942,-1.10387078783308,-0.018936822,-0.061391957,-0.014966198,289.39395,-57.770954,-21.150703,STD
2331822658000,0.049969,0.195770750751655,9.81402626602881,-1.11151687118723,-0.011911872,-0.054367006,-0.014660766,289.319,-58.195076,-20.947947,STD
2331827657000,0.054968,0.202819615953893,9.8141457407266,-1.11928257022976,-0.008246681,-0.050701816,-0.016798794,289.24866,-58.610237,-20.749323,STD
2331832674000,0.059985,0.209893862147057,9.81426564561934,-1.12707623138128,-0.0021380284,-0.047036625,-0.005192355,289.17865,-59.02371,-20.549887,STD
2331837658000,0.064969,0.216921576523523,9.81438476182134,-1.13481862866634,-0.009162978,-0.04550946,-0.0067195175,289.11407,-59.42583,-20.356699,STD
2331842634000,0.069945,0.223938010459577,9.81450368682558,-1.14254859834741,-0.007941248,-0.05131268,-0.007330383,289.05292,-59.827026,-20.161955,STD
2331847672000,0.074983,0.231041867808822,9.81462409361243,-1.15037488195939,-0.007330383,-0.03756821,-0.0018325958,288.9891,-60.22121,-19.97051,STD
2331852663000,0.079974,0.238079452570649,9.81474337711247,-1.15812815339794,-0.015271631,-0.04062254,0.00030543262,288.93588,-60.60686,-19.779818,STD
2331857705000,0.085016,0.245188950140099,9.8148638794982,-1.16596065081192,-0.01282817,-0.044898596,0.005497787,288.88184,-60.99026,-19.590454,STD
2331862735000,0.090046,0.252281527048932,9.81498409508729,-1.17377450681992,-0.009162978,-0.048563786,0.0067195175,288.83234,-61.365776,-19.40359,STD
2331867791000,0.095102,0.259410765389103,9.8151049320691,-1.18162875254088,-0.012217305,-0.057421334,0.00580322,288.78867,-61.734932,-19.217253,STD
2331872705000,0.100016,0.266339775911968,9.81522237529073,-1.18926240829103,-0.01160644,-0.0571159,0.017715093,288.74536,-62.102367,-19.030083,STD
2331877741000,0.105052,0.273440813151109,9.81534273427814,-1.19708558500202,-0.0061086523,-0.06078109,0.025350908,288.70966,-62.463192,-18.84538,STD
2331882704000,0.110015,0.280438916371495,9.81546134858603,-1.20479535982661,-0.0036651916,-0.07513642,0.024129177,288.67993,-62.818203,-18.661306,STD
2331887696000,0.115007,0.287477911188373,9.81558065598579,-1.21255018471566,-0.0036651916,-0.076052725,0.023518313,288.664126582874,-62.9941803740611,-18.569107234652,STD
2331892689000,0.12,0.294518316060302,9.81569998728526,-1.22030656305521,-0.0076358155,-0.073303826,0.030543262,288.64832,-63.170193,-18.47689,STD
2331897702000,0.125013,0.30158692203326,9.81581979657912,-1.22809401040473,-0.0036651916,-0.08552113,0.03634648,288.62817,-63.5181,-18.292753,STD
2331902691000,0.130002,0.308621686684984,9.81593903227972,-1.23584417494228,-0.0027488936,-0.08246681,0.049785517,288.6049,-63.86164,-18.10906,STD
2331907704000,0.135015,0.315690292657942,9.81605884157358,-1.2436316222918,-0.0076358155,-0.094989546,0.04734206,288.59357,-64.19705,-17.928116,STD
2331912767000,0.140078,0.322829401383474,9.81617984585342,-1.25149674216625,0.0030543262,-0.083383106,0.056199603,288.57516,-64.53512,-17.745682,STD
2331917806000,0.145117,0.320325266641842,9.81652068221439,-1.24707295379341,0.0015271631,-0.087964594,0.05375614,288.56918,-64.861336,-17.567038,STD
2331923478000,0.150789,0.31054601834195,9.81706398473233,-1.23321901756257,0.0027488936,-0.08155051,0.0580322,288.55823,-65.187836,-17.388906,STD
2331927654000,0.154965,0.303346064022424,9.81746399025329,-1.22301908143775,0.0027488936,-0.06841691,0.057726767,288.541794774951,-65.3716762504892,-17.2842653737769,STD
2331932676000,0.159987,0.294687498267477,9.81794503137549,-1.21075277894282,-0.015271631,-0.07360926,0.051618114,288.52203,-65.59276,-17.158426,STD
2331937664000,0.164975,0.286087552830265,9.81842281574776,-1.19856952190483,-0.0076358155,-0.06505715,0.059253927,288.48578,-65.99988,-16.927094,STD
2331942644000,0.169955,0.277501400408992,9.81889983382592,-1.18640580497437,-0.014966198,-0.05100725,0.05009095,288.45117,-66.38886,-16.706726,STD
2331947638000,0.174949,0.268891110209827,9.81937819291876,-1.17420789285575,-0.015882496,-0.040011674,0.055588737,288.41638,-66.778465,-16.484179,STD
2331952696000,0.180007,0.26017047588316,9.81986268236441,-1.16185365987698,-0.018020526,-0.028710667,0.043982297,288.383,-67.154335,-16.273378,STD
2331957640000,0.184951,0.251646392033606,9.82033625211912,-1.14977787343035,-0.016798794,-0.018020526,0.042760566,288.34854,-67.52744,-16.062317,STD
2331962713000,0.190024,0.242899895802055,9.82082217836621,-1.13738700274998,-0.010995574,0.0033597588,0.03940081,288.31198,-67.89178,-15.859929,STD
2331967683000,0.194994,0.234330984650704,9.82129823857675,-1.12524771095392,-0.008552114,0.023518313,0.03359759,288.27606,-68.24857,-15.662376,STD
2331972658000,0.199969,0.225753452864391,9.8217747777211,-1.11309620659065,0.0009162979,0.03970624,0.02107485,288.23883,-68.59949,-15.47193,STD
2331977734000,0.205045,0.217001784251864,9.82226099132848,-1.10069800836996,-0.00580322,0.05222898,0.011911872,288.19995,-68.94098,-15.286287,STD
2331982670000,0.209981,0.208491493418248,9.82273379478909,-1.08864176203086,-0.00580322,0.060170226,0.005497787,288.1613,-69.27741,-15.106988,STD
2331987659000,0.21497,0.199889823854044,9.82321167494812,-1.07645606247943,-0.011301007,0.06536258,0.0009162979,288.12308,-69.603905,-14.9331045,STD
2331993447000,0.220758,0.189910576823054,9.82376608873053,-1.06231879468957,-0.013439035,0.08002335,-0.0106901415,288.08344,-69.92225,-14.766787,STD
2331997642000,0.224953,0.182677864090676,9.82416791419999,-1.05207245080939,-0.011301007,0.07941248,-0.0106901415,288.04874,-70.23601,-14.600388,STD
2332002662000,0.229973,0.174022746589713,9.82464876374866,-1.03981103334133,-0.011911872,0.071776666,-0.01740966,288.01556,-70.53922,-14.442083,STD
2332007639000,0.23495,0.165441766549416,9.82512549446653,-1.02765464395119,-0.0070249503,0.06536258,-0.023823744,287.98462,-70.838264,-14.286214,STD
2332012682000,0.239993,0.156746994127632,9.82560854711074,-1.01533704867402,-0.004581489,0.065973446,-0.025045475,287.95624,-71.13086,-14.133141,STD
2332017667000,0.244978,0.148152221071397,9.82608604412272,-1.00316111917636,0.0076358155,0.062002823,-0.02565634,287.93362,-71.41944,-13.983393,STD
2332022660000,0.249971,0.139543654999225,9.8265643074288,-0.990965649571175,-0.01038471,0.06383542,-0.03573562,287.912,-71.69511,-13.839389,STD
2332027664000,0.254975,0.130916123530138,9.82704362438927,-0.978743312318156,-0.010995574,0.058948494,-0.029932396,287.89462,-71.97422,-13.692813,STD
2332032667000,0.259978,0.122290316188043,9.82752284556297,-0.966523417578576,-0.014966198,0.058337633,-0.032986723,287.87866,-72.24003,-13.554182,STD
2332037657000,0.264968,0.113686922496847,9.82800082150876,-0.954335275513715,-0.02565634,0.057726767,-0.029321533,287.86536,-72.50211,-13.414052,STD
2332042650000,0.269961,0.105078356424674,9.82847908481484,-0.942139805908534,-0.03756821,0.053450707,-0.03573562,287.85593,-72.75533,-13.279627,STD
2332047677000,0.274988,0.0964111700347661,9.82896060487085,-0.929861290846398,-0.04428773,0.04886922,-0.03970624,287.84827,-73.00399,-13.145706,STD
2332052664000,0.279975,0.0878129487245468,9.82943829345635,-0.917680476321856,-0.0580322,0.045814894,-0.04337143,287.8435,-73.243126,-13.015574,STD
2332057644000,0.284955,0.0792267963032731,9.82991531153452,-0.905516759391394,-0.062308256,0.034208454,-0.04428773,287.8443,-73.47785,-12.88728,STD
2332063507000,0.290818,0.0691182397478659,9.83047690932413,-0.891196303093541,-0.06169739,0.03023783,-0.043066,287.84546,-73.706154,-12.76181,STD
2332067666000,0.294977,0.0619475955872078,9.83087528647013,-0.881037889697197,-0.07360926,0.031154128,-0.043066,287.85022,-73.92663,-12.638733,STD
2332072656000,0.299967,0.0533442018960118,9.83135326241592,-0.868849747632336,-0.06719518,0.01740966,-0.03604105,287.86145,-74.14798,-12.514533,STD
2332077649000,0.30496,0.0447356358238392,9.831831525722,-0.856654278027155,-0.06383542,0.011301007,-0.03145956,287.87183,-74.361946,-12.393567,STD
2332082667000,0.309978,0.036083966576861,9.83231218369715,-0.844397745585978,-0.061086524,0.009773844,-0.03359759,287.88623,-74.57282,-12.274194,STD
2332087670000,0.314981,0.0274581592347661,9.83279140487085,-0.832177850846398,-0.06169739,0.01740966,-0.027488936,287.90057,-74.78247,-12.153475,STD
2332092647000,0.319958,0.018877179194469,9.83326813558873,-0.820021461456255,-0.054061573,0.003970624,-0.018020526,287.92273,-74.99021,-12.033476,STD
2332097672000,0.324983,0.0102134410585452,9.83374946407121,-0.807747831420999,-0.04917465,0.0009162979,-0.01160644,287.9409,-75.19405,-11.915525,STD
2332102666000,0.329977,0.00160315085938038,9.83422782316405,-0.795549919302378,-0.04550946,0.005497787,-0.011301007,287.9619,-75.39573,-11.798478,STD
2332107644000,0.334955,-0.0069795533079089,9.83470464966869,-0.783391087398795,-0.040927973,-0.0009162979,-0.003970624,287.9877,-75.59749,-11.679149,STD
2332112726000,0.340037,-0.0157415666823894,9.83519143799665,-0.770978234097467,-0.029626964,0.00580322,0.012217305,288.00928,-75.79916,-11.560074,STD
2332117671000,0.344982,-0.012342521903346,9.83679997655087,-0.777496319815364,-0.017715093,0.002443461,0.019547688,288.037,-75.99737,-11.44284,STD
2332122658000,0.349969,-0.000890426055060994,9.83918582822288,-0.796583145647873,-0.014966198,0.0015271631,0.016187929,288.06314,-76.19322,-11.32659,STD
2332127662000,0.354973,0.0106007084195366,9.84157981293649,-0.815735035855589,-0.005497787,-0.0036651916,0.02321288,288.11218,-76.32999,-11.244429,STD
2332132699000,0.36001,0.0221676237569763,9.84398958531906,-0.835013227497527,-0.0030543262,0.006414085,0.0290161,288.15784,-76.462204,-11.165814,STD
2332137660000,0.364971,0.0335600134709009,9.84636299822158,-0.854000543109133,0.009162978,0.005192355,0.030848695,288.20868,-76.59541,-11.08741,STD
2332142648000,0.369959,0.045014405708969,9.8487493283078,-0.87309119625783,0.00580322,0.009773844,0.030848695,288.25528,-76.724686,-11.010173,STD
2332147670000,0.374981,0.0565468751996623,9.85115192447721,-0.89231197815694,0.0018325958,0.0106901415,0.026572637,288.30396,-76.85245,-10.935103,STD
2332152664000,0.379975,0.068015045776429,9.85354112504871,-0.911425595202769,0.0061086523,0.01038471,0.029626964,288.3521,-76.980034,-10.859645,STD
2332157659000,0.38497,0.0794855127429787,9.85593080403441,-0.930543039564787,-0.00030543262,0.004276057,0.018936822,288.403,-77.09839,-10.790641,STD
2332162729000,0.39004,0.0911282089432605,9.85835636408596,-0.94994753264095,-0.0027488936,-0.007941248,0.024129177,288.45572,-77.22,-10.71754,STD
2332167694000,0.395005,0.102529784216317,9.86073169064533,-0.96895015751731,0.0030543262,-0.021380283,0.014660766,288.51205,-77.33333,-10.652815,STD
2332172650000,0.399961,0.113910691981327,9.86310271147678,-0.987918336547972,0.0030543262,-0.024740042,0.013133603,288.5691,-77.44609,-10.585731,STD
2332177659000,0.40497,0.12541330840484,9.86549908826145,-1.00708936333663,0.006414085,-0.025350908,0.009162978,288.63013,-77.555016,-10.523046,STD
2332182666000,0.409977,0.136911332048787,9.86789450821769,-1.02625273549291,0.0070249503,-0.031154128,-0.009162978,288.69464,-77.65732,-10.465949,STD
2332187659000,0.41497,0.14837720623577,9.87028323037497,-1.04536252522255,-0.003970624,-0.035430185,-0.00061086525,288.75854,-77.76167,-10.403677,STD
2332192651000,0.419962,0.159840784032971,9.87267147411803,-1.064468487636,0.005192355,-0.038179077,-0.0015271631,288.82504,-77.8602,-10.350368,STD
2332197671000,0.424982,0.171368660744098,9.87507311345902,-1.08368161490274,0.009773844,-0.023823744,-0.008552114,288.88806,-77.95484,-10.297982,STD
2332202628000,0.429939,0.18275186489889,9.87744461270469,-1.10265362124959,0.013744468,-0.021991149,-0.0106901415,288.95575,-78.0496,-10.245177,STD
2332207667000,0.434978,0.194323373015896,9.87985534191569,-1.1219394675239,0.023823744,-0.008552114,-0.015271631,289.01657,-78.1415,-10.1969795,STD
2332212732000,0.440043,0.205954587267262,9.88227850989619,-1.14132482401912,0.027488936,-0.00061086525,-0.01160644,289.0786,-78.23249,-10.148009,STD
2332217754000,0.445065,0.217487056757955,9.8846811060656,-1.16054560591823,0.037873644,-0.00061086525,-0.014049901,289.109162095718,-78.2773768130982,-10.1254092410076,STD
2332222657000,0.449968,0.228746255864461,9.88702677094386,-1.1793109371909,0.037873644,0.0021380284,-0.014049901,289.139,-78.3212,-10.103345,STD
2332227656000,0.454967,0.240225908390143,9.88941836358641,-1.19844369081767,0.033292156,0.0030543262,-0.006414085,289.1976,-78.40965,-10.055954,STD
2332232673000,0.459984,0.251746895931921,9.89181856768476,-1.21764533613584,0.044898596,0.0012217305,-0.0018325958,289.25677,-78.49845,-10.011109,STD
2332237658000,0.464969,0.263194399000639,9.89420346252835,-1.23672450733597,0.042455133,0.007941248,0.004886922,289.31326,-78.585045,-9.964747,STD
2332242652000,0.469963,0.274662569577406,9.89659266309984,-1.2558381243818,0.04428773,0.016493361,0.009773844,289.37006,-78.67249,-9.9186,STD
2332247676000,0.474987,0.286199631847666,9.89899621609767,-1.27506656091329,0.03481932,0.011911872,0.0143553335,289.4289,-78.757645,-9.871468,STD
2332252669000,0.47998,0.297665506034649,9.90138493825495,-1.29417635064293,0.044898596,0.022907447,0.028099801,289.48077,-78.847244,-9.821999,STD
2332257665000,0.484976,0.309138269390982,9.90377509565487,-1.31329762232113,0.048258353,0.032986723,0.03268129,289.53467,-78.93152,-9.774712,STD
2332262727000,0.490038,0.320762594472999,9.90619682839273,-1.33267149686779,0.053145275,0.046731193,0.032986723,289.5844,-79.017746,-9.726166,STD
2332267749000,0.49506,0.332295063963692,9.90859942456214,-1.3518922787669,0.042760566,0.06811147,0.038179077,289.6292,-79.10278,-9.67644,STD
2332272632000,0.499943,0.343508335274536,9.91093552115617,-1.37058106371579,0.037873644,0.063224554,0.042760566,289.678,-79.18716,-9.627504,STD
2332277659000,0.50497,0.355052286714144,9.91334050939664,-1.38982098219585,0.029626964,0.0693332,0.049480084,289.71765,-79.26969,-9.57831,STD
2332282670000,0.509981,0.366559495917224,9.91573784300972,-1.40899966361688,0.011301007,0.04917465,0.040927973,289.767,-79.3457,-9.532444,STD
2332287659000,0.51497,0.378016184545075,9.91812465151016,-1.42809414408177,0.010079277,0.0580322,0.043066,289.8061,-79.425476,-9.483503,STD
2332292647000,0.519958,0.389470576783143,9.92051098159638,-1.44718479723047,-0.007941248,0.04917465,0.038789943,289.8568,-79.49531,-9.438923,STD
2332297689000,0.525,0.401048974069498,9.92292314605002,-1.46648212545335,-0.014966198,0.03848451,0.044593163,289.9055,-79.567894,-9.391996,STD
2332302665000,0.529976,0.412475809630169,9.9253037351657,-1.48552685080778,-0.008552114,0.025045475,0.043676864,289.95798,-79.63555,-9.34889,STD
2332307638000,0.534949,0.423895756021491,9.92768288903876,-1.50456009421365,-0.01863139,0.013439035,0.040927973,290.01312,-79.69986,-9.305417,STD
2332312747000,0.540058,0.435628011423313,9.93012710724455,-1.52411385262117,-0.012217305,0.008246681,0.05100725,290.07016,-79.76859,-9.259347,STD
2332318532000,0.545843,0.449460876566163,9.92677264207426,-1.53141372841485,0.002443461,0.00030543262,0.0580322,290.13153,-79.83422,-9.215537,STD
2332322658000,0.549969,0.459555698739906,9.92182420337828,-1.53042404067566,0.01740966,-0.004276057,0.053145275,290.19357,-79.89873,-9.173184,STD
2332327673000,0.554984,0.471825580756708,9.91580955964093,-1.52922111192819,0.03023783,-0.009162978,0.06291912,290.22552,-80.05795,-9.068592,STD
2332332669000,0.55998,0.484048976680125,9.90981770318793,-1.52802274063759,0.03970624,-0.007941248,0.065973446,290.25812,-80.21099,-8.969819,STD
2332337658000,0.564969,0.496255246148085,9.90383424205021,-1.52682604841004,0.04337143,-0.017715093,0.069027774,290.29596,-80.36284,-8.870424,STD
2332342653000,0.569964,0.508476195435009,9.89784358492797,-1.52562791698559,0.052839845,-0.010079277,0.067500606,290.3292,-80.51142,-8.774272,STD
2332347698000,0.575009,0.520819476546627,9.89179296126796,-1.52441779225359,0.0580322,-0.018325957,0.06719518,290.37048,-80.65657,-8.678821,STD
2332352665000,0.579976,0.532971920011722,9.88583588540686,-1.52322637708137,0.06383542,-0.016493361,0.07238753,290.40735,-80.79941,-8.5848465,STD
2332357641000,0.584952,0.545146383205262,9.87986801556896,-1.52203280311379,0.076358154,-0.015577064,0.063224554,290.44778,-80.935135,-8.497145,STD
2332362739000,0.59005,0.557619336051055,9.87375382737892,-1.52080996547579,0.08124508,-0.019547688,0.065973446,290.48947,-81.070854,-8.406728,STD
2332367754000,0.595065,0.569889218067856,9.86773918364157,-1.51960703672831,0.0693332,-0.032986723,0.064751714,290.5345,-81.198364,-8.322047,STD
2332372657000,0.599968,0.581885076797343,9.8618588649488,-1.51843097298976,0.08735373,-0.028405234,0.06719518,290.57593,-81.32653,-8.237817,STD
2332377659000,0.60497,0.594123152539724,9.85585981251127,-1.51723116250225,0.09437868,-0.031154128,0.0711658,290.62387,-81.448494,-8.155235,STD
2332382669000,0.60998,0.606380801374056,9.8498511654277,-1.51602943308554,0.09315695,-0.030848695,0.06566802,290.6702,-81.56522,-8.076758,STD
2332387968000,0.615279,0.619345528155119,9.84349591175587,-1.51475838235117,0.11301007,-0.026572637,0.063224554,290.71655,-81.68194,-7.998264,STD
2332392651000,0.619962,0.630803126855952,9.83787944582924,-1.51363508916585,0.113926366,-0.02107485,0.06688975,290.76288,-81.79308,-7.921489,STD
2332397670000,0.624981,0.643082795418729,9.83186000476887,-1.51243120095377,0.10995574,-0.017104227,0.057421334,290.80905,-81.896935,-7.851032,STD
2332402664000,0.629975,0.655301298069159,9.82587054697738,-1.51123330939548,0.11453723,-0.013133603,0.049480084,290.854,-81.99877,-7.780938,STD
2332407641000,0.634952,0.667478207899193,9.81990147780872,-1.51003949556174,0.10934488,-0.004581489,0.051618114,290.89685,-82.09588,-7.7124386,STD
2332412680000,0.639991,0.679806809191847,9.81385805013325,-1.50883081002665,0.10476339,0.004581489,0.04428773,290.93893,-82.18462,-7.650553,STD
2332417665000,0.644976,0.692003292113832,9.80787938631855,-1.50763507726371,0.111177474,0.017104227,0.04062254,290.9779,-82.27152,-7.5886564,STD
2332422660000,0.649971,0.704224241400755,9.80188872919631,-1.50643694583926,0.09254608,0.017104227,0.037873644,291.01825,-82.35142,-7.530045,STD
2332427677000,0.654988,0.716499016690544,9.79587168679744,-1.50523353735949,0.10445796,0.02321288,0.026572637,291.05368,-82.4262,-7.476453,STD
2332432671000,0.659982,0.728717519340974,9.78988222900595,-1.50403564580119,0.09621128,0.022602014,0.023823744,291.09134,-82.49744,-7.422512,STD
2332437660000,0.664971,0.740923788808935,9.78389876786823,-1.50283895357365,0.08582657,0.028405234,0.013439035,291.12585,-82.56056,-7.375297,STD
2332442645000,0.669956,0.75312027173092,9.77792010405354,-1.50164322081071,0.08460484,0.015271631,0.011301007,291.16626,-82.62218,-7.3276186,STD
2332447675000,0.674986,0.765426853295129,9.77188747035486,-1.50043669407097,0.096516706,-0.008246681,0.0036651916,291.2083,-82.6764,-7.2855906,STD
2332452664000,0.679975,0.777633122763089,9.76590400921715,-1.49924000184343,0.09040806,-0.002443461,0.005497787,291.24594,-82.729355,-7.24259,STD
2332457880000,0.685191,0.79039477871516,9.759648299998,-1.4979888599996,0.07391469,-0.019547688,-0.00030543262,291.29712,-82.77538,-7.2048354,STD
2332462671000,0.689982,0.802116614157333,9.75390230634981,-1.49683966126996,0.08032878,-0.026267206,-0.006414085,291.34378,-82.81959,-7.1676993,STD
2332467674000,0.694985,0.814357136536207,9.74790205458152,-1.4956396109163,0.06627888,-0.027183503,-0.0067195175,291.39374,-82.86075,-7.1315002,STD
2332472656000,0.699967,0.826546279548711,9.74192698875909,-1.49444459775182,0.058337633,-0.015271631,-0.01282817,291.442,-82.89647,-7.099601,STD
2332477660000,0.704971,0.838789248564079,9.73592553766005,-1.49324430753201,0.043066,-0.016798794,-0.012217305,291.49432,-82.931725,-7.0667233,STD
2332482679000,0.70999,0.851068917126856,9.72990609659968,-1.49204041931994,0.035124753,-0.023518313,-0.01985312,291.54474,-82.96096,-7.0387726,STD
2332487646000,0.714957,0.863221360591951,9.72394902073857,-1.49084900414771,0.030848695,-0.020463986,-0.013744468,291.59274,-97.00753,-7.0075016,STD
2332492653000,0.719964,0.875471669516801,9.71794397164726,-1.48964799432945,0.03756821,-0.03848451,-0.011911872,291.6487,-96.981094,-6.980367,STD
2332497628000,0.724939,0.887643686073847,9.71197730114012,-1.48845466022802,0.038789943,-0.05375614,-0.004886922,291.7029,-96.95301,-6.950755,STD
2332502621000,0.729932,0.899859742087783,9.70598904267938,-1.48725700853588,0.04886922,-0.08460484,-0.004886922,291.76666,-96.928116,-6.9234,STD
2332507647000,0.734958,0.912156537106017,9.69996120630372,-1.48605144126074,0.06291912,-0.108123146,0.0106901415,291.83252,-96.89847,-6.8903894,STD
2332512631000,0.739942,0.924350573391508,9.69398374181979,-1.48485594836396,0.06566802,-0.11026118,0.011301007,291.90085,-96.874695,-6.8624525,STD
2332517623000,0.744934,0.927467593968241,9.6448770551532,-1.46957843813423,0.07574729,-0.11178834,0.018325957,291.9755,-96.84671,-6.8291326,STD
2332522660000,0.749971,0.925067806554368,9.56904374982115,-1.44558056148967,0.065973446,-0.1142318,0.024740042,292.0507,-96.82005,-6.796679,STD
2332527713000,0.755024,0.922660396230306,9.49296956045391,-1.42150645573526,0.0729984,-0.12003502,0.017715093,292.12576,-96.748695,-6.7180223,STD
2332532634000,0.759945,0.920315874915303,9.41888266437707,-1.39806124013711,0.076358154,-0.099265605,0.017715093,292.19318,-96.6762,-6.63758,STD
2332537640000,0.764951,0.917930856889921,9.34351607186323,-1.37421105739288,0.07238753,-0.07360926,0.010995574,292.26013,-96.610504,-6.563113,STD
2332542638000,0.769949,0.915549650319634,9.26826992136699,-1.35039898920358,0.060170226,-0.04062254,0.0076358155,292.31833,-96.54648,-6.4895425,STD
2332547637000,0.774948,0.91316796731746,9.19300871561855,-1.32658215669491,0.064751714,-0.016187929,0.015271631,292.3711,-96.484406,-6.416521,STD
2332552582000,0.779893,0.910812011637174,9.11856049348891,-1.30302259743198,0.08155051,0.0033597588,0.017104227,292.41537,-96.427505,-6.347666,STD
2332557564000,0.784875,0.908438427977076,9.04355522702787,-1.27928675835253,0.094989546,0.02443461,0.026267206,292.45197,-96.368965,-6.276051,STD
2332562613000,0.789924,0.906032923380561,8.96754125866943,-1.25523170987558,0.10842858,0.023823744,0.027183503,292.489,-96.31561,-6.2079153,STD
2332567581000,0.794892,0.903666009766878,8.89274676573919,-1.23156257126724,0.11575896,0.045814894,0.038789943,292.5135,-96.25969,-6.135476,STD
2332572578000,0.799889,0.901285279628478,8.81751567049515,-1.20775526739731,0.12308934,0.036957346,0.03756821,292.54694,-96.2105,-6.0682373,STD
2332577636000,0.804947,0.898875487144982,8.7413662048669,-1.18365734004607,0.12950343,0.032375857,0.033292156,292.57285,-96.16202,-6.000011,STD
2332582581000,0.809892,0.896519531464696,8.66691798273726,-1.16009778078314,0.13469578,0.020158553,0.034513887,292.60355,-96.1154,-5.932261,STD
2332587581000,0.814892,0.894137372030635,8.59164172173662,-1.13627618395511,0.1386664,0.01038471,0.038789943,292.63483,-96.0721,-5.8664083,STD
2332592578000,0.819889,0.891756641892235,8.51641062649258,-1.11246888008517,0.1432479,0.0009162979,0.04062254,292.6695,-96.03213,-5.8025017,STD
2332597590000,0.824901,0.889368765275532,8.44095370246554,-1.08859011142475,0.17012598,-0.018325957,0.04642576,292.70978,-95.9946,-5.7379,STD
2332602654000,0.829965,0.886956114200715,8.36471390532409,-1.06446359815731,0.19883664,-0.0290161,0.06536258,292.75034,-95.956245,-5.670502,STD
2332607671000,0.834982,0.884565855424579,8.28918170503604,-1.04056100790007,0.2125811,-0.043676864,0.08277224,292.7975,-95.92056,-5.6035967,STD
2332612693000,0.840004,0.882173214489008,8.213574228487,-1.01663459604599,0.23671028,-0.06414085,0.09682214,292.84937,-95.88731,-5.5340014,STD
2332617741000,0.845052,0.87976818632438,8.13757531538075,-0.992584311888404,0.25992316,-0.077579886,0.12186762,292.90353,-95.85101,-5.4580455,STD
2332622665000,0.849976,0.877422235713717,8.06344325354732,-0.969124803332156,0.28527406,-0.1001819,0.13439035,292.96603,-95.82057,-5.383709,STD
2332627671000,0.854982,0.875037217688335,7.98807666103348,-0.945274620587928,0.3042109,-0.112704635,0.1414153,293.0295,-95.79061,-5.305727,STD
2332632672000,0.859983,0.872654581822388,7.91278534478063,-0.921448259440528,0.30573806,-0.1160644,0.13500121,293.0965,-95.76568,-5.2300854,STD
2332637655000,0.864966,0.870280521730403,7.8377650230674,-0.897707656041709,0.30726522,-0.10415252,0.13897185,293.1626,-95.74245,-5.1513853,STD
2332643363000,0.870674,0.867561048520479,7.75182964350906,-0.870512921102825,0.3036,-0.0888809,0.1386664,293.22827,-95.725334,-5.077596,STD
2332647646000,0.874957,0.865520490749262,7.68734799833591,-0.850107341259931,0.28924468,-0.06963864,0.15668693,293.28937,-95.704994,-4.999048,STD
2332652663000,0.879974,0.863130231973126,7.61181579804787,-0.826204751002681,0.2929099,-0.06719518,0.17470746,293.35068,-95.690285,-4.922394,STD
2332657651000,0.884962,0.860753789721707,7.53672020007363,-0.802440326007034,0.29352075,-0.06414085,0.19700404,293.40637,-95.67116,-4.8409266,STD
2332662692000,0.890003,0.858352096580287,7.46082667373278,-0.77842339208501,0.32498032,-0.07788532,0.22724187,293.4664,-95.65462,-4.7541595,STD
2332667704000,0.895015,0.855964219963584,7.38536974970574,-0.754544623424589,0.34697145,-0.06627888,0.26328292,293.5185,-95.634,-4.6609216,STD
2332672657000,0.899968,0.853604452828203,7.3108010855585,-0.730946949606738,0.37659842,-0.064751714,0.2968805,293.5777,-95.61744,-4.562255,STD
2332677675000,0.904986,0.85121371762018,7.23525383001826,-0.707039595030123,0.42424592,-0.058337633,0.3390302,293.63272,-95.60227,-4.452913,STD
2332682667000,0.909978,0.848835369641214,7.16009801103522,-0.683256112757013,0.4560109,-0.058643065,0.3744604,293.68964,-95.58895,-4.338466,STD
2332687658000,0.914969,0.846457498094134,7.08495724730438,-0.65947739480327,0.47158796,-0.06841691,0.39278635,293.7478,-95.5817,-4.219664,STD
2332692650000,0.919961,0.844079150115168,7.00980142832134,-0.63569391253016,0.5027421,-0.06566802,0.4297437,293.80347,-95.578316,-4.0880866,STD
2332697668000,0.924979,0.841688414907144,6.93425417278109,-0.611786557953545,0.5216789,-0.0720821,0.45570546,293.86475,-95.581116,-3.9577267,STD
2332702683000,0.929994,0.839299108994781,6.85875208299745,-0.587893496335027,0.5390886,-0.074830994,0.4822781,293.92493,-95.58952,-3.8196578,STD
2332707682000,0.934993,0.836917425992607,6.78349087724901,-0.564076663826358,0.5491679,-0.087659165,0.50732356,293.99036,-95.60309,-3.6781833,STD
2332713601000,0.940912,0.834097425654566,6.69437883947645,-0.535876657501331,0.5519168,-0.09712757,0.5180137,294.0559,-95.62403,-3.5365627,STD
2332717819000,0.94513,0.828649440019198,6.7128858466657,-0.571057002166079,0.539394,-0.09254608,0.52503866,294.12152,-95.64724,-3.392236,STD
2332722705000,0.950016,0.819007705031737,6.81377131667379,-0.665357870334762,0.537256,-0.094989546,0.53878313,294.1922,-95.67754,-3.2467206,STD
2332727660000,0.954971,0.809229809644331,6.91608148938973,-0.760990453588103,0.50976706,-0.07360926,0.5540548,294.2444,-95.66643,-3.1301415,STD
2332732678000,0.959989,0.799327593891756,7.01969247762153,-0.857838950614393,0.48747048,-0.005192355,0.5714644,294.28308,-95.656906,-3.0107048,STD
2332737668000,0.964979,0.789480631634812,7.12272532562407,-0.954147041519372,0.47403142,0.116980694,0.59895337,294.29974,-95.64248,-2.884943,STD
2332742640000,0.969951,0.779669189482201,7.22538651205064,-1.05010772848922,0.4373795,0.2773328,0.61666846,294.28534,-95.61908,-2.757165,STD
2332747641000,0.974952,0.769800520494831,7.32864648657181,-1.146628121799,0.38545597,0.42485678,0.6579019,294.24048,-95.58463,-2.6149557,STD
2332752653000,0.979964,0.759910144777034,7.43213358761163,-1.24336081751358,0.33353242,0.5448918,0.6789767,294.15784,-95.54454,-2.4730332,STD
2332757626000,0.984937,0.750096729285294,7.53481542190354,-1.33934080470205,0.2941316,0.62949663,0.68294734,294.0444,-95.494514,-2.3244593,STD
2332762739000,0.99005,0.740007046315403,7.6403879573418,-1.43802282249707,0.25961772,0.6805039,0.6927212,293.90787,-95.43234,-2.1691475,STD
2332767679000,0.99499,0.730258751014941,7.74238841207778,-1.53336590247114,0.24556783,0.68477994,0.70096785,293.76178,-95.36824,-2.0152528,STD
2332772662000,0.999973,0.720425602131905,7.84527672502299,-1.62953889184579,0.258396,0.6417139,0.70371675,293.61603,-95.30498,-1.8631084,STD
2332777656000,1.004967,0.710570746518442,7.94839216448685,-1.72592418362524,0.28344148,0.6224717,0.7141015,293.46387,-95.243034,-1.7088027,FKL
2332782859000,1.01017,0.700303463026883,8.05582300780492,-1.82634322109591,0.3295618,0.50854534,0.73761976,293.35248,-95.1923,-1.5563797,FKL
2332787662000,1.014973,0.690825515187182,8.15499470499053,-1.91904217111927,0.37293324,0.47678033,0.74006325,293.2239,-95.15216,-1.4084977,FKL
2332792645000,1.019956,0.680992366304146,8.25788301793574,-2.01521516049393,0.38881573,0.37904188,0.77732605,293.14874,-95.116196,-1.2514875,FKL
2332797677000,1.024988,0.671062523803756,8.36178307628218,-2.11233386058087,0.4089743,0.22510384,0.79534656,293.0989,-95.09844,-1.1045302,FKL
2332802664000,1.029975,0.661221481564201,8.46475398068872,-2.20858405083,0.45631635,0.0852157,0.7965683,293.0737,-95.095215,-0.95705473,FKL
2332807658000,1.034969,0.651366625950738,8.56786942015258,-2.30496934260945,0.4999932,-0.04062254,0.8002335,293.0885,-95.099396,-0.8105178,FKL
2332812714000,1.040025,0.641389423311237,8.67226502726697,-2.40255124794323,0.54611355,-0.17837265,0.8051204,293.14594,-95.12121,-0.67035055,FKL
2332817686000,1.044997,0.631577981158626,8.77492621369354,-2.49851193491308,0.6084218,-0.2996294,0.816116,293.2337,-95.16309,-0.53342843,FKL
2332822663000,1.049974,0.621756672310368,8.87769063944677,-2.59456912297602,0.6768387,-0.41233405,0.84604836,293.3574,-95.222374,-0.39628908,FKL
2332827640000,1.054951,0.611935363462109,8.9804550652,-2.69062631103896,0.7528914,-0.49388456,0.8729264,293.50522,-95.304375,-0.26258072,FKL
2332832714000,1.060025,0.601922640718274,9.08522233389035,-2.78855562030787,0.79412484,-0.5534439,0.9108001,293.67792,-95.39798,-0.12313816,FKL
2332837704000,1.065015,0.59207567846133,9.18825518189288,-2.88486371121285,0.7800749,-0.56688297,0.9254609,293.85864,-95.49963,0.012644386,FKL
2332842643000,1.069954,0.582329356499998,9.29023498876353,-2.9801874909683,0.7333437,-0.49877146,0.90285885,294.03076,-95.605286,0.14527828,FKL
2332847670000,1.074981,0.572409380695256,9.39403180778331,-3.07720968996216,0.63071835,-0.40103304,0.8509353,294.19543,-95.69187,0.27035353,FKL
2332852819000,1.08013,0.562248657516698,9.5003476663735,-3.17658651562743,0.5018258,-0.27458394,0.79076505,294.32938,-95.7579,0.38580102,FKL
2332857664000,1.084975,0.552687829433553,9.60038657390301,-3.27009607483277,0.36896262,-0.15607607,0.73273283,294.4343,-95.79312,0.4866159,FKL
2332862718000,1.090029,0.542714573472311,9.70474088528674,-3.36763937972932,0.24831672,-0.047036625,0.6765333,294.50247,-95.79432,0.571686,FKL
2332867721000,1.095032,0.532841957806681,9.80804215553858,-3.46419837347633,0.17348573,0.08124508,0.61941737,294.5283,-95.7699,0.64193505,FKL
2332872734000,1.100045,0.522949608749755,9.91154990444373,-3.56095036940953,0.15882497,0.22693644,0.569021,294.5155,-95.7278,0.70012546,FKL
2332877666000,1.104977,0.51321710016233,10.0133851762571,-3.65613904763465,0.15882497,0.30787608,0.51893,294.4823,-95.66776,0.7427219,FKL
2332882712000,1.110023,0.503259630914126,10.1175743047181,-3.75352795078225,0.17715092,0.4792238,0.49296826,294.38104,-95.60884,0.78347445,FKL
2332887683000,1.114994,0.493450162100645,10.2202148432794,-3.84946933753348,0.2312125,0.6414085,0.44135013,294.25757,-95.55788,0.80392426,FKL
2332892656000,1.119967,0.483636746608905,10.3228966775713,-3.94544932472195,0.2950479,0.77824235,0.41386122,294.0935,-95.515305,0.8272466,FKL
2332897640000,1.124951,0.473801624386738,10.4258056383818,-4.04164161431522,0.37812558,0.8472701,0.38545597,293.90295,-95.4914,0.83785677,FKL
2332902579000,1.12989,0.464055302425406,10.5277854452525,-4.13696539407067,0.464563,0.8399397,0.35705075,293.69696,-95.48501,0.84213454,FKL
2332907566000,1.134877,0.454214260185851,10.630756349659,-4.2332155843198,0.5671884,0.7834347,0.3381139,293.48767,-95.50514,0.8416275,FKL
2332912637000,1.139948,0.444207457459405,10.7354616747534,-4.33108699293285,0.69027776,0.6630942,0.33383787,293.30136,-95.553856,0.8355735,FKL
2332917579000,1.14489,0.77923418520915,10.7040172900756,-4.28369269552538,0.7770206,0.50762904,0.33017266,293.14362,-95.61909,0.82220703,FKL
2332922586000,1.149897,1.32984338444363,10.5903995028707,-4.14822521451745,0.86742866,0.3484986,0.33200526,293.02396,-95.718414,0.8062604,FKL
2332927599000,1.15491,2.01011830316727,10.4554654909271,-4.01189833830419,0.93401295,0.20311269,0.3454443,292.9802,-96.25703,0.72773355,FKL
2332932594000,1.159905,2.86236253345431,10.2923811854174,-3.87511856083801,0.97219205,0.06841691,0.36896262,292.98157,-96.7962,0.65341914,FKL
2332937576000,1.164887,3.61648747764898,10.2724242071183,-3.62267487970476,0.9718866,-0.08582657,0.4147775,293.01788,-97.3145,0.74624324,FKL
2332942569000,1.16988,4.30936195470024,10.3460426957073,-3.2935595347582,0.9502009,-0.2501493,0.45906523,293.09723,-97.82165,0.8375049,FKL
2332947584000,1.174895,4.8436533765992,10.4400187698885,-2.87198585033012,0.89888823,-0.38759398,0.49541172,293.1987,-98.304245,1.1162431,FKL
2332952615000,1.179926,5.13047553844572,10.5651773512285,-2.30877125412923,0.81581056,-0.49938235,0.49602258,293.3402,-98.76466,1.3834032,FKL
2332957587000,1.184898,5.14892832103758,10.6517470008877,-1.88037132704409,0.6808093,-0.5207626,0.45570546,293.43805,-99.19933,1.8793801,FKL
2332962669000,1.18998,4.94731943140349,10.7093491827596,-1.5491568014104,0.505491,-0.464563,0.41386122,293.54672,-99.605865,2.3554068,FKL
2332968219000,1.19553,4.57081017713957,10.6436882711086,-1.38931902354968,0.3213151,-0.35185838,0.3631594,293.6167,-99.90843,2.8960106,FKL
2332972624000,1.199935,4.18311729689833,10.5184961975876,-1.37720367111813,0.13347405,-0.27488935,0.3182608,293.6787,-100.17332,3.4071863,FKL
2332977594000,1.204905,3.7322544302962,10.366536054525,-1.44379026446654,-0.038179077,-0.13713925,0.29229903,293.6629,-100.37437,3.908663,FKL
2332982624000,1.209935,3.25829222797991,10.1986741748488,-1.61658893680435,-0.11056661,-0.010995574,0.25320363,293.62433,-100.55878,4.377794,FKL
2332987614000,1.214925,2.7381484574908,10.0122175008024,-2.16745204380251,-0.204029,0.09773844,0.22052236,293.5336,-100.7309,4.800223,FKL
2332992604000,1.219915,2.1652126548853,9.80469747153781,-3.11933762276975,-0.26419923,0.18081611,0.20280726,293.41266,-100.895546,5.204786,FKL
2332997603000,1.224914,1.77010611092136,9.64402573749872,-3.92343821777278,-0.2742785,0.24190263,0.18325958,293.25696,-101.10423,5.55975,FKL
2333002661000,1.229972,1.68589793662951,9.56477097913897,-4.47326785174353,-0.25045475,0.2593123,0.15760323,293.0906,-101.300095,5.8969736,FKL
2333007636000,1.234947,1.73193032174161,9.53066159817871,-4.88081395589072,-0.1957823,0.27855456,0.12705997,292.978,-101.59374,6.0978703,FKL
2333012674000,1.239985,1.96076720648833,9.55812209125403,-5.10507401214191,-0.12003502,0.30176744,0.08093964,292.8615,-101.88262,6.2836885,FKL
2333017655000,1.244966,2.24572262416718,9.61835111566315,-5.19765887756052,-0.021380283,0.26450464,0.03634648,292.78192,-102.26387,6.444392,FKL
2333022658000,1.249969,2.66209665218291,9.75218576515622,-5.00434230540037,0.09101892,0.1777618,0.027183503,292.71466,-102.6533,6.597272,FKL
2333027604000,1.254915,3.04916801230041,9.87350686280307,-4.76459453548196,0.20891592,0.006414085,0.01740966,292.68616,-103.11628,6.775904,FKL
2333032668000,1.259979,3.40288127498522,9.97866447131875,-4.43478094707274,0.32345316,-0.18784106,0.025961773,292.69482,-103.59262,6.9456854,FKL
2333037633000,1.264944,3.68773506364198,10.0417106681967,-4.11874645868126,0.40286562,-0.35735616,0.024740042,292.72787,-104.07967,7.1716413,FKL
2333042643000,1.269954,3.8571402822844,10.0290054603231,-3.81381687054462,0.4370741,-0.47311515,0.016493361,292.8045,-104.568306,7.381466,FKL
2333047640000,1.274951,4.01643931053036,10.0073204907214,-3.50712286790381,0.43188173,-0.4990769,-0.00580322,292.88092,-105.02399,7.6342025,FKL
2333052698000,1.280009,4.06430952882398,9.87966639013945,-3.16671141464807,0.3753767,-0.43554693,-0.03390302,292.96527,-105.4597,7.872216,FKL
2333057646000,1.284957,4.09275773945605,9.74835928143477,-2.84998895214821,0.26145032,-0.32498032,-0.070554934,293.0218,-105.83267,8.134537,FKL
2333062687000,1.289998,4.06897145210879,9.59612684371305,-2.57406791957036,0.12064589,-0.15699236,-0.11942416,293.0418,-106.168884,8.385111,FKL
2333067675000,1.294986,4.01927415432231,9.44276234791889,-2.33703737758805,-0.024740042,0.0070249503,-0.12889257,293.01285,-106.44414,8.658613,FKL
2333072698000,1.300009,3.88392694120501,9.27941177578345,-2.21569150284273,-0.20250183,0.079107046,-0.14966199,292.95847,-106.662025,8.912979,FKL
2333077657000,1.304968,3.75389297752809,9.12196184269663,-2.14100823820225,-0.32284227,0.18784106,-0.14630222,292.83334,-106.83209,9.189072,FKL
2333082728000,1.310039,3.63861211044469,8.97978244635227,-2.28703064844121,-0.37110063,0.26358834,-0.1572978,292.69482,-106.969124,9.451163,FKL
2333087674000,1.314985,3.52617291332489,8.84110776792214,-2.42945361058712,-0.4373795,0.31215215,-0.16462818,292.52924,-107.055824,9.69989,FKL
2333092702000,1.320013,3.48281356945704,8.70662004402135,-2.69418724106981,-0.48533243,0.35246924,-0.16187929,292.34488,-107.135124,9.947209,FKL
2333097717000,1.325028,3.47797548624962,8.57599159534603,-3.02317715176791,-0.4990769,0.37140608,-0.15668693,292.15298,-107.20626,10.189293,FKL
2333102652000,1.329963,3.54751867615994,8.47365348811769,-3.30056830171633,-0.5021312,0.36346483,-0.1441642,291.97583,-107.28842,10.408367,FKL
2333108088000,1.335399,3.6653448476424,8.37546509732177,-3.58040536927574,-0.4831944,0.32253686,-0.1337795,291.804,-107.372406,10.622692,FKL
2333112646000,1.339957,3.79806155195215,8.321918245677,-3.71923808258836,-0.4596761,0.25442538,-0.11301007,291.66656,-107.50968,10.83718,FKL
2333117667000,1.344978,3.97063465979337,8.28531163360522,-3.7976804639043,-0.41905355,0.16615535,-0.08155051,291.54987,-107.65622,11.048738,FKL
2333122651000,1.349962,4.0775598621793,8.26785488079212,-3.80488097371964,-0.37690386,0.05589417,-0.045814894,291.4846,-107.85022,11.265501,FKL
2333127666000,1.354977,4.15720800314116,8.25848435011219,-3.78145503839625,-0.3484986,-0.07391469,-0.032375857,291.45233,-108.04814,11.472811,FKL
2333132672000,1.359983,4.14272521052632,8.22496447368421,-3.70672824210526,-0.32925636,-0.17287487,-0.03176499,291.45374,-108.26763,11.690939,FKL
2333137658000,1.364969,4.07780940784618,8.17859631986794,-3.60471830370946,-0.3222314,-0.2406809,-0.032986723,291.485,-108.48896,11.900822,FKL
2333142642000,1.369953,3.97911247120449,8.09288665852267,-3.50400611170263,-0.3491095,-0.2874121,-0.049785517,291.53918,-108.6983,12.103735,FKL
2333147676000,1.374987,3.85536881663656,7.97830920058941,-3.4031779008651,-0.41141775,-0.3109304,-0.071776666,291.60587,-108.89677,12.297394,FKL
2333152658000,1.379969,3.71892745093106,7.8488276437599,-3.3105455076664,-0.47128254,-0.31123585,-0.099571034,291.67072,-109.06639,12.471874,FKL
2333157656000,1.384967,3.56721626982964,7.70185763199287,-3.22520792498019,-0.53786683,-0.28405234,-0.13041973,291.7326,-109.214,12.63613,FKL
2333162712000,1.390023,3.36953390816627,7.53358167441038,-3.18621664740566,-0.59437186,-0.25625798,-0.15210545,291.78693,-109.33178,12.781658,FKL
2333167752000,1.395063,3.12288598599646,7.3438524196934,-3.20044632665094,-0.6062838,-0.22815818,-0.18295415,291.83057,-109.43593,12.915293,FKL
2333172632000,1.399943,2.89776325352086,7.1728954543232,-3.2830774725977,-0.6059783,-0.18570304,-0.1957823,291.8577,-109.517586,13.035713,FKL
2333177716000,1.405027,2.68175803924863,7.01204050650368,-3.46231582657164,-0.5842926,-0.12492194,-0.22113322,291.86868,-109.592255,13.145421,FKL
2333182664000,1.409975,2.52619839560472,6.88156710642238,-3.64145926545171,-0.5137377,-0.0571159,-0.2415972,291.86975,-109.670494,13.22886,FKL
2333187656000,1.414967,2.48892531454049,6.80702099294416,-3.83248390320631,-0.4288274,0.011301007,-0.25411993,291.85287,-109.75213,13.310561,FKL
2333192606000,1.419917,2.48371336333491,6.7527726902598,-4.00021999278224,-0.33750305,0.048258353,-0.258396,291.84473,-109.86215,13.363798,FKL
2333197662000,1.424973,2.57520198187057,6.75734706864431,-4.10543198529995,-0.24373524,0.06505715,-0.2660318,291.8233,-109.98586,13.415287,FKL
2333202599000,1.42991,2.67106617036674,6.76325798806181,-4.20615792495375,-0.14813483,0.081855945,-0.25809056,291.81488,-110.15007,13.462572,FKL
2333207662000,1.434973,2.81353642277723,6.77908794876483,-4.29586123763195,-0.050396383,0.087964594,-0.24373524,291.80646,-110.33222,13.509253,FKL
2333212710000,1.440021,2.94468511353615,6.78705725137191,-4.34005444769423,0.03023783,0.07788532,-0.23823744,291.81528,-110.542076,13.561758,FKL
2333217746000,1.445057,3.05147847038606,6.77777092943102,-4.28433632211418,0.094989546,0.07666359,-0.22693644,291.82285,-110.770424,13.619931,FKL
2333222622000,1.449933,3.15038919326914,6.74994321870347,-4.20915079348754,0.124311075,0.076052725,-0.2144137,291.8463,-111.0178,13.688426,FKL
2333227651000,1.454962,3.23645199349747,6.65431758001588,-4.05614997128959,0.14752395,0.083383106,-0.2049453,291.8693,-111.27594,13.758444,FKL
2333232636000,1.459947,3.30122378794306,6.50713126720625,-3.80936936248953,0.160963,0.0842994,-0.20861048,291.88953,-111.53267,13.8397455,FKL
2333237657000,1.464968,3.28780343829193,6.15820208285422,-3.19650630801935,0.14966199,0.09193522,-0.2098322,291.90717,-111.787544,13.923965,FKL
2333242736000,1.470047,3.26880153799089,5.81408902121935,-2.58403507427859,0.13500121,0.07269296,-0.21227567,291.92023,-112.03047,14.019287,FKL
2333247682000,1.474993,3.18658526062053,5.58285552649165,-2.07532148245823,0.1301143,0.021380283,-0.21410827,291.9403,-112.269485,14.110852,FKL
2333252682000,1.479993,3.08820017180704,5.35796303588375,-1.56173521557928,0.116675265,-0.0290161,-0.23335053,291.91608,-112.43215,14.216068,FKL
2333257665000,1.484976,2.93724325069197,5.1645496346382,-1.05225587773824,0.099571034,-0.06505715,-0.26358834,291.90103,-112.58865,14.313693,FKL
2333262709000,1.49002,2.77955812939082,4.9638847713212,-0.548181220015823,0.06719518,-0.09132435,-0.2782491,291.85907,-112.682014,14.41152,FKL
2333267729000,1.49504,2.6036487806962,4.74518647563291,-0.0917676056962026,0.01282817,-0.10567969,-0.30176744,291.82004,-112.758766,14.496296,FKL
2333272651000,1.499962,2.42220414673397,4.52828829792162,0.31269639412114,-0.028099801,-0.119729586,-0.31398472,291.7434,-112.76668,14.576352,FKL
2333277653000,1.504964,2.19463557256532,4.2959786158749,0.516559923950911,-0.11484267,-0.12583824,-0.34788775,291.66373,-112.74468,14.643638,FKL
2333282648000,1.509959,1.96666286570213,4.06704379203404,0.677900186862979,-0.22327125,-0.115453534,-0.398895,291.544,-112.64413,14.696139,FKL
2333287655000,1.514966,1.73404915114894,3.85483494478298,0.600362270648511,-0.3417791,-0.108123146,-0.4373795,291.42377,-112.520355,14.742508,FKL
2333293876000,1.521187,1.44018900505403,3.59196344780143,0.492319775607147,-0.46944994,-0.06811147,-0.5152648,291.27008,-112.32896,14.750228,FKL
2333297641000,1.524952,1.18558959469776,3.44537584942762,0.24157793744517,-0.6621779,-0.049785517,-0.54092115,291.1205,-112.10432,14.761392,FKL
2333302617000,1.529928,0.849099112378303,3.25163882698192,-0.0898141971349096,-0.72295904,0.0018325958,-0.6010914,290.95792,-111.876816,14.723035,FKL
2333307672000,1.534983,0.555236409661836,3.18501825750725,-0.45254714123285,-0.8151997,0.05681047,-0.6569856,290.78647,-111.60215,14.681838,FKL
2333312717000,1.540028,0.265813289855072,3.12900091721739,-0.816660106585507,-0.9034697,0.10354166,-0.7284568,290.59583,-111.30542,14.624709,FKL
2333317694000,1.545005,-0.0522146205088223,3.10921823625359,-1.18243303239639,-0.95142263,0.15057829,-0.8008443,290.4396,-110.99255,14.490135,FKL
2333322598000,1.549909,-0.370194467960607,3.09476466719327,-1.54377376813705,-1.0002918,0.1853976,-0.86834496,290.26917,-110.652504,14.342059,FKL
2333327649000,1.55496,-0.600521258932223,3.16353822134608,-1.8156489142465,-1.0247264,0.24495697,-0.95111716,290.1275,-110.304344,14.111284,FKL
2333332652000,1.559963,-0.818224085528209,3.24064120473306,-2.07417107765998,-1.0519099,0.28893927,-1.0360274,289.97668,-109.936035,13.865266,FKL
2333337659000,1.56497,-0.971606017089295,3.31663474139122,-2.30761274518007,-1.0836749,0.34147367,-1.133155,289.8504,-109.561195,13.537971,FKL
2333342649000,1.56996,-1.10834599992107,3.3920775346818,-2.53394102658115,-1.1410962,0.39003745,-1.2431108,289.70734,-109.161545,13.189737,FKL
2333347637000,1.574948,-1.02312787081851,3.56954742514828,-3.39039993730724,-1.2082914,0.43157628,-1.3579534,289.5793,-108.75112,12.774649,FKL
2333352685000,1.579996,-0.870201914472123,3.77982067750099,-4.44654488258205,-1.284955,0.5491679,-1.4776831,289.40942,-108.31221,12.340779,FKL
2333357680000,1.584991,0.432315557096774,4.68659888309677,-6.94014506406452,-1.352761,1.0668762,-1.5021176,289.14017,-107.883705,11.907679,FKL
2333363748000,1.591059,2.4675767259447,6.06307809651613,-10.539343583106,-1.3863586,1.9507982,-1.3680327,288.73758,-107.46382,11.522984,FKL
2333367660000,1.594971,4.79621007521084,7.80206208624498,-10.7330857177711,-1.2632693,2.3530529,-1.2131784,288.43042,-107.28564,11.1920595,FKL
2333372659000,1.59997,8.22336772945783,10.4024721210843,-10.0361182114458,-1.0842859,2.6548204,-0.65240407,287.9432,-107.21992,11.071478,FKL
2333377642000,1.604953,11.1736266654974,12.7265351291454,-5.19661761367985,-0.5656612,1.3643675,0.21624629,288.13052,-107.87065,11.152164,FKL
2333382670000,1.609981,13.8197447407525,14.8813040896046,2.62913586680485,0.24312437,-2.8011227,1.6685784,289.112,-108.806435,11.353126,FKL
2333387665000,1.614976,9.22938034658032,16.1394018300364,3.18256414547148,1.534188,-9.892657,3.5647042,291.15424,-110.177055,12.05439,FKL
2333392647000,1.619958,1.69150646880156,17.0324349422514,0.774338309917502,3.0173688,10.002308,3.1316006,286.66736,-111.569786,14.290873,FKL
2333397664000,1.624975,-4.51929904134972,15.8150393282127,1.85628335370272,3.2348368,-3.9208386,1.3860532,293.15063,-112.16851,13.750271,FKL
2333402666000,1.629977,-9.04114885274923,12.039218765865,7.17998778654518,-1.0106765,2.840829,0.43554693,288.16257,-112.32046,16.499731,FKL
2333407672000,1.634983,-12.1554357641235,8.36585725262085,9.0399565626092,-4.6642613,2.568383,-1.0940597,289.2127,-111.60724,15.642191,FKL
2333412685000,1.639996,-14.1919069184624,4.76824597868375,8.24307622411182,-5.353012,0.25992316,-2.2583687,288.87442,-110.562904,15.016597,FKL
2333417659000,1.64497,-14.4715710260402,2.94791620178319,4.59692153093688,-4.502993,-0.49174652,-2.9480357,287.7931,-108.259285,13.84642,FKL
2333422657000,1.649968,-13.0490371443532,2.83050069031984,-1.86093093937164,-3.503923,0.45906523,-3.2690454,286.88794,-105.756584,12.40354,FKL
2333427645000,1.654956,-11.0386640830862,2.78713372357551,-7.22482427483584,-2.269059,2.071444,-3.4874296,286.08017,-103.41045,10.640122,FKL
2333432881000,1.660192,-7.9265610852044,2.86679512149968,-11.0220150619572,-1.5552629,3.8563924,-3.687488,284.9874,-101.122444,8.849192,FKL
2333437659000,1.66497,-4.94678944020781,2.8947478516619,-12.6752197033238,-1.844813,5.1324897,-3.7265835,284.0678,-99.688774,7.210459,FKL
2333442644000,1.669955,-1.70257183106539,2.88062204610908,-12.6469680922182,-2.445599,5.480072,-3.6435058,282.8945,-98.43909,5.6160765,FKL
2333447630000,1.674941,1.37279708675909,3.02496855489796,-11.6566039449907,-2.6777277,4.8844786,-3.5433238,281.75378,-97.93292,4.3402457,FKL
2333452663000,1.679974,4.27910927376364,3.35584105632653,-9.53276058330241,-2.4947736,3.887241,-3.3887749,280.6067,-97.596756,3.1278334,FKL
2333457664000,1.684975,6.81790652659586,3.66049614150881,-7.62004910226651,-2.1890357,2.8460212,-3.1395419,279.61505,-97.53768,2.362836,FKL
2333462676000,1.689987,8.59428335068433,3.91276256428337,-6.1379834157232,-1.6710218,2.3374758,-2.990491,278.7361,-97.68319,1.6106237,FKL
2333467786000,1.695097,9.41280481711085,3.6115583916377,-4.66889118043646,-1.181108,1.4453071,-2.9553661,278.1791,-97.69468,1.2699267,FKL
2333472663000,1.699974,9.24593239426419,2.7907291047219,-3.30685579719003,-1.0415252,0.84849185,-2.930015,277.68158,-97.77766,0.96828,FKL
2333477641000,1.704952,8.69210012592816,1.98869983934477,-1.72056755332129,-0.9737192,0.63163465,-2.8774807,277.28638,-97.79329,0.9012498,FKL
2333482671000,1.709982,7.58037978175798,1.22982974041842,0.164523921493077,-1.0946705,0.59040123,-2.7956247,277.01,-97.799095,0.8381282,FKL
2333487668000,1.714979,6.0505801041779,0.52202631977089,2.04988844636119,-1.2779301,0.42943826,-2.7608054,276.8028,-97.5988,0.7448718,FKL
2333492656000,1.719967,3.9444716744898,-0.121762264591837,3.94906483673469,-1.4691309,0.03756821,-2.8228083,276.67465,-97.36571,0.6439894,FKL
2333497606000,1.724917,1.9760226447953,-0.818909056001594,5.1732206091543,-1.6459764,-0.23976462,-2.9568932,276.53027,-96.79126,0.38350436,FKL
2333502976000,1.730287,0.101090193804164,-1.7000249037952,5.08613337367268,-1.8527542,-0.3277292,-3.073874,276.45197,-96.16274,0.11094625,FKL
2333507659000,1.73497,-1.31052044878011,-2.32652397925167,4.75076164258329,-2.074193,-0.34300083,-3.1685581,276.4039,-95.196236,-0.5150032,FKL
2333512633000,1.739944,-2.38481136792927,-2.72205829486417,3.90109526320861,-2.2770002,-0.40194935,-3.2388074,276.41135,-94.28236,-1.1668271,FKL
2333517591000,1.744902,-3.13908820010013,-2.93485181549244,3.17860634407428,-2.468201,-0.514654,-3.2992833,276.454,-93.70399,-2.120009,FKL
2333522625000,1.749936,-3.36727874193519,-2.84269790669944,2.65640101365374,-2.64749,-0.6429357,-3.3481524,276.5409,-93.62198,-3.0900154,FKL
2333527626000,1.754937,-3.51378329093066,-2.66966719320608,2.13616703340882,-2.7870727,-0.7849618,-3.3472362,276.68634,-94.322426,-4.238707,FKL
2333532649000,1.75996,-3.29590561476329,-2.12497281319961,1.60703528652,-2.812118,-0.95356065,-3.26874,276.89697,-84.61592,-5.3792343,FKL
2333537637000,1.764948,-2.89863296952574,-1.42645667944364,0.985717339756592,-2.6441302,-1.1392636,-3.0973923,277.1693,-83.36484,-6.52673,FKL
2333542625000,1.769936,-2.13270299753695,-0.406754795073892,0.169033010344828,-2.2675319,-1.4477507,-2.8695395,277.54074,-82.07896,-7.629683,FKL
2333547609000,1.77492,-1.30761731121374,0.600291043310018,-0.748590639796338,-1.6331482,-1.7825048,-2.6132815,277.98026,-80.939415,-8.597482,FKL
2333552581000,1.779892,-0.308477198092985,1.57004468281629,-1.96323147077762,-0.85062987,-1.8298469,-2.331978,278.42963,-79.907845,-9.484784,FKL
2333557573000,1.784884,0.611557515182698,2.26618593567055,-3.00748126733162,-0.18997909,-1.74738,-2.1056526,278.92032,-79.304405,-10.03321,FKL
2333562614000,1.789925,1.34576737663046,2.31862956049773,-3.65110684791626,0.062002823,-1.4501941,-2.031127,279.35687,-78.78069,-10.539948,FKL
2333567580000,1.794891,1.96789855876218,2.20461062629145,-4.081062406258,0.41355577,-1.0262536,-1.9523253,279.7271,-78.56976,-10.870096,FKL
2333572583000,1.799894,2.33090979979337,1.65773655081177,-3.98205942107645,0.5348125,-0.54092115,-1.9205604,279.9884,-78.35779,-11.194805,FKL
2333577587000,1.804898,2.70204597360346,1.28546592966168,-3.31168769626279,0.42180246,-0.16737708,-1.9150625,280.16107,-78.226265,-11.459136,FKL
2333582582000,1.809893,3.09723049774784,1.45012614396145,-0.888829983585759,0.17012598,-0.020463986,-1.9285016,280.2512,-78.07539,-11.719963,FKL
2333587579000,1.81489,3.36250220536156,1.71172654813533,1.21208228896033,-0.14874569,-0.06047566,-1.9184223,280.28986,-77.91143,-11.958174,FKL
2333592575000,1.819886,3.14005200648927,2.33648037597191,2.10188313387081,-0.47067168,-0.11056661,-1.8591684,280.28192,-77.73633,-12.183157,FKL
2333597586000,1.824897,2.93396117978927,3.03341693467433,2.98986254837165,-0.80573124,-0.15088372,-1.7846428,280.34753,-77.58872,-12.300659,FKL
2333602656000,1.829967,2.79908786455939,4.04264171340996,3.86886471704981,-1.0897835,-0.2501493,-1.7018706,280.44684,-77.44967,-12.391946,FKL
2333607663000,1.834974,2.67896516773635,5.09017344810546,4.65465399338606,-1.314582,-0.4810564,-1.6010778,280.61902,-77.297966,-12.434261,FKL
2333612738000,1.840049,2.65699800634275,6.5400045326629,4.82306871899812,-1.5030339,-0.8249735,-1.4495832,280.85406,-77.145065,-12.428946,FKL
2333617683000,1.844994,2.63559355056121,7.95269708697552,4.98716937282109,-1.6493362,-1.2339478,-1.2519683,281.19193,-76.98754,-12.312584,FKL
2333622663000,1.849974,2.38726022007129,9.8659316362016,4.87400187176948,-1.704925,-1.6236799,-1.0057896,281.61508,-76.81656,-12.127187,FKL
2333627646000,1.854957,1.87692325783741,12.3467363685513,4.43927062299237,-1.6050484,-1.8600847,-0.7440339,282.0993,-76.642715,-11.869537,FKL
2333632669000,1.85998,0.820589529973992,14.4404891387083,4.25912206571305,-1.4019357,-1.8658879,-0.5510005,282.60187,-76.56046,-11.448503,FKL
2333637658000,1.864969,-0.908721459687907,16.0092950021673,4.40409414477677,-1.2669345,-1.6762142,-0.5375614,283.09457,-76.43721,-11.015672,FKL
2333642645000,1.869956,-2.8129910407743,17.0371838281164,4.0726988182592,-1.271516,-1.2205088,-0.72326446,283.44772,-76.41724,-10.58483,FKL
2333647685000,1.874996,-4.85835713632619,17.7042471559583,3.41005317081274,-1.3918564,-0.46700647,-1.0580186,283.6499,-76.32307,-10.250612,FKL
2333653354000,1.880665,-6.75721304469274,18.1494396759777,2.47252819050279,-1.6019942,0.3182608,-1.4584408,283.7062,-75.97654,-10.27265,FKL
2333657633000,1.884944,-7.86858300223464,18.2410128837989,1.61090453452514,-1.7705929,0.6783658,-1.8732183,283.67953,-75.53759,-10.420083,FKL
2333662751000,1.890062,-8.46259540069238,17.4748319042532,0.749491745901088,-1.8161024,1.2412782,-2.0616703,283.41467,-74.86486,-11.035818,FKL
2333667685000,1.894996,-8.16814662789318,15.7034678284866,0.118530766872404,-1.8555032,1.5057828,-2.368019,283.16272,-74.07076,-11.77915,FKL
2333672618000,1.899929,-7.77802329875639,13.9683131633086,-0.359252577115589,-1.7944167,1.4504995,-2.5470026,282.8461,-73.247505,-12.716685,FKL
2333677654000,1.904965,-7.24333608483563,12.248014495228,-0.628920978006363,-1.638646,1.2519683,-2.5799894,282.50647,-72.41432,-13.6661415,FKL
2333682613000,1.909924,-6.88000687041611,10.8086015639369,-0.763157584571537,-1.4697418,0.977079,-2.5372288,282.21948,-71.5712,-14.649067,FKL
2333687657000,1.914968,-6.8341153834315,9.84946910260308,-0.639250493041991,-1.3063353,0.70921457,-2.5027149,281.99057,-70.75511,-15.602665,FKL
2333692608000,1.919919,-6.78024123750644,9.080169812983,-0.510698898042246,-1.2116512,0.47219884,-2.5185974,281.84058,-69.949486,-16.52674,FKL
2333697664000,1.924975,-6.69542458431736,8.87561202380216,-0.356033211521896,-1.1939361,0.35521814,-2.5396724,281.73108,-69.17327,-17.41365,FKL
2333702596000,1.929907,-6.59577322771467,8.65478204919138,-0.214648427642472,-1.2046263,0.29871312,-2.5647178,281.68567,-68.343185,-18.32386,FKL
2333707655000,1.934966,-6.45119077712745,8.37494503234501,-0.093385848586831,-1.1878275,0.32620203,-2.590374,281.65036,-67.52468,-19.220917,FKL
2333712691000,1.940002,-6.29615910594512,8.06062350457317,0.0728114719893293,-1.1346822,0.3753767,-2.6407704,281.63443,-66.68902,-20.117107,FKL
2333717661000,1.944972,-6.10569957660061,7.62982261661585,0.390243941977896,-1.042747,0.4746423,-2.6584857,281.59448,-65.87454,-20.999071,FKL
2333723114000,1.950425,-5.87401768610552,7.14396524791727,0.756484299128603,-1.0198395,0.5204572,-2.6493225,281.5647,-65.04967,-21.870298,FKL
2333727645000,1.954956,-5.60393138408503,6.69520620884803,1.12213981726515,-1.0543534,0.47250426,-2.6035078,281.53235,-64.24672,-22.720114,FKL
2333732855000,1.960166,-5.28944651061224,6.18142307913832,1.52740289079365,-1.1297953,0.35918877,-2.521041,281.52136,-63.43293,-23.540674,FKL
2333737658000,1.964969,-4.95150625436735,5.7350082985941,1.71514743403175,-1.2327261,0.22449298,-2.420248,281.529,-62.640915,-24.324173,FKL
2333742658000,1.969969,-4.59970502987755,5.27028335528345,1.91059251339683,-1.3591752,0.1255328,-2.3667974,281.5915,-61.82218,-25.073982,FKL
2333747668000,1.974979,-4.07376165390593,4.74906969705289,1.7594395614453,-1.5134187,0.053145275,-2.3432791,281.6858,-61.018658,-25.783829,FKL
2333752643000,1.979954,-3.51595233189342,4.22011231211143,1.53823925159467,-1.6514742,0.037873644,-2.3289237,281.7929,-60.226074,-26.465593,FKL
2333757742000,1.985053,-2.88031764298094,3.98959374274646,1.22103550141707,-1.7718146,0.010079277,-2.3020456,281.94653,-59.43087,-27.09812,FKL
2333762746000,1.990057,-2.2451964339688,3.81859973198083,0.893703807666429,-1.8597792,-0.010079277,-2.2867742,282.10626,-58.634865,-27.716963,FKL
2333767685000,1.994996,-1.53893033350464,4.05552784083031,0.737293501442966,-1.8942931,-0.052839845,-2.234545,282.28143,-57.889534,-28.271864,FKL
2333772593000,1.999904,-0.828486403758565,4.33496910370818,0.599941034405482,-1.9770653,-0.07422013,-2.1591032,282.45593,-57.146717,-28.804668,FKL
2333777650000,2.004961,-0.253891918036171,4.75416786609223,0.702365976278762,-2.0546453,-0.0983493,-2.0964894,282.62354,-56.534115,-29.211287,FKL
2333782665000,2.009976,0.296373189785058,5.18619423201401,0.834247683541331,-2.0922134,-0.13164146,-2.0610592,282.7968,-55.937023,-29.591883,FKL
2333787658000,2.014969,0.260053477865882,5.21178525861574,1.0245010714149,-2.123673,-0.17898351,-2.0491474,282.9463,-55.586098,-29.714872,FKL
2333793234000,2.020545,0.0453481870514072,5.11976860772545,1.25454251181313,-2.1138992,-0.23182335,-2.039679,283.10138,-55.24668,-29.82133,FKL
2333797634000,2.024945,-0.427187152187083,4.99020747419648,1.48101344290479,-2.0851886,-0.28955013,-2.0390682,283.34174,-54.82598,-29.976547,FKL
2333802663000,2.029974,-1.05999785537113,4.82470320618557,1.7536087766323,-2.0292943,-0.33536503,-2.05434,283.59494,-54.41503,-30.121355,FKL
2333807672000,2.034983,-1.84844906102396,4.80214889459147,2.122363612174,-1.9651535,-0.37568212,-2.0851886,283.8612,-54.00679,-30.246065,FKL
2333812685000,2.039996,-2.69856644348956,4.83449029472621,2.5289415033298,-1.8961257,-0.4120286,-2.1239784,284.1405,-53.607304,-30.36562,FKL
2333817662000,2.044973,-3.62600329886353,5.08598445943369,3.11066724704806,-1.7986927,-0.4886922,-2.1426098,284.37762,-53.254772,-30.439545,FKL
2333822656000,2.049967,-4.6025257685351,5.4590896480497,3.79239042886449,-1.6676621,-0.65057147,-2.1282544,284.646,-52.91842,-30.500025,FKL
2333827638000,2.054949,-5.67372544020838,6.11315687320859,4.27506464030406,-1.5293012,-0.9459248,-2.0873265,285.06598,-52.331974,-30.772093,FKL
2333832671000,2.059982,-6.83183907339996,6.99455310571975,4.6081505173081,-1.4037683,-1.3347405,-2.033876,285.5559,-51.78148,-30.995941,FKL
2333837657000,2.064968,-8.14912524252295,7.60178665288718,4.43052524281907,-1.2925909,-1.7006488,-1.9599612,286.16382,-51.10138,-31.29385,FKL
2333842642000,2.069953,-9.54396795128813,8.0871540244201,4.02055453242523,-1.2269229,-1.9388863,-1.9049833,286.83914,-50.455914,-31.536432,FKL
2333847659000,2.07497,-10.79162835722,7.94251124489194,3.26250295730845,-1.2504412,-1.9608774,-1.9538525,287.55487,-49.758884,-31.839823,FKL
2333852663000,2.079974,-11.9543807527014,7.46705407121808,2.32571060579568,-1.349096,-1.8774943,-2.0857995,288.30597,-49.06945,-32.118538,FKL
2333857639000,2.08495,-12.5565869974698,6.79823374980537,1.73948680312378,-1.4825699,-1.5418239,-2.1551325,288.94025,-48.318684,-32.5896,FKL
2333863026000,2.090337,-12.8427532864928,5.94475544511483,1.33282948090697,-1.5537357,-0.8017606,-2.189341,289.43854,-47.559418,-33.130993,FKL
2333867736000,2.095047,-12.8030656897259,4.89809129349245,1.43110138480328,-1.820073,-0.54825157,-2.1282544,289.9341,-46.645264,-33.877163,FKL
2333872680000,2.099991,-12.573522305799,3.60470268189446,1.82838792218907,-1.9040669,-0.07086037,-1.9908098,290.13434,-45.782597,-34.715828,FKL
2333877634000,2.104945,-12.2457206695012,2.06740451988178,2.58885523951053,-2.103209,0.32803464,-1.930945,290.29175,-44.776077,-35.675106,FKL
2333882673000,2.109984,-11.7753060080888,0.165728523808981,3.86998433226174,-2.2773056,0.6768387,-1.9000963,290.30585,-43.808872,-36.639736,FKL
2333887661000,2.114972,-11.4767709652971,-1.96817131225517,4.89523144438266,-2.404671,0.766025,-1.8640553,290.35822,-42.67105,-37.65691,FKL
2333892644000,2.119955,-11.3490037870456,-4.35644394915045,5.67166571478736,-2.443461,0.6621779,-1.8781052,290.37924,-41.540165,-38.674725,FKL
2333897717000,2.125028,-11.6520157726528,-6.2264668954116,6.2003961141122,-2.395508,0.45662177,-1.9691241,290.572,-40.17276,-39.702133,FKL
2333902660000,2.129971,-12.2862938232119,-7.60910270985155,6.51069072348178,-2.310598,0.12858713,-2.1395555,290.88354,-38.810257,-40.68562,FKL
2333907647000,2.134958,-12.4829885731965,-8.53542579665962,6.46046352272865,-2.143526,-0.35430184,-2.3060162,291.4751,-37.207897,-41.680714,FKL
2333912676000,2.139987,-12.1873985863266,-8.9473129897374,6.0049643903109,-1.8377881,-0.80909103,-2.4248295,292.23068,-35.651127,-42.600224,FKL
2333917657000,2.144968,-11.6840949292815,-9.10233442024046,5.83011939560731,-1.5265522,-0.9550878,-2.3915374,293.11334,-33.97899,-43.542892,FKL
2333922657000,2.149968,-10.9587853581369,-8.99353815024141,5.94344889480261,-1.2925909,-0.89858276,-2.331978,294.13477,-32.375446,-44.390697,FKL
2333927640000,2.154951,-10.2894658721959,-8.61947695945668,6.3166755337518,-1.1792754,-0.8081747,-2.2925773,295.23044,-30.833624,-45.184776,FKL
2333932675000,2.159986,-9.70396811494135,-7.79084849217946,7.1353801600638,-1.1753048,-0.8335256,-2.266921,296.35834,-29.368343,-45.89291,FKL
2333937660000,2.164971,-9.01336052576622,-6.8438130022624,7.52033948250991,-1.1771374,-0.9825767,-2.2030854,297.49066,-28.04513,-46.410954,FKL
2333942642000,2.169953,-8.17841817209707,-5.73209422486706,7.34966077698927,-1.1392636,-1.0595458,-2.1050417,298.59763,-26.77777,-46.873917,FKL
2333947650000,2.174961,-7.29312722951592,-4.6021859681861,7.07527332373328,-1.0983357,-1.0638218,-1.9908098,299.73358,-25.617401,-47.11904,FKL
2333952708000,2.180019,-6.31685558268977,-3.43887188221887,6.6145097214353,-1.1108584,-0.9822713,-1.8695531,300.81683,-24.50384,-47.30738,FKL
2333957663000,2.184974,-5.47229277083109,-2.31266418802415,6.34738319454565,-1.1307116,-0.83658,-1.7953329,301.80255,-23.56905,-47.369656,FKL
2333962746000,2.190057,-4.96330787808559,-1.20024325482376,6.66221929427617,-1.1847731,-0.68600166,-1.63437,302.6736,-22.688135,-47.39293,FKL
2333967778000,2.195089,-4.51391659148808,-0.356186794631175,6.96652543663433,-1.2336423,-0.75625116,-1.4972308,303.42572,-22.010036,-47.27392,FKL
2333972723000,2.200034,-4.15069784511617,0.103178048928491,7.25496383974735,-1.2541064,-0.88422745,-1.3429873,304.06976,-21.375631,-47.135098,FKL
2333977624000,2.204935,-3.79071097434394,0.558455520775998,7.54083575353034,-1.1985176,-1.0742066,-1.1933253,304.53116,-20.976704,-46.770756,FKL
2333982683000,2.209994,-3.72113620104009,0.909064131462622,8.50127428871073,-1.0934488,-1.323745,-1.0451905,304.94965,-20.618994,-46.337307,FKL
2333987613000,2.214924,-3.76717332086674,1.20574800621885,9.68800946725894,-0.9969321,-1.6019942,-0.87689704,305.32373,-20.307404,-45.827194,FKL
2333992642000,2.219953,-4.49142916140026,1.50119594726801,11.1221305775144,-0.95722586,-1.9089539,-0.71776664,305.36224,-20.31654,-44.994724,FKL
2333997633000,2.224944,-5.31034012798666,1.79334795478792,12.5784644421189,-0.97097033,-2.293799,-0.6038403,305.41232,-20.335196,-44.08723,FKL
2334002666000,2.229977,-7.61817488255916,1.88713453543675,14.1448931311715,-1.0158689,-2.7275133,-0.5564982,305.56537,-20.29912,-43.029736,FKL
2334007631000,2.234942,-10.475087809816,1.9010255601227,15.7284651104295,-1.0998629,-2.9196305,-0.65179324,305.72482,-20.219984,-41.97825,FKL
2334012749000,2.24006,-12.9397129712718,1.56424993515171,16.8730808708844,-1.2009611,-2.5778513,-0.7996226,305.91162,-20.030565,-40.95071,FKL
2334017671000,2.244982,-15.0800007683452,1.07228809131698,17.7403537940607,-1.2825116,-1.6197093,-0.8353582,305.98468,-19.80894,-40.07617,FKL
2334022656000,2.249967,-16.2844439951546,0.412072771305359,16.741703793197,-1.2195925,-0.21319197,-0.7144069,306.16315,-19.333435,-39.657085,FKL
2334027648000,2.254959,-17.2619965052815,-0.287502799722841,15.2962234854153,-1.056186,1.2125676,-0.3567453,306.0913,-18.914177,-39.482067,FKL
2334032668000,2.259979,-17.9022086982358,-1.39989144800371,12.4782268201795,-0.8552113,2.489276,0.0870483,305.914,-18.386335,-39.7862,FKL
2334037640000,2.264951,-18.4180102259362,-2.64272842303312,9.21639425771175,-0.57451874,3.372587,0.35246924,305.51306,-17.974766,-40.321404,FKL
2334042638000,2.269949,-18.3864339201782,-4.57040349654724,5.93413267904214,-0.25717425,3.8298197,0.559858,304.9731,-17.61389,-41.23817,FKL
2334048394000,2.275705,-18.1920105153146,-6.98534451577873,2.15311223018378,0.048258353,3.9391646,0.691194,304.28662,-17.369402,-42.237495,FKL
2334052661000,2.279972,-17.2991738053019,-8.13648050568483,1.8876633197349,0.19456059,3.9358048,0.6973027,303.61548,-17.115885,-43.579987,FKL
2334057661000,2.284972,-15.9780731671085,-9.25071889547374,2.50825168497791,0.19211712,3.8111882,0.5699373,302.94373,-16.904795,-44.88459,FKL
2334062734000,2.290045,-14.3862161148862,-9.37133165602933,3.9043121549897,0.0870483,3.535077,0.26847526,302.4753,-16.552114,-46.40776,FKL
2334067698000,2.295009,-12.6767029948019,-8.87948843401135,5.73320460107478,-0.032986723,3.1065552,-0.1600467,302.15497,-16.149038,-47.86094,FKL
2334072661000,2.299972,-10.9675342568932,-8.38774429402843,7.56172861596605,-0.13775012,2.5466971,-0.58459806,302.1373,-15.556892,-49.09743,FKL
2334077658000,2.304969,-9.2466565250113,-7.8926313648536,9.40277929144694,-0.17837265,1.8826867,-0.9025534,302.3694,-14.89387,-50.210754,FKL
2334082697000,2.310008,-6.58826214375892,-6.12406729331022,10.501715504691,-0.15241088,1.1658363,-1.031446,302.8532,-14.170416,-51.179955,FKL
2334087659000,2.31497,-3.44319225925964,-3.65744090077504,11.1510832250663,-0.118202426,0.44165558,-0.87598073,303.4934,-13.446657,-51.95386,FKL
2334092641000,2.319952,-0.894240138261312,-1.51619412392476,10.6743832449924,-0.077579886,-0.3109304,-0.59437186,304.14322,-12.86475,-51.863834,FKL
2334097665000,2.324976,1.37080566533808,0.474893751459075,9.62747231708185,0.04062254,-0.8961393,-0.3359759,304.8029,-12.343642,-51.599262,FKL
2334102658000,2.329969,2.50166234186046,1.92204289534884,8.38816944186047,0.22357668,-1.2409728,-0.112704635,305.0762,-12.234203,-50.785862,FKL
2334107661000,2.334972,3.16008300784163,3.14679739196617,7.06211914751105,0.48197266,-1.3448198,0.08582657,305.27304,-12.206686,-49.868332,FKL
2334112740000,2.340051,3.06642331295794,3.99180673290366,5.6229953334464,0.768163,-1.3530666,0.23579398,305.39456,-12.308558,-48.983665,FKL
2334118341000,2.345652,2.46337958067455,4.66243289767397,3.97502257053693,0.99387777,-1.276403,0.40591997,305.42612,-12.493274,-48.070587,FKL
2334122662000,2.349973,1.77517580645782,4.85057835482704,3.03636237737381,1.0613784,-1.0326678,0.643852,305.21896,-12.916881,-47.24707,FKL
2334127660000,2.354971,0.837477006771973,4.85902613038299,2.16202164295799,0.97097033,-0.659429,0.85154617,304.93872,-13.384345,-46.45809,FKL
2334132630000,2.359941,-0.233474720882146,4.75669795579222,1.51170092766,0.77549344,-0.2883284,1.0033462,304.48285,-13.99953,-45.88473,FKL
2334137660000,2.364971,-1.66607957817141,4.3743472032553,1.40522351441776,0.5299256,0.005497787,1.0626001,303.95065,-14.616084,-45.36893,FKL
2334142609000,2.36992,-3.12472660571309,3.96450331498378,1.47803089732134,0.32467487,0.09315695,1.0742066,303.3432,-15.256962,-45.061028,FKL
2334147671000,2.374982,-4.73777880110913,3.46232680254264,1.99035238446165,0.19883664,0.13958271,1.0644327,302.68842,-15.877516,-44.807228,FKL
2334152593000,2.379904,-6.26251950248902,2.91632981355783,2.56878269935578,0.16340645,0.081855945,1.039998,302.0294,-16.474436,-44.631565,FKL
2334157668000,2.384979,-7.76162397540263,2.25691358954612,3.29935894362128,0.14385876,-0.047036625,1.0005972,301.3968,-17.041286,-44.448715,FKL
2334162690000,2.390001,-9.09719398713469,1.61075623710292,3.99035992865311,0.15027285,-0.19975294,0.9251554,300.81958,-17.566488,-44.267097,FKL
2334167676000,2.394987,-10.1438101095934,0.981269809123253,4.61605430406607,0.18051068,-0.39400807,0.81306165,300.3273,-18.061895,-44.0557,FKL
2334172644000,2.399955,-11.1866478344981,0.354055895324015,5.23948985501906,0.20738874,-0.57787853,0.7012733,300.0688,-18.29945,-44.014606,FKL
2334177655000,2.404966,-12.1577852064284,-0.239100869539828,5.89863527539429,0.21777347,-0.8072584,0.5513059,299.91287,-18.503695,-43.93192,FKL
2334182611000,2.409922,-13.1005946997405,-0.817104847487522,6.55718086760831,0.24801129,-1.0103711,0.43066,299.81982,-18.695833,-43.82167,FKL
2334187998000,2.415309,-13.5319079006267,-1.16517242170994,6.84068660564011,0.24220806,-1.1499538,0.27885997,299.94934,-18.655376,-43.7897,FKL
2334192625000,2.419936,-13.7919696484134,-1.4120107208296,7.00377613572068,0.160963,-1.0958922,0.1518,300.1118,-18.586824,-43.768246,FKL
2334197736000,2.425047,-13.5764114118719,-1.27121493163547,7.07387966399015,0.029321533,-0.956615,0.06261369,300.40268,-18.35245,-43.80034,FKL
2334202600000,2.429911,-13.2551590674384,-1.04174899870936,7.11518364980296,-0.10415252,-0.806953,0.01282817,300.7046,-18.090765,-43.855835,FKL
2334207709000,2.43502,-12.8621192085411,-0.685026800227636,6.82376011877528,-0.2134974,-0.6383542,-0.049785517,301.03857,-17.742466,-43.98042,FKL
2334212658000,2.439969,-12.4653356590161,-0.306075860295363,6.44480907642743,-0.30787608,-0.42821655,-0.077579886,301.33655,-17.378273,-44.14841,FKL
2334217700000,2.445011,-12.0228407642209,0.136633314657873,5.86873513248145,-0.3659083,-0.23579398,-0.110872045,301.59924,-17.034258,-44.310276,FKL
2334222656000,2.449967,-11.5679740383347,0.601282124295136,5.2035536723413,-0.3494149,-0.043676864,-0.09468412,301.813,-16.700085,-44.516907,FKL
2334227676000,2.454987,-11.232628569193,0.955037882658539,4.66668971445728,-0.26389378,0.16646078,-0.02321288,301.91885,-16.468025,-44.75244,FKL
2334232676000,2.459987,-10.9494455103266,1.26000394580111,4.18745725153307,-0.14782938,0.36835176,0.019547688,301.99686,-16.248241,-45.030743,FKL
2334237698000,2.465009,-10.6373112911351,1.52080513502703,3.93638544622703,-0.03848451,0.5305365,0.03634648,301.95972,-16.158762,-45.350887,FKL
2334242658000,2.469969,-10.3035204500541,1.73648523881081,3.90043879801081,0.033292156,0.591623,0.076052725,301.88184,-16.09982,-45.682743,FKL
2334247720000,2.475031,-9.89586298531859,1.88269129411765,3.99877575977293,0.03940081,0.6795876,0.1001819,301.71637,-16.130695,-46.06564,FKL
2334252765000,2.480076,-9.45607694881081,1.99145555882353,4.16428671974161,0.035430185,0.7351763,0.1328632,301.52795,-16.182825,-46.44253,FKL
2334257710000,2.485021,-9.02493690454284,1.98699737584819,4.33014310178263,-0.022296581,0.7620544,0.1704314,301.28946,-16.273283,-46.78328,FKL
2334262663000,2.489974,-8.59305846981024,1.91880599657849,4.49834833941921,-0.1001819,0.71593404,0.20341812,301.04437,-16.363897,-47.108284,FKL
2334267661000,2.494972,-8.23822117472714,1.7955142589857,4.64485212239368,-0.16737708,0.61911196,0.20799962,300.78226,-16.470406,-47.34637,FKL
2334272659000,2.49997,-7.9544906212834,1.62437522411554,4.77095465329319,-0.18387043,0.4810564,0.204029,300.52948,-16.5756,-47.55276,FKL
2334277639000,2.50495,-7.69391327679728,1.44090714592758,4.91130839450993,-0.19456059,0.29565877,0.19028452,300.31042,-16.663292,-47.649864,FKL
2334282663000,2.509974,-7.46399664160561,1.23653688652437,5.07480473007327,-0.18509217,0.086437434,0.17531833,300.12683,-16.749037,-47.70279,FKL
2334287657000,2.514968,-7.24599141113092,1.07523318604872,5.29847627112299,-0.16737708,-0.124005646,0.16737708,299.996,-16.813223,-47.65908,FKL
2334292640000,2.519951,-7.0380557261636,0.952362147029115,5.57729910347594,-0.14905111,-0.3585779,0.1695151,299.91226,-16.876677,-47.556145,FKL
2334297792000,2.525103,-6.91339372901394,0.860321598113546,5.84369335856574,-0.116980694,-0.5928447,0.18570304,299.88794,-16.916801,-47.365334,FKL
2334302663000,2.529974,-6.87622358406375,0.804566278804781,6.07600706772908,-0.070554934,-0.79717916,0.20066923,299.90002,-16.961374,-47.125065,FKL
2334307683000,2.534994,-6.93849849905437,0.73044098392435,6.10110511111111,-0.019242255,-0.93859446,0.20219639,299.9437,-16.99437,-46.786976,FKL
2334312737000,2.540048,-7.1032686008227,0.638902094785816,5.90887341333333,0.027183503,-1.0167851,0.20005837,300.00458,-17.034428,-46.41833,FKL
2334317749000,2.54506,-7.24331524891028,0.598037345871776,5.73682807186705,0.087659165,-1.0198395,0.18570304,300.0815,-17.070087,-46.004597,FKL
2334322655000,2.549966,-7.34571351970578,0.63217015923538,5.5960302379041,0.13927728,-0.95142263,0.16218472,300.15814,-17.106583,-45.600193,FKL
2334327617000,2.554928,-7.44941982875343,0.689308185074135,5.5064419036793,0.1872302,-0.8213083,0.13439035,300.24124,-17.125235,-45.28044,FKL
2334332667000,2.559978,-7.55565363655134,0.859282033509061,5.67641586304228,0.21105394,-0.65057147,0.09865474,300.31296,-17.140219,-44.9999,FKL
2334337695000,2.565006,-7.68689767088949,1.0159159393531,5.86157376657682,0.24281894,-0.5687156,0.07452556,300.38367,-17.167444,-44.770847,FKL
2334342645000,2.569956,-7.86030887468233,1.14825620023104,6.07149284050828,0.2855795,-0.4092797,0.06719518,300.41742,-17.196072,-44.61316,FKL
2334347676000,2.574987,-8.01423765730642,1.31565532087978,6.21541127984333,0.30695978,-0.25717425,0.040927973,300.43735,-17.236963,-44.46817,FKL
2334352662000,2.579973,-8.11015007990359,1.56502737927086,6.18184198451341,0.32925636,-0.12217305,-0.00061086525,300.44122,-17.280018,-44.36642,FKL
2334357710000,2.585021,-8.14806017062052,1.85050738284492,6.12602664424598,0.35185838,0.020158553,-0.040011674,300.4164,-17.337662,-44.29377,FKL
2334362741000,2.590052,-8.04496576484324,2.21357872532329,6.01844983230068,0.364992,0.19608775,-0.08735373,300.38202,-17.385824,-44.27291,FKL
2334367661000,2.594972,-7.93325096374589,2.53189765555113,5.93233259763019,0.34513888,0.3894266,-0.103847094,300.29474,-17.47821,-44.29351,FKL
2334373188000,2.600499,-7.73297439802848,2.63730645545156,5.96659039430947,0.28619036,0.5897904,-0.09468412,300.18665,-17.558708,-44.364017,FKL
2334377633000,2.604944,-7.57190522223439,2.72207977109429,5.99414167099472,0.15454891,0.75228053,-0.047647487,299.9896,-17.710306,-44.443516,FKL
2334382670000,2.609981,-7.38938431369113,2.81814348108135,6.02536231906303,-0.02443461,0.8417723,0.002443461,299.7716,-17.83964,-44.55211,FKL
2334387627000,2.614938,-7.21666110717634,2.88300568124775,6.04612148474576,-0.22785273,0.7974846,0.021685716,299.54874,-17.938416,-44.662563,FKL
2334392636000,2.619947,-7.09556771932023,2.71866478067075,5.98989970466102,-0.3857614,0.64904433,0.043676864,299.31564,-18.019447,-44.75852,FKL
2334397633000,2.624944,-6.97476443341147,2.55471758957807,5.93381261440678,-0.5006041,0.43860126,0.058643065,299.0455,-18.135649,-44.73573,FKL
2334402660000,2.629971,-7.00393627623727,2.33862209010688,5.80324995417659,-0.56107974,0.21013765,0.074830994,298.80646,-18.231297,-44.667965,FKL
2334407714000,2.635025,-7.05052073591004,2.11550740887493,5.66349677997062,-0.5858198,0.01282817,0.09254608,298.60202,-18.310028,-44.554504,FKL
2334412772000,2.640083,-7.09714206496125,1.89221614301201,5.5236329977914,-0.5693264,-0.14844026,0.1151481,298.44913,-18.35503,-44.398285,FKL
2334418087000,2.645398,-7.15127645635571,1.65772440121186,5.38083617021796,-0.537256,-0.2742785,0.13927728,298.32254,-18.398376,-44.20294,FKL
2334422658000,2.649969,-7.31157054681779,1.45926493156059,5.3503039625109,-0.49327368,-0.36163223,0.14630222,298.22244,-18.446205,-43.97791,FKL
2334427622000,2.654933,-7.48564621189189,1.24374254972973,5.31714669297297,-0.4279111,-0.3744604,0.1301143,298.1917,-18.413454,-43.834156,FKL
2334432669000,2.65998,-7.7222496920977,0.98939012033046,5.33158448505747,-0.37232238,-0.35430184,0.11178834,298.16812,-18.38756,-43.6792,FKL
2334437647000,2.664958,-7.98644917456897,0.720297903479064,5.37072513399015,-0.30879238,-0.33933565,0.05681047,298.16577,-18.36416,-43.52966,FKL
2334443234000,2.670545,-8.21868594819313,0.56801406349623,5.31628429993145,-0.2770274,-0.23640485,0.009162978,298.18103,-18.289814,-43.45826,FKL
2334447700000,2.675011,-8.3862311463128,0.488430271524826,5.24507786408775,-0.183565,-0.18906279,-0.012217305,298.2117,-18.23481,-43.381615,FKL
2334452662000,2.679973,-8.47632590665929,0.456728539334071,5.17202876401033,-0.16615535,-0.07269296,-0.045814894,298.2675,-18.102175,-43.397987,FKL
2334457696000,2.685007,-8.52079151374285,0.452281978625715,5.10088351409334,-0.12156218,0.040927973,-0.081855945,298.32233,-17.990232,-43.428528,FKL
2334462717000,2.690028,-8.51638789267462,0.476234056420358,5.03216928775554,-0.09132435,0.12308934,-0.1133155,298.38474,-17.858109,-43.51973,FKL
2334467668000,2.694979,-8.46590371805792,0.526718267937606,4.96653991346891,-0.060170226,0.17959438,-0.12339478,298.4365,-17.734283,-43.633213,FKL
2334472656000,2.699967,-8.43525596459921,0.586086363817884,4.9445042938555,-0.048258353,0.21105394,-0.13255776,298.49466,-17.61071,-43.775826,FKL
2334477655000,2.704966,-8.41678420873927,0.65073789509019,4.94912220871033,-0.024740042,0.19822577,-0.14202617,298.5538,-17.495699,-43.91966,FKL
2334482663000,2.709974,-8.39076801994247,0.687525674841802,4.96635380239693,0.0036651916,0.17134771,-0.13927728,298.6044,-17.398048,-44.065567,FKL
2334487662000,2.714973,-8.35863734285714,0.701295882857143,4.99389431428571,0.013439035,0.118202426,-0.13744467,298.66455,-17.301216,-44.199364,FKL
2334492636000,2.719947,-8.29934004364488,0.734386320728124,5.03904570960187,0.020158553,0.08155051,-0.12858713,298.71313,-17.228031,-44.31793,FKL
2334497625000,2.724936,-8.2077902472855,0.790333255637641,5.10516456440281,0.0012217305,0.056199603,-0.11178834,298.76428,-17.155394,-44.42201,FKL
2334502620000,2.729931,-8.06084470163803,0.830670318705658,5.16645169697518,-0.032070424,0.019242255,-0.0852157,298.81357,-17.088852,-44.500835,FKL
2334507719000,2.73503,-7.86946182504271,0.860113874444779,5.22533912614813,-0.053450707,-0.030543262,-0.052534413,298.8599,-17.02718,-44.5652,FKL
2334512968000,2.740279,-7.69586060309432,0.911976415917882,5.28546293257959,-0.07727446,-0.077579886,-0.025045475,298.8955,-16.97372,-44.595528,FKL
2334517622000,2.744933,-7.55440909739165,0.969441061261529,5.33850722413964,-0.106901415,-0.12339478,0.0012217305,298.9267,-16.922607,-44.608727,FKL
2334522621000,2.749932,-7.43231072811014,0.998690386450079,5.39814421097464,-0.13347405,-0.15424347,0.04642576,298.92267,-16.887222,-44.576893,FKL
2334527633000,2.754944,-7.33247135053487,1.00344463779715,5.45994927991284,-0.15088372,-0.18173242,0.07422013,298.9216,-16.85012,-44.53341,FKL
2334532627000,2.759938,-7.29051857616409,0.985016506401283,5.50805823382911,-0.14782938,-0.19486602,0.08857546,298.8933,-16.832281,-44.454067,FKL
2334537649000,2.76496,-7.29519396199086,0.947614176480023,5.54546063697871,-0.14019357,-0.20250183,0.0983493,298.86005,-16.816381,-44.3679,FKL
2334542634000,2.769945,-7.31873679640659,0.914810340614453,5.5994744411356,-0.13194689,-0.21960606,0.11301007,298.8167,-16.805708,-44.254543,FKL
2334547677000,2.774988,-7.36188363112964,0.886045692356561,5.67138619944411,-0.116675265,-0.21685717,0.12339478,298.7695,-16.798237,-44.14597,FKL
2334552674000,2.779985,-7.41677486023529,0.882508364917647,5.71659211670588,-0.10476339,-0.20555615,0.12370021,298.72418,-16.784521,-44.03211,FKL
2334557756000,2.785067,-7.48548445684706,0.905411587703529,5.73491458014118,-0.09193522,-0.19425514,0.1282817,298.67325,-16.776117,-43.919662,FKL
2334562593000,2.789904,-7.55358042111006,0.921120806541811,5.72686311453153,-0.069027774,-0.16065755,0.12675454,298.6237,-16.760021,-43.816433,FKL
2334567606000,2.794917,-7.62913697144056,0.926157895871367,5.67145523709999,-0.057421334,-0.10995574,0.11026118,298.57355,-16.741291,-43.724087,FKL
2334572562000,2.799873,-7.71846674083309,0.947515437617493,5.62217418007322,-0.03726278,-0.04795292,0.094989546,298.51648,-16.728771,-43.65302,FKL
2334577614000,2.804925,-7.82856725065796,0.990598270802414,5.57909127191056,-0.032986723,0.018936822,0.086437434,298.45477,-16.7128,-43.59913,LYI
2334582528000,2.809839,-7.91648795848494,1.03840231928621,5.55260955959837,-0.03145956,0.0693332,0.058643065,298.40247,-16.69328,-43.57926,LYI
2334587604000,2.814915,-7.97931257954071,1.09639442080724,5.54777678775226,-0.028099801,0.11301007,0.03726278,298.3424,-16.674318,-43.575573,LYI
2334592546000,2.819857,-8.00837453976722,1.14118196774976,5.53755853976722,-0.028099801,0.14874569,0.016798794,298.2861,-16.656015,-43.605587,LYI
2334597606000,2.824917,-7.98957401406402,1.16938295261882,5.51875801406402,-0.016493361,0.15057829,0.0061086523,298.23334,-16.638416,-43.638496,LYI
2334602591000,2.829902,-7.94364498200914,1.20202480757561,5.51633110473597,-0.004276057,0.14294247,0.0027488936,298.1767,-16.627817,-43.68613,LYI
2334607716000,2.835027,-7.84341118593796,1.24498210602937,5.54496920402606,0.00030543262,0.13347405,-0.019242255,298.13165,-16.612064,-43.735695,LYI
2334612650000,2.839961,-7.7706607347181,1.26658243115727,5.55841830492582,0.00030543262,0.106901415,-0.021685716,298.08984,-16.603004,-43.779987,LYI
2334617708000,2.845019,-7.75149586765579,1.24262622225519,5.53925333780415,0.013133603,0.094989546,-0.025350908,298.05634,-16.592789,-43.826965,LYI
2334622648000,2.849959,-7.739706926906,1.21471447674562,5.52293527146558,0.014660766,0.08155051,-0.036957346,298.0229,-16.588583,-43.847103,LYI
2334627703000,2.855014,-7.74567910445966,1.17440203660868,5.51248393736121,0.015577064,0.08093964,-0.03970624,297.98804,-16.587744,-43.866333,LYI
2334632647000,2.859958,-7.75152014220947,1.13497479545398,5.50226209842709,-0.0015271631,0.07269296,-0.04428773,297.9639,-16.577347,-43.882244,LYI
2334637687000,2.864998,-7.75747459816802,1.09478197680113,5.49184177718357,-0.008857546,0.0711658,-0.04795292,297.9399,-16.568724,-43.89944,LYI
2334642673000,2.869984,-7.76336525638416,1.05501979549099,5.48153310223908,-0.0067195175,0.07544186,-0.04153884,297.9049,-16.565588,-43.908867,LYI
2334647787000,2.875098,-7.76940713887861,1.01423684418332,5.4709597842154,-0.015882496,0.073303826,-0.034513887,297.87274,-16.558102,-43.91623,LYI
2334652616000,2.879927,-7.77511231106588,0.975726701073279,5.46097571054774,-0.020463986,0.055283304,-0.03970624,297.84634,-16.551603,-43.919342,LYI
2334657805000,2.885116,-7.78028320302205,0.930054321654199,5.46073801972752,-0.027183503,0.048258353,-0.022907447,297.80853,-16.548779,-43.92125,LYI
2334662856000,2.890167,-7.78507621040377,0.884521669891503,5.46313442332425,-0.043982297,0.035124753,-0.012217305,297.7791,-16.540642,-43.917973,LYI
2334667741000,2.895052,-7.78971169665593,0.840485438677731,5.46545206964578,-0.044593163,0.020463986,-0.0027488936,297.76022,-16.512402,-43.923946,LYI
2334672667000,2.899978,-7.79438608872925,0.796079609617538,5.4677891680654,-0.051618114,-0.002443461,0.0106901415,297.7394,-16.483025,-43.922256,LYI
2334677693000,2.905004,-7.81298060776847,0.778314301369002,5.47534037018279,-0.04428773,-0.019242255,0.018936822,297.72342,-16.455217,-43.91995,LYI
2334682707000,2.910018,-7.83583765041889,0.769171450894897,5.48448309177456,-0.050396383,-0.046731193,0.036957346,297.70416,-16.42852,-43.90607,LYI
2334687696000,2.915007,-7.84018591346931,0.769363552918013,5.46819595139338,-0.03359759,-0.05375614,0.03145956,297.6991,-16.386456,-43.899323,LYI
2334692695000,2.920006,-7.83535196526656,0.774197450646203,5.43919296882068,-0.022296581,-0.06505715,0.03481932,297.68884,-16.34815,-43.881264,LYI
2334698293000,2.925604,-7.84927059336474,0.818188753472988,5.41846739450737,-0.015882496,-0.06658431,0.036957346,297.69574,-16.30397,-43.870674,LYI
2334702677000,2.929988,-7.86610309692292,0.864478379933848,5.40584295092713,-0.0076358155,-0.069027774,0.04520403,297.70044,-16.264967,-43.855907,LYI
2334707722000,2.935033,-7.88460734373009,0.906010789784442,5.38572865173383,0.003970624,-0.06627888,0.052534413,297.7032,-16.231041,-43.84529,LYI
2334712732000,2.940043,-7.9025942297657,0.94198442099344,5.36324516157451,0.010995574,-0.05467244,0.05222898,297.7043,-16.198425,-43.836414,LYI
2334717697000,2.945008,-7.92450595507292,0.98862061514479,5.36187315066582,0.0070249503,-0.034208454,0.049480084,297.69745,-16.177027,-43.833992,LYI
2334722702000,2.950013,-7.94983452403297,1.04434363612344,5.37707032377933,0.004276057,-0.03390302,0.04886922,297.6911,-16.15785,-43.82913,LYI
2334727689000,2.955,-7.9613759872582,1.08132391461842,5.37911568089693,0.014049901,-0.018936822,0.053450707,297.67743,-16.149986,-43.836445,LYI
2334732820000,2.960131,-7.96610489185834,1.10969763849485,5.37438672691752,0.0067195175,-0.013439035,0.043982297,297.6706,-16.135271,-43.84282,LYI
2334737698000,2.965009,-7.97075346165853,1.12476207016473,5.37401382338824,0.011911872,-0.011301007,0.040927973,297.6499,-16.139471,-43.84674,LYI
2334742667000,2.969978,-7.97559252690665,1.13202063014033,5.37643334338011,0.006414085,-0.013744468,0.036651913,297.6334,-16.137772,-43.851948,LYI
2334747685000,2.974996,-7.98047931085011,1.13935076778524,5.37887672259508,0.0061086523,-0.006414085,0.031154128,297.6169,-16.140638,-43.86366,LYI
2334752699000,2.98001,-7.98536219938987,1.14667506235509,5.38131815411836,0.0021380284,-0.009773844,0.023823744,297.60504,-16.140312,-43.872368,LYI
2334757702000,2.985013,-7.97811476035864,1.15517812421786,5.37024281381152,0.0012217305,-0.02321288,0.012217305,297.59644,-16.141745,-43.876778,LYI
2334762677000,2.989988,-7.96448124834033,1.16426717968333,5.3520647977871,-0.0009162979,-0.038789943,0.0061086523,297.5896,-16.14166,-43.879814,LYI
2334768400000,2.995711,-7.94478752361252,1.17175518526123,5.35062764120756,0.0015271631,-0.040927973,0.01038471,297.5823,-16.14448,-43.88294,LYI
2334772700000,3.000011,-7.92804414182761,1.17594101978044,5.35899939766213,0.010995574,-0.04917465,-0.00030543262,297.58615,-16.143797,-43.882774,LYI
2334777683000,3.004994,-7.91726098450621,1.18346344618569,5.35197965002957,0.0143553335,-0.050396383,-0.008857546,297.581,-16.14948,-43.880672,LYI
2334782704000,3.010015,-7.912521766233,1.19294208068204,5.3330222820619,0.018325957,-0.04886922,-0.0033597588,297.57562,-16.157661,-43.87692,LYI
2334787690000,3.015001,-7.90509912927025,1.21045907682438,5.33806277682438,0.015271631,-0.051923547,-0.015882496,297.57962,-16.160479,-43.87055,LYI
2334792698000,3.020009,-7.89548392991179,1.23449707522053,5.36210077522053,0.018020526,-0.0580322,-0.01740966,297.578,-16.16841,-43.86221,LYI
2334797768000,3.025079,-7.88320539801053,1.24229043267018,5.39414433863858,0.03023783,-0.054061573,-0.020158553,297.58093,-16.174608,-43.86299,LYI
2334802701000,3.030012,-7.8693837612639,1.2376832204213,5.43100203662961,0.03268129,-0.051923547,-0.019242255,297.5843,-16.179745,-43.861572,LYI
2334807716000,3.035027,-7.87231488230792,1.23662766188031,5.47725299965436,0.040317107,-0.04062254,-0.02321288,297.5774,-16.191952,-43.858364,LYI
2334812712000,3.040023,-7.89121499305254,1.23899017880703,5.531591036984,0.034208454,-0.040317107,-0.018020526,297.56842,-16.203669,-43.85196,LYI
2334817690000,3.045001,-7.91004700892258,1.24134418386332,5.58573330076042,0.027488936,-0.04062254,-0.023518313,297.5641,-16.214273,-43.838333,LYI
2334822702000,3.050013,-7.9290076484446,1.2437142668971,5.64024535902627,0.011911872,-0.03268129,-0.026572637,297.55594,-16.223085,-43.82658,LYI
2334827682000,3.054993,-7.92630702427497,1.22783063584611,5.66518134439996,0.02565634,-0.031154128,-0.032070424,297.5519,-16.234413,-43.814365,LYI
2334832704000,3.060015,-7.89812934285714,1.19026032857143,5.65578857142857,0.0125227375,-0.04062254,-0.032986723,297.54794,-16.23739,-43.80152,LYI
2334838048000,3.065359,-7.87475942722178,1.1567828545036,5.63641080604484,-0.0018325958,-0.041233405,-0.029932396,297.5479,-16.237196,-43.780605,LYI
2334842686000,3.069997,-7.86142359903923,1.13455642778223,5.60973905684548,-0.008246681,-0.043066,-0.03145956,297.5514,-16.234669,-43.75816,LYI
2334847721000,3.075032,-7.84093387256018,1.11647047687544,5.57478338787334,-0.011911872,-0.03970624,-0.032070424,297.5551,-16.22379,-43.736187,LYI
2334852699000,3.08001,-7.81236141558286,1.10694629139946,5.53192465268205,-0.015271631,-0.046120327,-0.02321288,297.55746,-16.213324,-43.710945,LYI
2334857653000,3.084964,-7.7802071773204,1.08793322014645,5.49900706867208,-0.018325957,-0.055283304,-0.029321533,297.5705,-16.194233,-43.69291,LYI
2334862690000,3.090001,-7.74202117492579,1.05452050543242,5.47991401763309,-0.014049901,-0.051618114,-0.016798794,297.5722,-16.18173,-43.674046,LYI
2334867611000,3.094922,-7.71714091844995,1.03341235000739,5.47453583151312,-0.013439035,-0.058948494,-0.023823744,297.5863,-16.163464,-43.65583,LYI
2334872698000,3.100009,-7.71234337323354,1.03101355235117,5.49132736501059,-0.014049901,-0.06078109,-0.015271631,297.58844,-16.151731,-43.637333,LYI
2334877606000,3.104917,-7.70771464275937,1.02869916294746,5.50752804250332,-0.0143553335,-0.057726767,-0.01160644,297.5967,-16.132797,-43.618767,LYI
2334882687000,3.109998,-7.70292275613767,1.02630319461815,5.52429977077158,-0.022296581,-0.058948494,-0.00030543262,297.5996,-16.115767,-43.597237,LYI
2334887591000,3.114902,-7.6983199791505,1.0232853090768,5.52966206623351,-0.03145956,-0.058643065,-0.0018325958,297.60272,-16.098644,-43.57604,LYI
2334892685000,3.119996,-7.69358906002715,1.01855448875097,5.5107388837277,-0.030848695,-0.056505036,-0.0018325958,297.60086,-16.08462,-43.55409,LYI
2334897694000,3.125005,-7.6889040514536,1.0138695514536,5.50281075517722,-0.039095376,-0.055588737,-0.003970624,297.59692,-16.063946,-43.527412,LYI
2334902698000,3.130009,-7.68413281417762,1.00909831417762,5.52428127309837,-0.03023783,-0.06169739,0.002443461,297.59045,-16.048698,-43.49907,LYI
2334907850000,3.135161,-7.67922046117085,1.00418596117085,5.54638681033453,-0.032070424,-0.070249505,-0.00030543262,297.5873,-16.028513,-43.473194,LYI
2334912729000,3.14004,-7.6745684094783,0.999533909478295,5.56732099437475,-0.027183503,-0.070249505,0.0027488936,297.57922,-16.014034,-43.44718,LYI
2334917665000,3.144976,-7.67044507854171,0.997719864374876,5.58616460729146,-0.025350908,-0.070249505,0.0070249503,297.5728,-15.998371,-43.419647,LYI
2334922708000,3.150019,-7.66805277606499,1.00489677180503,5.59812611967505,-0.015271631,-0.07941248,-0.008857546,297.5739,-15.981904,-43.39213,LYI
2334927625000,3.154936,-7.66572024557163,1.01189436328512,5.60978877214187,-0.006414085,-0.08093964,-0.0030543262,297.57333,-15.96621,-43.357212,LYI
2334932679000,3.15999,-7.66332272490588,1.01908692528235,5.62177637547058,-0.005192355,-0.0842994,0.0061086523,297.5785,-15.94862,-43.32151,LYI
2334937668000,3.164979,-7.66284377847779,1.0251843594926,5.62929777176271,-0.00061086525,-0.08735373,0.004276057,297.58533,-15.932535,-43.28684,LYI
2334942652000,3.169963,-7.66959622182401,1.02743517394134,5.62029456097331,0.009773844,-0.087659165,0.013744468,297.5845,-15.922098,-43.25062,LYI
2334947635000,3.174946,-7.67634731034613,1.02968553678204,5.61129315660662,0.011301007,-0.096516706,0.004581489,297.59332,-15.906121,-43.212795,LYI
2334952682000,3.179993,-7.68318510761105,1.03196480253702,5.60217614118646,0.02443461,-0.096516706,0.005497787,297.59354,-15.898521,-43.176025,LYI
2334958057000,3.185368,-7.68978871287501,1.03410145643751,5.59304864760651,0.028710667,-0.07513642,0.01160644,297.59302,-15.888642,-43.143925,LYI
2334962683000,3.189994,-7.68145573501364,1.02993496750682,5.59721522354933,0.02076942,-0.070554934,0.010995574,297.59677,-15.877727,-43.108894,LYI
2334967664000,3.194975,-7.67248328306217,1.02544874153108,5.60170154321452,0.025045475,-0.07238753,0.013133603,297.59555,-15.87346,-43.082207,LYI
2334972695000,3.200006,-7.69024158204299,1.03624984936275,5.58705657409169,0.021380283,-0.06383542,0.0067195175,297.5953,-15.864093,-43.06108,LYI
2334977619000,3.20493,-7.71266699729884,1.04970514534906,5.56911614822142,0.029321533,-0.052839845,0.006414085,297.59192,-15.859544,-43.03985,LYI
2334982698000,3.210009,-7.72243339346639,1.05697579346639,5.55707061306722,0.018936822,-0.03848451,0.007941248,297.59662,-15.846174,-43.023067,LYI
2334987600000,3.214911,-7.72709484452388,1.06163724452388,5.54774771095224,0.023518313,-0.0036651916,0.002443461,297.59915,-15.836031,-43.01587,LYI
2334992673000,3.219984,-7.73191890433919,1.06646130433919,5.53809959132162,0.0143553335,-0.0021380284,0.0027488936,297.60123,-15.825913,-43.008976,LYI
2334997656000,3.224967,-7.73665738059776,1.07119978059776,5.52862263880449,0.0021380284,0.019242255,0.0061086523,297.59613,-15.815727,-43.01683,LYI
2335002695000,3.230006,-7.74136932984293,1.05274680104712,5.52912659162304,-0.008552114,0.032070424,0.009162978,297.59613,-15.80359,-43.022938,LYI
2335007695000,3.235006,-7.7460120484778,1.0248910224937,5.53376911634671,-0.021380283,0.03359759,-0.0012217305,297.5983,-15.786723,-43.032597,LYI
2335012721000,3.240032,-7.73194392436975,1.02769599327731,5.55108707563025,-0.02321288,0.034208454,0.002443461,297.59247,-15.776398,-43.046978,LYI
2335017711000,3.245022,-7.70804024689876,1.04681898517407,5.57499075310124,-0.024740042,0.027183503,0.0012217305,297.59305,-15.7607355,-43.06095,LYI
2335023360000,3.250671,-7.67625165735095,1.05097497241868,5.59935787282075,-0.03940081,0.021991149,-0.00061086525,297.5878,-15.739682,-43.072624,LYI
2335027657000,3.254968,-7.65048353554362,1.04826253630821,5.6169887004581,-0.032986723,0.011911872,0.0012217305,297.58344,-15.723375,-43.080555,LYI
2335032670000,3.259981,-7.6204217262301,1.04509813271924,5.63755731552582,-0.019547688,-0.0021380284,-0.0030543262,297.58032,-15.707572,-43.07918,LYI
2335037703000,3.265014,-7.59023998151139,1.04192110434038,5.65820799169495,-0.021685716,-0.010995574,-0.005192355,297.57648,-15.690939,-43.076065,LYI
2335042679000,3.26999,-7.56040005269749,1.03878005661273,5.67862479372508,-0.015882496,-0.014966198,0.010079277,297.56998,-15.683291,-43.066566,LYI
2335047780000,3.275091,-7.52981052760109,1.03556010394819,5.69955447763899,-0.017715093,-0.027488936,0.0125227375,297.57132,-15.670772,-43.054237,LYI
2335052693000,3.280004,-7.50674451070791,1.04810581256197,5.70501480557208,0.0012217305,-0.014660766,0.006414085,297.56717,-15.665011,-43.04718,LYI
2335057673000,3.284984,-7.48783028703153,1.07174876497125,5.70028612621456,-0.0009162979,-0.014660766,0.013439035,297.56097,-15.657781,-43.03212,LYI
2335062659000,3.28997,-7.47703236661767,1.0846327821422,5.685932089289,0.005497787,-0.015882496,0.01863139,297.56332,-15.647884,-43.003067,LYI
2335067687000,3.294998,-7.47260896444975,1.08905609193459,5.66381554032703,0.008552114,-0.010079277,0.025045475,297.5615,-15.638571,-42.97571,LYI
2335072688000,3.299999,-7.47758398670538,1.09367473665872,5.65415355345847,0.011911872,-0.002443461,0.024740042,297.55743,-15.635992,-42.94643,LYI
2335077701000,3.305012,-7.49749843202323,1.09865332199523,5.66411093207508,0.0106901415,-0.00030543262,0.014049901,297.5548,-15.632093,-42.918423,LYI
2335082699000,3.31001,-7.51724833849308,1.11036473849308,5.67398592209124,0.010995574,0.004581489,0.016493361,297.5439,-15.631415,-42.898796,LYI
2335087693000,3.315004,-7.5368594258124,1.1299758258124,5.68379136336238,0.010995574,-0.01160644,0.015577064,297.542976834006,-15.6296033453129,-42.8880291665572,LYI
2335093356000,3.320667,-7.55863334966927,1.15174978128147,5.68256858838977,0.013439035,-0.013439035,0.013439035,297.54193,-15.627549,-42.87582,LYI
2335097751000,3.325062,-7.57525494548327,1.16837142048573,5.6742578772633,-0.005497787,-0.016798794,0.00580322,297.53027,-15.623134,-42.85527,LYI
2335102691000,3.330002,-7.59849798387989,1.18250299624654,5.65808061667325,-0.003970624,-0.005192355,0.003970624,297.5192,-15.626248,-42.83549,LYI
2335107697000,3.335008,-7.62691074239431,1.1919738498222,5.63440318605294,-0.005497787,0.004581489,0.0033597588,297.51126,-15.623461,-42.8156,LYI
2335112660000,3.339971,-7.65276858674436,1.19186259568827,5.61215645005098,-0.022296581,0.0033597588,0.0015271631,297.50403,-15.62126,-42.80009,LYI
2335117710000,3.345021,-7.67625139325079,1.18012116791454,5.59102187515416,-0.018325957,0.0067195175,-0.005192355,297.49686,-15.621683,-42.789345,LYI
2335122646000,3.349957,-7.69920409283807,1.16864479415392,5.57036439759165,-0.0125227375,0.0143553335,-0.0036651916,297.488,-15.622904,-42.786217,LYI
2335127728000,3.355039,-7.72283570128672,1.1568289652537,5.54909590063608,-0.017715093,0.01985312,-0.00580322,297.48288,-15.620516,-42.784657,LYI
2335132625000,3.359936,-7.74284201612142,1.13965276775715,5.53061205045636,-0.02107485,0.0290161,-0.0076358155,297.47012,-15.621243,-42.78496,LYI
2335137679000,3.36499,-7.75773314950261,1.10987050099477,5.5157211243975,-0.022296581,0.03176499,-0.013439035,297.46002,-15.619977,-42.785748,LYI
2335142609000,3.36992,-7.77372614761487,1.09002206762267,5.50406308332846,-0.0061086523,0.04550946,-0.01038471,297.4495,-15.619078,-42.8049,LYI
2335147683000,3.374994,-7.79268734556629,1.08528178050922,5.49695260316067,-0.020158553,0.05375614,-0.01740966,297.4453,-15.608623,-42.824673,LYI
2335152650000,3.379961,-7.81124869168861,1.08064145609209,5.48999206808116,-0.01740966,0.070554934,-0.021685716,297.43912,-15.600506,-42.854362,LYI
2335157696000,3.385007,-7.83010525551653,1.07592732744123,5.4829208258804,-0.012217305,0.070249505,-0.0143553335,297.43262,-15.591196,-42.88057,LYI
2335162663000,3.389974,-7.84723059485531,1.06750152252695,5.48048383207868,-0.015577064,0.07269296,-0.008857546,297.41522,-15.5808115,-42.91183,LYI
2335167700000,3.395011,-7.86091633440514,1.049253568101,5.4896077854738,-0.014660766,0.08032878,-0.01038471,297.39743,-15.572473,-42.94371,LYI
2335172671000,3.399982,-7.872938490833,1.03188467783978,5.49467657783978,-0.02321288,0.06658431,-0.01282817,297.38376,-15.560583,-42.977028,LYI
2335177696000,3.405007,-7.87773367068553,1.01749943870068,5.48029133870068,-0.030543262,0.06169739,-0.016493361,297.36914,-15.548693,-43.014168,LYI
2335182671000,3.409982,-7.8794312256082,1.0063249581306,5.47215789065301,-0.036957346,0.04337143,-0.015882496,297.35992,-15.531083,-43.04435,LYI
2335187693000,3.415004,-7.86522024670541,1.0110619510982,5.49584285549099,-0.029626964,0.034513887,-0.010079277,297.3497,-15.51538,-43.074814,LYI
2335192648000,3.419959,-7.84473605372901,1.01278562963686,5.51741852288169,-0.02321288,0.020463986,-0.015271631,297.3613,-15.490417,-43.10595,LYI
2335197703000,3.425014,-7.77857536103085,0.993882574580242,5.52686995171808,-0.01282817,0.010079277,-0.017715093,297.37036,-15.4698925,-43.134132,LYI
2335202639000,3.42995,-7.71854284611822,0.979015623290706,5.53575756147417,-0.0143553335,-0.00061086525,-0.011301007,297.3786,-15.449399,-43.152092,LYI
2335207701000,3.435012,-7.71366138789649,1.00830437262109,5.54063912163931,-0.011911872,-0.008857546,-0.00580322,297.38898,-15.43148,-43.167942,LYI
2335212677000,3.439988,-7.70890433542823,1.03472036679205,5.54539626457177,-0.0036651916,-0.006414085,-0.004276057,297.39453,-15.410734,-43.17536,LYI
2335217667000,3.444978,-7.70451989283912,1.03910483227212,5.54978070716088,0.00030543262,-0.011301007,0.0009162979,297.39868,-15.391854,-43.177547,LYI
2335223029000,3.45034,-7.6998085940089,1.0438161556998,5.5544920059911,-0.00580322,-0.006414085,0.007941248,297.38788,-15.381503,-43.17863,LYI
2335227645000,3.454956,-7.69575276495252,1.04787200593146,5.55854783504748,0.0036651916,0.0012217305,0.009773844,297.37753,-15.375145,-43.179195,LYI
2335232826000,3.460137,-7.69120050101381,1.05242429363732,5.56310009898619,0.0012217305,-0.009162978,0.0070249503,297.36838,-15.365662,-43.176044,LYI
2335237655000,3.464966,-7.69722580273312,1.05697370136656,5.5817491068328,-0.004581489,-0.01740966,0.008857546,297.35577,-15.358659,-43.17488,LYI
2335242613000,3.469924,-7.70676795996785,1.06174477998392,5.60560449991961,-0.009162978,-0.029626964,0.0061086523,297.34814,-15.349867,-43.170795,LYI
2335247679000,3.47499,-7.72021221690584,1.05758427260788,5.60293975257847,-0.005192355,-0.030848695,0.012217305,297.33502,-15.345459,-43.163506,LYI
2335252598000,3.479909,-7.73454463793925,1.05041803714822,5.59099606838396,-0.012217305,-0.03268129,0.0033597588,297.33038,-15.334239,-43.15498,LYI
2335257679000,3.48499,-7.74934907609148,1.04301579230769,5.57865903659044,-0.002443461,-0.041233405,0.004581489,297.32275,-15.328369,-43.142803,LYI
2335262698000,3.490009,-7.76397286571675,1.03570387204503,5.56647254523604,-0.01038471,-0.036957346,0.0033597588,297.3178,-15.315214,-43.135075,LYI
2335267670000,3.494981,-7.77447063307969,1.03813525663797,5.54876413384061,-0.0070249503,-0.032070424,0.004886922,297.31256,-15.307089,-43.125233,LYI
2335272627000,3.499938,-7.78397647961554,1.04288822953544,5.52975244076892,-0.016187929,-0.020463986,0.015271631,297.30304,-15.296386,-43.11789,LYI
2335277646000,3.504957,-7.80072701449695,1.04756777291969,5.51103423113946,-0.01863139,-0.007941248,0.010995574,297.29324,-15.284036,-43.120834,LYI
2335282672000,3.509983,-7.81933443519861,1.05221965238233,5.49242661613994,-0.018020526,0.003970624,0.0070249503,297.27835,-15.272626,-43.12567,LYI
2335287658000,3.514969,-7.81388451376997,1.0499932745216,5.49269329723811,-0.005192355,0.019547688,0.0070249503,297.26946876568,-15.2675949683894,-43.1344771823382,LYI
2335292637000,3.519948,-7.799774416739,1.04528986791774,5.49974841942198,-0.014660766,0.03573562,0.004581489,297.2606,-15.262571,-43.143272,LYI
2335297756000,3.525067,-7.7852675706451,1.04045421047544,5.50700191820872,-0.0143553335,0.038179077,0.00580322,297.24573,-15.252014,-43.156036,LYI
2335302660000,3.529971,-7.77137001775498,1.03582165253502,5.51395076721247,-0.014049901,0.042760566,-0.0027488936,297.23734,-15.239316,-43.185974,LYI
2335307660000,3.534971,-7.73880961550269,1.03740410130468,5.53489441304682,-0.005497787,0.041233405,-0.005192355,297.22693,-15.229234,-43.214622,LYI
2335312666000,3.539977,-7.69741723749041,1.04200329176899,5.56248926768995,-0.01038471,0.03145956,-0.0009162979,297.218,-15.216331,-43.24181,LYI
2335317664000,3.544975,-7.68330657611599,1.04928703914536,5.58994646089279,-0.01863139,0.02443461,-0.00061086525,297.2119,-15.198743,-43.26683,LYI
2335322655000,3.549966,-7.68786579082411,1.05840527813812,5.61730108265929,-0.019547688,0.020463986,0.0021380284,297.20447,-15.183263,-43.288857,LYI
2335327644000,3.554955,-7.68767287420314,1.06052252647684,5.62615590522737,-0.022296581,0.0076358155,-0.010079277,297.20245,-15.165474,-43.294373,LYI
2335332665000,3.559976,-7.68256385199745,1.05541361096473,5.61593818089673,-0.016798794,-0.010079277,-0.0033597588,297.19385,-15.153738,-43.295162,LYI
2335337661000,3.564972,-7.69514093311865,1.05199460668813,5.60764598969532,-0.009162978,-0.022907447,-0.010079277,297.19464,-15.137388,-43.292645,LYI
2335342640000,3.569951,-7.71876386460243,1.04963231353976,5.60055906091652,-0.00580322,-0.03573562,-0.0012217305,297.18976,-15.125911,-43.283333,LYI
2335348415000,3.575726,-7.74616342863512,1.04689235713649,5.592339134486,-0.016798794,-0.028710667,-0.0015271631,297.1834,-15.108153,-43.281647,LYI
2335352661000,3.579972,-7.76630863190488,1.04487783680951,5.58629553143423,-0.013744468,-0.02687807,-0.002443461,297.1767,-15.095629,-43.274593,LYI
2335357669000,3.58498,-7.78697509005657,1.05448003467255,5.58062604671589,-0.004581489,-0.027794369,-0.007330383,297.1678,-15.0842905,-43.26563,LYI
2335362685000,3.589996,-7.80539966752325,1.07290451594592,5.57602002259085,-0.0009162979,-0.0143553335,-0.0009162979,297.15295,-15.074577,-43.26025,LYI
2335367657000,3.594968,-7.82124546067857,1.07341784675203,5.56713038506402,-0.0009162979,-0.0106901415,0.0018325958,297.14948,-15.063143,-43.261345,LYI
2335372662000,3.599973,-7.83468565630433,1.05549771066455,5.55369028299841,0.009162978,-0.0030543262,0.005192355,297.1411,-15.05595,-43.266403,LYI
2335377633000,3.604944,-7.83283379479244,1.04915758420659,5.5502565842066,0.007330383,-0.009773844,-0.0070249503,297.14456,-15.0486965,-43.27025,LYI
2335382679000,3.60999,-7.80189278465479,1.06462803542845,5.56572703542845,-0.007941248,-0.0030543262,0.0036651916,297.13556,-15.046005,-43.277058,LYI
2335387658000,3.614969,-7.77970407934971,1.06220251053064,5.55498159461138,-0.017715093,-0.00030543262,-0.0012217305,297.14066,-15.034907,-43.28842,LYI
2335392637000,3.619948,-7.76663908148689,1.04042746861814,5.51578651007398,-0.017715093,-0.0009162979,-0.009468411,297.1426,-15.024257,-43.299797,LYI
2335397668000,3.624979,-7.75435861446033,1.02329080723016,5.48893752258131,-0.012217305,0.0015271631,-0.004276057,297.14114,-15.018263,-43.30351,LYI
2335402663000,3.629974,-7.74444850134659,1.0183357506733,5.4938926826186,0.00061086525,0.0021380284,-0.0106901415,297.14725,-15.009797,-43.308628,LYI
2335407652000,3.634963,-7.73463022791781,1.00828195583561,5.50051677208219,-0.016798794,-0.0061086523,-0.0012217305,297.15244,-14.999651,-43.311905,LYI
2335412759000,3.64007,-7.72472867561494,0.988478851229882,5.51041832438506,-0.010079277,-0.0070249503,-0.009162978,297.16507,-14.992187,-43.319725,LYI
2335418195000,3.645506,-7.71669888181904,0.979041818180957,5.51182556363809,-0.006414085,0.0033597588,-0.0033597588,297.16852,-14.984293,-43.324238,LYI
2335422658000,3.649969,-7.7126494968451,0.983091203154903,5.50372679369019,-0.008552114,-0.0021380284,-0.0009162979,297.1783,-14.974402,-43.325478,LYI
2335427602000,3.654913,-7.70808102745536,0.98890829724026,5.50457861779627,0.003970624,-0.006414085,-0.0009162979,297.19455,-14.961055,-43.33117,LYI
2335432670000,3.659981,-7.70315669620536,0.998757165422078,5.53412532518263,0.0033597588,-0.007330383,-0.0012217305,297.20996,-14.94531,-43.336094,LYI
2335437590000,3.664901,-7.7006250917644,1.0051286495646,5.5554200917644,-0.002443461,-0.013744468,0.005497787,297.22418,-14.935722,-43.336037,LYI
2335442676000,3.669987,-7.70375526728576,1.00356354546126,5.55855026728576,0.014660766,-0.022907447,0.006414085,297.24088,-14.929518,-43.33574,LYI
2335447687000,3.674998,-7.70683928410398,1.00202152095048,5.56163428410398,0.005192355,-0.025045475,0.0036651916,297.25473,-14.918129,-43.330433,LYI
2335452852000,3.680163,-7.71001808012596,1.00043210634298,5.56481308012596,0.015271631,-0.032070424,0.006414085,297.2679,-14.915423,-43.321095,LYI
2335457655000,3.684966,-7.71297408347418,0.998954089235564,5.56776908347418,0.0067195175,-0.027488936,0.0030543262,297.28488,-14.903631,-43.317593,LYI
2335462681000,3.689992,-7.71606733203303,0.997407448806272,5.57086233203303,0.014660766,-0.02687807,0.004276057,297.30038,-14.898724,-43.31077,LYI
2335467649000,3.69496,-7.71926532029138,0.997064683361487,5.57477819085726,0.0061086523,-0.019242255,0.007330383,297.31638,-14.889358,-43.306026,LYI
2335472657000,3.699968,-7.7243286240076,1.01225491173986,5.58996852497889,0.0070249503,-0.018020526,0.008552114,297.33304,-14.883414,-43.300156,LYI
2335477627000,3.704938,-7.72678078309249,1.02642054356936,5.59987863020231,-0.0012217305,-0.008246681,0.00580322,297.34827,-14.8724165,-43.29865,LYI
2335482671000,3.709982,-7.71680867846821,1.03639280438687,5.58492021294385,-0.015882496,-0.0033597588,0.0015271631,297.3638,-14.860315,-43.29648,LYI
2335488135000,3.715446,-7.70299094430554,1.04545666392361,5.56736271121173,-0.0021380284,0.005192355,0.006414085,297.37375,-14.855907,-43.295624,LYI
2335492649000,3.71996,-7.68596971182203,1.04971197204449,5.55034138986121,-0.010995574,-0.00030543262,0.008857546,297.38718,-14.842763,-43.29318,LYI
2335497738000,3.725049,-7.67278428062142,1.0516869156991,5.53433688634505,-0.023823744,-0.0018325958,-0.00030543262,297.40454,-14.83107,-43.29767,LYI
2335502619000,3.72993,-7.68042849334424,1.04404268701227,5.52975042256746,-0.0106901415,-0.0012217305,0.0033597588,297.41653,-14.826021,-43.299835,LYI
2335507650000,3.734961,-7.68830762348324,1.03616354041864,5.52502301030253,-0.01282817,-0.0021380284,-0.00030543262,297.43396,-14.814404,-43.302895,LYI
2335512662000,3.739973,-7.69615699741619,1.02831415009321,5.52031345151267,-0.010079277,-0.011301007,-0.0021380284,297.45016,-14.807612,-43.303463,LYI
2335517615000,3.744926,-7.70391397049877,1.02055716081112,5.51565933246116,-0.00580322,-0.006414085,0.0030543262,297.46304,-14.801476,-43.307335,LYI
2335522622000,3.749933,-7.71175551385119,1.01271560108258,5.51095447195421,-0.0125227375,-0.004581489,0.010079277,297.4773,-14.793767,-43.308098,LYI
2335527646000,3.754957,-7.72042643667508,1.00534755190356,5.50731543521957,-0.01863139,-0.0027488936,0.002443461,297.48865,-14.7836075,-43.31448,LYI
2335532626000,3.759937,-7.73695434637358,1.00298642194663,5.51439872647161,-0.011301007,-0.0015271631,0.0076358155,297.4924,-14.778884,-43.319237,LYI
2335538028000,3.765339,-7.75488281388188,1.00042521230259,5.52208224842814,-0.0106901415,-0.008246681,0.007330383,297.4986,-14.768553,-43.324757,LYI
2335542626000,3.769937,-7.77014292006535,0.998245197133522,5.52862220288133,-0.005192355,-0.007330383,0.003970624,297.5028,-14.761172,-43.332417,LYI
2335547753000,3.775064,-7.78731250775988,0.997356414904832,5.53607827174231,-0.003970624,0.006414085,0.0027488936,297.49814,-14.7539425,-43.342163,LYI
2335552576000,3.779887,-7.80534614963397,1.01539015093216,5.54509532806247,-0.015271631,0.0070249503,0.005497787,297.49503,-14.745423,-43.34856,LYI
2335557871000,3.785182,-7.82355487857867,1.03441112185219,5.55408391501419,-0.011301007,0.011911872,0.00061086525,297.4942,-14.736256,-43.363194,LYI
2335562616000,3.789927,-7.80973439261963,1.03671456824818,5.54487017753447,-0.01282817,0.00580322,0.010995574,297.48828,-14.727467,-43.373043,LYI
2335567877000,3.795188,-7.79441098342457,1.03926850533759,5.53465448251217,-0.018936822,-0.009162978,0.0036651916,297.49075,-14.717248,-43.384575,LYI
2335572575000,3.799886,-7.78072739163625,1.0415491357208,5.52553200860706,-0.019547688,-0.009162978,0.0033597588,297.48575,-14.711381,-43.396545,LYI
2335577723000,3.805034,-7.76509518451261,1.04455008619496,5.51674916464622,-0.019547688,-0.022296581,0.008857546,297.48526,-14.704163,-43.40103,LYI
2335582587000,3.809898,-7.74238023098454,1.05363606760618,5.52356365070464,-0.0106901415,-0.018020526,0.0061086523,297.48557,-14.69692,-43.41097,LYI
2335587799000,3.81511,-7.71804011219584,1.06337211512167,5.53086568634125,-0.016187929,-0.025961773,0.006414085,297.48315,-14.69136,-43.411682,LYI
2335592564000,3.819875,-7.69578749016433,1.07227316393427,5.5375414729507,-0.009773844,-0.029626964,-0.0015271631,297.48376,-14.687671,-43.415844,LYI
2335597552000,3.824863,-7.67249345476179,1.08159077809528,5.54452968357146,-0.0030543262,-0.033292156,0.006414085,297.47958,-14.686173,-43.416367,LYI
2335602655000,3.829966,-7.6751950054054,1.07800650745291,5.55748907764128,0.0015271631,-0.030543262,0.005192355,297.48138,-14.682014,-43.41945,LYI
2335607653000,3.834964,-7.67955061981982,1.0736508020748,5.57055619377559,0.0009162979,-0.030543262,-0.0015271631,297.48328,-14.678555,-43.420742,LYI
2335612669000,3.83998,-7.69995053068362,1.07647270613673,5.58144201227345,-0.00061086525,-0.018936822,0.004276057,297.4711,-14.681329,-43.41757,LYI
2335617604000,3.844915,-7.72499637488076,1.08148187497615,5.59146034995231,-0.0070249503,-0.010995574,-0.005192355,297.46777,-14.678311,-43.415913,LYI
2335622655000,3.849966,-7.73470010410076,1.08839626082214,5.60114437115089,-0.008552114,-0.01863139,-0.006414085,297.46033,-14.676823,-43.410774,LYI
2335627625000,3.854936,-7.74178053658948,1.09547664402241,5.61058483279615,-0.004886922,-0.02565634,0.0009162979,297.4522,-14.674807,-43.40818,LYI
2335632669000,3.85998,-7.74896639201666,1.10266244942728,5.620165856647,-0.01038471,-0.022296581,-0.0027488936,297.45535,-14.667139,-43.40988,LYI
2335637595000,3.864906,-7.75598414059602,1.10968014915456,5.62952274076461,-0.016493361,-0.025350908,-0.004581489,297.457,-14.661871,-43.407284,LYI
2335642643000,3.869954,-7.74546476660152,1.09132834731288,5.63507849589603,-0.008246681,-0.02443461,-0.0021380284,297.46298,-14.658429,-43.405804,LYI
2335647685000,3.874996,-7.73131001917139,1.06773726581982,5.63979700779754,-0.021991149,-0.02076942,-0.004276057,297.47122,-14.648046,-43.40511,LYI
2335652709000,3.88002,-7.72539257552217,1.06148037162596,5.63301319358933,-0.016493361,-0.022907447,0.0012217305,297.47543,-14.647051,-43.40116,LYI
2335657688000,3.884999,-7.72156204938946,1.05956508856041,5.62343669826478,-0.018325957,-0.0143553335,0.00030543262,297.48077,-14.640062,-43.402145,LYI
2335662669000,3.88998,-7.71772998458387,1.05764903615039,5.61385635618573,-0.017715093,-0.008246681,0.0012217305,297.4911,-14.62612,-43.405563,LYI
2335667675000,3.894986,-7.71387868636729,1.05572336693445,5.60422792967545,-0.015882496,0.0033597588,-0.0009162979,297.50073,-14.611455,-43.41317,LYI
2335672651000,3.899962,-7.71005046824389,1.0538092378856,5.59465720448265,-0.021380283,0.0015271631,-0.0009162979,297.51007,-14.59626,-43.418503,LYI
2335677644000,3.904955,-7.68464624969286,1.04933489396314,5.564057657742,-0.016493361,0.008857546,0.00030543262,297.52332,-14.580102,-43.43315,LYI
2335682648000,3.909959,-7.65419371395891,1.04425945367507,5.52852957572548,-0.0076358155,0.011911872,0.009468411,297.53415,-14.565583,-43.445194,LYI
2335687660000,3.914971,-7.6452999788642,1.04168231866667,5.54333471348148,-0.019242255,0.014966198,0.004581489,297.5489,-14.546008,-43.462425,LYI
2335692616000,3.919927,-7.63826843053827,1.03933846106667,5.56208542743704,-0.011911872,0.010079277,0.0033597588,297.55945,-14.534849,-43.476826,LYI
2335697646000,3.924957,-7.63113189137778,1.0369596064,5.58111611573333,-0.007941248,0.004886922,-0.0067195175,297.57437,-14.519266,-43.49399,LYI
2335702598000,3.929909,-7.6241060182321,1.03461764053333,5.59985169594074,-0.010995574,0.010995574,0.0067195175,297.57993,-14.508573,-43.510334,LYI
2335707772000,3.935083,-7.65282128804337,1.02581427484475,5.615153060621,-0.003970624,0.0067195175,0.005497787,297.59647,-14.496001,-43.524612,LYI
2335712646000,3.939957,-7.68502841100049,1.01661223971414,5.62895592114342,-0.0070249503,-0.004581489,0.00580322,297.60742,-14.484067,-43.536858,LYI
2335717667000,3.944978,-7.69430210542352,1.0233935385131,5.62703606691042,-0.0125227375,-0.008552114,0.00030543262,297.61948,-14.46902,-43.54329,LYI
2335722595000,3.949906,-7.69909546881983,1.03298006510258,5.62224290371725,-0.008552114,-0.005192355,0.004581489,297.6281,-14.457501,-43.5477,LYI
2335727638000,3.954949,-7.73365950364832,1.02299290589136,5.61028320589136,-0.018325957,-0.0070249503,0.004581489,297.640961678419,-14.4476343697487,-43.5503694994538,LYI
2335732664000,3.959975,-7.772682651653,1.00998515970633,5.59727545970633,-0.009162978,-0.004581489,-0.00030543262,297.65378,-14.437801,-43.55303,LYI
2335737660000,3.964971,-7.77962357567242,1.01030504299478,5.58495442834203,-0.017104227,-0.002443461,0.008246681,297.67178,-14.421347,-43.557938,LYI
2335743210000,3.970521,-7.76895497621437,1.01830653436371,5.57161860939382,-0.013439035,-0.0033597588,0.003970624,297.69577,-14.405989,-43.565,LYI
2335747711000,3.975022,-7.7603028381674,1.0247956717784,5.56080338036933,-0.016493361,0.007941248,0.004581489,297.71512,-14.387986,-43.58266,LYI
2335752661000,3.979972,-7.75078760081293,1.03193213705339,5.54890927157768,-0.011911872,0.008552114,-0.0021380284,297.73993,-14.370259,-43.598125,LYI
2335757693000,3.985004,-7.74172411635884,1.03281688680739,5.544971,-0.01160644,0.0070249503,-0.0030543262,297.7607,-14.352732,-43.615128,LYI
2335762672000,3.989983,-7.73304735607315,1.03064770806114,5.544971,-0.012217305,0.0076358155,0.008552114,297.77847,-14.337511,-43.632008,LYI
2335767663000,3.994974,-7.72434968373214,1.02847330132836,5.544971,-0.02076942,-0.0067195175,0.0067195175,297.80835,-14.32037,-43.647972,LYI
2335772661000,3.999972,-7.7156398126922,1.02629584493677,5.544971,-0.01740966,-0.0076358155,0.007941248,297.83038,-14.308794,-43.665977,LYI
2335777679000,4.00499,-7.71216315922906,1.02330150559144,5.54638782399661,-0.009773844,-0.0143553335,0.0027488936,297.85767,-14.295003,-43.679157,LYI
2335782676000,4.009987,-7.72229866063751,1.01823370196971,5.55145573345335,-0.002443461,-0.010995574,-0.0009162979,297.88217,-14.282689,-43.69435,LYI
2335787648000,4.014959,-7.73125473249385,1.01329369120052,5.554548,-0.0067195175,-0.023518313,0.0018325958,297.90298,-14.270804,-43.69977,LYI
2335792649000,4.01996,-7.73846296660814,1.00848823524306,5.554548,-0.009773844,-0.03023783,0.00061086525,297.925,-14.259287,-43.708344,LYI
2335797647000,4.024958,-7.74566687664677,1.00368566198264,5.554548,-0.012217305,-0.027488936,0.0067195175,297.9439,-14.248406,-43.71516,LYI
2335802666000,4.029977,-7.75290105521497,0.998862909842974,5.554548,-0.012217305,-0.026572637,0.004581489,297.96707,-14.235687,-43.72066,LYI
2335807617000,4.034928,-7.75482001092115,0.992995910527239,5.55155601365144,-0.009162978,-0.02687807,0.00580322,297.9861,-14.225214,-43.725704,LYI
2335813372000,4.040683,-7.74778830844603,0.984206273255295,5.54276638555754,-0.014049901,-0.013439035,-0.0030543262,298.0073,-14.210853,-43.73593,LYI
2335817590000,4.044901,-7.74263457759633,0.977764102966318,5.53632422199541,-0.015271631,-0.014966198,0.004276057,298.01782,-14.2043085,-43.73692,LYI
2335822656000,4.049967,-7.73644472447053,0.970026778479842,5.52858690558816,-0.008857546,-0.005497787,-0.0009162979,298.03275,-14.194109,-43.746586,LYI
2335827610000,4.054921,-7.73039171768308,0.962460512094922,5.52102064710385,-0.00580322,-0.020463986,-0.0009162979,298.04358,-14.186312,-43.747704,LYI
2335832673000,4.059984,-7.7242055300842,0.954727769521881,5.51328791260526,-0.01160644,-0.012217305,-0.0015271631,298.05206,-14.17693,-43.758156,LYI
2335837637000,4.064948,-7.7177850945098,0.95146780452381,5.5077853054902,-0.020158553,-0.011911872,-0.003970624,298.06412,-14.167304,-43.76269,LYI
2335842634000,4.069945,-7.70884862954248,0.978277502698413,5.51672177045752,-0.021991149,-0.010079277,0.0009162979,298.07217,-14.159334,-43.769222,LYI
2335847824000,4.075135,-7.6991321227013,1.00577165837922,5.52633479594805,-0.015271631,-0.00580322,0.00061086525,298.08398,-14.146466,-43.778652,LYI
2335852665000,4.079976,-7.67023147844156,1.01540517293507,5.55041858233766,-0.016493361,-0.016798794,-0.0061086523,298.09796,-14.13152,-43.78455,LYI
2335857745000,4.085056,-7.63884616389314,1.02540746794099,5.57542431085725,-0.01038471,-0.03481932,-0.002443461,298.10477,-14.128578,-43.78341,LYI
