timestamp,rel_time,acc_x,acc_y,acc_z,gyro_x,gyro_y,gyro_z,azimuth,pitch,roll,label
2467599032000,0,6.48871995112002,7.29484611350719,0.949528888245554,1.3240504,1.813048,0.29260445,72.687355,143.95035,52.825756,STD
2467604034000,0.005002,6.48273463060784,7.29747965453255,0.940431193567266,1.0436633,2.295937,0.11881329,73.576515,144.25629,53.342464,STD
2467609609000,0.010577,6.47606366662235,7.30041487868617,0.930291319950421,0.713796,2.604424,0.046731193,74.66176,144.59406,53.873768,STD
2467614042000,0.01501,6.47075920324161,7.30274884257369,0.922228528965045,0.37415496,2.7305677,0.07086037,75.894455,144.96843,54.422863,STD
2467619033000,0.020001,6.46478704516958,7.30537659212539,0.913150841212279,0.0015271631,2.6606236,0.119729586,77.18884,145.36987,54.96893,STD
2467624049000,0.025017,6.45878497246084,7.30801750411723,0.904027683174235,-0.3640757,2.4055874,0.12705997,78.461845,145.78508,55.496517,STD
2467629037000,0.030005,6.45281640414522,7.3106436741761,0.894955451855702,-0.7174612,2.0592268,0.10048734,79.660995,146.20226,55.995693,STD
2467634031000,0.034999,6.44684065631678,7.31327300322062,0.885872307668703,-1.0140363,1.6618589,0.04520403,80.70688,146.62778,56.47663,STD
2467639053000,0.040021,6.44083140409524,7.31591707419809,0.876738236762192,-1.2534955,1.2709051,0.014049901,81.57867,147.05405,56.937836,STD
2467644048000,0.045016,6.43485445968134,7.31854692974021,0.867653273763782,-1.3796391,0.82802784,-0.01038471,82.21315,147.49136,57.393963,STD
2467649032000,0.05,6.42889067770759,7.32117099380866,0.858588317690893,-1.3350459,0.37598756,-0.021991149,82.63265,147.92923,57.840206,STD
2467654076000,0.055044,6.42285510060574,7.32382664773347,0.849414232933339,-1.1673635,0.014049901,0.0125227375,82.86101,148.3554,58.267345,STD
2467659052000,0.06002,6.41690089131573,7.32644649982108,0.840363827351739,-0.96486163,-0.14630222,0.06078109,82.95222,148.7745,58.68331,STD
2467664040000,0.065008,6.41093232300011,7.32907266987995,0.831291596033206,-0.79809546,-0.13958271,0.084910266,82.9375,149.18369,59.086967,STD
2467669027000,0.069995,6.40496495126995,7.33169831344122,0.822221183526084,-0.6383542,-0.013744468,0.08857546,82.90289,149.57715,59.476585,STD
2467674045000,0.075013,6.39896048539028,7.33434027842828,0.813094387865218,-0.56199604,0.10262536,0.082161374,82.869576,149.9603,59.856995,STD
2467679437000,0.080405,6.39250849654549,7.33717915351999,0.803287356736603,-0.37048978,0.18112154,0.06291912,82.88772,150.33722,60.236843,STD
2467684033000,0.085001,6.38700898973342,7.3395989365173,0.794928099491219,-0.062002823,0.1994475,0.070249505,82.940834,150.70084,60.60705,STD
2467689115000,0.090083,6.38092794238378,7.34227459735114,0.785684899900043,0.028099801,0.18509217,0.07147124,83.02179,151.06708,60.98036,STD
2467694058000,0.095026,6.37501322041422,7.34487707501774,0.776694515095009,0.1414153,0.1301143,0.07666359,83.09376,151.42142,61.34486,STD
2467699074000,0.100042,6.36901114770549,7.34751798700959,0.767571357056966,0.19456059,0.04337143,0.076358154,83.14204,151.7722,61.704704,STD
2467704108000,0.105076,6.36298753645832,7.35016837595834,0.758415460413522,0.1994475,-0.032986723,0.070554934,83.16806,152.118,62.058945,STD
2467709077000,0.110045,6.3570417032666,7.3527845425627,0.7493777865118,0.1432479,-0.040927973,0.07422013,83.18908,152.4568,62.405415,STD
2467714039000,0.115007,6.35110424617315,7.35539702368382,0.740352844289955,0.08032878,0.040927973,0.06963864,83.22495,152.7951,62.751217,STD
2467719080000,0.120048,6.3450722588277,7.35805109811581,0.731184215966634,0.00580322,0.15577064,0.06811147,83.284065,153.12752,63.090538,STD
2467724064000,0.125032,6.33910847685395,7.36067516218426,0.722119259893746,-0.08002335,0.20769419,0.059253927,83.36117,153.45938,63.428593,STD
2467729077000,0.130045,6.33310999390162,7.36331449468329,0.713001558289935,-0.13225232,0.1777618,0.057726767,83.46454,153.78542,63.76048,STD
2467734085000,0.135053,6.33392085087628,7.3621720059131,0.717749624676167,-0.17440203,0.11759156,0.05375614,83.58596,154.11067,64.090866,STD
2467739118000,0.140086,6.34089816885667,7.35760066216238,0.735072631090424,-0.21838433,0.057421334,0.047647487,83.692215,154.43271,64.41697,STD
2467744119000,0.145087,6.34783112479148,7.35305838318417,0.752285497189707,-0.25503623,-0.022602014,0.041233405,83.62911,154.89919,64.88404,STD
2467749067000,0.150035,6.3546906060883,7.34856424273542,0.769315943392318,-0.27488935,-0.09010262,0.035124753,83.53665,155.36389,65.348816,STD
2467754136000,0.155104,6.36171783136996,7.34396020111563,0.786762857660918,-0.2742785,-0.16310102,0.033292156,83.387695,155.82555,65.80971,STD
2467759044000,0.160012,6.36852186010982,7.33950239163251,0.803655628469813,-0.2556471,-0.20769419,0.020463986,83.21257,156.28821,66.27121,STD
2467764041000,0.165009,6.37544927078893,7.33496374575087,0.820854727029725,-0.2284636,-0.22602014,0.018325957,83.00583,156.74422,66.72563,STD
2467769027000,0.169995,6.38236143201487,7.33043509088477,0.838015964856366,-0.21594086,-0.27183503,0.011301007,82.747116,157.20096,67.179955,STD
2467774049000,0.175017,6.38932350054209,7.3258737381496,0.85530111053735,-0.18692477,-0.29871312,0.0027488936,82.488846,157.65408,67.63084,STD
2467779039000,0.180007,6.39624120702373,7.32134145018694,0.872476115903362,-0.1572978,-0.30787608,-0.0076358155,82.20976,158.10513,68.079285,STD
2467784024000,0.184992,6.40315198193576,7.31681370359498,0.889633911845159,-0.12064589,-0.30024028,-0.0070249503,81.92365,158.55061,68.52218,STD
2467789088000,0.190056,6.41017227564779,7.3122142033459,0.907063616689545,-0.08857546,-0.27580565,-0.005497787,81.64425,158.99388,68.96311,STD
2467794040000,0.195008,6.41703730220031,7.30771642980058,0.924107830431527,-0.04153884,-0.22785273,-0.0015271631,81.3918,159.43118,69.39889,STD
2467799078000,0.200046,6.42402155175032,7.30314054467916,0.941448046269998,-0.010995574,-0.1432479,0.01160644,81.19308,159.86052,69.82785,STD
2467804144000,0.205112,6.4310446180902,7.2985392278818,0.958884634884069,0.034513887,-0.070554934,0.020463986,81.0294,160.2848,70.25284,STD
2467809077000,0.210045,6.43788330467816,7.29405871154516,0.975863452814036,0.083383106,0.0033597588,0.03604105,80.94595,160.69858,70.66897,STD
2467814041000,0.215009,6.44476496699778,7.28955003871016,0.992948969174133,0.122478485,0.06566802,0.041233405,80.92414,161.10805,71.08194,STD
2467819081000,0.220049,6.45175198917563,7.28497233704046,1.01029606878229,0.16401732,0.124311075,0.051923547,80.976326,161.50685,71.48537,STD
2467824071000,0.225039,6.45866969565727,7.28044004907779,1.0274710741483,0.21013765,0.17562376,0.049480084,81.09122,161.90349,71.88714,STD
2467829078000,0.230046,6.46561096947563,7.27589232045474,1.04470459155664,0.22876903,0.20799962,0.062308256,81.25921,162.28853,72.27719,STD
2467834079000,0.235047,6.47254392541044,7.27135004147653,1.06191745765593,0.24098633,0.2171626,0.070554934,81.470604,162.67143,72.6646,STD
2467839130000,0.240098,6.47954619704146,7.26676234879127,1.07930241799735,0.22571471,0.21074851,0.07696902,81.717224,163.04729,73.04397,STD
2467844064000,0.245032,6.48638626994334,7.2622809241805,1.09628467781216,0.20219639,0.21930063,0.07452556,82.00832,163.41942,73.41849,STD
2467849079000,0.250047,6.49333863427309,7.25772592936432,1.11354573029925,0.17928895,0.21410827,0.06627888,82.3011,163.78754,73.78751,STD
2467854071000,0.255039,6.50025911338258,7.25319182485337,1.13072761943495,0.14905111,0.22968534,0.06658431,82.64687,15.849984,74.14944,STD
2467859080000,0.260048,6.50720315982879,7.24864227968203,1.14796802061297,0.10995574,0.23762658,0.06078109,83.003845,15.487371,74.50995,STD
2467864075000,0.265043,6.51412779788005,7.24410545034867,1.1651602354032,0.08827003,0.24678956,0.052839845,83.4043,15.128209,74.86525,STD
2467869031000,0.269999,6.52099836968827,7.23960404370679,1.18221821668455,0.07452556,0.2724459,0.041233405,83.85924,14.770383,75.21716,STD
2467874049000,0.275017,6.52795489295979,7.23504632406819,1.19948959482617,0.04795292,0.29657507,0.044898596,84.35163,14.418782,75.56077,STD
2467879037000,0.280005,6.53486982681359,7.2305158526538,1.21665771642249,0.025045475,0.31215215,0.043066,84.89556,14.066373,75.90265,STD
2467884022000,0.28499,6.54178060172561,7.22598810606185,1.23381551236429,0.01863139,0.3313944,0.040927973,85.50486,13.718963,76.23645,STD
2467889037000,0.290005,6.54873296605536,7.22143311124566,1.25107656485137,0.0106901415,0.34330627,0.033292156,86.15986,13.37356,76.56529,STD
2467894089000,0.295057,6.5557366240003,7.21684451028627,1.26846496707764,0.015577064,0.35216382,0.030848695,86.87143,13.032942,76.88569,STD
2467899072000,0.30004,6.56264462628447,7.21231858024259,1.28561587924976,0.015882496,0.34238997,0.02565634,87.61503,12.693369,77.2019,STD
2467904126000,0.305094,6.56965105685726,7.20772816273492,1.30301116524571,0.016187929,0.33444872,0.023823744,88.41298,12.357927,77.50988,STD
2467909079000,0.310047,6.57651746972371,7.20322948091547,1.32005882087254,0.015882496,0.31490102,0.0125227375,89.228905,12.022192,77.815125,STD
2467914046000,0.315014,6.5834032909851,7.19871808325804,1.33715466288716,0.035430185,0.28710666,0.004581489,90.06731,11.690558,78.11284,STD
2467919074000,0.320042,6.59037367739586,7.19415128087803,1.35446045987721,0.047647487,0.258396,0.0125227375,169.46016,11.364199,78.40237,STD
2467924076000,0.325044,6.59730801964459,7.18960809362568,1.37167676786133,0.03481932,0.23518312,0.0076358155,169.21971,11.035877,78.690895,STD
2467929074000,0.330042,6.60423681663763,7.18506853946989,1.38887930830609,0.043982297,0.18875736,0.0033597588,168.96663,10.713449,78.97226,STD
2467934436000,0.335404,6.61055430286233,7.16214274355977,1.4033293591413,0.04153884,0.16584991,-0.0030543262,168.71779,10.393185,79.24754,STD
2467939069000,0.340037,6.61502611443257,7.12636801752671,1.41227307567023,0.040011674,0.1432479,-0.00061086525,168.46329,10.07799,79.51675,STD
2467944044000,0.345012,6.61535325387516,7.09489016937581,1.41514740751216,0.039095376,0.12461651,-0.008857546,168.1807,9.661272,79.862595,STD
2467949040000,0.350008,6.61060524426913,7.07115012134564,1.41039929874963,0.041233405,0.10567969,-0.01282817,167.89598,9.250701,80.19603,STD
2467954113000,0.355081,6.60583321740734,7.0602696374151,1.38615769666214,0.039095376,0.09987647,-0.008857546,167.64185,8.717528,80.6428,STD
2467959093000,0.360061,6.60120557680963,7.06489718137007,1.3398813390064,0.018936822,0.10781772,-0.0033597588,167.39235,8.188215,81.075096,STD
2467964016000,0.364984,6.60022690909715,7.06949024683855,1.29756490835212,0.01863139,0.106901415,-0.007941248,167.17172,7.5693874,81.58173,STD
2467969078000,0.370046,6.6049791649152,7.07424260190177,1.25954681218508,0.022907447,0.105374254,-0.0070249503,166.9572,6.957878,82.06376,STD
2467974063000,0.375031,6.61137414950712,7.07894882475356,1.23203052102957,0.02107485,0.1142318,-0.006414085,166.76228,6.2968035,82.57861,STD
2467979072000,0.38004,6.62092730951907,7.08372540475953,1.22247756051976,0.01863139,0.12308934,-0.009162978,166.56882,5.6390395,83.0651,STD
2467984002000,0.38497,6.63027987873175,7.08840167302754,1.21312512126825,0.021991149,0.116980694,-0.010995574,166.38435,4.9413614,83.56743,STD
2467989143000,0.390111,6.6399308301774,7.09322709836323,1.2034741698226,0.027488936,0.12003502,-0.005497787,166.20282,4.2496557,84.02216,STD
2467994016000,0.394984,6.64907867814368,7.09780097458591,1.19432632185632,0.029932396,0.10873401,-0.006414085,166.0152,3.5074666,84.48649,STD
2467999069000,0.400037,6.65856443143193,7.10254380170538,1.18484056856807,0.03145956,0.09437868,-0.0027488936,165.82945,2.7740867,84.88001,STD
2468004668000,0.405636,6.67158847002515,7.10774209430497,1.17356816940819,0.03268129,0.0842994,-0.0012217305,165.63406,1.976128,85.25415,STD
2468009092000,0.41006,6.68566347085093,7.11176362809074,1.1635145763941,0.042760566,0.06627888,-0.00061086525,165.43977,1.1867,85.519775,STD
2468014034000,0.415002,6.7013864939253,7.11625603766788,1.15228382217265,0.036957346,0.043066,-0.01038471,165.2707,0.35253516,85.6815,STD
2468019065000,0.420033,6.71739267140145,7.12082935061459,1.1408508143847,0.022602014,0.023518313,-0.0015271631,165.10568,-0.46701932,85.69029,STD
2468024188000,0.425156,6.73324214135642,7.12365081338795,1.12707585017111,0.015882496,0.010079277,-0.0030543262,164.95457,-1.3354707,85.55201,STD
2468029077000,0.430045,6.74295306527014,7.10422891486052,1.08823235731619,0.014660766,-0.007330383,-0.0061086523,164.81145,-2.1909955,85.26696,STD
2468034051000,0.435019,6.75081109737718,7.08655769426502,1.04702489641809,0.01282817,-0.014966198,0.0021380284,164.68304,-3.0963254,84.848564,STD
2468039061000,0.440029,6.74376765418869,7.08420983900959,0.993025304227833,0.01038471,-0.020158553,-0.008246681,164.56183,-3.994773,84.321075,STD
2468044036000,0.445004,6.73677341669113,7.08187838593658,0.939402954697593,-0.0070249503,-0.025350908,-0.02076942,164.45497,-4.96049,83.684746,STD
2468049039000,0.450007,6.72973981464083,7.07953381111764,0.885478811039342,-0.0143553335,-0.016798794,-0.0027488936,164.35172,-5.9043097,82.985916,STD
2468054287000,0.455255,6.72181401713426,7.07873265791671,0.82986875909135,-0.005192355,-0.0036651916,0.0018325958,164.25433,-6.961603,82.15717,STD
2468059092000,0.46006,6.70841240054364,7.09660165107271,0.789664002611397,-0.014966198,0.007330383,0.00030543262,164.17097,-7.9934387,81.29541,STD
2468064405000,0.465373,6.6940076430504,7.11701056877984,0.744646233854111,-0.016493361,0.034208454,0.011301007,164.11566,-9.005025,80.418274,STD
2468069070000,0.470038,6.69005757183024,7.1486114272679,0.693294742912467,-0.005497787,0.044898596,0.005497787,164.0651,-10.000883,79.52771,STD
2468074173000,0.475141,6.68573662575597,7.18317931169761,0.637121825811671,-0.005192355,0.07147124,0.022907447,164.02339,-10.975937,78.635704,STD
2468079073000,0.480041,6.67738035533354,7.22472125099905,0.636954345759594,0.0021380284,0.0720821,0.02443461,240.29498,-11.936814,77.742516,STD
2468084006000,0.484974,6.66739148665821,7.26967116003806,0.656932119616239,0.009162978,0.07971791,0.02687807,241.731,-12.872297,76.85962,STD
2468089167000,0.490135,6.68530789751626,7.29822331460674,0.684619937019515,0.009468411,0.08735373,0.032375857,243.0359,-13.80783,75.97119,STD
2468094028000,0.494996,6.70824936449832,7.32116468576779,0.712149697397989,0.02107485,0.087964594,0.038179077,244.13553,-14.722292,75.0953,STD
2468099073000,0.500041,6.72828335536979,7.36734652301338,0.751879160224233,0.018325957,0.094989546,0.025350908,245.0601,-15.633948,74.21488,STD
2468104099000,0.505067,6.74721849402046,7.41941811723053,0.794483140629426,0.02107485,0.087659165,0.032375857,245.857,-16.51786,73.35729,STD
2468109080000,0.510048,6.78211409568045,7.4417570554575,0.828146903539248,0.009468411,0.100792766,0.026267206,246.48549,-17.385838,72.509125,STD
2468114038000,0.515006,6.82181079591268,7.45498931957269,0.859022204897352,0.0067195175,0.0842994,0.015577064,247.05716,-18.233635,71.679,STD
2468119061000,0.520029,6.85054880225126,7.46350952591698,0.9159701249396,0.0070249503,0.07880162,0.009773844,247.5003,-19.07,70.85581,STD
2468124018000,0.524986,6.87140200740171,7.46872270472216,0.988956206874588,-0.009773844,0.08155051,0.00061086525,247.88907,-19.890976,70.04599,STD
2468129072000,0.53004,6.88734288812903,7.45498162709677,1.03541964064516,-0.03023783,0.084910266,-0.005192355,248.19424,-20.683182,69.26242,STD
2468134070000,0.535038,6.90159544785112,7.43597831334988,1.07342651617866,-0.05497787,0.09315695,-0.003970624,248.4511,-21.457817,68.494865,STD
2468139114000,0.540082,6.90854002636542,7.41695277102161,1.07485454726916,-0.070249505,0.09468412,-0.009162978,248.6264,-22.209871,67.747665,STD
2468144241000,0.545209,6.91336323398821,7.39766004125737,1.06520813202358,-0.08460484,0.11942416,-0.010079277,248.752,-22.943413,67.017654,STD
2468149068000,0.550036,6.91108456183668,7.38992499145955,1.0765053526533,-0.10140363,0.13500121,-0.0012217305,248.8324,-23.647915,66.31551,STD
2468154059000,0.555027,6.90649788025142,7.38533821408694,1.09485207899434,-0.118507855,0.13500121,-0.004581489,248.89073,-24.340584,65.624664,STD
2468159043000,0.560011,6.88619586748764,7.35569526748763,1.11690102085394,-0.13255776,0.15699236,-0.004581489,248.9107,-25.007952,64.95821,STD
2468164038000,0.565006,6.85722481706874,7.31223871706874,1.14104360488543,-0.13500121,0.17928895,-0.005192355,248.9199,-25.661924,64.30494,STD
2468169024000,0.569992,6.77733881072453,7.25372822698251,1.09957816009068,-0.15088372,0.20158553,0.00061086525,248.89713,-26.3004,63.66628,STD
2468174026000,0.574994,6.67095607847691,7.1872391639678,1.02422384238919,-0.172264,0.23396139,0.005192355,248.8471,-26.925465,63.040405,STD
2468179034000,0.580002,6.56856063908293,7.16087678433171,0.988745036234146,-0.1572978,0.26145032,0.01038471,248.76698,-27.52751,62.43698,STD
2468184018000,0.584986,6.47077076638049,7.17484671752195,0.993401696839024,-0.15363261,0.29229903,0.010079277,248.6625,-28.11697,61.84532,STD
2468189022000,0.58999,6.37760884492491,7.18908057208951,0.985195768581796,-0.13927728,0.32162055,0.014049901,248.58237,-28.700245,61.260815,STD
2468194046000,0.595014,6.29031424962201,7.20362966286665,0.960947258633202,-0.116980694,0.33444872,0.022907447,248.49017,-29.270529,60.689106,STD
2468199032000,0.6,6.20492307839977,7.23308837365182,0.93070168155041,-0.09254608,0.35979962,0.03176499,248.37631,-29.84922,60.10862,STD
2468204045000,0.605013,6.12050001518171,7.27998994484173,0.893180360932005,-0.064751714,0.38087448,0.039095376,248.25522,-30.414227,59.54183,STD
2468209026000,0.609994,6.03957863848863,7.3211546066613,0.873496692654458,-0.023518313,0.43218717,0.050701816,248.11937,-30.987457,58.96693,STD
2468214007000,0.614975,5.96277926691487,7.35475425341115,0.878296656510364,0.014049901,0.45448375,0.06505715,247.9856,-31.546112,58.40687,STD
2468219016000,0.619984,5.89861566019417,7.39200688728155,0.906872442475728,0.048563786,0.46639562,0.07849618,247.8595,-32.131577,57.8209,STD
2468224050000,0.625018,5.85181021242718,7.43413188801942,0.967719573446602,0.086437434,0.473726,0.10354166,247.71991,-32.69702,57.254986,STD
2468228967000,0.629935,5.80349482215569,7.46513337788174,1.01676692045284,0.13469578,0.45906523,0.12858713,247.5893,-33.272625,56.679752,STD
2468234081000,0.635049,5.74850707305389,7.47888041085329,1.04884315527695,0.17623462,0.43676865,0.1432479,247.45511,-33.83124,56.121723,STD
2468238992000,0.63996,5.69299924109502,7.48451599543389,1.08965358996935,0.2284636,0.40683624,0.16646078,247.31049,-34.38484,55.56887,STD
2468244081000,0.645049,5.62603217514005,7.46391073609555,1.16692296285805,0.2751948,0.37232238,0.17470746,247.17691,-34.926064,55.029026,STD
2468248969000,0.649937,5.56213202954196,7.4537764258853,1.2479735345458,0.32436943,0.35308012,0.18295415,247.04083,-35.46666,54.490486,STD
2468254144000,0.655112,5.49536546632025,7.46331442097768,1.34812362836798,0.37201694,0.30176744,0.19364429,246.93396,-35.99173,53.96858,STD
2468259731000,0.660699,5.44201663684751,7.47889200084042,1.46946892363433,0.39553526,0.2312125,0.18997909,246.81854,-36.50911,53.45398,SDL
2468264085000,0.665053,5.42644201008498,7.49836038593706,1.58238559785227,0.44593164,0.14172074,0.19425514,246.73352,-37.009808,52.957294,SDL
2468269033000,0.670001,5.41849873848651,7.52130197971191,1.71088516595658,0.48380527,0.040011674,0.2134974,246.65205,-37.50427,52.46654,SDL
2468274078000,0.675046,5.48221271799554,7.5507086286265,1.84321472783526,0.52626044,-0.064446285,0.21563543,246.61075,-37.991276,51.984215,SDL
2468279061000,0.680029,5.54705653542344,7.5832719769299,1.97043344424726,0.54305923,-0.18081611,0.21135938,246.57166,-38.461338,51.518154,SDL
2468284053000,0.685021,5.62247023598541,7.63511879148181,2.07884031274771,0.5671884,-0.29565877,0.20616703,246.57632,-38.92058,51.063553,SDL
2468289024000,0.689992,5.69764760724234,7.69075125817748,2.17957533099881,0.58123827,-0.4092797,0.19425514,246.58276,-39.35341,50.634514,SDL
2468294053000,0.695021,5.77430763802228,7.77699400543175,2.22748786274373,0.5992588,-0.50701815,0.18692477,246.63022,-39.776646,50.21514,SDL
2468299008000,0.699976,5.85565046364205,7.85862641799775,2.27064390299963,0.59528816,-0.57604593,0.18478674,246.67725,-40.181557,49.81305,SDL
2468304045000,0.705013,5.98828951204849,7.9128877696288,2.2796874616048,0.5742133,-0.65118235,0.17715092,246.76672,-40.580563,49.41656,SDL
2468309047000,0.710015,6.12000690734908,7.96677208188976,2.28866818031496,0.5491679,-0.68630713,0.15332718,246.84937,-40.97547,49.02332,SDL
2468314000000,0.714968,6.25043398830146,8.02012853903262,2.2975609231721,0.49296826,-0.6930266,0.12217305,246.94833,-41.364895,48.63484,SDL
2468319058000,0.720026,6.33831338696771,8.07124733238068,2.2442078900543,0.42058071,-0.66156703,0.07727446,247.0418,-138.24445,48.244453,SDL
2468324007000,0.724975,6.41958608467181,8.12091413289511,2.18551092075831,0.33536503,-0.5739079,0.04153884,247.11012,-137.8569,47.856716,SDL
2468329733000,0.730701,6.47463424360954,8.16192503190942,2.14271900511237,0.23976462,-0.45753807,0.0015271631,247.14072,-137.48904,47.488552,SDL
2468334159000,0.735127,6.5109928958655,8.19101180185281,2.1136320833076,0.13591751,-0.3182608,-0.05131268,247.12328,-137.11612,47.115498,SDL
2468339039000,0.740007,6.49332084166149,8.2263534922312,2.05212309529729,0.028099801,-0.16798794,-0.10781772,247.06778,-136.74197,46.741425,SDL
2468344271000,0.745239,6.41027831437746,8.26787456619018,1.95350992140046,-0.064751714,-0.018325957,-0.17287487,246.95549,-136.35933,46.359085,SDL
2468349046000,0.750014,6.32587477426332,8.31530451393987,1.87353850298641,-0.14813483,0.04734206,-0.2275473,246.82822,-135.9724,45.972366,SDL
2468354032000,0.755,6.23112350951483,8.37215599503919,1.79773735267388,-0.20769419,0.17470746,-0.24678956,246.61777,-44.413338,45.58649,SDL
2468359018000,0.759986,6.14056967443928,8.38606900222267,1.73655040444534,-0.22571471,0.27000242,-0.27672195,246.41972,-44.831398,45.16775,SDL
2468364031000,0.764999,6.05326360475854,8.36181738654274,1.68804717308547,-0.23518312,0.35705075,-0.28252518,246.17755,-45.237534,44.76002,SDL
2468369063000,0.770031,5.96036052890518,8.27261359289968,1.66146673836922,-0.25503623,0.40225476,-0.28130344,245.93866,-45.67202,44.323307,SDL
2468374102000,0.77507,5.86309397915712,8.13113449244159,1.65262427439304,-0.28985557,0.4092797,-0.28130344,245.6842,-46.09708,43.89501,SDL
2468379098000,0.780066,5.79792275992013,7.9995397065588,1.62378476163535,-0.3100141,0.39614612,-0.28099802,245.43613,-46.526146,43.46215,SDL
2468384018000,0.784986,5.78344791889816,7.88374130586248,1.56347308358507,-0.3304781,0.36132678,-0.28099802,245.19724,-46.944073,43.0396,SDL
2468394081000,0.795049,5.75384216174287,7.646895918422,1.44011608841841,-0.39584067,0.28496864,-0.26419923,244.75645,-47.72991,42.242237,SDL
2468399550000,0.800518,5.75825920991201,7.57752567405279,1.37369991224636,-0.4334089,0.2415972,-0.22571471,244.56674,-48.06949,41.89641,SDL
2468403986000,0.804954,5.777330266116,7.5660830403304,1.3203009548752,-0.47555858,0.20769419,-0.18997909,244.3921,-48.398956,41.560055,SDL
2468408956000,0.809924,5.804621802589,7.56142736804207,1.25560382447411,-0.5128214,0.16493362,-0.13072516,244.24944,-48.697853,41.254555,SDL
2468413999000,0.814967,5.85346464482201,7.58584909516586,1.17257094167678,-0.56199604,0.13591751,-0.07452556,244.1148,-48.97991,40.96499,SDL
2468418946000,0.819914,5.88851011361022,7.61379224472844,1.07168038555059,-0.58368176,0.12339478,-0.017715093,244.0008,-49.231487,40.70657,SDL
2468423949000,0.824917,5.88340769297125,7.65461224920128,0.908399387305644,-0.6160576,0.110872045,0.03481932,243.8972,-49.461807,40.468567,SDL
2468428921000,0.829889,5.85823600220733,7.70252243301143,0.748800020931218,-0.6411031,0.12003502,0.087659165,243.80597,-49.66966,40.253693,SDL
2468433955000,0.834923,5.79647753299172,7.76428100143871,0.592028417980883,-0.64934975,0.15943582,0.1328632,243.70718,-49.859653,40.0559,SDL
2468438990000,0.839958,5.7283856053948,7.838790584718,0.429053159828347,-0.64721173,0.23090707,0.172264,243.6232,-50.04813,39.861465,SDL
2468443966000,0.844934,5.64892286326631,7.93695000623835,0.256105141623345,-0.6270532,0.26053402,0.2171626,243.53854,-50.21786,39.68584,SDL
2468448935000,0.849903,5.55647905357005,8.0345024309147,0.0801849710092628,-0.59315014,0.35430184,0.22968534,243.43167,-50.41678,39.483044,SDL
2468454087000,0.855055,5.42794072983404,8.13447678213045,-0.110242309484755,-0.57787853,0.46089783,0.26267207,243.30684,-50.592117,39.30308,SDL
2468458960000,0.859928,5.31340930674909,8.22275030400542,-0.271684003738674,-0.51343226,0.5671884,0.27977628,243.18082,-50.81704,39.07836,SDL
2468464406000,0.865374,5.21182805577102,8.29783260750275,-0.38209828947667,-0.43035457,0.68539083,0.2837469,243.00967,-51.030354,38.863895,SDL
2468468979000,0.869947,5.12653039496994,8.36087913227199,-0.474813039509696,-0.3594942,0.8060367,0.2828306,242.83423,-51.307175,38.590965,SDL
2468474391000,0.875359,4.99675853349427,8.42620858791826,-0.554692396024029,-0.2657264,0.93676186,0.28619036,242.61069,-51.573578,38.328068,SDL
2468478982000,0.87995,4.88975249510284,8.48066857140059,-0.610917735882468,-0.17348573,1.0577132,0.26816985,242.34738,-51.838207,38.06621,SDL
2468484365000,0.885333,4.83926090411361,8.54630795602351,-0.585671919298727,-0.086132,1.17897,0.24007004,242.06726,-52.167347,37.743233,SDL
2468489125000,0.890093,4.79590604889894,8.60135582684766,-0.553968919158371,-0.014966198,1.2605205,0.22693644,241.77496,-52.540516,37.3782,SDL
2468493977000,0.894945,4.76787188081448,8.62004517466063,-0.404453243828054,0.062002823,1.3121386,0.20250183,241.45148,-52.90956,37.0167,SDL
2468499086000,0.900054,4.74468755454809,8.63775899136806,-0.236344129966633,0.12583824,1.3329079,0.17470746,241.10844,-53.2946,36.6389,SDL
2468504037000,0.905005,4.79971698939504,8.63088028807002,0.057146397513903,0.16920967,1.3087788,0.13836098,240.76596,-53.67289,36.26772,SDL
2468509011000,0.909979,4.85500206492094,8.6239696295759,0.352000342916485,0.21594086,1.2284501,0.1133155,240.40945,-54.03345,35.912235,SDL
2468513991000,0.914959,4.9103538293196,8.61705063494366,0.647209962559602,0.25686884,1.1114693,0.09865474,240.07822,-54.387825,35.563484,SDL
2468519002000,0.91997,4.96605015289424,8.61008857026452,0.944257232445476,0.25625798,0.94042706,0.08032878,239.79744,-54.73662,35.220997,SDL
2468524027000,0.924995,5.13031034343172,8.45404484022011,1.34046835871936,0.24465153,0.72387534,0.04917465,239.57855,-55.08304,34.881836,SDL
2468528930000,0.929898,5.29943333151576,8.28961970610305,1.73508833721861,0.19822577,0.5036584,0.014966198,239.4213,-55.42125,34.550816,SDL
2468534012000,0.93498,5.49539724660984,8.10696820497869,2.11078700032933,0.1142318,0.26908615,-0.027488936,239.2286,-55.67707,34.295334,SDL
2468538969000,0.939937,5.68852338783417,7.92763687043782,2.47404800232468,-0.011911872,0.04337143,-0.04184427,239.11108,-55.927383,34.0459,SDL
2468544024000,0.944992,5.88862686141333,7.7210287758367,2.79375032193555,-0.16707164,-0.06719518,-0.061391957,238.96356,-56.10612,33.863255,SDL
2468548930000,0.949898,6.08335795251269,7.51656076671847,3.09558395285463,-0.34972036,-0.31031954,-0.06688975,238.94135,-56.279495,33.686802,SDL
2468554090000,0.955058,6.20133242774818,7.29682632774818,3.25365632358354,-0.44318274,-0.5494733,-0.099571034,238.90154,-56.395664,33.56303,SDL
2468558981000,0.959949,6.30567382424213,7.08814372424213,3.38975364486199,-0.64904433,-0.7583892,-0.1160644,238.9371,-56.501396,33.446835,SDL
2468564028000,0.964996,6.38055439176742,6.8944839375072,3.06613485384763,-0.8399397,-0.929126,-0.118507855,239.00296,-56.550606,33.382923,SDL
2468569019000,0.969987,6.44934801410478,6.70644808434082,2.67171789422376,-1.0057896,-1.0500773,-0.1001819,239.12546,-56.591297,33.324577,SDL
2468574022000,0.97499,6.50988272596154,6.65786794944332,2.22143155829959,-1.1236867,-1.0980303,-0.07147124,239.26654,-56.58077,33.31158,SDL
2468578939000,0.979907,6.56707594615385,6.64833568801619,1.76388500048583,-1.2165382,-1.0622946,-0.034208454,239.4219,-56.554604,33.309074,SDL
2468584891000,0.985859,6.60950184585671,6.57719381734572,1.2819392220951,-1.2559389,-0.94225967,0.012217305,239.63095,-56.481567,33.35712,SDL
2468589103000,0.990071,6.63547113271406,6.51783572408719,0.951760011382323,-1.2819008,-0.73945236,0.064751714,239.79855,-56.391254,33.416496,SDL
2468594082000,0.99505,6.6305382923973,6.37325617535254,0.703669229055794,-1.269378,-0.47739118,0.11911872,239.97423,-56.281376,33.50163,SDL
2468599030000,0.999998,6.60632701951768,6.18925135090946,0.534191274520744,-1.2415836,-0.17287487,0.17654006,240.06407,-56.154728,33.59718,SDL
2468604061000,1.005029,6.55061036562713,5.97297890761134,0.533024278929929,-1.20371,0.1282817,0.2406809,240.12703,-56.003796,33.72303,SDL
2468609082000,1.01005,6.48031734428418,5.74335513575675,0.612689727585031,-1.1545353,0.38515055,0.3115413,240.09924,-55.83735,33.8592,SDL
2468614034000,1.015002,6.37267205984364,5.51394515647274,0.73590400013707,-1.0943651,0.57879484,0.3943135,240.0157,-55.636814,34.02902,SDL
2468619074000,1.020042,6.24035289566453,5.27871102427658,0.887826072631739,-1.0531317,0.72143185,0.4886922,239.86041,-55.416733,34.213604,SDL
2468624081000,1.025049,6.11304461990808,5.01395167053478,1.06824009614059,-1.026559,0.84513205,0.57818395,239.63162,-55.15809,34.428795,SDL
2468629066000,1.030034,5.98838306810111,4.73470976741174,1.26271213674535,-1.0241156,0.9233228,0.6640105,239.3683,-54.877956,34.662098,SDL
2468634083000,1.035051,5.85738665266845,4.44525291610287,1.36834202269334,-1.0338894,0.9963212,0.7305948,239.03754,-54.56627,34.914745,SDL
2468639214000,1.040182,5.7215072354134,4.14631770627708,1.4453404127385,-1.0409144,1.0586295,0.77946407,238.68268,-54.239384,35.178402,SDL
2468644139000,1.045107,5.56134089484536,3.86525839587629,1.52743151958763,-1.0571023,1.0934488,0.81306165,238.27902,-53.87733,35.461617,SDL
2468649066000,1.050034,5.38135707690722,3.58798613752577,1.61499116675258,-1.0812315,1.1209377,0.818254,237.85666,-53.512154,35.74164,SDL
2468654934000,1.055902,5.15938717510527,3.31464275359936,1.68225238051935,-1.0864239,1.1438452,0.8173377,237.40414,-53.11724,36.039608,SDL
2468659087000,1.060055,4.99988245357931,3.13918762237818,1.71814093765791,-1.1108584,1.1386528,0.80756384,236.95277,-52.72382,36.32937,SDL
2468664072000,1.06504,4.79106560431497,2.9848880673096,1.81615692763969,-1.099252,1.1472049,0.8035932,236.4677,-52.3186,36.61808,SDL
2468669074000,1.070042,4.57198158498707,2.86105798240207,1.94474970429509,-1.0800097,1.1588113,0.7996226,235.98419,-51.91729,36.897003,SDL
2468674079000,1.075047,4.40512794744698,2.75897788609584,2.12305696386489,-1.0589349,1.1585059,0.81153446,235.48528,-51.511654,37.169853,SDL
2468679086000,1.080054,4.26858232773959,2.66951709338178,2.33022975031422,-1.0369438,1.1414018,0.83260936,234.98785,-51.10774,37.437695,SDL
2468684049000,1.085017,4.07884023879944,2.58301392051282,2.53425232709203,-1.026559,1.0897835,0.8472701,234.46973,-50.713055,37.680546,SDL
2468689058000,1.090026,3.85000191826675,2.49719947564103,2.73925324374876,-1.0332786,1.0094548,0.86651236,233.96574,-50.313118,37.926544,SDL
2468694116000,1.095084,3.63365278804377,2.4381734173103,2.87385272449127,-1.0592403,0.8872818,0.86345804,233.45053,-49.91389,38.151222,SDL
2468699038000,1.100006,3.43328728022068,2.39980563272135,2.95485151933617,-1.0885619,0.7648033,0.84604836,232.96298,-49.513477,38.375797,SDL
2468704021000,1.104989,3.22201798742463,2.33219486815245,3.09096075759044,-1.1078042,0.66798115,0.8206975,232.46039,-49.126465,38.56287,SDL
2468709049000,1.110017,2.99390702515073,2.21295493869509,3.32425622231912,-1.1258247,0.54244834,0.75411314,232.01616,-48.753345,38.737995,SDL
2468714033000,1.115001,2.77185108997616,2.13551758722432,3.65720132416054,-1.142318,0.35643986,0.6542367,231.60686,-48.417557,38.865852,SDL
2468719022000,1.11999,2.55351007728989,2.09754518116432,4.08913661291476,-1.1679744,0.07452556,0.55833083,231.28221,-48.09593,38.989025,SDL
2468724756000,1.125724,2.35397796466315,2.07209060664743,4.45235837068365,-1.2614367,-0.2687807,0.4560109,231.00153,-47.79438,39.068684,SDL
2468729043000,1.130011,2.23549682871928,2.06391949676585,4.64437962354463,-1.3939945,-0.57696223,0.3408628,230.81938,-47.513515,39.13656,SDL
2468734051000,1.135019,2.18965276715004,2.17168851121634,4.73437856081681,-1.5424347,-0.8353582,0.2012801,230.65862,-47.25527,39.13384,SDL
2468739049000,1.140017,2.24159247422314,2.4030567141166,4.68243870583013,-1.6844609,-0.93309665,0.028710667,230.56732,-47.018105,39.10234,SDL
2468744036000,1.145004,2.35907328495911,2.76805060478755,4.49738530500698,-1.7629571,-1.0393872,-0.04153884,230.52429,-46.78253,39.045868,SDL
2468749045000,1.150013,2.5552412325753,3.29435471801317,4.15289540175544,-1.7864754,-0.99021256,-0.1695151,230.4917,-46.590103,38.921288,SDL
2468754021000,1.154989,2.74092842319106,3.92084389967242,3.7786966499181,-1.8249599,-0.7825184,-0.24312437,230.47026,-46.422215,38.763485,SDL
2468759042000,1.16001,2.91697961218807,4.68064397930436,3.36173329482609,-1.8377881,-0.40683624,-0.29168814,230.39197,-46.273155,38.55507,SDL
2468763992000,1.16496,3.06856188262397,5.35144238535435,3.09231272214415,-1.8051068,0.083383106,-0.25778514,230.31697,-46.229515,38.280838,SDL
2468769022000,1.16999,3.18461406080104,5.89785483998193,3.06329958923911,-1.7287487,0.63041294,-0.14935656,230.09758,-46.175446,37.966812,SDL
2468773998000,1.174966,3.31201765475522,6.30122483330658,3.20411820291934,-1.6142114,1.1542299,-0.067500606,229.88167,-46.38453,37.486317,SDL
2468779037000,1.180005,3.46209624213483,6.48035076853933,3.63014780814607,-1.5351044,1.6081028,0.040927973,229.49086,-46.55073,36.996124,SDL
2468784013000,1.184981,3.58359384796327,6.43225003643646,4.17257087259939,-1.5180001,1.9483547,0.13988814,229.01575,-46.860695,36.38229,SDL
2468789135000,1.190103,3.66505241078441,6.01537417397675,4.929655909114,-1.5870279,2.0662518,0.17837265,228.46205,-47.132263,35.772602,SDL
2468794477000,1.195445,3.75794287835224,5.51047190231542,5.61969050418449,-1.751656,1.9498819,0.21135938,227.79994,-47.248863,35.20512,SDL
2468799081000,1.200049,3.84814334694067,4.98566920322671,6.0870928311326,-1.9394971,1.6615535,0.27152961,227.15773,-47.31798,34.673943,SDL
2468804006000,1.204974,3.95847088221114,4.42030864889098,6.44707622560885,-2.1276436,1.3051136,0.34788775,226.42162,-47.08252,34.256165,SDL
2468809079000,1.210047,4.13367061985378,3.8203094289384,6.19507646050487,-2.2992969,0.97219205,0.44868052,225.77327,-46.791718,33.896233,SDL
2468814009000,1.214977,4.30393174868844,3.23722325618732,5.95018017783925,-2.4685066,0.72143185,0.5870415,225.09108,-46.23798,33.667446,SDL
2468819068000,1.220036,4.47864798616806,2.63887985903769,5.69887585856839,-2.5653286,0.5766568,0.73884153,224.47514,-45.63819,33.49431,SDL
2468824035000,1.225003,4.66947846450478,2.06980658903972,5.39700560020111,-2.5919013,0.56046885,0.86406887,223.88959,-44.994373,33.36272,SDL
2468829075000,1.230043,4.98009652785319,1.60387974741076,4.75635647802916,-2.5350907,0.655153,1.0036516,223.2973,-44.314495,33.269753,SDL
2468834043000,1.235011,5.28187846459695,1.17435952574767,4.18294700841751,-2.3945918,0.7296785,1.1618657,222.70386,-43.405006,33.46439,SDL
2468839094000,1.240062,5.56450612418301,0.901312409685086,3.91948038585859,-2.1777346,0.76052725,1.318858,222.07153,-42.498516,33.670826,SDL
2468844068000,1.245036,5.83456749721083,0.643490340549631,3.71250334269893,-1.9110919,0.77488256,1.4031575,221.4714,-41.55636,34.053177,SDL
2468849071000,1.250039,6.05565802932732,0.451878580250205,3.82550516794504,-1.7638733,0.70829827,1.543351,220.83757,-40.597355,34.47952,SDL
2468854037000,1.255005,6.20843228760435,0.279501620534961,3.96273240672291,-1.4923438,0.5907067,1.6340646,220.2245,-39.657894,35.025063,SDL
2468859081000,1.260049,6.06535002109326,0.184113491153397,4.214210147213,-1.212873,0.47128254,1.6175711,219.61583,-38.75166,35.57637,SDL
2468864484000,1.265452,5.90504923600612,0.0885451835033865,4.49826185681669,-0.96791595,0.3115413,1.5109752,219.01834,-37.83604,36.193886,SDL
2468869022000,1.26999,5.63443591243172,0.136021205096133,5.02049805963513,-0.7855727,0.05497787,1.3494014,218.48705,-36.98723,36.82214,SDL
2468874015000,1.274983,5.34666317853503,0.211341476131708,5.58170108947737,-0.7125743,-0.27152961,1.1307116,217.99277,-36.18224,37.390526,SDL
2468879038000,1.280006,5.13034525159388,0.456501808390127,6.0479864254322,-0.7473936,-0.6093381,0.8784242,217.60976,-35.442265,37.957592,SDL
2468884093000,1.285061,4.92060595123777,0.739639726626367,6.44487296625408,-0.8881981,-0.86193085,0.6026186,217.26573,-34.752815,38.380608,SDL
2468889146000,1.290114,4.76273650057571,1.25967997052389,6.3705815998081,-1.1206323,-0.94959,0.35124752,217.02003,-34.097454,38.781433,SDL
2468895140000,1.296108,4.4543922836152,1.96338120636479,6.14330137552282,-1.391551,-0.784351,0.24007004,216.76335,-33.481693,39.011406,SDL
2468899097000,1.300065,3.96166220377341,2.63528592284052,5.66090824759047,-1.5971072,-0.44593164,0.23151793,216.5229,-32.874603,39.187313,SDL
2468904395000,1.305363,3.30194929929987,3.53489451214766,5.01503541671213,-1.6588045,-0.12370021,0.28619036,216.33685,-32.39783,39.23254,SDL
2468909017000,1.309985,2.99993740596548,3.50802236607549,4.97975522116844,-1.625207,0.063224554,0.30634892,216.11514,-31.915836,39.22552,SDL
2468914044000,1.315012,2.70315546437785,3.38474372515175,5.00258459028832,-1.5775595,0.13408493,0.32375857,215.83403,-31.419842,39.184654,SDL
2468919022000,1.31999,2.64120447667455,3.15283351556344,5.00523805299448,-1.5106697,0.124311075,0.35033122,215.7798,-31.365383,38.922417,SDL
2468924047000,1.325015,2.66490592466509,2.87789642188731,5.0004976644011,-1.4410311,0.08827003,0.30848694,215.72704,-31.328703,38.647724,SDL
2468929037000,1.330005,2.84015339987457,2.6120277964203,4.90851077303165,-1.398576,0.082161374,0.31245756,215.62357,-31.283552,38.332294,SDL
2468934054000,1.335022,3.08122204096874,2.34777949226168,4.77870470827866,-1.4101825,0.118202426,0.29932398,215.5332,-31.250277,38.011024,SDL
2468939153000,1.340121,3.35838852986489,2.1217648125126,4.81575212940109,-1.4462235,0.16768251,0.2733622,215.38821,-31.107952,37.748127,SDL
2468944106000,1.345074,3.6453451143779,1.92567779977818,4.94488250254084,-1.4727961,0.2941316,0.2883284,215.21074,-30.959715,37.469643,SDL
2468949066000,1.350034,3.94684338548567,1.72480048979889,5.15456020257595,-1.4862351,0.40011674,0.33628133,215.00157,-30.69829,37.30273,SDL
2468954064000,1.355032,4.25815967349593,1.51998711203252,5.40852862162602,-1.4923438,0.47952923,0.3390302,214.78171,-30.442238,37.109447,SDL
2468959081000,1.360049,4.5926810563206,1.38068595779451,5.72147463926842,-1.534799,0.5702427,0.34208453,214.48387,-30.067192,36.972294,SDL
2468964075000,1.365043,4.97344145395374,1.38583141649274,6.15883459903174,-1.5711454,0.6814202,0.35918877,214.16547,-29.693573,36.815475,SDL
2468969054000,1.370022,5.30435071185423,1.53356625270324,6.60712990748899,-1.5763378,0.79198676,0.37507126,213.76604,-29.198284,36.70845,SDL
2468974087000,1.375055,5.57942114344213,1.85689467861434,7.07523216519824,-1.5467108,0.88086766,0.38423425,213.35365,-28.7081,36.580917,SDL
2468979624000,1.380592,5.94227355406556,2.43135932362088,7.64388814113103,-1.498147,0.9263771,0.37904188,212.89838,-28.16992,36.456863,SDL
2468984112000,1.38508,6.28281590002971,3.06561955632366,8.14618855036149,-1.4208726,0.8891144,0.3640757,212.45401,-27.653759,36.32966,SDL
2468989056000,1.390024,6.55677821052632,3.60518298704453,8.72757328340081,-1.3267993,0.77091193,0.37110063,212.02205,-27.181942,36.180424,SDL
2468994152000,1.39512,6.70617147368421,3.95216075546559,9.36369920894638,-1.2345587,0.569021,0.39492437,211.6257,-26.736258,36.06089,SDL
2468998985000,1.399953,6.86914117427709,4.29039518688541,9.75360615704411,-1.2012665,0.2919936,0.41172317,211.32483,-26.420723,35.9345,SDL
2469004082000,1.40505,7.07349906455068,4.66109080134359,9.83915099727388,-1.2067643,-0.00030543262,0.41386122,211.07101,-26.122414,35.865074,SDL
2469008970000,1.409938,7.30315590501493,4.96295573883582,9.76247356029851,-1.1951579,-0.2843578,0.38087448,210.8688,-25.87342,35.781506,SDL
2469014038000,1.415006,7.60740665375124,5.17061903073632,9.37129405502488,-1.1273518,-0.48563787,0.37293324,210.70364,-25.636362,35.757286,SDL
2469018992000,1.41996,7.7602496957029,5.09986936677037,9.02433136612872,-0.99204516,-0.5494733,0.4382958,210.60248,-25.494598,35.778534,SDL
2469024080000,1.425048,7.62287092564651,4.46982231687731,8.74009983744896,-0.95294976,-0.5458081,0.48991394,210.53355,-25.351574,35.83007,SDL
2469028969000,1.429937,7.47274329221497,3.94729419118031,8.47748005303867,-0.96791595,-0.5338962,0.5006041,210.52731,-25.295015,35.99091,SDL
2469034074000,1.435042,7.26647898508287,3.6280753361326,8.23192673259668,-0.9550878,-0.5412266,0.5308419,210.50241,-25.236551,36.160698,SDL
2469039107000,1.440075,7.07114182227959,3.39912650396148,8.09286160365369,-0.8790351,-0.535118,0.5348125,210.41887,-25.054516,36.373524,SDL
2469044143000,1.445111,6.89397082227959,3.36560775396148,8.18862960365369,-0.8335256,-0.52320606,0.54305923,210.32773,-24.867023,36.584908,SDL
2469049010000,1.449978,6.7291442337267,3.38763966667603,8.29318965542756,-0.75961095,-0.5305365,0.5476407,210.21803,-24.660183,36.808094,SDL
2469054078000,1.455046,6.57458779633792,3.55583332927789,8.43410919986888,-0.6881397,-0.53786683,0.56107974,210.10378,-24.464834,37.02445,SDL
2469059086000,1.460054,6.43440864324961,3.66897266557594,8.57401309536892,-0.6056729,-0.5308419,0.58276546,209.96968,-24.28774,37.196953,SDL
2469064058000,1.465026,6.36433037166405,3.48910497988128,8.71650538579278,-0.52839845,-0.5143485,0.6188065,209.82956,-24.1239,37.368122,SDL
2469069043000,1.470011,6.29406887048666,3.30876700458203,8.85937024254317,-0.49846604,-0.44501534,0.6414085,209.68175,-24.016308,37.46697,SDL
2469074082000,1.47505,6.22304626177394,3.12647551861754,9.00378268249607,-0.48930305,-0.35246924,0.6927212,209.50945,-23.910046,37.56249,SDL
2469079073000,1.480041,6.14656707786646,2.9407098118941,9.14999412750633,-0.5012149,-0.2657264,0.72051555,209.32726,-23.804117,37.640728,SDL
2469084072000,1.48504,5.99279454866654,2.68908231993381,9.33638520469145,-0.52839845,-0.19303341,0.74097955,209.12032,-23.690323,37.703556,SDL
2469089128000,1.490096,5.84557545975512,2.44265854099759,9.53037316639904,-0.5448918,-0.12797627,0.71868294,208.82631,-23.47368,37.7171,SDL
2469094156000,1.495124,5.97122348424328,2.46198904123846,9.90248452649538,-0.537256,-0.07544186,0.71868294,208.51326,-23.253897,37.72052,SDL
2469099381000,1.500349,6.10428352373719,2.4968982692716,10.2774875644217,-0.51893,-0.086437434,0.7309003,208.15381,-22.974977,37.6937,SDL
2469104083000,1.505051,6.24850528312592,2.6740849727306,10.5000012811127,-0.5348125,-0.12308934,0.7180721,207.80382,-22.701933,37.656345,SDL
2469109027000,1.509995,6.40014977024158,2.86039102587848,10.7339672137628,-0.5580254,-0.17348573,0.73731434,207.42227,-22.40318,37.612648,SDL
2469114036000,1.515004,6.45967229934414,2.91835625504544,10.863601253537,-0.5329799,-0.21288654,0.7696902,207.0523,-22.118761,37.575737,SDL
2469119003000,1.519971,6.49978395402417,2.94955420868547,10.9705655729411,-0.50885075,-0.25045475,0.79259765,206.69446,-21.83469,37.55233,SDL
2469124077000,1.525045,6.51911806582163,3.01779495120139,10.9796372498473,-0.5021312,-0.28802297,0.8151997,206.34743,-21.568516,37.53158,SDL
2469128980000,1.529948,6.52867921533293,3.09906519627367,10.9461728521686,-0.47708577,-0.31429017,0.8503244,206.00014,-21.311813,37.522465,SDL
2469134066000,1.535034,6.46816026086957,3.18193334500892,10.8601814759132,-0.43279803,-0.33658674,0.86467975,205.65822,-21.058926,37.51675,SDL
2469139163000,1.540131,6.38106804347826,3.26444185217391,10.7547541304348,-0.4092797,-0.36163223,0.87689704,205.31696,-20.807718,37.522587,SDL
2469144162000,1.54513,6.26913366817958,3.36578964665022,10.6510260399605,-0.3622431,-0.3811799,0.8897252,204.98637,-20.583319,37.538975,SDL
2469149066000,1.550034,6.14401803956586,3.47700346348298,10.5490799363591,-0.33353242,-0.40591997,0.90316427,204.66222,-20.363619,37.564045,SDL
2469154075000,1.555043,6.02839793798135,3.57252249811512,10.5511760134779,-0.30970868,-0.4260785,0.93462384,204.34293,-20.172775,37.595844,SDL
2469159103000,1.560071,5.92104616368058,3.65547624379814,10.6292501330563,-0.29565877,-0.44165558,0.9816604,204.02248,-19.98538,37.635197,SDL
2469164071000,1.565039,5.87429721150877,3.79552228074185,10.6179503132832,-0.27397305,-0.48258355,1.0048733,203.72862,-19.835974,37.674313,SDL
2469169073000,1.570041,5.86469266947368,3.97320826406015,10.5507179172932,-0.2434298,-0.5448918,0.94897914,203.4559,-19.701273,37.71765,SDL
2469174079000,1.575047,5.98174547421101,4.1349856185885,10.5188739002145,-0.22296582,-0.60903263,0.91507614,203.16841,-19.569275,37.758495,SDL
2469179080000,1.580048,6.17740915228271,4.28662517340415,10.5090905120008,-0.21013765,-0.66248333,0.9166033,202.89998,-19.448938,37.80899,SDL
2469184081000,1.585049,6.17174180111684,4.22074730435281,10.4334206437572,-0.18142697,-0.72021013,1.0149527,202.64177,-19.358393,37.88703,SDL
2469189332000,1.5903,6.05653483104238,4.0335360218404,10.3182134230622,-0.14508049,-0.82436264,1.0961977,202.40761,-19.276329,37.987362,SDL
2469194092000,1.59506,6.01141814510903,3.86904187489097,10.1660752180685,-0.13133603,-0.9407325,1.0735956,202.20302,-19.213184,38.12908,SDL
2469199076000,1.600044,6.00646167873313,3.70052191460021,9.97277313291796,-0.10720685,-1.0161743,1.0488557,201.98697,-19.14635,38.292652,SDL
2469204068000,1.605036,6.03244467197115,3.56138302045102,9.82739334976719,-0.0571159,-1.0543534,1.0341948,201.75613,-19.053438,38.48266,SDL
2469209065000,1.610033,6.07613614426185,3.43904680679266,9.70942664831553,-0.016493361,-1.0687088,1.0195341,201.54642,-18.970135,38.677803,SDL
2469214038000,1.615006,6.13013274266768,3.32761816507229,9.60956778073704,0.0012217305,-1.0742066,0.9954049,201.32875,-18.865265,38.904423,SDL
2469219083000,1.620051,6.1984115719426,3.22782637591043,9.5307848325905,-0.00580322,-1.0714576,0.9654725,201.12384,-18.769863,39.124012,SDL
2469224078000,1.625046,6.19041386848665,3.13155900433234,9.48868923264095,-0.009468411,-1.0595458,0.97005403,200.91168,-18.65791,39.362003,SDL
2469229074000,1.630042,6.13362348158259,3.03690867246291,9.46975879070228,-0.020158553,-1.0543534,0.9975429,200.7068,-18.546595,39.59407,SDL
2469234065000,1.635033,6.0796644473653,3.05545865808206,9.45085303845774,-0.009773844,-1.0564915,1.0009027,200.47502,-18.40875,39.849243,SDL
2469239211000,1.640179,6.02607034545724,3.1577747725655,9.43136437587741,0.004276057,-1.0577132,0.99387777,200.24112,-18.269491,40.098022,SDL
2469244084000,1.645052,5.9351134104997,3.27889697111838,9.52254502498513,0.051923547,-1.0564915,0.9798279,199.9997,-18.129044,40.3378,SDL
2469249076000,1.650044,5.81187411579417,3.42109626392029,9.69792428970851,0.14935656,-1.0195341,1.1004738,199.71338,-17.980417,40.577057,SDL
2469254066000,1.655034,5.63161229343272,3.66823334541557,9.8538681391406,0.25778514,-1.0454959,1.1905763,199.4719,-17.87655,40.812374,SDL
2469259064000,1.660032,5.40308467256163,4.00402920814577,9.99378291961415,0.3417791,-1.1294898,1.2180653,199.21852,-17.778927,41.053856,SDL
2469264073000,1.665041,5.06063771973294,4.12893953958457,9.94419815845697,0.36682457,-1.2617421,1.2550226,198.95305,-17.697086,41.280563,SDL
2469269072000,1.67004,4.60130799179031,4.03423227315529,9.69795958219585,0.37415496,-1.4899004,1.2803736,198.71518,-17.626818,41.550457,SDL
2469274058000,1.675026,4.38444193277545,3.7493033748768,9.28689801413296,0.34513888,-1.7580702,1.2666291,198.43512,-17.564442,41.849464,SDL
2469279082000,1.68005,4.44259911213389,3.24378335642957,8.68295809260809,0.2764165,-2.0158553,1.2617421,198.18434,-17.488838,42.2009,SDL
2469284080000,1.685048,4.48851702803347,2.64712561715481,7.99671380334728,0.15974127,-2.24157,1.3301591,197.91371,-17.374052,42.599495,SDL
2469289148000,1.690116,4.50934536078747,1.84002717921897,7.11671630951615,0.03268129,-2.479502,1.3814718,197.70062,-17.248404,43.05551,SDL
2469294107000,1.695075,4.4299547446972,1.44159373301407,6.90695329172902,-0.1160644,-2.722321,1.4001031,197.47467,-17.014418,43.66602,SDL
2469299079000,1.700047,4.23517755000499,1.49385092630949,7.44852875137184,-0.21288654,-2.9391782,1.4101825,197.2731,-16.76037,44.32309,SDL
2469304797000,1.705765,3.55168082782014,1.23614196617791,7.01590901450635,-0.27183503,-3.9128973,1.6734654,197.08612,-16.334272,45.37839,SDL
2469309085000,1.710053,2.72073990645161,0.822678587096774,5.96017227096774,0.112704635,-6.255871,2.434298,196.96918,-15.865846,46.893993,SDL
2469313991000,1.714959,2.24092434755504,0.173289281511787,4.23381445792402,0.9935723,-6.310238,2.6126707,196.67944,-15.530829,47.926956,SDL
2469319084000,1.720052,2.49273202095266,-0.781679572238457,1.61596446882642,0.6789767,-5.558263,2.3435845,196.51787,-14.973393,49.37036,SDL
2469323972000,1.72494,3.18499344451012,-1.59455467531557,-0.603861700439992,-0.16737708,-5.1865516,1.915368,196.4384,-14.453305,50.971542,SDL
2469329091000,1.730059,4.83515919735524,-2.23301171949509,-2.32769554946744,-1.0302242,-4.591874,1.4819591,196.29884,-13.939842,52.26611,SDL
2469333999000,1.734967,6.68652806661424,-2.40847850019662,-3.68558301816752,-1.3219124,-4.3689084,1.2556335,196.38528,-13.340693,53.944363,SDL
2469339119000,1.740087,9.14975966394023,-1.72880001022414,-4.51951454471097,-1.5717562,-4.436409,0.91965765,196.64598,-12.734216,55.479725,SDL
2469343978000,1.744946,10.8295274638148,-0.805184280996477,-4.96036741733266,-1.3558154,-4.387845,0.818254,196.97705,-12.060661,57.36889,SDL
2469349060000,1.750028,11.0499721937594,0.811411479466532,-4.60275697533971,-0.86132,-3.923893,0.6401868,177.62209,-11.490438,59.11765,SDL
2469354010000,1.754978,11.2916385032423,2.61625031143643,-4.00420056121045,-0.46303585,-3.4639113,0.24404067,177.72107,-11.101253,61.13649,SDL
2469359029000,1.759997,11.5938811249754,4.93501642718609,-2.8660687866575,-0.301462,-3.5848627,0.029932396,177.76657,-10.7512245,63.14797,SDL
2469364024000,1.764992,11.7630161836275,6.82456612992865,-1.92732602568532,-0.3539964,-3.6108243,0.0729984,177.7946,-10.7183485,64.85825,SDL
2469369072000,1.77004,11.6041700491926,7.68687466466391,-1.46440272099136,-0.5137377,-3.5546248,0.30543262,177.82515,-10.691044,66.51517,SDL
2469374839000,1.775807,11.1799658547159,7.86808208230814,-1.05526651874048,-0.54000485,-3.347847,0.7855727,177.86891,-10.947101,67.813995,SDL
2469379080000,1.780048,10.402716683265,6.4603090060535,-0.983886480453037,-0.33383787,-3.0158417,1.183246,177.88507,-11.148045,69.01922,SDL
2469384077000,1.785045,9.54996741647657,4.80262059120021,-0.908796801077382,0.0106901415,-2.706744,1.41904,177.86407,-11.399147,70.015366,SDL
2469389319000,1.790287,9.14476008062818,3.07168215938761,-0.899987959947359,0.35796702,-2.4489589,1.4856243,214.08563,-11.585625,70.923485,SDL
2469394008000,1.794976,8.78229972240744,1.52334749575364,-0.892108399463064,0.57848936,-2.1374176,1.4737124,177.58281,-11.454811,71.84116,SDL
2469399125000,1.800093,8.9000230524174,0.0143443586474178,-1.07577208773956,0.62980205,-1.6597209,1.4123205,177.35396,-11.329533,72.63818,SDL
2469403940000,1.804908,9.11001042282724,-1.37067847165003,-1.28575943015793,0.4822781,-1.1282681,1.3603969,177.13126,-11.204131,73.32972,SDL
2469408960000,1.809928,10.4501442753931,-2.4103953439439,-1.14568709957501,0.2611449,-0.8491027,1.393689,176.85844,-10.700624,74.18809,SDL
2469413902000,1.81487,12.1397327938802,-3.30044618346791,-0.889231744453889,-0.009468411,-0.84238315,1.6291776,176.64844,-10.154107,75.0045,SDL
2469418955000,1.819923,13.9194042290288,-2.85330179381484,-2.66009165629878,-0.30573806,-1.3115277,2.2143865,176.492,-9.26667,76.102066,SDL
2469423909000,1.824877,15.672577398676,-2.19703370062247,-4.72264866046833,-0.35369098,-1.7559321,2.6465738,176.35298,-8.36896,77.19005,SDL
2469428956000,1.829924,16.7042907996282,-1.44293187288915,-7.92624806118775,-0.1554652,-3.080288,3.7730093,176.16518,-6.9348116,78.900536,SDL
2469433928000,1.834896,17.5754551510615,-0.683574720829664,-11.2944394437139,0.6817256,-5.0084844,5.0805664,175.81625,-5.380327,80.903145,SDL
2469439009000,1.839977,18.1172631765885,-3.05587295967128,-13.5232151316897,2.1774292,-6.597345,6.0344324,175.2354,-3.7238014,83.520615,SDL
2469443928000,1.844896,18.5563369224293,-6.12466471226699,-15.3833750613349,3.5075881,-7.2039337,6.1782913,174.5387,-1.9753153,86.3385,SDL
2469448951000,1.849919,18.5139147524772,-9.26964165574414,-16.495793883057,4.0759983,-6.8322225,5.490762,173.77914,-0.3404312,89.60013,SDL
2469454427000,1.855395,18.3338401483371,-12.7013309994114,-17.4939167002845,3.7745364,-5.4409766,4.28186,173.01904,178.84457,87.3515,SDL
2469459912000,1.86088,18.5980496115136,-12.9329573299393,-16.8360245876248,2.6780334,-3.0063734,3.0842586,172.41205,177.13412,84.5431,SDL
2469464021000,1.864989,18.8446201856276,-12.755734880654,-16.1618082494615,0.98807454,0.22052236,1.8057177,172.09402,175.86737,82.58285,SDL
2469469006000,1.869974,19.0362637446681,-10.8778545635326,-12.2295763503154,-0.7516697,3.0234776,0.2312125,172.05559,174.67426,81.13322,SDL
2469473969000,1.874937,19.1885568310804,-8.41261165595274,-7.19914852642435,-2.2333233,4.4269404,-1.2562444,172.38727,173.94684,80.38621,SDL
2469478951000,1.879919,19.286048455971,-6.35999327189385,-4.69931255199035,-3.1722233,5.053077,-2.1087067,173.00764,173.58566,80.37807,SDL
2469484001000,1.884969,19.3638335836349,-4.43967401777242,-3.13388773343386,-2.9477303,5.160895,-2.2693644,173.68033,173.48528,80.71552,SDL
2469488999000,1.889967,19.4115335853179,-3.72008152950207,-2.39854054916355,-1.5244142,4.7607784,-1.8060231,174.19893,173.65173,81.60065,SDL
2469493972000,1.89494,19.4490268341862,-3.40607788251328,-1.94393817319425,0.089491755,4.3386703,-1.2638801,174.59021,173.82706,82.43276,SDL
2469499032000,1.9,19.4801936345217,-4.25259857990454,-0.200262205825054,1.1368202,3.8918226,-1.0845913,174.6476,174.12144,83.283066,SDL
2469504074000,1.905042,19.5084142969024,-5.56958199500292,2.05742378895383,1.4569136,2.867096,-0.99387777,174.45786,174.27045,83.783775,SDL
2469509034000,1.910002,18.5733361900735,-4.75542200246653,3.97191332315514,1.3677273,1.45783,-0.6939429,174.0798,174.32797,84.059,SDL
2469514000000,1.914968,17.165687918655,-2.90728433157153,5.73865633924293,1.2333369,0.25778514,-0.19914207,173.62387,174.30493,84.14369,SDL
2469519007000,1.919975,14.7002721753164,-0.990374015245757,5.26284290238399,1.2275337,-0.31948254,0.39003745,173.18164,173.985,83.91133,SDL
2469524027000,1.924995,11.7194259220053,0.957552004767978,3.68752252859806,1.2852604,-1.3179418,0.69913524,172.75296,173.62064,83.54338,SDL
2469529206000,1.930174,9.09667192551862,2.35991381317148,3.29489086277743,1.3240504,-1.7119498,1.5201381,172.24252,173.09128,83.03588,SDL
2469533990000,1.934958,6.89699938648428,3.35599193097201,3.53976006962587,1.4559973,-1.2290609,1.6453656,171.68108,172.68405,82.64248,SDL
2469539075000,1.940043,4.58153157551515,3.93193084451791,5.06353172769146,1.9004018,-0.43371433,1.7412714,171.05281,172.28537,82.23984,SDL
2469544003000,1.944971,2.36612020484848,3.8799259184573,8.13702535581267,2.5531113,-0.31612277,1.8668042,170.3314,171.84663,81.7941,SDL
2469548991000,1.949959,0.390651308832124,3.48800769885946,10.3622479445754,2.8585439,-0.9407325,1.8521434,169.5285,171.47884,81.42375,SDL
2469554019000,1.954987,-1.42940961951174,2.87526886036384,12.0370667350363,2.9077187,-2.0506747,1.7229455,168.61314,171.11806,81.05164,SDL
2469559039000,1.960007,-3.21736673591328,2.32288337138081,13.4116380299868,2.899472,-3.3157766,1.4776831,167.63817,170.84363,80.78352,SDL
2469564040000,1.965008,-4.96892111005977,1.83283638958566,14.4790670540979,2.9642236,-4.646241,1.1343768,166.62245,170.63863,80.545135,SDL
2469569015000,1.969983,-6.63292684126984,1.39258929555556,15.4644146349206,3.0494392,-6.0716953,0.7119634,165.58539,170.41713,80.257355,SDL
2469574046000,1.975014,-8.24273395679012,0.991317736234568,16.389700617284,3.0833423,-7.504785,0.20952678,164.53816,170.30797,79.97635,SDL
2469579034000,1.980002,-9.94341500951343,0.442930399377663,15.2054152490338,3.0289752,-8.876178,-0.3155119,163.47864,170.21118,79.565994,SDL
2469584038000,1.985006,-11.7622889236944,-0.269422334175007,11.7528783983748,2.7192667,-8.840442,-0.6423248,162.47987,170.18631,79.1235,SDL
2469589090000,1.990058,-12.5740899560083,-1.73905432279303,8.09532241216416,1.2223413,-7.694764,-0.57696223,161.83673,170.11353,78.533165,SDL
2469594057000,1.995025,-12.2323455933471,-4.01891030465505,4.30804655360693,-0.9379836,-6.7955704,-0.29840767,161.4746,170.09735,77.8368,SDL
2469598996000,1.999964,-11.2609129722197,-6.12341971839652,0.501541046746901,-2.7491992,-5.3753085,-0.047647487,161.56201,169.99591,76.970085,SDL
2469604025000,2.004993,-9.41306332838657,-8.0453578043616,-3.42949760209936,-4.1205916,-3.4730744,0.10567969,162.14265,169.91759,76.25043,SDL
2469608974000,2.009942,-7.67330302743345,-9.9531946136964,-7.16789624121114,-5.07629,-1.8255708,0.19150625,163.28482,169.5914,75.155075,SDL
2469614066000,2.015034,-6.18686430928673,-11.9797061040439,-10.5123836157285,-5.5020633,-0.6743952,0.23335053,164.66217,169.29405,74.29756,SDL
2469618997000,2.019965,-4.58254412191573,-13.5619230026271,-13.0058312663433,-5.113858,-0.46731192,0.1142318,166.20905,168.84572,73.093994,SDL
2469624049000,2.025017,-2.42669140557745,-14.0018931426695,-13.2453706952612,-4.426024,-0.064446285,0.023518313,27.135668,168.40149,72.1525,SDL
2469628983000,2.029951,-0.4491975055594,-14.109604763937,-13.0915146032295,-3.1658092,0.40500367,-0.20952678,27.648643,167.80351,70.9458,SDL
2469634066000,2.035034,1.2239645171857,-13.3048394240677,-11.8300922306805,-2.1908681,0.5684101,-0.50671273,28.103859,167.25554,69.81172,SDL
2469639140000,2.040108,2.89416402602076,-12.5014990080738,-10.5709033425606,-1.5323554,0.5354234,-0.7965683,28.65807,166.71191,68.83208,SDL
2469644019000,2.044987,4.25584472635309,-11.6050800352234,-8.86262890281357,-1.0680978,0.42088616,-1.0500773,29.06341,166.20287,67.94181,SDL
2469649014000,2.049982,5.53496863904639,-10.6290424450172,-6.87973030262028,-0.7312057,0.2003638,-1.3026701,29.211077,165.74985,67.09553,SDL
2469654037000,2.055005,6.37413495977143,-9.55580887109451,-6.18286300963516,-0.48624873,-0.047647487,-1.5076154,29.301876,165.46123,66.55772,SDL
2469659481000,2.060449,7.16706258125714,-8.36870880051868,-5.76577383316044,-0.2751948,-0.16310102,-1.6701056,29.231825,165.20894,66.04556,SDL
2469664041000,2.065009,7.71168524596562,-7.17385855389727,-5.04540735878072,-0.056199603,-0.28344148,-1.8005253,29.17265,165.06418,65.781555,SDL
2469669021000,2.069989,8.21471777207046,-5.71506491103259,-3.97394856667018,0.07880162,-0.44226643,-1.9083431,28.96978,164.94598,65.50907,SDL
2469674035000,2.075003,8.39590360965464,-4.45083888605978,-3.21809713450711,0.07696902,-0.6930266,-2.0448713,28.460558,164.9768,65.345474,SDL
2469679040000,2.080008,8.39126658875883,-3.30551762665183,-2.64775508787849,-0.044593163,-0.8753699,-2.172237,27.870686,165.0321,65.1792,SDL
2469684097000,2.085065,8.39875338677406,-2.32075040101399,-2.56714367421789,-0.21594086,-0.97433007,-2.2751677,27.296608,165.13629,65.12923,SDL
2469689055000,2.090023,8.41485564247563,-1.47940262674354,-2.8449091193387,-0.3491095,-0.9896017,-2.295937,26.66757,165.26135,65.06711,SDL
2469694007000,2.094975,8.49127771650629,-0.635494080617532,-3.1867332391879,-0.38087448,-0.9202685,-2.2412646,25.749077,165.55699,65.12801,SDL
2469699802000,2.10077,8.84925086602517,0.368004763244158,-3.87333809960876,-0.30207285,-0.96486163,-2.0705278,24.859755,165.81842,65.13821,SDL
2469704017000,2.104985,9.4172582293726,1.34231780165423,-4.26769172213032,-0.14966199,-1.2782356,-1.6865989,23.421928,166.28561,65.13615,SDL
2469709095000,2.110063,10.7171596427275,3.00521033872504,-4.53257713562639,0.21899518,-1.7189748,-1.1191051,22.160841,166.61311,65.023315,SDL
2469714001000,2.114969,12.1965334854713,3.72213337801205,-5.07969016397945,0.68752885,-1.8121318,-0.5537493,20.748999,166.97673,64.86973,SDL
2469719033000,2.120001,14.1646250035436,2.66337708524096,-6.22809923988306,0.9633345,-1.534799,-0.24373524,19.5432,167.22769,64.64631,SDL
2469724051000,2.125019,16.0390220037992,1.54771806574685,-7.21464271537692,0.9993755,-0.9633345,-0.16798794,18.111843,167.63226,64.5589,SDL
2469729085000,2.130053,16.940362169966,-0.235682127114577,-6.44344257212557,0.90408057,-0.36682457,-0.058948494,17.022024,167.9203,64.49537,SDL
2469734066000,2.135034,17.7882309224953,-1.98353046663516,-5.71501821455576,0.66645396,0.122478485,0.116980694,16.352777,168.07239,64.449974,SDL
2469739111000,2.140079,18.1743195098814,-3.57354943557312,-5.3496874743083,0.3894266,0.31123585,0.3286455,15.888827,168.19221,64.45976,SDL
2469743979000,2.144947,18.5468624719024,-5.10778379450077,-4.99717408609727,0.20097467,0.29626966,0.49754974,16.227428,168.01122,64.53812,SDL
2469749066000,2.150034,18.824254257859,-7.09359449539425,-4.00089679102872,0.18661933,0.22021692,0.6017023,16.665953,167.813,64.62263,SDL
2469753997000,2.154965,19.0560545167624,-9.1452779715718,-2.82709739814099,0.34391713,-0.062308256,0.711658,17.105898,167.58026,64.6223,SDL
2469759042000,2.16001,18.5574164979316,-10.7801976348502,-2.15416986416103,0.57696223,-0.6267477,0.82986045,17.95993,167.0593,64.44931,SDL
2469763973000,2.164941,17.9237071249117,-12.2858519417314,-1.60146118383614,0.7620544,-1.2363913,0.81581056,18.599213,166.5657,64.198975,SDL
2469769049000,2.170017,15.4916247021655,-12.1975508339266,-1.64307621629586,0.7296785,-1.7217237,0.6762278,19.422302,165.95334,63.88758,SDL
2469773982000,2.17495,12.8102121403144,-11.8191631982597,-1.79256270108771,0.48930305,-2.1444426,0.51923543,19.941952,165.38434,63.454224,SDL
2469779039000,2.180007,10.5566766497098,-10.933318072724,-2.86850016983134,0.21594086,-2.418721,0.40530908,20.519402,164.73297,62.91481,SDL
2469784074000,2.185042,8.41855531628582,-9.94514773086689,-4.13650643384113,0.056199603,-2.4801128,0.25411993,20.85186,164.17007,62.36729,SDL
2469789118000,2.190086,7.16137853623382,-8.6471641403977,-5.21136751557454,0.04886922,-2.2837198,0.087964594,20.988846,163.64816,61.723793,SDL
2469794427000,2.195395,6.3674825228213,-7.09669205251568,-6.22579016395302,0.06505715,-1.9553796,0.02107485,21.10765,163.16217,61.116425,SDL
2469798978000,2.199946,5.68693613799546,-5.76759081462699,-7.09537718086214,0.12156218,-1.6059648,0.024129177,20.911968,162.77081,60.405403,SDL
2469804065000,2.205033,3.47983394325044,-1.93124900808171,-9.42384994422735,0.21960606,-1.0815369,0.058643065,20.881372,162.38242,59.822723,SDL
2469809027000,2.209995,0.478760965097691,3.18933193869153,-12.4905713966844,0.31123585,-0.49205196,0.14049901,21.015274,161.97594,59.331917,SDL
2469814042000,2.21501,-1.44782699241366,5.61804541108925,-13.643881524353,0.39614612,-0.23976462,0.21410827,20.737497,161.77293,58.81848,SDL
2469819025000,2.219993,-2.63580998489619,6.2284713443865,-13.5124054395356,0.42363504,0.10567969,0.24129178,20.714481,161.55975,58.458675,SDL
2469824033000,2.225001,-3.24528473354414,6.21661781666811,-13.2781977366369,0.441961,0.24984388,0.25870144,19.644445,161.84589,57.939667,SDL
2469829038000,2.230006,-3.41138330934766,5.73077926239279,-12.9667625547085,0.398895,0.25289822,0.3231477,18.756224,162.10454,57.44704,SDL
2469834038000,2.235006,-3.41308022902877,5.04829678234912,-12.5580462749297,0.321926,0.16982053,0.48075095,17.905787,162.36366,56.90596,SDL
2469839061000,2.240029,-2.95003872796885,3.80484808001298,-11.8712881985724,0.19181168,0.14752395,0.6921103,17.19951,162.5951,56.355198,SDL
2469844065000,2.245033,-2.55725908407174,2.6275129372952,-11.2808205778963,0.040317107,0.14996742,0.89827734,16.680447,162.732,55.746014,SDL
2469849030000,2.249998,-2.26223950607853,1.54423811839069,-10.8244622298594,-0.07238753,0.2648101,1.010982,16.29007,162.84871,55.138313,SDL
2469854008000,2.254976,-1.94719442658495,0.557282667075273,-10.1638765516185,-0.15332718,0.5002986,1.033584,16.199669,162.83109,54.560787,SDL
2469859047000,2.260015,-1.59134026588776,-0.251476929438805,-9.10555625761348,-0.14721853,0.795652,1.0231993,16.207548,162.80109,54.013027,SDL
2469864001000,2.264969,-1.16827378151659,-1.08460642417062,-7.95088009045951,-0.098043874,1.0195341,1.0005972,16.427254,162.65692,53.500084,SDL
2469869021000,2.269989,-0.524360284834123,-2.04057025829384,-6.4451136606223,0.01038471,1.1227703,0.99387777,16.69089,162.50705,53.02621,SDL
2469873981000,2.274949,0.226418528966749,-3.11816929859057,-4.93174463271464,0.09590584,1.0690142,1.01312,17.142069,162.25706,52.648808,SDL
2469879040000,2.280008,1.25070150978462,-4.51754177415385,-3.33040085907692,0.16584991,0.88697636,1.0250319,17.570415,162.00125,52.260597,SDL
2469884045000,2.285013,2.32219135522352,-5.74935338938561,-1.90732995158977,0.21746802,0.56291234,0.8527679,18.088724,161.66417,51.98055,SDL
2469889101000,2.290069,3.5376193072197,-6.64452590493266,-0.838525032632082,0.2134974,0.12339478,0.57635134,18.488796,161.34978,51.634064,SDL
2469894115000,2.295083,4.74295074537413,-7.53226225638696,0.221401364451351,0.1282817,-0.2950479,0.33658674,19.048027,160.90549,51.39406,SDL
2469899040000,2.300008,5.85108339020079,-8.30549728425016,0.811925340922401,-0.043982297,-0.64476824,0.13072516,19.41785,160.53189,51.095882,SDL
2469904011000,2.304979,6.95137556184899,-9.06225899247019,1.29983772474378,-0.24312437,-0.8567385,-0.07238753,19.624704,160.23088,50.763718,SDL
2469909050000,2.310018,7.82945803562593,-9.32325126234537,1.10397509278575,-0.41416663,-0.8903361,-0.25503623,19.956734,159.88454,50.632343,SDL
2469913983000,2.314951,8.65695963236022,-9.51025760663038,0.818790966947056,-0.5552765,-0.8567385,-0.34055737,20.21332,159.58896,50.48339,SDL
2469919023000,2.319991,9.89471178258731,-9.38878006050172,-0.337058340334481,-0.61483586,-0.7012733,-0.46914452,20.537655,159.30128,50.499107,SDL
2469923995000,2.324963,11.1828936403345,-9.21546049375307,-1.62524014916872,-0.6835582,-0.36163223,-0.49510628,20.924255,159.0348,50.562458,SDL
2469929039000,2.330007,12.1676203189504,-9.12912778517971,-2.89611904247436,-0.6591236,0.08368854,-0.47586402,21.340836,158.80766,50.741158,SDL
2469934043000,2.335011,13.0753240960917,-9.06271046946318,-4.14919323122055,-0.52564955,0.5036584,-0.43401974,21.840216,158.57816,50.988197,SDL
2469939157000,2.340125,13.3722555654289,-8.98161238065925,-5.16033659220612,-0.32162055,0.83199847,-0.35216382,22.283278,158.45042,51.31034,SDL
2469944603000,2.345571,13.361899405977,-8.88840424205719,-6.09759919405282,-0.1301143,1.0528263,-0.24037547,22.83475,158.2922,51.680344,SDL
2469949083000,2.350051,13.148868071636,-8.63901651452081,-6.35957916505324,-0.04642576,1.1453724,-0.14752395,23.28103,158.21378,52.0402,SDL
2469954858000,2.355826,12.7794469680542,-8.23747176379477,-6.46130358180058,-0.057421334,1.0754282,-0.064446285,23.770557,158.10278,52.380836,SDL
2469959022000,2.35999,12.528319228074,-7.69309478756159,-6.35864825774663,-0.13072516,0.9059132,0.004276057,24.146309,158.01173,52.61015,SDL
2469964052000,2.36502,12.2329508868937,-6.90193119301434,-6.14239681024855,-0.29535335,0.634689,0.058948494,24.484098,157.92542,52.780537,SDL
2469969027000,2.369995,11.4817062624134,-6.61456723475759,-6.12965328446005,-0.4642576,0.4266894,0.13775012,24.738306,157.87112,52.891457,SDL
2469974056000,2.375024,10.574944349722,-6.48301617922154,-6.18133409657594,-0.6020077,0.27030787,0.14813483,24.914387,157.84277,52.95312,SDL
2469979072000,2.38004,9.75906447355427,-6.60102439844269,-6.15398904709904,-0.70554936,0.122478485,0.16523905,24.941647,157.89622,52.992226,SDL
2469984025000,2.384993,8.988843107872,-6.81722686972747,-6.09543410824233,-0.74220127,-0.11789699,0.17470746,24.896309,157.957,52.973644,SDL
2469989041000,2.390009,8.66212274292026,-7.04662744958827,-5.72166012763607,-0.7156286,-0.5323691,0.20341812,24.76691,157.98415,52.801743,SDL
2469994050000,2.395018,8.63803648503715,-7.282672827144,-5.13877243535851,-0.68294734,-1.0146471,0.2574797,24.567223,158.00668,52.55684,SDL
2469999033000,2.400001,8.79204472897438,-7.59276772681791,-4.78976733465022,-0.6630942,-1.5204436,0.30268374,24.36304,157.93784,52.139107,SDL
2470004029000,2.404997,9.06030747649444,-7.9518272689554,-4.58753827873717,-0.64568454,-1.8698585,0.27397305,24.071177,157.87321,51.658997,SDL
2470009087000,2.410055,9.25598067992907,-8.07810780959769,-4.35589956311648,-0.64721173,-2.1096232,0.24831672,23.804594,157.75294,51.127625,SDL
2470014048000,2.415016,9.27177692618863,-7.65160311260113,-4.06629751808711,-0.64934975,-2.2305744,0.24587326,23.48685,157.63576,50.554752,SDL
2470019024000,2.419992,9.02892107492114,-7.19885273904771,-3.87812243665221,-0.62949663,-2.3906212,0.21624629,23.171488,157.4896,49.96457,SDL
2470024999000,2.425967,8.40842109463722,-6.62347961774448,-3.78222686735016,-0.64751714,-2.5033257,0.17989981,22.846626,157.3562,49.369972,SDL
2470029039000,2.430007,8.12642344590034,-6.09152971215009,-3.66493004999007,-0.754724,-2.5167649,0.19608775,22.505957,157.27406,48.818554,SDL
2470034031000,2.434999,7.90812478241016,-5.2990104659321,-3.47035954087751,-0.79045963,-2.499355,0.24037547,22.157312,157.18828,48.26032,SDL
2470039073000,2.440041,7.70647921981544,-4.59822630300146,-3.40119160274891,-0.88453287,-2.375044,0.24923302,21.794867,157.17148,47.723263,SDL
2470044119000,2.445087,7.52810765361826,-4.02086626694512,-3.49037718979116,-0.93034774,-2.1600194,0.21930063,21.478346,157.15341,47.22041,SDL
2470049010000,2.449978,7.04934825613573,-3.55227440434854,-3.63286080545215,-0.96669424,-1.8530598,0.16829337,21.15025,157.25058,46.83055,SDL
2470054035000,2.455003,6.05850135776643,-3.21934982067205,-3.87066402629715,-0.9914343,-1.5100589,0.112399206,20.886911,157.36047,46.512356,SDL
2470059457000,2.460425,5.02056429419265,-2.89075421550183,-4.11163869070979,-0.9746355,-1.2092078,0.024740042,20.59012,157.58488,46.299458,SDL
2470064009000,2.464977,4.85111070632045,-3.30422090762653,-3.96251962256083,-0.94225967,-0.95172805,-0.09560041,20.346605,157.8229,46.172497,SDL
2470069024000,2.469992,4.66442139542875,-3.75974275758377,-3.79823312722537,-0.88117313,-0.7696902,-0.2666427,20.064413,158.08908,45.994637,SDL
2470074061000,2.475029,4.82227188271215,-3.97113812752158,-3.72397630865445,-0.7861836,-0.74006325,-0.59223384,19.724205,158.39514,45.88154,SDL
2470079041000,2.480009,5.52525671530849,-3.79037062910086,-3.79427484434618,-0.689056,-0.6985244,-0.7779369,19.427898,158.68646,45.816257,SDL
2470084040000,2.485008,5.98529203966824,-3.65495022235232,-3.79423776502289,-0.59040123,-0.55955255,-0.71868294,19.19744,158.86212,45.73414,SDL
2470089190000,2.490158,6.18889717177062,-3.566104353554,-3.71649762016062,-0.5497787,-0.44043383,-0.61300325,18.93153,159.05591,45.67773,SDL
2470094102000,2.49507,6.38309297932147,-3.48136437150792,-3.64235012665316,-0.64873886,-0.37690386,-0.49480084,18.68382,159.30217,45.715797,SDL
2470099063000,2.500031,6.42062041618485,-3.41688504921924,-3.67952879421819,-0.7834347,-0.35246924,-0.37659842,18.49656,159.51767,45.756138,SDL
2470104031000,2.504999,6.42564020331294,-3.35664765609833,-3.73976623975522,-0.8539896,-0.24862215,-0.33261612,18.359354,159.72351,45.823326,SDL
2470109091000,2.510059,6.63492774653297,-3.41265054409415,-3.96481594155336,-0.8738427,-0.17379116,-0.3576616,18.234917,159.95364,45.929615,SDL
2470114046000,2.515014,6.85670879700884,-3.47716857676751,-4.19869421526173,-0.8359691,0.015882496,-0.3652974,18.1789,160.16476,46.077362,SDL
2470119031000,2.519999,7.24200167671813,-3.22099056410281,-4.50731759177179,-0.820392,0.23640485,-0.36835176,18.099453,160.40164,46.24327,SDL
2470124094000,2.525062,7.75782485464131,-2.71429708768593,-4.87706673722463,-0.7800749,0.45112398,-0.33383787,18.069,160.61191,46.445747,SDL
2470128984000,2.529952,8.04505668146417,-2.33688254939642,-5.14854039104361,-0.77763146,0.6713409,-0.30757064,18.05241,160.84285,46.69883,SDL
2470134008000,2.534976,8.0684765817757,-2.09331543942757,-5.31716386892523,-0.7852673,0.8604037,-0.269697,18.087692,161.04927,46.983753,SDL
2470139029000,2.539997,8.08093412397114,-1.91762006868204,-5.44505347503303,-0.75869465,0.97524637,-0.25320363,18.048641,161.33264,47.33254,SDL
2470144051000,2.545019,8.07604684686516,-1.84919956704603,-5.50858675059445,-0.7104363,1.0180069,-0.23457226,18.044641,161.59276,47.693764,SDL
2470148984000,2.549952,8.07137003155386,-1.81189442922784,-5.45483027940896,-0.62125,0.9761627,-0.23793201,17.986965,161.87863,48.049644,SDL
2470154055000,2.555023,8.06674038741659,-1.81652397668255,-5.2326117115348,-0.5103779,0.8695667,-0.2919936,17.9097,162.14754,48.392693,SDL
2470158967000,2.559935,8.14339546292088,-1.75366742311506,-5.04848822949804,-0.4166101,0.66950834,-0.38148534,17.752123,162.41933,48.687225,SDL
2470164295000,2.565263,8.41744187481925,-1.52705253792605,-4.92200573579839,-0.3210097,0.41416663,-0.5045747,17.528576,162.6811,48.94318,SDL
2470168985000,2.569953,8.69552171876805,-1.21309099447931,-4.90411584642926,-0.2929099,0.15271631,-0.59803706,17.23681,162.94296,49.170265,SDL
2470174059000,2.575027,9.05564044465833,-0.68928119012512,-5.03506821693936,-0.27000242,-0.084910266,-0.6826419,16.860523,163.20584,49.347317,SDL
2470178970000,2.579938,9.38147135214385,-0.230563061231904,-5.13143835115722,-0.23823744,-0.24984388,-0.66828656,16.417992,163.4932,49.523724,SDL
2470184094000,2.585062,9.66653442600277,0.131421689617335,-5.15858742457354,-0.21380283,-0.28038713,-0.5919284,15.95895,163.77182,49.672436,SDL
2470189119000,2.590087,9.92916143524661,0.482274763657341,-5.17527031950774,-0.18600847,-0.25381452,-0.5177083,15.424029,164.1092,49.84087,SDL
2470194075000,2.595043,10.0980027920392,0.806267510008653,-5.13876397846361,-0.13103059,-0.26633725,-0.4297437,14.922383,164.40726,49.97613,SDL
2470199110000,2.600078,10.2507926214446,1.11687696755938,-5.10759720364578,-0.07819075,-0.25289822,-0.32070425,14.43393,164.72316,50.159473,SDL
2470204077000,2.605045,10.1717527033526,1.19591674000586,-5.14944190900205,-0.023518313,-0.2180789,-0.2275473,13.983325,165.00467,50.33238,SDL
2470209334000,2.610302,10.0710986312871,1.26446846562376,-5.18696565556436,0.042760566,-0.17165314,-0.16340645,13.508045,165.30946,50.539608,SDL
2470214041000,2.615009,9.77876107549505,1.14619441831683,-5.14010229752475,0.10934488,-0.13988814,-0.13255776,13.065911,165.58403,50.740864,SDL
2470219049000,2.620017,9.46772931866337,1.02035706354455,-5.09024215368317,0.13500121,-0.0720821,-0.10751228,12.646997,165.84666,50.94183,SDL
2470224078000,2.625046,9.15539331524752,0.893992036158416,-5.04017293176238,0.19700404,-0.022602014,-0.07788532,12.248896,166.07797,51.139053,SDL
2470229365000,2.630333,8.83360345487848,0.763079443750894,-4.98645124659578,0.22388211,0.021991149,-0.06963864,11.866271,166.305,51.349094,SDL
2470234071000,2.635039,8.69669089537169,0.690596254261973,-4.91396812438349,0.24098633,0.03848451,-0.122783914,11.468607,166.53113,51.565517,SDL
2470239068000,2.640036,8.55131221711937,0.613630997594711,-4.83700293915297,0.22632557,0.03848451,-0.16798794,11.127556,166.7112,51.722054,SDL
2470244059000,2.645027,8.35776944968779,0.455890913510083,-4.6865191596581,0.21319197,0.08155051,-0.18112154,10.790333,166.88957,51.894928,SDL
2470248966000,2.649934,8.15091898106255,0.273093394546013,-4.5133424448357,0.1695151,0.124005646,-0.20158553,10.433261,167.08398,52.071266,SDL
2470254079000,2.655047,8.08339249931251,0.118330278247888,-4.45750029945001,0.099571034,0.17012598,-0.22143865,10.092667,167.27437,52.25057,SDL
2470258983000,2.659951,8.06032992457278,-0.0200452665173836,-4.43905023965822,0.045814894,0.23823744,-0.22418754,9.76417,167.46625,52.445267,SDL
2470264070000,2.665038,8.05058799235861,-0.148619960196632,-4.42354311097051,-0.0021380284,0.28008172,-0.24373524,9.443271,167.65178,52.63815,SDL
2470269046000,2.670014,8.04594936060547,-0.269228251102891,-4.40962673133457,-0.025350908,0.30665436,-0.26419923,9.132339,167.83862,52.842953,SDL
2470274067000,2.675035,8.00795474449756,-0.253275591999801,-4.30561428996116,-0.04062254,0.29749137,-0.26542094,8.842429,168.01468,53.04187,SDL
2470279016000,2.679984,7.9560324842446,-0.177752250142416,-4.16400797777114,-0.05222898,0.24007004,-0.23396139,8.557964,168.1861,53.230656,SDL
2470284068000,2.685036,7.86386905109103,-0.30684863747649,-4.09694162043276,-0.059253927,0.25473082,-0.16065755,8.309939,168.33702,53.424866,SDL
2470289204000,2.690172,7.75160213068566,-0.535873578062631,-4.06550679643933,-0.076052725,0.23273966,-0.116675265,172.17575,168.48581,53.591072,SDL
2470294100000,2.695068,7.62141595402066,-0.450699576957667,-4.2811039767065,-0.086437434,0.22632557,-0.06719518,172.04102,168.61891,53.773636,SDL
2470299073000,2.700041,7.46706962689893,-0.0744806539031801,-4.73449612375937,-0.111177474,0.39095375,0.0693332,171.93576,168.72223,53.98171,SDL
2470304023000,2.704991,7.37246780868463,0.235514583780243,-5.02150069593238,-0.18387043,0.44043383,0.17195857,171.8583,168.8108,54.139114,SDL
2470309053000,2.710021,7.33175238998415,0.489985477684099,-5.1589150879028,-0.23182335,0.54825157,0.22357668,171.79434,168.87709,54.345844,SDL
2470314674000,2.715642,7.33423926801288,0.671979624067896,-5.35727749130817,-0.27763826,0.6441574,0.33169982,171.83388,168.96535,54.4895,SDL
2470319010000,2.719978,7.35449339190323,0.773250294277631,-5.52741213198712,-0.29565877,0.72112644,0.41996986,171.881,169.04655,54.651142,SDL
2470323991000,2.724959,7.46989784015174,0.74528053300589,-5.69303434922632,-0.2678644,0.77763146,0.46089783,171.95674,169.14413,54.81718,SDL
2470329071000,2.730039,7.65931160155735,0.604434472428871,-5.83873728942797,-0.20708331,0.82619524,0.45356745,172.03253,169.22797,54.99457,SDL
2470334029000,2.734997,7.92883021717828,0.494097549881012,-5.89386243049695,-0.12034045,0.829555,0.410196,172.11143,169.31612,55.15061,SDL
2470339041000,2.740009,8.26478957364264,0.402908647563244,-5.88426360605939,-0.008857546,0.7724391,0.34483343,172.1626,169.39642,55.302513,SDL
2470343995000,2.744963,8.61896267463854,0.283135415541693,-5.75041660480131,0.13164146,0.6560693,0.25961772,172.17192,169.4604,55.431843,SDL
2470349002000,2.74997,8.99395451132127,0.139242955562062,-5.51931657792125,0.27152961,0.43249258,0.1386664,172.13683,169.53003,55.522785,SDL
2470353939000,2.754907,9.41303264037569,-0.0511850395396628,-5.34591619694466,0.4156938,0.24098633,0.008857546,172.02567,169.59601,55.62872,SDL
2470358929000,2.759897,9.92676886647052,-0.332387921782505,-5.27020784014937,0.51923543,0.09468412,-0.124005646,171.87163,169.67468,55.69615,SDL
2470363930000,2.764898,10.2581175163308,-0.616223260034746,-5.31049580993746,0.61361414,0.053145275,-0.26297748,171.61478,169.75632,55.826797,SDL
2470368945000,2.769913,10.4583722465502,-0.902300990159833,-5.43446259714087,0.68966687,0.118507855,-0.34513888,171.3296,169.8405,55.953037,SDL
2470373967000,2.774935,10.4729152888723,-1.09313086782911,-5.57507812796821,0.71685034,0.2434298,-0.36254853,170.9906,169.90681,56.135166,SDL
2470378957000,2.779925,10.3494679441133,-1.21183000324888,-5.72701309269747,0.6954701,0.37140608,-0.29657507,170.65164,169.96655,56.334137,SDL
2470384261000,2.785229,10.2419670334821,-1.36443844017857,-5.83821794642857,0.67164636,0.528093,-0.17592919,170.33002,169.9811,56.561474,SDL
2470388986000,2.789954,10.1611627366071,-1.51706878392857,-5.90555482142857,0.63285637,0.5879578,-0.07269296,170.03,169.98979,56.789356,SDL
2470393954000,2.794922,10.0294511798645,-1.63006704909971,-5.79147037727009,0.59620446,0.5036584,0.024129177,169.78838,169.95517,56.967075,SDL
2470398953000,2.799921,9.85797459143272,-1.70421915666021,-5.52266906600194,0.58551437,0.44929138,0.06627888,169.56046,169.91344,57.160984,SDL
2470404056000,2.805024,9.66729974221522,-1.75942774294442,-5.21297645134017,0.58062744,0.3567453,0.0842994,169.36974,169.84045,57.2851,SDL
2470408933000,2.809901,9.46939292767048,-1.79164521071147,-4.88159713302128,0.5540548,0.21013765,0.10903945,169.19713,169.76414,57.373405,SDL
2470413979000,2.814947,9.2283028105232,-1.81215379943837,-4.48531725362105,0.5122105,0.01863139,0.13225232,169.02199,169.67159,57.440582,SDL
2470419003000,2.819971,8.94385748428417,-1.81689454662528,-4.02546433096857,0.4633413,-0.16462818,0.1469131,168.86046,169.5842,57.468334,SDL
2470423971000,2.824939,8.68433705629973,-1.84602525064961,-3.79418342256018,0.38881573,-0.27947086,0.1432479,168.70705,169.49327,57.493484,SDL
2470429011000,2.829979,8.45099810172223,-1.9092211857891,-3.8671018522107,0.29932398,-0.29229903,0.13194689,168.57326,169.41391,57.49737,SDL
2470433995000,2.834963,8.22073241180834,-1.96312540200481,-3.93694502534082,0.2134974,-0.2574797,0.11728613,168.43501,169.33888,57.52583,SDL
2470439050000,2.840018,7.98780180204491,-2.0067998723336,-4.00488309029671,0.10995574,-0.22235495,0.09162979,168.3215,169.28802,57.554253,SDL
2470443942000,2.84491,7.82371132786016,-2.04663968667387,-4.04754612014141,0.032070424,-0.19120082,0.09010262,168.24821,169.23274,57.55421,SDL
2470449007000,2.849975,7.73320515472847,-2.08474760663852,-4.06183650308357,-0.01863139,-0.14355333,0.064751714,168.18684,169.20255,57.57372,SDL
2470454226000,2.855194,7.63493541297703,-2.03459690399092,-4.09107192517684,-0.05955936,-0.10995574,0.02443461,168.16548,169.16763,57.565605,SDL
2470459136000,2.860104,7.53638235263296,-1.87855452271417,-4.13624225292114,-0.08582657,-0.11178834,-0.00580322,168.15068,169.14304,57.56275,SDL
2470464066000,2.865034,7.44211901358168,-1.74544640256112,-4.20633295149398,-0.14049901,-0.10170906,-0.007330383,168.15874,169.1254,57.56017,SDL
2470469059000,2.870027,7.37717552564998,-1.76400173326542,-4.4382739798215,-0.17928895,-0.082161374,-0.0067195175,168.16495,169.11668,57.56266,SDL
2470474085000,2.875053,7.32698225431821,-1.78055024942117,-4.66426194631697,-0.19058995,0.020463986,-0.034513887,168.17854,169.1244,57.580387,SDL
2470479073000,2.880041,7.46401065255609,-1.77076245558857,-4.79639667759451,-0.18173242,0.13622294,-0.044898596,168.19899,169.13019,57.605034,SDL
2470484051000,2.885019,7.60953217657325,-1.76353059516697,-4.91569837573418,-0.13775012,0.23915374,-0.04917465,168.23746,169.1328,57.611176,SDL
2470489025000,2.889993,7.82136777497902,-1.77552132406444,-4.93967970832354,-0.08735373,0.30848694,-0.071776666,168.26685,169.13982,57.641468,SDL
2470494034000,2.895002,8.03469397369525,-1.78759642680819,-4.96382978772445,-0.04428773,0.33292156,-0.09407325,168.29141,169.14085,57.681057,LYI
2470499036000,2.900004,8.2348209218932,-1.82138127926214,-4.93645338970874,-0.034513887,0.34269542,-0.09621128,168.31064,169.14001,57.73398,LYI
2470504033000,2.905001,8.42995935106796,-1.86319656337864,-4.88999196291262,-0.03573562,0.3173445,-0.094989546,168.31859,169.13924,57.78433,LYI
2470509046000,2.910014,8.6049060596247,-1.87381062566586,-4.86810771746368,-0.04153884,0.27458394,-0.071776666,168.31183,169.13368,57.848034,LYI
2470514019000,2.914987,8.76827001271186,-1.86900580056497,-4.85849801709039,-0.04734206,0.21838433,-0.046731193,168.30544,169.12778,57.89933,LYI
2470519014000,2.919982,8.84898898856529,-1.84192169530884,-4.8841910886337,-0.052534413,0.19211712,-0.01038471,168.28891,169.1152,57.967987,LYI
2470524264000,2.925232,8.89321326045739,-1.80261114018765,-4.92841551445465,-0.0421497,0.20738874,0.026572637,168.27379,169.09543,58.028652,LYI
2470529034000,2.930002,8.930699630381,-1.76659342800594,-4.92039653972291,-0.005192355,0.23335053,0.044593163,168.24818,169.06894,58.1014,LYI
2470534050000,2.935018,8.9687303913904,-1.7285629151905,-4.88711988444335,0.069027774,0.2843578,0.049785517,168.21445,169.03084,58.18075,LYI
2470539110000,2.940078,9.04922002738589,-1.68588752825726,-4.79896563190871,0.12675454,0.3023783,0.04734206,168.18068,168.99231,58.256336,LYI
2470544187000,2.945155,9.15513762323651,-1.64049403965768,-4.67791620608921,0.17928895,0.2874121,0.054367006,168.13231,168.94208,58.333294,LYI
2470549067000,2.950035,9.19973291609174,-1.68724564620548,-4.58867773459817,0.21288654,0.25992316,0.0693332,168.06877,168.89256,58.42021,LYI
2470554076000,2.955044,9.22209455659146,-1.77221997350364,-4.50817587549879,0.20311269,0.20372356,0.084910266,168.00458,168.84204,58.492912,LYI
2470559075000,2.960043,9.21849049305555,-1.88047916440972,-4.46965862690972,0.18936823,0.16310102,0.083383106,167.91354,168.79474,58.58998,LYI
2470564070000,2.965038,9.19406437173203,-2.0074950463031,-4.46477345365605,0.16982053,0.14538592,0.09437868,167.83131,168.74495,58.673603,LYI
2470569039000,2.970007,9.13618592320785,-2.02515133864638,-4.49665403188827,0.15821409,0.14813483,0.11148291,167.74438,168.68776,58.760605,LYI
2470574107000,2.975075,9.05357721876251,-1.96683909707649,-4.55496622271726,0.15118915,0.16646078,0.13347405,167.66429,168.63107,58.843845,LYI
2470579066000,2.980034,9.00451845033893,-1.9328694726201,-4.62540850854701,0.16829337,0.21288654,0.13988814,167.58643,168.55994,58.92523,LYI
2470584104000,2.985072,8.97607867059633,-1.91390968545044,-4.7059878019943,0.19058995,0.2510656,0.13958271,167.51187,168.48816,59.00617,LYI
2470589113000,2.990081,8.88294029312902,-1.65213885457242,-4.85924728793871,0.24281894,0.36865717,0.17531833,7.230184,168.40608,59.100445,LYI
2470594114000,2.995082,8.74089310538804,-1.20705732022739,-5.06758331161641,0.2929099,0.5122105,0.2443461,7.4111133,168.31577,59.206238,LYI
2470599065000,3.000033,8.59729817105509,-0.878221786344538,-5.13066386689076,0.34269542,0.5671884,0.30787608,7.6046476,168.21501,59.299866,LYI
2470604071000,3.005039,8.44957957124183,-0.640976298529412,-5.07247143058824,0.37201694,0.65484756,0.321926,7.840719,168.10944,59.43473,LYI
2470609071000,3.010039,8.34393474662129,-0.712182927894993,-4.94692382464755,0.42577308,0.68844515,0.28496864,8.017246,168.02565,59.54302,LYI
2470614037000,3.015005,8.30231788011668,-1.24857347969859,-4.72034506519203,0.46670106,0.71929383,0.19547687,8.18634,167.95322,59.675457,LYI
2470619050000,3.020018,8.26058410154407,-1.69845272857602,-4.46481071682393,0.5149594,0.6936375,0.09407325,8.2771845,167.91562,59.816387,LYI
2470624076000,3.025044,8.2192944822003,-1.96683342197083,-4.1551408352241,0.5036584,0.66645396,0.042760566,8.349872,167.8928,59.96692,LYI
2470629073000,3.030041,8.24515386773905,-2.21074280947274,-3.88742561576805,0.5009095,0.65668017,0.019242255,8.505869,167.81754,60.121952,LYI
2470634123000,3.035091,8.34600042716711,-2.43164352886506,-3.66172255748188,0.45937067,0.6270532,-0.006414085,8.617543,167.76584,60.268475,LYI
2470639843000,3.040811,8.51800785987953,-2.5619607801027,-3.44751892152661,0.4071417,0.6209445,-0.021991149,8.788722,167.6853,60.43875,LYI
2470644085000,3.045053,8.68248075984991,-2.58201852439024,-3.31513832026266,0.3115413,0.57940567,-0.0143553335,8.936979,167.62032,60.58951,LYI
2470649002000,3.04997,8.85415145338901,-2.59727228050107,-3.19410497015925,0.19364429,0.5149594,0.00030543262,9.115381,167.55023,60.761078,LYI
2470654081000,3.055049,9.00529683142358,-2.6019955828122,-3.1138086829093,0.06169739,0.40530908,0.03176499,9.278385,167.49149,60.903667,LYI
2470658975000,3.059943,9.09625341611413,-2.58947853114326,-3.12794235201929,-0.04550946,0.29046643,0.05009095,9.434952,167.44812,61.067207,LYI
2470664071000,3.065039,9.09135042314647,-2.54535241356239,-3.30934950813743,-0.1591304,0.20677789,0.05681047,9.57597,167.41945,61.204426,LYI
2470668981000,3.069949,9.05555321513002,-2.47203865216706,-3.52779674168637,-0.21777347,0.16249016,0.06536258,9.713573,167.39964,61.34725,LYI
2470674073000,3.075041,8.96428693971631,-2.3423442786052,-3.83041703026005,-0.24678956,0.15882497,0.07727446,9.841187,167.38858,61.474342,LYI
2470678970000,3.079938,8.87812923686799,-2.2082415143616,-4.09301090483966,-0.23548855,0.1826487,0.08399397,9.948837,167.38324,61.56982,LYI
2470684110000,3.085078,8.79097170391501,-2.048452232048,-4.31090534395042,-0.19853121,0.21197024,0.070249505,10.049439,167.38069,61.66434,LYI
2470689085000,3.090053,8.74108362586269,-1.89765662522703,-4.44195801331275,-0.13744467,0.24495697,0.07666359,10.13235,167.37628,61.71377,LYI
2470694078000,3.095046,8.76279492371958,-1.75436192334726,-4.40721998208318,-0.086132,0.25228736,0.070554934,10.200036,167.3752,61.76601,LYI
2470699005000,3.099973,8.78966835220641,-1.63063588945428,-4.36473827712706,-0.032070424,0.26053402,0.06688975,10.262252,167.37393,61.797596,LYI
2470704082000,3.10505,8.86434032968158,-1.65552660059384,-4.25024108905498,-0.0030543262,0.25961772,0.0693332,10.322106,167.36946,61.827686,LYI
2470709712000,3.11068,8.9376175894403,-1.68917816094969,-4.13106346217537,0.03573562,0.25350907,0.06811147,10.346317,167.37851,61.877354,LYI
2470714037000,3.115005,8.97311914082455,-1.72822990454273,-4.05651020426845,0.056505036,0.24862215,0.07788532,10.376695,167.38257,61.924103,LYI
2470719037000,3.120005,9.01416139676009,-1.77337642892774,-3.97032146680381,0.06047566,0.23762658,0.089186326,10.427066,167.3793,61.98941,LYI
2470724135000,3.125103,9.04594901328196,-1.8181814915036,-3.9183258084964,0.064751714,0.23182335,0.095294975,10.477887,167.3727,62.052773,LYI
2470728969000,3.129937,9.07411148656595,-1.86042505439521,-3.87608224560479,0.064446285,0.22266038,0.099265605,10.527423,167.36433,62.110004,LYI
2470734125000,3.135093,9.09397335517336,-1.87126740858131,-3.87282010858131,0.053450707,0.21655174,0.106595986,10.593219,167.35135,62.180283,LYI
2470739066000,3.140034,9.11119738711439,-1.87557343904814,-3.87712613904814,0.05497787,0.21502456,0.10842858,10.654364,167.33804,62.2482,LYI
2470744195000,3.145163,9.13386231600408,-1.86366024719674,-3.85851602079511,0.05467244,0.21991149,0.11056661,10.727317,167.32147,62.320045,LYI
2470749025000,3.149993,9.15743823037717,-1.84479951569827,-3.8302249235474,0.062002823,0.23396139,0.111177474,10.799984,167.30461,62.39235,LYI
2470754085000,3.155053,9.16170126174101,-1.83214156142661,-3.79802724602083,0.045814894,0.22571471,0.12003502,10.87608,167.29024,62.460793,LYI
2470759055000,3.160023,9.15702473491845,-1.82278870310474,-3.76529214423266,0.061391957,0.23609942,0.121256754,10.955105,167.27385,62.536823,LYI
2470764065000,3.165033,9.13954399469204,-1.81006349681522,-3.73187199256885,0.060170226,0.23457226,0.11911872,11.025325,167.264,62.613373,LYI
2470769060000,3.170028,9.11559000570856,-1.79569110342514,-3.69833640799199,0.0580322,0.23701571,0.116980694,11.097678,167.25285,62.6917,LYI
2470774146000,3.175114,9.08840804905218,-1.76534968757084,-3.6615574208716,0.06383542,0.24923302,0.11759156,11.186872,167.23985,62.77833,LYI
2470779541000,3.180509,9.05811665810045,-1.7249612541626,-3.62116904017979,0.067500606,0.24801129,0.118202426,11.268582,167.22864,62.860645,LYI
2470784115000,3.185083,9.00984925940424,-1.71137462852778,-3.63919391472217,0.06505715,0.25137106,0.11728613,11.351387,167.21964,62.94952,LYI
2470789207000,3.190175,8.94466786738591,-1.7067188078671,-3.68575212132901,0.070554934,0.2611449,0.122478485,11.436564,167.20824,63.036892,LYI
2470794105000,3.195073,8.91061010628378,-1.69657642848363,-3.65495472404366,0.084910266,0.27580565,0.1142318,11.508612,167.20438,63.132633,LYI
2470799075000,3.200043,8.90052264416658,-1.68144555129808,-3.55912572987178,0.093767814,0.29046643,0.1160644,11.589277,167.19719,63.22676,LYI
2470804063000,3.205031,8.92685125059102,-1.6699415498818,-3.48526707423168,0.09468412,0.28802297,0.10751228,11.65379,167.19263,63.30816,LYI
2470809087000,3.210055,8.97424471315997,-1.66046285736801,-3.42365557289204,0.100792766,0.29718593,0.09896017,11.724654,167.1867,63.39417,LYI
2470814036000,3.215004,8.99832236421345,-1.68529382574886,-3.35415637926999,0.10323623,0.2874121,0.09987647,11.801343,167.18436,63.491123,LYI
2470819068000,3.220036,9.00788226582027,-1.73309233556834,-3.27767866373735,0.122478485,0.28710666,0.08857546,11.869582,167.18536,63.59356,LYI
2470824033000,3.225001,9.01864383825266,-1.78140474935065,-3.22593089958678,0.124311075,0.28344148,0.08857546,11.958928,167.1795,63.701584,LYI
2470829071000,3.230039,9.03051119323101,-1.83124768982684,-3.19032885943526,0.11575896,0.2724459,0.08399397,12.033867,167.17757,63.807804,LYI
2470834117000,3.235085,9.04239739275876,-1.88116977748918,-3.15467028567493,0.10873401,0.2782491,0.069027774,12.119364,167.17441,63.92582,LYI
2470839205000,3.240173,9.0543825261708,-1.93150738787879,-3.11871491046832,0.09010262,0.29016098,0.0693332,12.206321,167.17146,64.03888,LYI
2470844080000,3.245048,9.07995027449995,-1.9866420932154,-3.0902033342547,0.09407325,0.30176744,0.060170226,12.292682,167.16772,64.15344,LYI
2470849283000,3.250251,9.12001687837974,-2.05175066444869,-3.06516147149462,0.082161374,0.28619036,0.058948494,12.375406,167.16635,64.260765,LYI
2470854068000,3.255036,9.15622707714035,-2.100615213071,-3.077449513071,0.07880162,0.28038713,0.04795292,12.491161,167.1554,64.3798,LYI
2470859077000,3.260045,9.19360552605435,-2.14266573635921,-3.11950003635921,0.06078109,0.28313604,0.0421497,12.603093,167.14732,64.49414,LYI
2470864065000,3.265033,9.21919145167473,-2.13914419837547,-3.15169859905996,0.050701816,0.27152961,0.041233405,12.723279,167.13037,64.60194,LYI
2470869065000,3.270033,9.23230179209638,-2.08670201529616,-3.1735494706489,0.04642576,0.22143865,0.038179077,12.822568,167.11792,64.69981,LYI
2470874034000,3.275002,9.25776018547776,-2.08759043729034,-3.18614177529488,0.029321533,0.22082779,0.044593163,12.941352,167.10239,64.79658,LYI
2470879071000,3.280039,9.31518122237853,-2.22331139663456,-3.17570165118494,0.0143553335,0.20922135,0.040927973,13.027977,167.09149,64.87864,LYI
2470884039000,3.285007,9.36143910499208,-2.31911247127575,-3.15337989639461,0.02443461,0.19058995,0.03268129,13.123757,167.07687,64.95804,LYI
2470889192000,3.29016,9.39565480041601,-2.36799262677298,-3.11427594553288,0.03604105,0.16554448,0.03726278,13.214926,167.06209,65.029945,LYI
2470894014000,3.294982,9.41886763487833,-2.391281819073,-3.09136203588529,0.039095376,0.1591304,0.038789943,13.335858,167.03667,65.0999,LYI
2470899075000,3.300043,9.43082977141024,-2.38410453715386,-3.08657715629103,0.025045475,0.12889257,0.042760566,13.439174,167.01123,65.15557,LYI
2470903989000,3.304957,9.44244445999309,-2.37713572400415,-3.081931256602,0.01985312,0.11636983,0.041233405,13.553526,166.98296,65.21813,LYI
2470909072000,3.31004,9.45445859553779,-2.36992724267733,-3.07712557729404,0.014049901,0.095294975,0.04642576,13.655988,166.9547,65.26852,LYI
2470913967000,3.314935,9.45220711952344,-2.36063239239047,-3.08544603459839,0.007941248,0.090713486,0.041233405,13.779883,166.9196,65.318665,LYI
2470919065000,3.320033,9.42406231936972,-2.34655979638739,-3.11828214092045,-0.008552114,0.08246681,0.03359759,13.891887,166.88707,65.361565,LYI
2470924014000,3.324982,9.39914225381415,-2.32881691519715,-3.15175809583911,-0.0070249503,0.07544186,0.036957346,14.010682,166.8493,65.40387,LYI
2470929071000,3.330039,9.37995055305132,-2.30002948930057,-3.19014114667129,-0.003970624,0.07574729,0.044898596,14.123421,166.81532,65.44559,LYI
2470934057000,3.335025,9.36108781451021,-2.2773938950213,-3.21592090158614,-0.0015271631,0.070249505,0.041233405,14.216987,166.78514,65.47863,LYI
2470939244000,3.340212,9.34163294602732,-2.27009842408577,-3.20862545604347,0.00580322,0.06994407,0.036651913,14.312999,166.75365,65.51134,LYI
2470944090000,3.345058,9.32345706542811,-2.26328256672052,-3.20180962240172,0.0125227375,0.06536258,0.03940081,14.407531,166.7248,65.53928,LYI
2470949071000,3.350039,9.30477484065208,-2.25627683301513,-3.19480391308073,0.009468411,0.046731193,0.042760566,14.49096,166.69838,65.563896,LYI
2470954032000,3.355,9.27882074478865,-2.24726306257479,-3.19647141778614,0.021991149,0.036651913,0.042760566,14.572369,166.67102,65.589096,LYI
2470959071000,3.360039,9.21827761204401,-2.22863442130863,-3.23838590926462,0.01985312,0.038789943,0.04520403,14.651743,166.64497,65.61151,LYI
2470964058000,3.365026,9.15835925463231,-2.21019801845204,-3.27986786381973,0.021380283,0.03390302,0.041233405,14.733442,166.61292,65.62863,LYI
2470969062000,3.37003,9.09823664374638,-2.19169876842308,-3.3214912246767,0.024740042,0.04062254,0.040011674,14.820241,166.58084,65.648026,LYI
2470974241000,3.375209,9.03959208691441,-2.17192678739868,-3.36456320258449,0.020158553,0.04886922,0.043066,14.902929,166.5506,65.666435,LYI
2470979074000,3.380042,9.02779500418005,-2.1459731561095,-3.40467325924453,0.019242255,0.05589417,0.04917465,14.985887,166.52037,65.68568,LYI
2470984046000,3.385014,9.01565863021869,-2.11927308270378,-3.44593690536779,0.013133603,0.06261369,0.03604105,15.064217,166.49309,65.6926,LYI
2470989139000,3.390107,9.00322690202376,-2.09192322875057,-3.48820475526839,0.014660766,0.073303826,0.038789943,15.156262,166.4605,65.69854,LYI
2470994026000,3.394994,8.98830480405009,-2.0685902,-3.52883491197417,0.014966198,0.10629055,0.035124753,15.245764,166.43492,65.71442,LYI
2470999047000,3.400015,8.94832026555468,-2.0685902,-3.57117168729212,0.022296581,0.14080444,0.04337143,15.345603,166.40561,65.73061,LYI
2471004071000,3.405039,8.9083118366758,-2.0685902,-3.61353375843279,0.029626964,0.13041973,0.046120327,15.412874,166.38391,65.73547,LYI
2471009075000,3.410043,8.86846267702015,-2.0685902,-3.65572719075523,0.023823744,0.106901415,0.052534413,15.492295,166.36053,65.74309,LYI
2471014292000,3.41526,8.83361642191333,-2.06985702053239,-3.69031332379395,0.023518313,0.11759156,0.06078109,15.580864,166.33562,65.755295,LYI
2471019062000,3.42003,8.88341865412919,-2.08645793794858,-3.60730908340147,0.017104227,0.14080444,0.05589417,15.658535,166.3146,65.765945,LYI
2471024063000,3.425031,8.93563269255928,-2.10386279916417,-3.52028514080131,0.03604105,0.15241088,0.046731193,15.729412,166.28345,65.754036,LYI
2471029071000,3.430039,8.96384993418259,-2.13365570785563,-3.48982085265393,0.03634648,0.14263703,0.049785517,15.802421,166.25385,65.741516,LYI
2471034597000,3.435565,8.98938621906968,-2.16940650669755,-3.46939182474426,0.029321533,0.11911872,0.05131268,15.865814,166.22697,65.730385,LYI
2471039137000,3.440105,9.01129415527572,-2.18513909316543,-3.42572309739007,0.021685716,0.112399206,0.048258353,15.947281,166.20178,65.73901,LYI
2471043977000,3.444945,9.03483011140449,-2.19926066684269,-3.3739440430588,0.026572637,0.112704635,0.04642576,16.020796,166.17636,65.74331,LYI
2471049069000,3.450037,9.07022274631881,-2.21380966759561,-3.34660050441743,0.02565634,0.096516706,0.044898596,16.089466,166.1512,65.7446,LYI
2471054001000,3.454969,9.10756489277597,-2.22781286285206,-3.32792952866884,0.012217305,0.07422013,0.03970624,16.149902,166.12926,65.74541,LYI
2471059083000,3.460051,9.13891535497964,-2.23502854651971,-3.30135664502036,-0.007941248,0.07971791,0.03023783,16.217756,166.11043,65.75842,LYI
2471063983000,3.464951,9.1668727474928,-2.23968809572039,-3.2733992525072,-0.008552114,0.08827003,0.028099801,16.276806,166.09126,65.76659,LYI
2471069094000,3.470062,9.18592814285714,-2.24853766722689,-3.25434369915966,-0.008246681,0.09193522,0.028405234,16.335016,166.08197,65.78521,LYI
2471074064000,3.475032,9.20092689285714,-2.25853697310924,-3.23934474033613,-0.0106901415,0.07574729,0.026572637,16.384182,166.07452,65.80144,LYI
2471079068000,3.480036,9.21456269330855,-2.25637578334572,-3.24446183330855,-0.019547688,0.07574729,0.025961773,16.444166,166.06844,65.82756,LYI
2471084040000,3.485008,9.22783830297398,-2.25195051851301,-3.25331236297398,-0.024129177,0.07452556,0.02687807,16.495033,166.06258,65.84917,LYI
2471089147000,3.490115,9.21216182060321,-2.26048932808461,-3.26605392808461,-0.024740042,0.082161374,0.025045475,16.554998,166.05922,65.87769,LYI
2471094123000,3.495091,9.18416329338034,-2.274488786604,-3.280053386604,-0.018936822,0.0711658,0.02107485,16.60416,166.05621,65.90117,LYI
2471099050000,3.500018,9.17307835993771,-2.28078259299202,-3.27582896359743,-0.013133603,0.06291912,0.017715093,16.653305,166.05527,65.927216,LYI
2471104703000,3.505671,9.17044361295503,-2.28341725744111,-3.2600208393469,-0.0018325958,0.05375614,0.017715093,16.695564,166.0535,65.94996,LYI
2471109064000,3.510032,9.16841104058789,-2.28544976613782,-3.24782568104925,-0.015271631,0.04917465,0.020463986,16.736252,166.05104,65.96592,LYI
2471114038000,3.515006,9.16609276153397,-2.28776797257154,-3.23391632141328,-0.013133603,0.05222898,0.027794369,16.777609,166.04495,65.98038,LYI
2471119056000,3.520024,9.16241838353131,-2.29661338741695,-3.20669940022146,0.0018325958,0.039095376,0.022907447,16.820335,166.03804,65.99222,LYI
2471124088000,3.525056,9.15756721944836,-2.31116657573988,-3.16789089802698,-0.010079277,0.030543262,0.027794369,16.874035,166.02928,66.002525,LYI
2471129071000,3.530039,9.16320945,-2.30721038261765,-3.14298691455882,-0.01038471,0.017104227,0.030543262,16.918991,166.01984,66.01307,LYI
2471134081000,3.535049,9.17732095,-2.28839483644118,-3.12887516897059,-0.0018325958,0.008552114,0.019547688,16.955717,166.01344,66.023994,LYI
2471139134000,3.540102,9.19395828562381,-2.26457818670044,-3.09876111614946,0.011301007,0.004886922,0.02687807,17.00681,166,66.03325,LYI
2471144079000,3.545047,9.21241500969455,-2.23689331740634,-3.05492671567691,0.013439035,-0.0067195175,0.021991149,17.036455,165.99341,66.04246,LYI
2471149054000,3.550022,9.23098370580211,-2.20904049137234,-3.01082638355337,0.009468411,-0.017715093,0.028099801,17.073618,165.98691,66.05503,LYI
2471154086000,3.555054,9.24976514877966,-2.18086854753252,-2.96622078129293,0.012217305,-0.028710667,0.023518313,17.095936,165.98396,66.067314,LYI
2471159057000,3.560025,9.2706810623273,-2.16039477506908,-2.92818884590114,0.022907447,-0.023823744,0.01863139,17.122564,165.97934,66.07953,LYI
2471164081000,3.565049,9.29530179879234,-2.15054648048306,-2.89864401356054,0.02076942,-0.02321288,0.009773844,17.137127,165.97818,66.08957,LYI
2471169033000,3.570001,9.31076299323323,-2.14309796076262,-2.88051211676381,0.014049901,-0.029932396,0.014966198,17.153648,165.98306,66.11823,LYI
2471174263000,3.575231,9.31571116324212,-2.13815015240541,-2.87556420507755,0.011301007,-0.028405234,0.0015271631,17.157734,165.99509,66.15301,LYI
2471178997000,3.579965,9.32215794644803,-2.14151470040622,-2.87500427444764,-0.0012217305,-0.013439035,-0.008552114,17.170216,166.00854,66.19407,LYI
2471184067000,3.585035,9.3317792924304,-2.15594679472902,-2.87981507302091,-0.0027488936,-0.0070249503,-0.013439035,17.174704,166.02315,66.23417,LYI
2471189102000,3.59007,9.32820804875127,-2.17353715956133,-2.90097649995392,-0.011301007,0.0070249503,-0.015882496,17.175219,166.04724,66.28369,LYI
2471194175000,3.595143,9.30582111621049,-2.1959236245876,-2.945749383255,-0.013744468,0.014966198,-0.013133603,17.176022,166.07018,66.33216,LYI
2471198969000,3.599937,9.28622881081081,-2.22315317114345,-2.99038879496882,-0.010995574,0.018936822,-0.007941248,17.183245,166.09145,66.380615,LYI
2471204080000,3.605048,9.27096487837838,-2.27403360117464,-3.0463574858316,-0.016493361,0.022296581,-0.008552114,17.191488,166.11397,66.43013,LYI
2471208970000,3.609938,9.26218666436644,-2.31932742290229,-3.08939050975098,-0.026572637,0.017104227,-0.018325957,17.203575,166.12991,66.46687,LYI
2471214034000,3.615002,9.26703694219422,-2.35812898713871,-3.10879111461146,-0.017104227,0.014049901,-0.014049901,17.224977,166.14061,66.50168,LYI
2471219009000,3.619977,9.26544512084097,-2.38322390002893,-3.11923681468801,-0.014660766,-0.00061086525,-0.008857546,17.237173,166.14835,66.52059,LYI
2471224085000,3.625053,9.24903635972611,-2.37853571054104,-3.10986048466583,-0.02076942,-0.002443461,-0.007941248,17.252995,166.1558,66.541176,LYI
2471229015000,3.629983,9.23309956061337,-2.37398236653486,-3.10075384419905,-0.025350908,-0.013133603,-0.008246681,17.269402,166.15616,66.549484,LYI
2471234067000,3.635035,9.21676838229337,-2.36931634342752,-3.09142184670653,-0.032070424,-0.013744468,-0.010079277,17.288332,166.15746,66.55951,LYI
2471239094000,3.640062,9.20092167282703,-2.36148910765233,-3.08612135212244,-0.035124753,-0.03023783,-0.004886922,17.299088,166.15701,66.56206,LYI
2471244083000,3.645051,9.1871249676581,-2.3384941348253,-3.0999182013572,-0.032986723,-0.029932396,-0.0070249503,17.311161,166.15915,66.56967,LYI
2471249009000,3.649977,9.17381073190348,-2.3160466,-3.11400280402145,-0.04520403,-0.03176499,-0.010079277,17.313421,166.16524,66.57504,LYI
2471254088000,3.655056,9.16377947123118,-2.29598455,-3.13406490639307,-0.050396383,-0.029321533,-0.010079277,17.318113,166.17006,66.5811,LYI
2471259072000,3.66004,9.15327808480285,-2.27426579472954,-3.15363476015455,-0.056505036,-0.03176499,-0.013133603,17.31079,166.17947,66.5854,LYI
2471264070000,3.665038,9.13905255082227,-2.24107241997226,-3.17260240287299,-0.045814894,-0.02321288,-0.012217305,17.311743,166.1864,66.59186,LYI
2471269034000,3.670002,9.12330444854056,-2.20319561578848,-3.19303465702237,-0.054061573,-0.025350908,-0.016187929,17.2964,166.19908,66.59449,LYI
2471274098000,3.675066,9.0957283962282,-2.12965963625853,-3.22520655808378,-0.035430185,-0.013744468,-0.021991149,17.290493,166.20816,66.602165,LYI
2471279336000,3.680304,9.06959176346977,-2.05687886375859,-3.26038327991236,-0.0421497,0.0012217305,-0.018020526,17.279373,166.22354,66.60945,LYI
2471284074000,3.685042,9.07411081794642,-2.02976510313714,-3.31461089552833,-0.044898596,-0.0036651916,-0.01985312,17.258587,166.23941,66.61649,LYI
2471290109000,3.691077,9.07691136747529,-2.00345419281222,-3.37769157484277,-0.039095376,0.006414085,-0.025350908,17.23131,166.26178,66.6292,LYI
2471294080000,3.695048,9.07007753692722,-2.0102878806469,-3.40160948226415,-0.03390302,0.0143553335,-0.021380283,17.206486,166.28163,66.63856,LYI
2471298971000,3.699939,9.06166044672058,-2.01870479507637,-3.4310686827673,-0.024129177,0.015271631,-0.025350908,17.162966,166.30606,66.644714,LYI
2471304073000,3.705041,9.05225220277832,-2.0151510730807,-3.4473321448655,-0.018936822,0.014966198,-0.027183503,17.12705,166.32803,66.65097,LYI
2471308976000,3.709944,9.04303272403299,-2.00823642792068,-3.45885655346554,-0.014049901,0.016798794,-0.01740966,17.09806,166.34631,66.65627,LYI
2471314038000,3.715006,9.03351426565875,-2.00109754686825,-3.47075468855292,0.004276057,0.013439035,-0.019547688,17.062012,166.3602,66.65361,LYI
2471319005000,3.719973,9.02417444291184,-1.99409264323581,-3.48242952794031,0.0070249503,0.013133603,-0.019242255,17.035994,166.3714,66.64992,LYI
2471324137000,3.725105,9.01447285321464,-1.99541530156281,-3.47563909531157,0.016493361,0.008246681,-0.01160644,17.006554,166.37567,66.64023,LYI
2471329035000,3.730003,9.00519329910979,-2.00005498172107,-3.4617200548368,0.02076942,-0.0009162979,-0.01740966,16.96846,166.38356,66.631874,LYI
2471334056000,3.735024,9.03271969689877,-1.99673337940316,-3.44116314811781,0.0290161,-0.010995574,-0.022296581,16.927914,166.38847,66.61722,LYI
2471339066000,3.740034,9.07717135430076,-1.9897146889409,-3.4177675376731,0.031154128,-0.011301007,-0.013744468,16.893309,166.39134,66.60173,LYI
2471344051000,3.745019,9.12140119704506,-1.98273102188414,-3.3944886717915,0.039095376,-0.026267206,-0.0125227375,16.837713,166.40042,66.5865,LYI
2471349075000,3.750043,9.16597707065536,-1.9756927183148,-3.37102768439146,0.040317107,-0.03176499,-0.016493361,16.789415,166.40881,66.573105,LYI
2471354101000,3.755069,9.20044701018951,-1.98368216899343,-3.34516926146081,0.032375857,-0.03726278,-0.009773844,16.76018,166.41028,66.55554,LYI
2471359714000,3.760682,9.23116109389582,-2.00415815352824,-3.31445512430245,0.027183503,-0.051923547,-0.0027488936,16.72368,166.4123,66.53556,LYI
2471364082000,3.76505,9.24896751244144,-2.00378004104112,-3.28929948208225,0.035430185,-0.043676864,0.003970624,16.688503,166.4195,66.53286,LYI
2471369133000,3.770101,9.26407633919833,-1.98867152980739,-3.25908245961478,0.018936822,-0.042760566,0.011301007,16.649807,166.42723,66.52401,LYI
2471374082000,3.77505,9.26495478572134,-1.96082259348277,-3.23035512327442,0.030848695,-0.03848451,0.015577064,16.62643,166.42949,66.52226,LYI
2471379005000,3.779973,9.25564352453836,-1.92357832655278,-3.20242197168954,0.028099801,-0.030543262,0.01282817,16.605875,166.4345,66.52165,LYI
2471384063000,3.785031,9.24289574672973,-1.90259256258961,-3.18716148155347,0.037873644,-0.028710667,0.014049901,16.593622,166.43762,66.526855,LYI
2471389070000,3.790038,9.22753936789594,-1.89668623172714,-3.18361769043677,0.037873644,-0.018020526,0.02565634,16.589893767089,166.441890079123,66.5403876154039,LYI
2471404032000,3.805,9.1816511833321,-1.87903683640776,-3.17302807536028,0.028710667,-0.0036651916,0.033292156,16.578753,166.45465,66.580826,LYI
2471409054000,3.810022,9.16624879976843,-1.87311281132461,-3.16947366773335,0.018020526,-0.0030543262,0.034208454,16.574896,166.45921,66.59811,LYI
2471413990000,3.814958,9.15111017665607,-1.86729023310669,-3.16598012809844,0.019547688,-0.0018325958,0.03604105,16.573229,166.46364,66.61861,LYI
2471418965000,3.819933,9.13585194124603,-1.86142164991501,-3.16245898553692,0.015577064,0.002443461,0.03940081,16.574217,166.46896,66.63927,LYI
2471423903000,3.824871,9.12854858939709,-1.86252962817048,-3.16682706590437,0.015271631,0.008246681,0.03604105,16.573153,166.47517,66.66111,LYI
2471429307000,3.830275,9.13367198371448,-1.87533854196119,-3.18475950776161,0.0143553335,0.01985312,0.039095376,16.581646,166.47925,66.68336,LYI
2471433906000,3.834874,9.13803217810118,-1.88623939216909,-3.20002066618157,0.004886922,0.02443461,0.036957346,16.586138,166.48166,66.69608,LYI
2471439006000,3.839974,9.14286735778636,-1.89832774530245,-3.21694432522523,0.010079277,0.009773844,0.03940081,16.591202,166.48087,66.705574,LYI
2471443902000,3.84487,9.14100397590361,-1.90901532771084,-3.24353755542169,0.00061086525,0.004581489,0.043066,16.601198,166.48265,66.718216,LYI
2471448978000,3.849946,9.12694773686747,-1.91838628420241,-3.29039238680482,-0.0125227375,-0.00030543262,0.03756821,16.600723,166.4862,66.72856,LYI
2471453945000,3.854913,9.1185220427421,-1.92914424038819,-3.33436810770184,-0.027794369,0.00061086525,0.040927973,16.577131,166.48561,66.72413,LYI
2471458983000,3.859951,9.12350334833781,-1.94408784509602,-3.37421772025604,-0.04337143,0.003970624,0.050701816,16.55373,166.4861,66.71928,LYI
2471463935000,3.864903,9.12509758248473,-1.95606767617108,-3.41416087372709,-0.05375614,0.0076358155,0.057726767,16.528687,166.48929,66.70934,LYI
2471468974000,3.869942,9.12041728930269,-1.96308796933372,-3.45628268157308,-0.046120327,0.005192355,0.06841691,16.510952,166.48856,66.696724,LYI
2471473946000,3.874914,9.11579922665115,-1.97001491864999,-3.49784442569101,-0.03756821,0.0061086523,0.06841691,16.492962,166.48772,66.68005,LYI
2471479071000,3.880039,9.11103905547474,-1.97715502630201,-3.54068512130734,-0.032375857,0.008552114,0.07147124,16.482948,166.4829,66.66124,LYI
2471484067000,3.885035,9.09858263850389,-1.98463910206949,-3.56878882350484,-0.02107485,0.025045475,0.06872234,16.477844,166.47885,66.64801,LYI
2471489186000,3.890154,9.06135204556674,-1.9939467988988,-3.55482718107082,-0.0125227375,0.01985312,0.064446285,16.46559,166.47437,66.63047,LYI
2471494165000,3.895133,9.02551536015015,-2.00851296871259,-3.54032490997261,0.0015271631,0.034208454,0.070249505,16.46577,166.46347,66.60559,LYI
2471498978000,3.899946,8.99278188201278,-2.05059871571472,-3.5216201769301,0.015577064,0.036651913,0.06047566,16.447546,166.45738,66.5807,LYI
2471504034000,3.905002,8.96313722871615,-2.09302028879797,-3.49908115565946,0.01863139,0.03176499,0.06383542,16.46083,166.44223,66.55487,LYI
2471509076000,3.910044,8.95843362127411,-2.12594485330216,-3.46145308194039,0.021380283,0.032070424,0.054367006,16.46381,166.43231,66.5351,LYI
2471514018000,3.914986,8.95528172682739,-2.161071693017,-3.426561386764,0.021991149,0.03481932,0.056505036,16.473127,166.41736,66.51032,LYI
2471519060000,3.920028,8.96455792200557,-2.22136570250696,-3.40800938384401,0.017715093,0.03634648,0.04184427,16.466732,166.41006,66.49028,LYI
2471524282000,3.92525,8.97676824295327,-2.28423036787598,-3.38061889198945,0.020158553,0.04184427,0.027183503,16.476017,166.3984,66.47458,LYI
2471529073000,3.930041,9.01848714529915,-2.34680876495726,-3.25963403162393,0.024129177,0.043066,0.029932396,16.485472,166.38661,66.45815,LYI
2471534048000,3.935016,9.06180827641389,-2.41179050686488,-3.13400270615566,0.009162978,0.047036625,0.02565634,16.504766,166.37619,66.44709,LYI
2471539102000,3.94007,9.07908233793441,-2.41899358538913,-3.07110763954968,0.0009162979,0.036651913,0.02687807,16.522501,166.36298,66.431915,LYI
2471544031000,3.944999,9.09063496818404,-2.41437255741557,-3.02258654424865,0.0015271631,0.04062254,0.01985312,16.540031,166.35408,66.423325,LYI
2471549072000,3.95004,9.10245010494371,-2.4096465273862,-2.97296292050906,0.0015271631,0.04153884,0.014966198,16.588614,166.34143,66.43135,LYI
2471553994000,3.954962,9.11398632853647,-2.40503206204112,-2.92451073323544,-0.0009162979,0.029321533,0.009773844,16.627419,166.33139,66.43831,LYI
2471559079000,3.960047,9.12427635968498,-2.400200308065,-2.922084175805,-0.00580322,0.02687807,0.010995574,16.672186,166.32133,66.44756,LYI
2471564010000,3.964978,9.13369151699731,-2.395492581936,-2.93620735419201,-0.013744468,0.018020526,0.015271631,16.706589,166.3127,66.45271,LYI
2471569074000,3.970042,9.15346973065015,-2.39764114613003,-2.95039770247678,-0.0033597588,0.035430185,0.01740966,16.759249,166.30647,66.48087,LYI
2471574036000,3.975004,9.17645738622291,-2.40223867724458,-2.96419024781347,0.005192355,0.032986723,0.013744468,16.797443,166.30185,66.502235,LYI
2471579076000,3.980044,9.19725859198137,-2.39395261121798,-2.97208536379467,-0.0012217305,0.023518313,0.014966198,16.839573,166.29675,66.52325,LYI
2471584050000,3.985018,9.21655027893085,-2.3794841481624,-2.97690823517262,-0.002443461,0.024129177,0.016798794,16.881775,166.29146,66.546074,LYI
2471589123000,3.990091,9.23571642456004,-2.37339176328182,-2.97341758984546,0.008246681,0.024740042,0.013133603,16.928352,166.28535,66.56784,LYI
2471594043000,3.995011,9.2540921316726,-2.37109478790036,-2.96652666370107,0.015271631,0.033292156,0.01985312,16.984037,166.2767,66.58903,LYI
2471599072000,4.00004,9.2728749428655,-2.36874692424316,-2.95948307272949,0.009162978,0.02076942,0.016187929,17.01737,166.2746,66.60936,LYI
2471604089000,4.005057,9.29161293526057,-2.36640466296495,-2.95245628889485,0.011301007,0.028099801,0.017104227,17.067844,166.26833,66.6338,LYI
2471609074000,4.010042,9.30467924840889,-2.35987141472633,-2.9300565807794,0.018020526,0.023823744,0.004276057,17.133928,166.25258,66.6516,LYI
2471614039000,4.015007,9.31399111490257,-2.35055998576324,-2.89746662802311,0.016798794,0.02443461,0.0076358155,17.212458,166.23354,66.66892,LYI
2471619060000,4.020028,9.3124305719776,-2.349219127682,-2.89132295275063,0.02321288,0.03604105,0.017104227,17.28896,166.22433,66.69976,LYI
2471624133000,4.025101,9.30176067206544,-2.35455382696827,-2.90732699490502,0.014966198,0.02321288,0.01038471,17.345383,166.22044,66.72666,LYI
2471629070000,4.030038,9.29216319276277,-2.35070768138434,-2.93382579086965,0.010079277,0.018325957,0.01160644,17.42944,166.2065,66.757225,LYI
2471634084000,4.035052,9.28269408913429,-2.34360576714652,-2.96460053833563,0.0015271631,0.020158553,0.0033597588,17.498888,166.19861,66.78855,LYI
2471639137000,4.040105,9.2731513327253,-2.33644861265037,-2.99561465858805,0.007941248,0.016187929,-0.0030543262,17.562181,166.18843,66.813095,LYI
2471644154000,4.045122,9.26367656349832,-2.3293424491619,-3.0264078193453,0.0106901415,0.03176499,-0.0018325958,17.632347,166.17996,66.84202,LYI
2471649181000,4.050149,9.26397811715602,-2.30472164858952,-3.01661139879102,-0.0012217305,0.028099801,-0.0106901415,17.684797,166.17996,66.87134,LYI
2471654067000,4.055035,9.26846796766456,-2.2732933513721,-2.98967285831894,-0.0067195175,0.04184427,-0.008857546,17.756552,166.17615,66.90532,LYI
2471659073000,4.060041,9.25038267468545,-2.26583103033719,-2.98979613089079,-0.01038471,0.038789943,-0.007941248,17.806997,166.1713,66.92354,LYI
2471664075000,4.065043,9.21663088042275,-2.27547434258681,-3.00908270504278,-0.014660766,0.027183503,-0.0076358155,17.858473,166.16692,66.94217,LYI
2471669056000,4.070024,9.19184939313433,-2.27354916664677,-3.02529027995025,-0.0290161,0.0143553335,-0.010995574,17.9053,166.16722,66.96643,LYI
2471674110000,4.075078,9.17258535552239,-2.26391709755224,-3.0397384338806,-0.028710667,0.016493361,-0.01160644,17.953674,166.16592,66.99033,LYI
2471679076000,4.080044,9.15685574935696,-2.24926229269315,-3.05357260884062,-0.02687807,0.01985312,-0.015882496,17.992258,166.16519,67.00644,LYI
2471684727000,4.085695,9.14138857959417,-2.22863983035153,-3.06903950943127,-0.04337143,0.01985312,-0.011301007,18.033697,166.16397,67.02041,LYI
2471689086000,4.090054,9.13268679085623,-2.21345126216162,-3.08850004877682,-0.038179077,0.018936822,-0.016187929,18.063175,166.16469,67.034225,LYI
2471694084000,4.095052,9.12548844816523,-2.19665489536796,-3.11729384547824,-0.04520403,0.013744468,-0.015271631,18.095535,166.16522,67.04486,LYI
2471699067000,4.100035,9.11831170914377,-2.17990893783838,-3.14600122622318,-0.03634648,0.017104227,-0.008552114,18.12495,166.16512,67.05516,LYI
2471704074000,4.105042,9.11110040425105,-2.16308232548626,-3.1748468724985,-0.027488936,0.014966198,-0.0143553335,18.142036,166.16872,67.06475,LYI
2471709073000,4.110041,9.10508284428644,-2.14494118265109,-3.20137719599797,-0.03573562,0.02443461,-0.013744468,18.182116,166.16553,67.073814,LYI
2471714041000,4.115009,9.10025008288471,-2.12561054074149,-3.2255404479228,-0.04520403,0.021685716,-0.015577064,18.209812,166.16405,67.080864,LYI
2471719175000,4.120143,9.10192292154827,-2.10196596310248,-3.23827954630481,-0.032986723,0.02321288,-0.01740966,18.228073,166.16388,67.08403,LYI
2471724156000,4.125124,9.10899737461071,-2.07602679433487,-3.24063764807949,-0.040317107,0.029626964,-0.01160644,18.250057,166.16473,67.086464,LYI
2471729064000,4.130032,9.11596814667062,-2.0504677820258,-3.24296119024173,-0.038789943,0.0421497,-0.01038471,18.263916,166.16711,67.089355,LYI
2471734081000,4.135049,9.12309373009047,-2.02434113884028,-3.24533633511296,-0.04184427,0.030848695,-0.017715093,18.267778,166.17128,67.08862,LYI
2471739116000,4.140084,9.12786205201636,-2.01229454934736,-3.25119799738944,-0.033292156,0.014966198,-0.019242255,18.264309,166.1769,67.08894,LYI
2471744082000,4.14505,9.13017816423144,-2.01461085505552,-3.26046322022209,-0.03176499,0.014660766,-0.013744468,18.26269,166.18324,67.090096,LYI
2471749055000,4.150023,9.13249754120397,-2.01693042579388,-3.26974150317553,-0.029321533,0.018020526,-0.01740966,18.237804,166.19775,67.09499,LYI
2471754713000,4.155681,9.13513639801286,-2.01956950305864,-3.28029781223456,-0.029932396,0.02321288,-0.011301007,18.223064,166.2079,67.0974,LYI
2471759029000,4.159997,9.14180373957586,-2.01148849320766,-3.28853168271693,-0.038179077,0.023518313,-0.0061086523,18.202415,166.21849,67.09859,LYI
2471764074000,4.165042,9.15665343684049,-1.9867395146194,-3.29843127415224,-0.03359759,0.017104227,-0.007330383,18.18138,166.22778,67.09937,LYI
2471769006000,4.169974,9.17053458439768,-1.9709786462005,-3.31505958054764,-0.02321288,0.01985312,-0.0030543262,18.156061,166.24203,67.1017,LYI
2471774103000,4.175071,9.18399013985114,-1.96649339860333,-3.3419712066342,-0.019547688,0.010079277,-0.0030543262,18.12006,166.25745,67.1005,LYI
2471778964000,4.179932,9.19260570786969,-1.96832287364181,-3.35638180868536,-0.016493361,0.0021380284,0.0009162979,18.085302,166.27235,67.100365,LYI
2471784085000,4.185053,9.18766726000705,-1.99054658519712,-3.33415801977745,-0.013133603,-0.0027488936,-0.002443461,18.04441,166.28838,67.099846,LYI
2471789047000,4.190015,9.18288214415185,-2.01208028110367,-3.31262424891999,-0.011301007,-0.0009162979,0.0070249503,18.001812,166.30087,67.0925,LYI
