timestamp,rel_time,acc_x,acc_y,acc_z,gyro_x,gyro_y,gyro_z,azimuth,pitch,roll,label
3910575445000,0,0.454354397721174,-9.59585356405307,-1.34521146009942,-0.021991149,0.042760566,0.005192355,331.79068,149.32097,16.61042,STD
3910580443000,0.004998,0.454593761448189,-9.5980078575915,-1.34114227174134,-0.019242255,0.03573562,-0.0012217305,331.99902,148.65558,16.398819,STD
3910585419000,0.009974,0.454832071553356,-9.60015266844529,-1.33709099497667,-0.0143553335,0.03481932,-0.0067195175,332.20023,147.99542,16.190351,STD
3910590465000,0.01502,0.455073734091675,-9.60232765147749,-1.33298272677842,-0.018936822,0.03023783,0.0012217305,332.39584,147.3435,15.979577,STD
3910595452000,0.020007,0.455312571007766,-9.60447720367361,-1.32892249421705,-0.013439035,0.02076942,0.00061086525,332.58163,146.69598,15.771129,STD
3910600452000,0.025007,0.455552030518586,-9.60663235927428,-1.32485167753229,-0.009773844,0.01740966,-0.0033597588,332.76346,146.05698,15.563881,STD
3910605474000,0.030029,0.455792543651252,-9.6087969975596,-1.32076294925413,-0.01160644,0.01863139,-0.004276057,332.93988,145.425,15.356742,STD
3910611070000,0.035625,0.456060546735761,-9.61120904770787,-1.31620689122055,-0.021685716,0.011301007,-0.004276057,333.033802870278,145.076298620828,15.2399955478713,STD
3910615480000,0.040035,0.456271750024304,-9.61310989494767,-1.3126164309046,-0.020463986,0.0070249503,-0.0036651916,333.10782,144.8015,15.147992,STD
3910620465000,0.04502,0.456510491156591,-9.61525858508154,-1.3085578266699,-0.018936822,0.004581489,-0.00061086525,333.273,144.18286,14.943156,STD
3910625447000,0.050002,0.456749088613171,-9.61740598212205,-1.30450166492521,-0.020158553,0.0030543262,0.003970624,333.43198,143.57454,14.737376,STD
3910630423000,0.054978,0.456987398718338,-9.61955079297584,-1.30045038816055,-0.01863139,0.008246681,0.003970624,333.503136333646,143.293999928772,14.6422896299906,STD
3910636117000,0.060672,0.457260095209259,-9.62200508417389,-1.29581454211995,-0.019242255,0.00030543262,0.0012217305,333.58456,142.97298,14.533483,STD
3910640466000,0.065021,0.45746837709177,-9.62387963851535,-1.29227374576755,-0.014049901,0.0021380284,0.005497787,333.73584,142.37695,14.330207,STD
3910645441000,0.069996,0.457706639305035,-9.62602401833803,-1.28822328316622,-0.0021380284,-0.0015271631,0.013439035,333.8813,141.78618,14.12695,STD
3910650463000,0.075018,0.457947152437702,-9.62818865662334,-1.28413455488806,-0.008246681,-0.008552114,0.007330383,334.0199,141.20721,13.92725,STD
3910655499000,0.080054,0.458188336056999,-9.63035932934434,-1.28003442832317,-0.0067195175,-0.008246681,0.009468411,334.1586,140.62898,13.72751,STD
3910660437000,0.084992,0.458424826269885,-9.63248776101557,-1.27601408976531,-0.01282817,-0.019547688,0.01160644,334.28818,140.06252,13.527049,STD
3910665499000,0.090054,0.458667255078638,-9.63466964054569,-1.27189279495367,-0.013744468,-0.018325957,0.009468411,334.41577,139.50189,13.331992,STD
3910670437000,0.094992,0.458903745291523,-9.63679807221692,-1.26787245639581,-0.004276057,-0.014049901,0.017104227,334.54044,138.94649,13.135165,STD
3910675446000,0.100001,0.459143635829462,-9.63895710709767,-1.26379431224102,-0.0070249503,-0.02321288,0.013439035,334.656,138.40326,12.94067,STD
3910681100000,0.105655,0.459414416644296,-9.64139415705091,-1.2591910327339,-0.005497787,-0.015577064,0.023518313,334.77664,137.8619,12.748745,STD
3910685425000,0.10998,0.459621549121155,-9.6432583666455,-1.25566977630159,-0.0070249503,-0.014966198,0.022296581,334.8873,137.33078,12.558727,STD
3910690442000,0.114997,0.459334690066762,-9.64296490154539,-1.25737801505475,-0.00030543262,0.00061086525,0.02565634,335.00217,136.80316,12.3728,STD
3910695439000,0.119994,0.458853523888867,-9.64176198798476,-1.26122733844878,-0.005192355,-0.008857546,0.021380283,335.1068,136.28723,12.186005,STD
3910700453000,0.125008,0.458370720763797,-9.6405549820626,-1.26508975739968,-0.0018325958,-0.01160644,0.0125227375,335.2132,135.74867,12.00653,STD
3910705602000,0.130157,0.457874918352353,-9.63931547797541,-1.2690561704787,-0.009162978,-0.02107485,0.014660766,335.3142,135.22144,11.824659,STD
3910710440000,0.134995,0.457409062445077,-9.63815084003137,-1.27278301189962,-0.0012217305,-0.022296581,0.021991149,335.41238,134.69696,11.646851,STD
3910715491000,0.140046,0.456922696552631,-9.63693492720472,-1.27667393294489,0.0106901415,-0.021685716,0.017715093,335.50397,134.18169,11.471783,STD
3910720446000,0.145001,0.456445574597163,-9.63574212418432,-1.28049090261017,0.0012217305,-0.028710667,0.0018325958,335.58978,133.67795,11.298257,STD
3910725446000,0.150001,0.455964119546236,-9.63453848844224,-1.28434253698483,-0.007941248,-0.024129177,0.0036651916,335.67795,133.17725,11.126586,STD
3910730477000,0.155032,0.455479679473994,-9.63332739015856,-1.2882180514926,-0.0027488936,-0.02565634,-0.00061086525,335.75623,132.68437,10.959365,STD
3910735437000,0.159992,0.455002076063475,-9.63213338350242,-1.29203887279226,-0.004886922,-0.025961773,0.0036651916,335.83508,132.20247,10.793341,STD
3910740433000,0.164988,0.454521006176589,-9.63093071066893,-1.29588742585942,-0.01038471,-0.019547688,-0.0033597588,335.90958,131.72855,10.6339445,STD
3910745452000,0.170007,0.454037721596469,-9.62972250111103,-1.29975369644469,-0.017715093,-0.025045475,-0.0070249503,335.98035,131.2623,10.472932,STD
3910751052000,0.175607,0.453498491939431,-9.6283744290799,-1.30406752694431,-0.02107485,-0.019547688,-0.008552114,336.05173,130.80394,10.318465,STD
3910755471000,0.180026,0.453072981965422,-9.62731065581105,-1.30747160140463,-0.027488936,-0.016493361,-0.010995574,336.11823,130.35577,10.165803,STD
3910760437000,0.184992,0.452594800808842,-9.62611520479202,-1.31129704466553,-0.02076942,-0.023518313,-0.014660766,336.18106,129.91203,10.015166,STD
3910765402000,0.189957,0.452116715943272,-9.62491999450014,-1.31512171759957,-0.02565634,-0.014049901,-0.02107485,336.24533,129.48045,9.8714075,STD
3910770449000,0.195004,0.451630735214867,-9.62370504458208,-1.31900955733734,-0.02565634,-0.018325957,-0.018936822,336.30383,129.05206,9.725042,STD
3910775466000,0.200021,0.451147643216767,-9.62249731647848,-1.32287428726887,-0.030543262,-0.024740042,-0.022907447,336.35986,128.634,9.584959,STD
3910780426000,0.204981,0.450670039806248,-9.62130330982234,-1.32669510856853,-0.023823744,-0.020158553,-0.022602014,336.4168,128.21881,9.446741,STD
3910785452000,0.210007,0.450186081189057,-9.6200934151744,-1.33056677144193,-0.030848695,-0.02076942,-0.021685716,336.46875,127.81553,9.309412,STD
3910790478000,0.215033,0.449702122571865,-9.61888352052646,-1.33443843431533,-0.025350908,-0.01863139,-0.021991149,336.5206,127.41345,9.175667,STD
3910795571000,0.220126,0.449211712456991,-9.61765749715958,-1.33836170908936,-0.014966198,-0.01282817,-0.030848695,336.5703,127.01888,9.046302,STD
3910800550000,0.225105,0.448732279517279,-9.61645891668761,-1.34219716659964,-0.018020526,-0.014049901,-0.031154128,336.6188,126.6322,8.916276,STD
3910805489000,0.230044,0.448256698217974,-9.61526996530159,-1.34600181103492,-0.011301007,-0.008857546,-0.02076942,336.66904,126.24605,8.789851,STD
3910810436000,0.234991,0.447780346590587,-9.61407908809838,-1.3498126180852,-0.01985312,-0.009468411,-0.03176499,336.71262,125.87276,8.669307,STD
3910815495000,0.24005,0.447293210370059,-9.61286124945454,-1.35370970174548,-0.007941248,-0.0070249503,-0.021685716,336.7621,125.49576,8.544716,STD
3910820528000,0.245083,0.446808577715797,-9.61164966971656,-1.35758675690701,-0.018020526,-0.007330383,-0.021991149,336.806,125.1348,8.426518,STD
3910825461000,0.250016,0.446333574162553,-9.61046216269343,-1.36138677938104,-0.012217305,0.0012217305,-0.020158553,336.8534,124.771255,8.309174,STD
3910830436000,0.254991,0.445854526386881,-9.60926454513006,-1.36521915558382,-0.015577064,-0.009773844,-0.018936822,336.89478,124.41898,8.190778,STD
3910835448000,0.260003,0.445371915843832,-9.6080580206622,-1.36908003388097,-0.007941248,-0.0067195175,-0.011911872,336.94168,124.06734,8.076007,STD
3910840509000,0.265064,0.444884587041284,-9.60683970056406,-1.372978658195,-0.014660766,-0.0070249503,-0.017715093,336.98227,123.727196,7.9636326,STD
3910845562000,0.270117,0.444398028566818,-9.60562330628312,-1.37687111989402,-0.0067195175,-0.0009162979,-0.003970624,337.02832,123.384674,7.848207,STD
3910850606000,0.275161,0.443912336711443,-9.60440907854651,-1.38075664865118,-0.018325957,-0.005497787,-0.011911872,337.06647,123.05702,7.739541,STD
3910855445000,0.28,0.443446384513156,-9.60324419987532,-1.38448426039897,-0.006414085,-0.0030543262,-0.0033597588,337.11157,122.72406,7.6274023,STD
3910860434000,0.284989,0.442965988663342,-9.60204321213188,-1.388327421178,-0.0061086523,-0.007941248,-0.0030543262,337.1504,122.404144,7.519173,STD
3910865359000,0.289914,0.442491755438179,-9.60085763092593,-1.39212128103703,-0.00030543262,0.00061086525,0.003970624,337.19458,122.08377,7.4113936,STD
3910870447000,0.295002,0.442001826778356,-9.59963281119479,-1.39604070417668,0.004886922,0.009773844,0.013744468,337.23737,121.76864,7.303977,STD
3910875336000,0.299891,0.441531060029561,-9.59845589616618,-1.39980683226822,0.004886922,0.0125227375,0.016493361,337.27985,121.45868,7.1986127,STD
3910880338000,0.304893,0.441049412396614,-9.59725177896981,-1.40366000729662,0.0027488936,0.018020526,0.016493361,337.3256,121.15269,7.0949903,STD
3910885324000,0.309879,0.44056930541983,-9.59605151340781,-1.40750085709503,0.0015271631,0.020463986,0.027183503,337.37247,120.85075,6.9896817,STD
3910890342000,0.314897,0.444964495269414,-9.59662569958483,-1.406239515022,-0.0009162979,0.027794369,0.025350908,337.41937,120.555756,6.8906083,STD
3910895345000,0.3199,0.449740512187312,-9.59734209166214,-1.40456791272883,0.0070249503,0.013439035,0.029932396,337.46326,120.262146,6.78621,STD
3910900343000,0.324898,0.454511755952183,-9.59805776777695,-1.40289798103559,0.00061086525,0.014966198,0.02321288,337.5008,119.987495,6.684405,STD
3910905341000,0.329896,0.459282999717054,-9.59877344389177,-1.40122804934235,0.008552114,0.01863139,0.025961773,337.5368,119.7106,6.5792074,STD
3910910317000,0.334872,0.46403324160861,-9.59948596977158,-1.39956546828882,0.007330383,0.006414085,0.029626964,337.56796,119.44324,6.47525,STD
3910915359000,0.339914,0.468846489120111,-9.60020794635639,-1.39788083531616,0.005192355,0.004581489,0.027183503,337.60178,119.178894,6.3758454,STD
3910920370000,0.344925,0.47363014308285,-9.60092548397371,-1.3962065600631,0.009773844,-0.010995574,0.03023783,337.6299,118.9171,6.272373,STD
3910925334000,0.349889,0.478368929407144,-9.60163629154352,-1.3945479884494,0.018936822,-0.014966198,0.024740042,337.6587,118.65991,6.174792,STD
3910930319000,0.354874,0.483127762974148,-9.60235010615583,-1.39288240031599,0.018936822,-0.010079277,0.027794369,337.68707,118.40781,6.075166,STD
3910935712000,0.360267,0.488276085828079,-9.60312234330813,-1.39108049122803,0.02107485,-0.013744468,0.031154128,337.7113,118.157394,5.9769435,STD
3910940325000,0.36488,0.492679796809942,-9.60378289031046,-1.38953919572964,0.013133603,-0.004276057,0.030848695,337.7398,117.9143,5.882993,STD
3910945332000,0.369887,0.49745963225026,-9.60449985515777,-1.38786625695652,0.018020526,-0.015882496,0.022296581,337.7611,117.67169,5.788763,STD
3910950313000,0.374868,0.502214647294843,-9.60521309700009,-1.38620200530306,0.007941248,-0.013744468,0.021991149,337.7892,117.439285,5.6972203,STD
3910955366000,0.379921,0.507038395743001,-9.6059366487024,-1.38451369701055,0.012217305,-0.01160644,0.021991149,337.81308,117.20624,5.6079,STD
3910960328000,0.384883,0.511775272806084,-9.60664716988721,-1.38285579363683,0.01160644,-0.020158553,0.017715093,337.83398,116.98176,5.520259,STD
3910965355000,0.38991,0.516574200858507,-9.60736699858452,-1.38117617246398,0.005497787,-0.028710667,0.020158553,337.85617,116.76129,5.4327474,STD
3910970375000,0.39493,0.521366446496693,-9.60808582493434,-1.37949889013103,0.011911872,-0.029932396,0.021380283,337.8772,116.54181,5.3480315,STD
3910975323000,0.399878,0.526089958731303,-9.60879434142415,-1.37784566443712,0.002443461,-0.039095376,0.018020526,337.89362,116.33251,5.2633553,STD
3910980317000,0.404872,0.530857383973754,-9.60950944476896,-1.37617706922383,0.008552114,-0.03726278,0.010995574,337.9122,116.12108,5.182075,STD
3910985350000,0.409905,0.535662039809808,-9.61023013262128,-1.37449544333106,-0.002443461,-0.042455133,0.014966198,337.92746,115.9204,5.0983343,STD
3910990327000,0.414882,0.540413236331969,-9.61094280169359,-1.37283252815754,-0.00030543262,-0.04062254,0.012217305,337.94327,115.71885,5.020704,STD
3910995321000,0.419876,0.54518066157442,-9.6116579050384,-1.37116393294424,0.0036651916,-0.038179077,0.004581489,337.9578,115.523506,4.9442167,STD
3911000355000,0.42491,0.549986272041079,-9.61237873608322,-1.36948197293148,-0.0033597588,-0.02565634,0.0106901415,337.97675,115.33359,4.8677316,STD
3911006240000,0.430795,0.555604273152777,-9.61322142394549,-1.36751567681009,-0.0021380284,-0.02565634,0.017104227,337.99216,115.14416,4.7932725,STD
3911010428000,0.434983,0.559602266127423,-9.61382111413534,-1.36611638230603,0.008246681,-0.020463986,0.018020526,338.01227,114.95753,4.7220945,STD
3911015420000,0.439975,0.564367782108663,-9.61453593109515,-1.36444845533271,0.0067195175,-0.016187929,0.022296581,338.03333,114.776726,4.6495633,STD
3911020417000,0.444972,0.569138071242929,-9.61525146401747,-1.36277885775946,0.0076358155,-0.010995574,0.025961773,338.056,114.59568,4.5789466,STD
3911025429000,0.449984,0.573922679836273,-9.61596914482728,-1.36110424838641,0.010995574,-0.009162978,0.027183503,338.07913,114.41759,4.5092115,STD
3911030429000,0.454984,0.578695832862355,-9.61668510732709,-1.35943364845319,0.013744468,-0.0018325958,0.0290161,338.10556,114.24242,4.440834,STD
3911035451000,0.460006,0.583489987761751,-9.6174042200619,-1.35775569788027,0.010995574,-0.0018325958,0.02107485,338.12955,114.07158,4.375262,STD
3911040422000,0.464977,0.588235456500282,-9.61811602997922,-1.35609478742667,0.012217305,-0.0106901415,0.02443461,338.15463,113.90132,4.3072534,STD
3911045494000,0.470049,0.593077342929939,-9.61884230233903,-1.35440013085442,0.021685716,-0.00061086525,0.026572637,338.18365,113.733116,4.2449245,STD
3911050473000,0.475028,0.597830448713311,-9.61955525779634,-1.35273654744093,0.01282817,-0.0076358155,0.02687807,338.20602,113.57272,4.1803675,STD
3911055437000,0.479992,0.602569235037605,-9.62026606536616,-1.35107797582723,0.018936822,-0.014966198,0.02443461,338.2309,113.40854,4.118185,STD
3911060433000,0.484988,0.607338569541266,-9.62098145509597,-1.34940871237397,0.019547688,-0.018936822,0.032070424,338.256,113.25083,4.0539494,STD
3911065458000,0.490013,0.612135588332478,-9.62170099740828,-1.34772975944109,0.02321288,-0.025045475,0.020463986,338.2762,113.09461,3.9954634,STD
3911070420000,0.494975,0.616872465395561,-9.6224115185931,-1.34607185606736,0.027794369,-0.014049901,0.03145956,338.3033,112.93933,3.931552,STD
3911075407000,0.499962,0.621633208223775,-9.62312561959041,-1.34440559969398,0.02107485,-0.02076942,0.03268129,338.32178,112.79015,3.8717132,STD
3911080423000,0.504978,0.62642163533954,-9.62384387317022,-1.34272965384098,0.021991149,-0.009773844,0.028405234,338.3485,112.640114,3.8146212,STD
3911085386000,0.509941,0.631159467033229,-9.62455453754754,-1.34107141634727,0.022907447,-0.015271631,0.036651913,338.37064,112.49406,3.7524104,STD
3911090405000,0.51496,0.646811984110743,-9.62022938864174,-1.3312478026124,0.022602014,-0.007941248,0.040011674,338.39813,112.351265,3.6961954,SDL
3911095421000,0.519976,0.664999306938949,-9.61472534472314,-1.31952176471368,0.008246681,-0.009162978,0.04337143,338.42282,112.21447,3.637294,SDL
3911100475000,0.52503,0.683324412515854,-9.60917960350213,-1.30770689319451,0.007941248,-0.0015271631,0.048563786,338.44983,112.06285,3.5992248,SDL
3911105437000,0.529992,0.701315938806436,-9.60373481364486,-1.29610709254589,0.01740966,-0.010995574,0.055588737,338.47232,111.91503,3.5584152,SDL
3911110427000,0.534982,0.719408989227639,-9.59825929945949,-1.28444183554537,0.02107485,-0.016798794,0.056199603,338.4976,111.77172,3.5197208,SDL
3911115423000,0.539978,0.737523794819688,-9.59277720148953,-1.27276255218372,0.027183503,-0.015577064,0.053145275,338.5224,111.627594,3.4805055,SDL
3911120431000,0.544986,0.755682110753431,-9.58728193595038,-1.26105521609983,0.037873644,0.003970624,0.0580322,338.55136,111.48344,3.440943,SDL
3911125429000,0.549984,0.773804168069096,-9.58179764338556,-1.24937125728448,0.054061573,0.013439035,0.05467244,338.5767,111.3392,3.4040785,SDL
3911130425000,0.55498,0.791918973661145,-9.5763155454156,-1.23769197392283,0.06841691,0.018020526,0.055283304,338.60672,111.19474,3.3669293,SDL
3911135405000,0.55996,0.809975765464269,-9.57085100420455,-1.22605009419085,0.074830994,0.055588737,0.052839845,338.64734,111.05096,3.3363426,SDL
3911140431000,0.564986,0.828199346910554,-9.56533598731163,-1.21430067902359,0.08674286,0.07971791,0.07391469,338.68787,110.903175,3.2988472,SDL
3911145581000,0.570136,0.846872535221013,-9.55968490553715,-1.20226138572646,0.09743301,0.07666359,0.0842994,338.72964,110.75728,3.2662902,SDL
3911150468000,0.575023,0.864592121876006,-9.55432241298727,-1.19083691459187,0.11362094,0.06627888,0.08827003,338.77716,110.608536,3.2319005,SDL
3911155459000,0.580014,0.882688798159016,-9.54884580150447,-1.1791693198645,0.122783914,0.05589417,0.09621128,338.825,110.46088,3.1938035,SDL
3911160444000,0.584999,0.900763719271178,-9.54337577380626,-1.16751575149824,0.14569137,0.03970624,0.118202426,338.87003,110.30673,3.1497424,SDL
3911165458000,0.590013,0.918943790375769,-9.53787392448253,-1.15579438905323,0.17928895,0.020158553,0.12522738,338.91043,110.15015,3.106767,SDL
3911170420000,0.594975,0.936935316666351,-9.53242913462525,-1.14419458840461,0.20250183,0.01740966,0.13836098,338.95352,109.99166,3.0569642,SDL
3911175431000,0.599986,0.955104510185518,-9.52693057719381,-1.13248023914016,0.22266038,0.024740042,0.15210545,338.99463,109.82728,3.0049057,SDL
3911180423000,0.604978,0.973204812330336,-9.52145286841358,-1.12081030668593,0.23793201,0.037873644,0.1863139,339.0396,109.65939,2.9448495,SDL
3911185405000,0.60996,0.991268855857075,-9.51598613260767,-1.10916375150024,0.25350907,0.049480084,0.22632557,339.08777,109.488106,2.8808618,SDL
3911190433000,0.614988,1.00949968902698,-9.51046892111988,-1.09740966087927,0.28008172,0.07696902,0.2657264,339.14673,109.31126,2.8114376,SDL
3911195427000,0.619982,1.02760724289541,-9.50498901774479,-1.08573505297133,0.3378085,0.10995574,0.2968805,339.21298,109.12323,2.73604,SDL
3911200468000,0.625023,1.04588521226881,-9.49945754139039,-1.07395057190126,0.36071593,0.13439035,0.34880406,339.2896,108.93861,2.6472235,SDL
3911205448000,0.630003,1.06394200407194,-9.49399300017934,-1.06230869216928,0.3820962,0.16065755,0.39553526,339.37756,108.740906,2.5556967,SDL
3911210428000,0.634983,1.08199879587506,-9.48852845896829,-1.05066681243729,0.3866777,0.17654006,0.44135013,339.47345,108.54352,2.4528837,SDL
3911215424000,0.639979,1.10011360146711,-9.48304636099833,-1.03898752907565,0.36835176,0.19730948,0.49846604,339.58243,108.3486,2.3385196,SDL
3911220476000,0.645031,1.1184314553204,-9.47750281437218,-1.02717733301019,0.33628133,0.20219639,0.5519168,339.69446,108.15913,2.2142308,SDL
3911225440000,0.649995,1.1364302333346,-9.47205582992004,-1.01557285690786,0.3286455,0.19700404,0.59864795,339.81314,107.97053,2.0789423,SDL
3911230425000,0.65498,1.15450515444676,-9.46658580222183,-1.00391928854161,0.33078352,0.17959438,0.6243043,339.93192,107.791534,1.936213,SDL
3911235424000,0.659979,1.17263083762423,-9.46110041235958,-0.992232991999402,0.3277292,0.14966199,0.6646214,340.05048,107.61875,1.7774329,SDL
3911240447000,0.665002,1.19084354148509,-9.45558868735896,-0.980490590012703,0.34147367,0.093767814,0.7021896,340.1584,107.44455,1.6110294,SDL
3911245434000,0.669989,1.20892571432087,-9.45011646506588,-0.968832346192742,0.3555236,0.02107485,0.7281514,340.2553,107.27507,1.4354305,SDL
3911250459000,0.675014,1.22714566990535,-9.4446025454704,-0.957085268752335,0.40103304,-0.05467244,0.7464773,340.33807,107.09692,1.2495526,SDL
3911255464000,0.680019,1.24529310825367,-9.43911057182355,-0.945384945849005,0.48349985,-0.12492194,0.7602218,340.40372,106.908875,1.0553288,SDL
3911261204000,0.685759,1.26610555503076,-9.43281208456423,-0.931966393708123,0.57879484,-0.14813483,0.77121735,340.4625,106.70932,0.8577791,SDL
3911265485000,0.69004,1.28162786943019,-9.4281145542581,-0.921958585046952,0.66248333,-0.15943582,0.7819075,340.50613,106.49525,0.6551806,SDL
3911270445000,0.695,1.29961214399716,-9.42267195899569,-0.910363459852044,0.75991637,-0.1414153,0.7892379,340.55176,106.256294,0.45447025,SDL
3911275440000,0.699995,1.3177233237274,-9.41719095832316,-0.898686514217252,0.86132,-0.09712757,0.8072584,340.60294,105.99895,0.25251463,SDL
3911280423000,0.704978,1.33579099311595,-9.41172312521982,-0.887037621304705,0.9370673,-0.10323623,0.82741696,340.64554,105.72842,0.048750482,SDL
3911285426000,0.709981,1.35393117974065,-9.40623334616783,-0.875341973855083,0.98807454,-0.14477506,0.84849185,340.69144,105.443825,-0.1561588,SDL
3911290427000,0.714982,1.26164171010906,-9.39959228706807,-0.846359362896868,0.9944886,-0.22113322,0.8872818,340.72833,105.15893,-0.3712285,SDL
3911295433000,0.719988,1.11493307939208,-9.39237708845868,-0.808840434850855,0.9807441,-0.3023783,0.93279123,340.7539,104.87442,-0.59389645,SDL
3911300472000,0.725027,0.967257332252077,-9.38511432661436,-0.771074178673496,0.95356065,-0.3399465,0.99112886,340.76645,104.54024,-0.7529876,SDL
3911305443000,0.729998,0.821574431074668,-9.37794957386022,-0.733817568342547,0.92149025,-0.3304781,1.0644327,340.77228,104.22092,-0.9287474,SDL
3911310402000,0.734957,0.676243208596541,-9.37080211682787,-0.696650895513906,0.86834496,-0.26633725,1.1481212,340.78622,103.92559,-1.1195314,SDL
3911315450000,0.740005,0.528303702432074,-9.3635263831922,-0.658817186209817,0.8582657,-0.16035213,1.2415836,340.8187,103.638306,-1.3268061,SDL
3911320401000,0.744956,0.383206932420135,-9.35639045664105,-0.621710471716047,0.88422745,-0.089186326,1.3408492,340.8639,103.368065,-1.5537081,SDL
3911325431000,0.749986,0.235794944304591,-9.34914066658807,-0.584011668665419,0.98990715,0.044898596,1.4010195,340.9581,103.08985,-1.7811396,SDL
3911331196000,0.755751,0.0668426358580488,-9.34083151357507,-0.540804193598447,1.0699304,0.28191432,1.5897768,341.11386,102.8323,-2.0575173,SDL
3911335434000,0.759989,-0.0573585581049083,-9.33472324116065,-0.509041265700124,1.3026701,0.3555236,1.6441438,341.25406,102.51186,-2.3118916,SDL
3911340403000,0.764958,-0.202982846165771,-9.32756137102681,-0.471799644952894,1.3833044,0.47525316,1.7311921,341.48462,102.23813,-2.6068392,SDL
3911345430000,0.769985,-0.350306914606494,-9.32031590490428,-0.434123326277842,1.5286902,0.5626069,1.7898352,341.72458,101.90125,-2.903592,SDL
3911350526000,0.775081,-0.499653135568086,-9.31297098838143,-0.395929866964522,1.6362026,0.6206391,1.8212948,341.98978,101.57704,-3.2085595,SDL
3911355342000,0.779897,-0.640793520213108,-9.30602963870049,-0.359834949371714,1.6988163,0.66553766,1.8249599,342.27356,101.250206,-3.514918,SDL
3911360344000,0.784899,-0.787384924696994,-9.2988202053317,-0.322346000493137,1.7153096,0.6899723,1.7986927,342.564,100.93119,-3.8167114,SDL
3911365382000,0.789937,-0.935031365278725,-9.29155888479753,-0.284587239107637,1.6988163,0.7266242,1.7568485,342.86594,100.6283,-4.109375,SDL
3911370358000,0.794913,-1.0808607992475,-9.28438692549264,-0.247293154817394,1.6734654,0.81489426,1.7324139,343.1851,100.348206,-4.3933134,SDL
3911375367000,0.799922,-1.2276573496393,-9.2771674029528,-0.209751742395804,1.6847663,0.91690874,1.736079,343.51413,100.087265,-4.6689014,SDL
3911380356000,0.804911,-1.37386776886563,-9.26997670661597,-0.172360225811394,1.7241671,0.9981538,1.7263051,343.85693,99.846275,-4.928769,SDL
3911385350000,0.809905,-1.52022472088333,-9.26277880372838,-0.134931235267689,1.7537941,1.0433578,1.7085901,344.21472,99.62973,-5.1826982,SDL
3911390342000,0.814897,-1.66652305978448,-9.25558378346109,-0.0975172343077017,1.7672331,1.0454959,1.6649132,344.5782,99.42756,-5.4232426,SDL
3911395353000,0.819908,-1.81337822329283,-9.24836137830096,-0.0599608323023939,1.752267,1.0103711,1.606881,344.93912,99.24505,-5.652793,SDL
3911400347000,0.824902,-1.95973517531053,-9.24116347541337,-0.0225318417586888,1.7211128,0.9324858,1.5210545,345.28238,99.07506,-5.862101,SDL
3911405447000,0.830002,-2.10919862250522,-9.23381279364992,0.0156915967220672,1.6368134,0.80481493,1.4285084,345.59598,98.93059,-6.054517,SDL
3911410403000,0.834958,-2.25444192530852,-9.22666966054802,0.0528357851751314,1.5216653,0.70432764,1.3182472,345.8889,98.7991,-6.217852,SDL
3911415432000,0.839987,-2.40182460686579,-9.21942131180519,0.0905270934339005,1.3900238,0.6411031,1.1997393,346.15048,98.684616,-6.3542204,SDL
3911420450000,0.845005,-2.54888491628206,-9.21218881747401,0.128135958982221,1.2559389,0.5696318,1.0855075,346.37598,98.58447,-6.4626765,SDL
3911425499000,0.850054,-2.6968537290048,-9.20491164252819,0.16597716307817,1.1982121,0.43890667,1.0387764,346.56326,98.49484,-6.55929,SDL
3911430404000,0.854959,-2.84060239733616,-9.19784201624393,0.202739117146426,1.1178834,0.27458394,0.98746365,346.71573,98.41595,-6.624243,SDL
3911435447000,0.860002,-2.98839537070925,-9.19057348915901,0.240535352491221,1.0351112,0.16584991,1.0173961,346.8465,98.3623,-6.7004447,SDL
3911440422000,0.864977,-3.13419549811976,-9.18340297116427,0.277821941989605,0.93951076,0.29260445,1.0913107,346.99686,98.32879,-6.772382,SDL
3911445405000,0.86996,-3.28023007799645,-9.17622092268833,0.315168489822862,0.8857546,0.548557,1.1872166,347.154,98.31914,-6.8581734,SDL
3911450496000,0.875051,-3.42942976616667,-9.16888321271622,0.353324475176887,0.8857546,0.8402451,1.3142766,347.35992,98.34504,-6.969169,SDL
3911455461000,0.880016,-3.57493682799444,-9.16172710782297,0.390536116756682,0.9059132,1.0729848,1.4712689,347.62457,98.40957,-7.11018,SDL
3911460424000,0.884979,-3.72038527670566,-9.15457388555003,0.427732768752759,0.94959,1.2305881,1.616044,347.95276,98.50121,-7.27727,SDL
3911465467000,0.890022,-3.86817825007876,-9.1473053584651,0.465529004097554,0.9642508,1.3246613,1.7336355,348.33096,98.62865,-7.4752507,SDL
3911470813000,0.895368,-4.02485111060872,-9.13960011440482,0.505596161375617,0.90377516,1.3976597,1.8191566,348.74924,98.79083,-7.69951,SDL
3911475442000,0.899997,-4.1605111688566,-9.13292828972188,0.540289552890797,0.82436264,1.3991868,1.8939877,349.17447,98.98241,-7.95049,SDL
3911480423000,0.904978,-4.30648713561675,-9.12574912386624,0.577621111140336,0.79168135,1.2538009,1.9462167,349.57794,99.193054,-8.217172,SDL
3911485423000,0.909978,-4.45301992698409,-9.11854257311775,0.615095070435195,0.8127562,1.033584,1.9639318,349.9595,99.41758,-8.492534,SDL
3911490433000,0.914988,-4.51036858838117,-9.06814779483735,0.645922272387919,0.8231409,0.79473567,1.9486601,350.2929,99.65209,-8.772163,SDL
3911495454000,0.920009,-4.54584269396453,-9.00702687956972,0.675164439583977,0.754724,0.64812803,1.897042,350.5882,99.88773,-9.044446,SDL
3911500460000,0.925015,-4.58121082233543,-8.94608856014535,0.704319247188731,0.64904433,0.6160576,1.8451185,350.76266,100.639565,-9.936857,SDL
3911505459000,0.930014,-4.61652949467385,-8.88523545211451,0.733433286984208,0.54153204,0.5919284,1.7864754,350.8961,101.39297,-10.799203,SDL
3911510424000,0.934979,-4.65160795199737,-8.82479622799506,0.762349311706062,0.462425,0.45937067,1.7534887,350.9882,102.14906,-11.640755,SDL
3911515447000,0.940002,-4.68709618787572,-8.76365096661499,0.791603126847628,0.4166101,0.20189096,1.7183639,351.03528,102.892365,-12.451998,SDL
3911520419000,0.944974,-4.72222410123172,-8.70312653110202,0.820559919378757,0.39614612,0.03359759,1.717753,351.06952,103.634766,-13.249189,SDL
3911525461000,0.950016,-4.75784657491252,-8.64174998165382,0.849924390002642,0.40622538,-0.24373524,1.72264,350.9959,104.36333,-14.029007,SDL
3911530425000,0.95498,-4.79291796708854,-8.58132293059059,0.878834590751742,0.47036624,-0.3210097,1.7464638,350.93253,105.08731,-14.798726,SDL
3911535440000,0.959995,-4.82834968178691,-8.52027505366026,0.908041814111278,0.55771995,-0.25534168,1.7760907,350.83115,105.804726,-15.558962,SDL
3911540406000,0.964961,-4.86343520425793,-8.45982365648459,0.936963662805886,0.6178902,-0.18325958,1.8203784,350.71112,106.523026,-16.31669,SDL
3911545462000,0.970017,-4.89915659000369,-8.39827668424935,0.966409669048321,0.6795876,-0.1826487,1.8759671,350.59137,107.240555,-17.071692,SDL
3911550428000,0.974983,-4.9342421124747,-8.33782528707368,0.995331517742929,0.7153232,-0.2678644,1.9269744,350.4692,107.95931,-17.823698,SDL
3911555455000,0.98001,-4.96975860894305,-8.27663133346875,1.02460862877551,0.7180721,-0.38545597,1.9630154,350.33917,108.67945,-18.573095,SDL
3911560433000,0.984988,-5.00492891318403,-8.21603385961847,1.05360036514316,0.7067711,-0.47036624,1.9941696,350.19516,109.40253,-19.321617,SDL
3911565549000,0.990104,-5.04107420777962,-8.15375650401019,1.08339580975082,0.68325275,-0.54000485,1.9883664,350.0218,110.11567,-20.05622,SDL
3911570463000,0.995018,-5.07579234258078,-8.09393810575782,1.11201481186223,0.6078109,-0.54550266,1.9779817,349.84424,110.82713,-20.78403,SDL
3911575434000,0.999989,-5.11091319078928,-8.03342584330107,1.14096578042061,0.5317582,-0.50793445,1.9620992,349.66046,111.524765,-21.494555,SDL
3911580430000,1.004985,-5.14621066768521,-7.97260925443887,1.17006234829783,0.48655418,-0.4615087,1.9376645,349.47952,112.20632,-22.185734,SDL
3911585419000,1.009974,-5.18145868854866,-7.9118778769702,1.19911814836577,0.4801401,-0.42943826,1.8942931,349.3073,112.86686,-22.853325,SDL
3911590445000,1.015,-5.2169681198695,-7.85069609642149,1.22838943542559,0.52290064,-0.41996986,1.8249599,349.14383,113.501495,-23.493309,SDL
3911595431000,1.019986,-5.25219494529046,-7.79000123812147,1.25742776357527,0.58551437,-0.3640757,1.7635679,349.00626,114.11478,-24.110361,SDL
3911600445000,1.025,-5.28761959484134,-7.72896553424736,1.28662916296206,0.64476824,-0.2666427,1.7125608,348.88623,114.70041,-24.698593,SDL
3911605471000,1.030026,-5.32312902616218,-7.66778375369864,1.31590045002188,0.6881397,-0.12522738,1.6496416,348.79938,115.25488,-25.254494,SDL
3911610430000,1.034985,-5.35816509260072,-7.6074175679165,1.34478153090721,0.6582073,0.005192355,1.5919148,348.7416,64.21336,-25.78664,SDL
3911615544000,1.040099,-5.39429625690131,-7.54516455842065,1.37456532756936,0.6114761,0.1133155,1.5745052,348.72318,63.697315,-26.30236,SDL
3911620441000,1.044996,-5.42889428419502,-7.48555310212398,1.40308532214397,0.58123827,0.15515977,1.5619824,348.7263,63.20527,-26.793612,SDL
3911625441000,1.049996,-5.46422002168094,-7.42468782103692,1.4322051859122,0.57940567,0.20219639,1.5515977,348.7666,62.72637,-27.27155,SDL
3911630429000,1.054984,-5.49946097739689,-7.36396861662446,1.46125516200739,0.55924714,0.22143865,1.5690074,348.81216,62.251842,-27.745108,SDL
3911635475000,1.06003,-5.53511171166768,-7.3025433749514,1.49064292852229,0.60139686,0.20280726,1.604743,348.86108,61.783154,-28.212421,SDL
3911640433000,1.064988,-5.57014071295872,-7.24218936222547,1.51951818543486,0.66553766,0.112704635,1.6368134,348.89337,61.318783,-28.675045,SDL
3911645432000,1.069987,-5.60545938529714,-7.18133625419462,1.54863222523034,0.71929383,0.004276057,1.6722436,348.91382,60.851295,-29.140228,SDL
3911650441000,1.074996,-5.64084870911053,-7.1203614156016,1.57780450475336,0.7623598,-0.058337633,1.7330247,348.9202,60.375145,-29.613224,SDL
3911656270000,1.080825,-5.68203145387161,-7.04940467091031,1.61175244193436,0.7993172,-0.09132435,1.7916678,348.9016,59.897102,-30.08694,SDL
3911660427000,1.084982,-5.71140127201741,-6.99880127621452,1.63596269667127,0.8585711,-0.15302174,1.8435913,348.8536,59.411034,-30.566988,SDL
3911665539000,1.090094,-5.74751830602301,-6.93657261283111,1.66573484538791,0.88789266,-0.22052236,1.8839084,348.7936,58.919575,-31.05135,SDL
3911670475000,1.09503,-5.78239187406911,-6.87648640734196,1.69448197489991,0.9334021,-0.3200934,1.9068159,348.70325,58.4255,-31.535866,SDL
3911675440000,1.099995,-5.81747033139263,-6.81604718322251,1.72339799962176,0.9645562,-0.37018433,1.9104811,348.60812,57.93332,-32.01708,SDL
3911680429000,1.104984,-5.85271835225607,-6.75531580575384,1.7524537996897,0.95447695,-0.376293,1.9404135,348.4955,57.435062,-32.50278,SDL
3911685432000,1.109987,-5.88806528518448,-6.69441400549812,1.7815911353762,0.91965765,-0.3231477,1.9767599,348.38782,56.941807,-32.98253,SDL
3911690436000,1.114991,-5.70390576107845,-6.46306719896615,1.93990231775796,0.89919364,-0.21624629,2.019215,348.2979,56.446236,-33.464302,SDL
3911695407000,1.119962,-5.41921367881614,-6.15424848459355,2.15704034404014,0.895223,-0.13194689,2.037541,348.22028,55.95573,-33.941154,SDL
3911700420000,1.124975,-5.15072187013626,-5.95475366391763,2.32225741012191,0.9233228,-0.062002823,2.0512855,348.02917,55.197205,-34.672466,SDL
3911705619000,1.130174,-4.88037456255507,-5.79662624669604,2.47018326123348,0.98990715,-0.099571034,2.0158553,347.83066,54.45674,-35.382202,SDL
3911710449000,1.135004,-4.94616137678934,-5.67038007939728,2.36955618061431,1.0751228,-0.19792034,1.9550742,347.54837,53.734486,-36.0607,SDL
3911715448000,1.140003,-5.10338463462764,-5.54552627605525,2.19846044427702,1.1301007,-0.24251351,1.9086485,347.27228,53.025024,-36.721783,SDL
3911720458000,1.145013,-5.43015529300713,-5.53250878523293,2.08059243211251,1.1618657,-0.2501493,1.8939877,346.8984,52.34756,-37.333862,SDL
3911725615000,1.15017,-5.84497426953804,-5.57109638148257,1.98412283709347,1.2299771,-0.20219639,1.8555032,346.53235,51.69249,-37.91496,SDL
3911730429000,1.154984,-6.26301294576594,-5.64456614462417,2.14398368182683,1.2907583,-0.13439035,1.7959439,346.12256,50.996437,-38.53014,SDL
3911735428000,1.159983,-6.71346512507665,-5.74073043683265,2.4425979611904,1.3509285,-0.08552113,1.7693712,345.73334,50.307255,-39.13207,SDL
3911740428000,1.164983,-7.00444172972252,-5.82866204779303,2.80763272768836,1.4312572,-0.07452556,1.758681,345.21323,49.55502,-39.772633,SDL
3911745427000,1.169982,-7.24081209209045,-5.91375512748099,3.19528012592081,1.5137241,-0.1432479,1.7424932,344.71198,48.821865,-40.38547,SDL
3911750473000,1.175028,-7.45880656572037,-5.95309988786373,3.38758972377573,1.5870279,-0.27000242,1.7244726,343.8792,48.02127,-40.99058,SDL
3911755492000,1.180047,-7.66775200615685,-5.97442084208659,3.50272305468417,1.627345,-0.36957347,1.6670512,343.10046,47.250988,-41.55339,SDL
3911760427000,1.184982,-7.9306635385763,-5.91666416602728,3.50797502619352,1.6933185,-0.45875978,1.6337591,342.03445,46.45173,-42.04411,SDL
3911765503000,1.190058,-8.26738289791134,-5.7664358783035,3.38882831327792,1.756543,-0.52839845,1.6041322,341.02902,45.679,-42.489735,SDL
3911770423000,1.194978,-8.60195311880609,-5.50742815431135,3.34779470476005,1.8118263,-0.5714644,1.5457945,339.9175,44.90495,-42.856075,SDL
3911775438000,1.199993,-8.94862159763949,-5.16544399463519,3.35716412575107,1.8793269,-0.63163465,1.4611896,338.8667,44.15084,-43.179134,SDL
3911780424000,1.204979,-9.35232664987118,-4.90412692934007,3.38185789533294,1.9281962,-0.6933321,1.3674219,337.8204,43.36489,-43.4903,SDL
3911785447000,1.210002,-9.80991811741974,-4.70869714001189,3.41999043882283,1.9569068,-0.7244862,1.2815952,336.8468,42.604946,-43.760693,SDL
3911790432000,1.214987,-10.066131305378,-4.57435486211779,3.56552206937371,1.9969184,-0.782213,1.2198979,335.79465,41.738907,-44.103287,SDL
3911795405000,1.21996,-10.1410507164979,-4.49475278305968,3.80901082780454,2.0384574,-0.91415983,1.1768318,334.7792,40.90094,-44.39783,SDL
3911800450000,1.225005,-10.076398788564,-4.361258013265,3.95964629560848,2.0891593,-1.0855075,1.1389582,333.71262,39.975536,-44.754864,SDL
3911805573000,1.230128,-9.85946334318159,-4.16897407732891,4.00894982932369,2.1502457,-1.2962561,1.1142182,332.6454,39.068592,-45.061394,SDL
3911810445000,1.235,-9.66558848281627,-4.22392320083597,3.89428753869589,2.2198844,-1.3707817,1.087951,331.4503,38.120052,-45.33845,SDL
3911815541000,1.240096,-9.47519849582017,-4.51857518939253,3.61323504454765,2.252871,-1.4181237,1.0348058,330.2645,37.198772,-45.556694,SDL
3911820439000,1.244994,-9.30580393061744,-4.60073828911521,3.37334028415022,2.2699752,-1.4437801,1.0219775,329.0117,36.25386,-45.754433,SDL
3911825439000,1.249994,-9.15848375238701,-4.30609830396775,3.18538059817526,2.2815816,-1.4703526,1.0067059,327.81155,35.3342,-45.91147,SDL
3911830441000,1.254996,-9.02776617367353,-4.07444095882865,3.1709366914468,2.2650883,-1.4798211,0.9786061,326.7266,34.5116,-46.031696,SDL
3911835435000,1.25999,-8.91683151280565,-3.91728416613511,3.36044941080506,2.262034,-1.4291192,0.9654725,325.69162,33.697308,-46.142338,SDL
3911840399000,1.264954,-8.74518809690826,-3.88230256144957,3.51344543312722,2.2666154,-1.4172074,0.97005403,324.6638,32.86904,-46.266594,SDL
3911845435000,1.26999,-8.47141092143943,-4.04363542863659,3.6112230614293,2.270586,-1.4110987,0.9831876,323.68195,32.05326,-46.38332,SDL
3911850474000,1.275029,-8.25065806022671,-4.12717870354855,3.727926620483,2.282498,-1.3744467,0.9624182,322.64746,31.21551,-46.47516,SDL
3911855442000,1.279997,-8.10527562474125,-4.10372993942829,3.86861930314441,2.2745566,-1.312444,0.9419542,321.6516,30.388353,-46.562744,SDL
3911860367000,1.284922,-8.01922385901009,-4.05321005195579,4.03083057304181,2.2519548,-1.2156218,0.9288206,320.66208,29.613049,-46.58233,SDL
3911865509000,1.290064,-8.02868948784238,-3.95382307421432,4.23907020677559,2.237294,-1.1334605,0.9184359,319.72495,28.85286,-46.598316,SDL
3911870463000,1.295018,-8.00468708110599,-3.87855737135484,4.39310280624885,2.2440135,-1.1261301,0.90133166,318.75937,28.099882,-46.57014,SDL
3911875432000,1.299987,-7.90819688663595,-3.84785600412903,4.44573372149309,2.2574525,-1.1624765,0.8546005,317.85147,27.368774,-46.534233,SDL
3911880418000,1.304973,-7.81413745477352,-3.8129287205774,4.4833050403783,2.2797492,-1.1780536,0.82558435,316.90195,26.607492,-46.47812,SDL
3911885439000,1.309994,-7.73754603609756,-3.75069801170732,4.42107448146341,2.2858577,-1.1294898,0.75808376,316.02362,25.878204,-46.406647,SDL
3911890428000,1.314983,-7.68125990043056,-3.68520547517773,4.37244384059277,2.2864685,-1.1255192,0.7150178,315.1225,25.150396,-46.293056,SDL
3911895427000,1.319982,-7.76275236006809,-3.59412556723741,4.41558680734955,2.302351,-1.1410962,0.6817256,314.2844,24.443203,-46.172302,SDL
3911900495000,1.32505,-7.8453041344086,-3.52076361839904,4.47481717682198,2.3044891,-1.1133019,0.6704246,313.4896,23.748295,-46.057064,SDL
3911905564000,1.330119,-7.92746871818996,-3.56426264334926,4.62948021963361,2.295937,-1.1212431,0.64660084,312.7298,23.072872,-45.92054,SDL
3911910484000,1.335039,-7.99347029797673,-3.5892809815714,4.76020021134716,2.3032675,-1.1297953,0.6249151,311.9882,22.378798,-45.79794,SDL
3911915454000,1.340009,-7.96939508502782,-3.50100511696173,4.76421283063564,2.3026567,-1.1548407,0.61575216,311.2745,21.700466,-45.666157,SDL
3911920438000,1.344993,-7.94525205457764,-3.4124805879447,4.76823675307705,2.2971587,-1.185384,0.59773165,310.56726,21.029493,-45.508495,SDL
3911925431000,1.349986,-7.93564305056202,-3.33018489613488,4.77983902202721,2.2806654,-1.1389582,0.5852089,309.9017,20.3724,-45.362804,SDL
3911930407000,1.354962,-7.93094440540327,-3.25030704529679,4.79393505563005,2.2547035,-1.0647382,0.5879578,309.26422,19.729475,-45.216625,SDL
3911935442000,1.359997,-7.8849838671965,-3.11070594253924,4.74993642883966,2.2434027,-1.0125091,0.59315014,308.62833,19.074457,-45.07369,SDL
3911940414000,1.364969,-7.82348912799523,-2.94987344891715,4.68371127569044,2.240043,-0.96883225,0.5897904,308.03217,18.435078,-44.946575,SDL
3911945431000,1.369986,-7.74108364983058,-2.75689868257923,4.7312881054415,2.2375994,-0.9080512,0.5717699,307.454,17.790117,-44.83051,SDL
3911950424000,1.374979,-7.65053927215467,-2.55198226037473,4.82659797667929,2.2418754,-0.870483,0.56779927,306.89786,17.153269,-44.72084,SDL
3911955437000,1.379992,-7.55310766252362,-2.34657375136721,4.98216311772894,2.269059,-0.84207773,0.5748242,306.35504,16.495764,-44.630383,SDL
3911960414000,1.384969,-7.45358082631003,-2.14278116531769,5.16225905717411,2.2785273,-0.7877107,0.56230146,305.85077,15.856694,-44.55316,SDL
3911965534000,1.390089,-7.27181877128321,-2.01744532668174,5.25451456691163,2.2595906,-0.7464773,0.5525276,305.3106,15.180193,-44.46443,SDL
3911970476000,1.395031,-7.06224249169022,-1.93272299197287,5.30356421955907,2.254398,-0.7678576,0.52931476,304.79916,14.51601,-44.36983,SDL
3911975430000,1.399985,-6.92479387869222,-1.87126110280824,5.29144247041099,2.2467623,-0.8051204,0.51007247,304.2495,13.819385,-44.25735,SDL
3911980946000,1.405501,-6.83275379075535,-1.82253396750026,5.22647295666701,2.2482896,-0.7858781,0.4877759,303.73688,13.139802,-44.152107,SDL
3911985445000,1.41,-6.86956168605223,-1.85837814565284,5.24000900880696,2.2678373,-0.72051555,0.4728097,303.19846,12.449475,-43.993786,SDL
3911990437000,1.414992,-6.96747742725038,-1.9367108306298,5.28896690496672,2.2785273,-0.6398814,0.45998153,302.6946,11.776474,-43.845528,SDL
3911995426000,1.419981,-7.06824516705905,-1.96631810030159,5.37007777050297,2.3014348,-0.58093286,0.45845437,302.21082,11.102288,-43.701015,SDL
3912000415000,1.42497,-7.17050539751921,-1.97096628156435,5.46768967409281,2.2968533,-0.5510005,0.46089783,301.75558,10.44457,-43.571686,SDL
3912005533000,1.430088,-7.20309008575101,-1.89586307627617,5.49841832835108,2.300213,-0.5366451,0.45051312,301.3352,9.803772,-43.447533,SDL
3912010436000,1.434991,-7.19015718534704,-1.77515591580977,5.48548533791774,2.2892175,-0.52442783,0.4456262,300.93124,9.176392,-43.332985,SDL
3912015487000,1.440042,-7.26780252238391,-1.64862073357586,5.56537277222341,2.2687535,-0.45814893,0.46486846,300.5358,8.55074,-43.23357,SDL
3912020524000,1.445079,-7.46393525051359,-1.51958590077038,5.76666715882731,2.2467623,-0.4804455,0.4382958,300.16907,7.9489164,-43.11113,SDL
3912025504000,1.450059,-7.62236128297557,-1.35420347330102,5.91914111593629,2.2455406,-0.50488013,0.4016439,299.79953,7.325354,-43.009537,SDL
3912030405000,1.45496,-7.75236495008408,-1.16384114774953,6.03521564556336,2.2406538,-0.5119051,0.38881573,299.4453,6.718814,-42.90739,SDL
3912035459000,1.460014,-7.85799091349092,-0.991876108634187,6.11841413627727,2.2226331,-0.52839845,0.37415496,299.09085,6.095446,-42.79477,SDL
3912040471000,1.465026,-7.93825056806263,-0.842301183560082,6.16948861428897,2.2208006,-0.5503896,0.33964106,298.76334,5.487947,-42.678555,SDL
3912045402000,1.469957,-8.01721312925439,-0.695143570722809,6.21973766677814,2.2473733,-0.56596667,0.31123585,298.4245,4.8409147,-42.566154,SDL
3912051251000,1.475806,-8.08093521988094,-0.505990776548238,6.24183756021922,2.2626448,-0.55741453,0.29565877,298.10938,4.2133846,-42.45496,SDL
3912055501000,1.480056,-8.12516325068506,-0.367537457321648,6.25529824953227,2.2766948,-0.54458636,0.267559,297.82404,3.6005998,-42.341145,SDL
3912060434000,1.484989,-8.17649898620429,-0.206833875264056,6.27092215079845,2.284636,-0.52290064,0.24007004,297.53467,2.9544744,-42.247402,SDL
3912065466000,1.490021,-8.22886497467637,-0.0429051452997732,6.2868596069451,2.2745566,-0.49021935,0.22143865,297.26758,2.3259702,-42.161446,SDL
3912070454000,1.495009,-8.19754469042056,0.0988782878890187,6.46713035408878,2.2644775,-0.4972443,0.19425514,297.0274,1.7153679,-42.07123,SDL
3912075445000,1.5,-8.12647753610875,0.230860429173322,6.7260184960068,2.2437081,-0.52473325,0.16890424,296.80673,1.1247089,-41.985847,SDL
3912080428000,1.504983,-8.03679858658996,0.355757173783971,6.9485813862924,2.2266037,-0.5665775,0.13988814,296.56793,0.4667205,-41.892174,SDL
3912085453000,1.510008,-7.94133455167625,0.479860503902004,7.16337566421345,2.1847596,-0.60048056,0.12461651,296.34723,-0.16605237,-41.7941,SDL
3912090440000,1.514995,-8.0443789370042,0.528297405786281,7.266606714979,2.1303926,-0.59437186,0.12095132,296.1088,-0.80785197,-41.649033,SDL
3912095458000,1.520013,-8.20583771161923,0.555207214043864,7.33836608190387,2.0717494,-0.58551437,0.11362094,295.8924,-1.4228045,-41.49874,SDL
3912100462000,1.525017,-8.40454431121562,0.620935627195583,7.45152623449545,2.010663,-0.58062744,0.09896017,295.65784,-2.0425413,-41.30142,SDL
3912105572000,1.530127,-8.62969411900624,0.710995393579389,7.59161922764543,1.9385809,-0.58001655,0.06872234,295.44754,-2.6293144,-41.1113,SDL
3912110441000,1.534996,-8.90252715942712,0.798233550249694,7.66008379468576,1.8848248,-0.5925393,0.0580322,295.25293,-3.1998668,-40.93986,SDL
3912115443000,1.539998,-9.20945427202487,0.888506217949684,7.70070655759917,1.8555032,-0.60994893,0.041233405,295.0853,-3.7405977,-40.77274,SDL
3912121035000,1.54559,-9.39709708185795,0.892185958561758,7.6788000043116,1.7993035,-0.625526,0.0027488936,294.9364,-4.2675834,-40.610146,SDL
3912125433000,1.549988,-9.46289394667778,0.843934883137888,7.62616260406165,1.7287487,-0.63529986,-0.01160644,294.79703,-4.7740464,-40.448708,SDL
3912130431000,1.554986,-9.53322572867825,0.747516407150364,7.54920079072352,1.7046194,-0.6606508,-0.03726278,294.69543,-5.277267,-40.31965,SDL
3912135407000,1.559962,-9.60064258397332,0.627128925630558,7.46252154577607,1.6615535,-0.6899723,-0.06719518,294.61142,-5.745778,-40.190636,SDL
3912140411000,1.564966,-9.51179884407724,0.527739205468345,7.46131041310404,1.6157386,-0.7147123,-0.086132,294.54926,-6.1875124,-40.07194,SDL
3912145429000,1.569984,-9.33635974887117,0.440019725356903,7.50747851993467,1.5711454,-0.71837753,-0.11148291,294.50876,-6.603462,-39.955647,SDL
3912150459000,1.575014,-9.03920364744547,0.352988446740365,7.54104705527338,1.5430456,-0.70402217,-0.12705997,294.49573,-6.9792366,-39.859783,SDL
3912155428000,1.579983,-8.65532179812768,0.267681331723932,7.56474345961558,1.5329664,-0.7189884,-0.14813483,294.5014,-7.335636,-39.759,SDL
3912160413000,1.584968,-8.34290941193912,0.19035961913224,7.46206738245701,1.5121969,-0.7797695,-0.19761491,294.53345,-7.6540833,-39.612988,SDL
3912165463000,1.590018,-8.08479541707847,0.118661348228899,7.25653253219016,1.4993688,-0.86101454,-0.2275473,294.5727,-7.965549,-39.461437,SDL
3912170411000,1.594966,-7.95751948904961,0.0264857169461139,7.05961593995111,1.4587462,-0.93554014,-0.23090707,294.6201,-8.24404,-39.240543,SDL
3912175436000,1.599991,-7.93791139339921,-0.0862615035896913,6.86353375496588,1.4147639,-0.9767735,-0.23579398,294.6847,-8.50875,-39.014595,SDL
3912180431000,1.604986,-7.98401145885687,-0.235132545173359,6.70523410903165,1.3833044,-1.0112875,-0.22968534,294.75476,-8.757394,-38.76597,SDL
3912185406000,1.609961,-8.07853551884742,-0.410677166240907,6.57470082513935,1.3542882,-1.035722,-0.21471913,294.82703,-8.9941,-38.51569,SDL
3912190465000,1.61502,-8.15376628989279,-0.558296816286041,6.45423141530134,1.325883,-1.0616838,-0.20586158,294.91745,-9.2097645,-38.269897,SDL
3912195427000,1.619982,-8.20323030738004,-0.667117737397731,6.35035703022796,1.2953397,-1.1059716,-0.20311269,295.0086,-9.41723,-38.01848,SDL
3912200476000,1.625031,-8.17492129245096,-0.728571641509808,6.20616083336636,1.2748758,-1.142318,-0.20311269,295.12192,-9.584475,-37.797455,SDL
3912205466000,1.630021,-8.08023488072122,-0.747508923855756,6.0309907739251,1.2217305,-1.1618657,-0.19303341,295.2323,-9.737707,-37.574093,SDL
3912210484000,1.635039,-7.91951153253553,-0.789547530979805,5.86474742255049,1.2009611,-1.2119566,-0.17928895,295.3595,-9.879397,-37.344296,SDL
3912215429000,1.639984,-7.70256029094989,-0.851533568302169,5.70978232924458,1.1746938,-1.2455542,-0.15088372,295.47723,-10.010615,-37.117992,SDL
3912220397000,1.644952,-7.42678985131317,-0.873976582820969,5.50460249967563,1.1548407,-1.2702943,-0.14294247,295.60297,-10.139571,-36.89036,SDL
3912225428000,1.649983,-7.04868311698232,-0.828603722059224,5.21219985317568,1.1523973,-1.3041973,-0.13347405,295.72064,-10.270077,-36.65495,SDL
3912230429000,1.654984,-6.66065261807407,-0.778085042352593,4.85660644967901,1.1472049,-1.3338243,-0.12522738,295.8347,-10.391671,-36.40114,SDL
3912235437000,1.659992,-6.25801980503704,-0.721242803016296,4.42555292750617,1.1447614,-1.3683381,-0.1160644,295.94702,-10.513442,-36.14219,SDL
3912240454000,1.665009,-5.9151613912138,-0.649417480277668,4.00350257724117,1.1340714,-1.4004086,-0.086132,296.0453,-10.657266,-35.858433,SDL
3912245499000,1.670054,-5.64685134113447,-0.558383667187624,3.59145470372868,1.1588113,-1.4239268,-0.07849618,296.14948,-10.804431,-35.575096,SDL
3912250381000,1.674936,-5.43373909432424,-0.465338765466188,3.27699531886097,1.1948525,-1.4077389,-0.08002335,296.24243,-10.984968,-35.287678,SDL
3912255459000,1.680014,-5.27803693313282,-0.361537232705928,3.06939217451247,1.2479976,-1.3701707,-0.083383106,296.33362,-11.174023,-35.00628,SDL
3912260360000,1.684915,-5.12227283757112,-0.246265048569747,2.90742422466157,1.3041973,-1.3151928,-0.09040806,296.42133,-11.405084,-34.751434,SDL
3912265486000,1.690041,-4.9489094458505,-0.0969799682754561,2.81111124043555,1.3417655,-1.2699889,-0.08674286,296.50525,-11.643158,-34.5104,SDL
3912270418000,1.694973,-4.77795823994867,-0.0422886887938409,2.72958651522669,1.3771957,-1.244027,-0.093767814,296.59467,-11.924358,-34.280354,SDL
3912275444000,1.699999,-4.59496019936318,-0.174962190590248,2.67011222966448,1.4046847,-1.2180653,-0.092240654,296.67804,-12.212177,-34.06823,SDL
3912280377000,1.704932,-4.39980002119909,-0.226328074323299,2.62807641677207,1.4312572,-1.1954633,-0.08552113,296.75006,-12.547939,-33.848816,SDL
3912285434000,1.709989,-4.14006968677966,0.023601146779661,2.64767869457627,1.4477507,-1.178359,-0.061086524,296.81653,-12.888503,-33.63974,SDL
3912290397000,1.714952,-3.88516724467493,0.268884659600304,2.66691660336453,1.4770721,-1.1603385,-0.024740042,296.87946,-13.213604,-33.41467,SDL
3912295435000,1.71999,-3.62641276082975,0.517874854561093,2.68644523211232,1.5030339,-1.1530081,0.012217305,296.93588,-13.543292,-33.195248,SDL
3912300482000,1.725037,-3.40101249904655,0.758404679584969,2.71795471312395,1.5262468,-1.1047498,0.036957346,296.9842,-13.883115,-32.99019,SDL
3912306346000,1.730901,-3.24352967586465,1.01037727341559,2.7914468361376,1.53205,-1.071763,0.048258353,297.02826,-14.225714,-32.786785,SDL
3912310404000,1.734959,-3.14036695325207,1.17670908846039,2.84340377286442,1.5140295,-1.024421,0.06963864,297.00397,-14.704818,-32.50033,SDL
3912315461000,1.740016,-3.05327145837746,1.32670681220901,2.91598321719452,1.4825699,-0.9822713,0.106901415,296.97354,-15.182189,-32.22565,SDL
3912320412000,1.744967,-2.99667155760811,1.47395925215307,2.98256624532296,1.4434745,-0.9636399,0.14813483,296.8974,-15.733916,-31.900118,SDL
3912325425000,1.74998,-3.14867983055907,1.62596747975394,3.01731095196309,1.4025466,-0.9618073,0.20280726,296.81058,-16.279325,-31.584404,SDL
3912330382000,1.754937,-3.29899002585489,1.77627763020626,3.05166752703094,1.3787229,-0.9419542,0.25045475,296.68945,-16.876074,-31.230408,SDL
3912335419000,1.759974,-3.5658639829425,1.98708746370061,3.21852179414284,1.3466524,-0.95386606,0.29749137,296.56525,-17.460716,-30.872133,SDL
3912340464000,1.765019,-3.84144342138315,2.20356010224563,3.39816773430048,1.3029755,-1.0097603,0.33108896,296.44382,-18.033182,-30.512808,SDL
3912345424000,1.769979,-4.04439869642289,2.4017954424682,3.54920416991256,1.2623531,-1.0754282,0.3539964,296.32318,-18.640255,-30.16576,SDL
3912350629000,1.775184,-4.24387867128539,2.62474401988421,3.71372993910674,1.2159272,-1.1670581,0.37751472,296.21194,-19.271229,-29.817812,SDL
3912370430000,1.794985,-4.31768628704875,4.23006072243845,4.64555185881094,1.0115929,-1.382999,0.33536503,295.901,-21.834736,-28.323431,SDL
3912376283000,1.800838,-4.12552424224845,4.49715763167633,4.83135633177636,0.9593639,-1.4343116,0.31673363,295.8585,-22.512188,-27.906076,SDL
3912380393000,1.804948,-3.9798605475095,4.67431618488698,4.95733564233847,0.9071349,-1.4263704,0.30604348,295.83374,-23.159975,-27.51137,SDL
3912385444000,1.809999,-3.85504100414231,4.69702577616688,5.15036425205629,0.8689558,-1.4385877,0.3213151,295.78845,-23.896791,-27.017603,SDL
3912390373000,1.814928,-3.73809499623427,4.70170361257556,5.34215578903974,0.8142834,-1.5601498,0.29168814,295.79276,-24.58387,-26.527061,SDL
3912395435000,1.81999,-4.66377888552115,4.98729601446058,6.10739768394994,0.75228053,-1.997224,0.07880162,295.8777,-25.305845,-25.88364,SDL
3912400401000,1.824956,-5.6934076505892,5.30009445149356,6.92414962970677,0.7165449,-2.2870796,-0.035124753,295.96054,-25.998821,-25.271559,SDL
3912405495000,1.83005,-7.13133324299065,6.09125897780374,8.75494504586873,0.6826419,-2.8658743,-0.24281894,296.2454,-26.611412,-24.482687,SDL
3912410435000,1.83499,-8.67381361682243,7.04086432827103,10.9154224101423,0.591623,-3.497509,-0.453262,296.62454,-27.160713,-23.666994,SDL
3912415461000,1.840016,-8.80755140139165,9.22755981640159,13.0002194539761,0.4196644,-3.796833,-0.54061574,297.14578,-27.550217,-22.995068,SDL
3912420404000,1.844959,-8.65697268429424,11.6179951077535,15.0283249836978,0.042760566,-3.6181548,-0.35216382,297.66803,-27.863167,-22.303766,SDL
3912425446000,1.850001,-6.70927533924151,13.5882736601644,16.2517578465195,-0.59528816,-3.2296445,-0.009162978,298.1979,-28.009796,-21.677876,SDL
3912430401000,1.854956,-4.39747075512427,15.4208018337459,17.2666967914645,-1.312444,-2.81334,0.27977628,298.6511,-28.041582,-21.103086,SDL
3912435983000,1.860538,-1.79391892844663,16.6553066457476,17.9504218992871,-1.8988746,-2.4755313,0.30757064,298.95767,-28.335522,-20.413391,SDL
3912440395000,1.86495,0.263781918586204,17.4826299649563,18.4086310696857,-2.0583105,-2.386956,0.007330383,299.24408,-28.482594,-19.796827,SDL
3912445448000,1.870003,0.697012271723181,18.0468154354551,18.7200366650803,-1.7287487,-2.6374106,-0.3866777,299.5841,-28.807074,-18.891527,SDL
3912450474000,1.875029,0.658834205651398,18.5144965455086,18.9777395080309,-1.2095132,-2.669481,-0.6618725,299.90262,-29.042076,-18.125229,SDL
3912455446000,1.880001,0.647407133942192,18.7947063016861,17.9340012217985,-1.0186177,-1.9889772,-0.77763146,300.31924,-29.254032,-17.308292,SDL
3912460426000,1.884981,0.642620606242473,19.0292446095945,16.5602804169008,-1.3038919,-1.1337659,-0.8762862,300.75473,-29.389715,-16.599674,SDL
3912465489000,1.890044,0.420501826719764,19.1685077981318,14.4008456425762,-1.7403551,-0.3894266,-1.0369438,301.14243,-29.5332,-16.073944,SDL
3912470418000,1.894973,0.151294706418879,19.2799036827925,12.1125852605703,-2.039679,0.16218472,-1.2278391,301.4411,-29.576752,-15.750917,SDL
3912475450000,1.900005,-0.373085399173357,16.2705140080285,11.1874107219744,-2.171015,0.4447099,-1.4202617,301.70166,-29.609764,-15.606997,SDL
3912480584000,1.905139,-0.987128724224403,12.2110054026167,10.6903281809892,-2.1688771,0.50335294,-1.5931365,301.9417,-29.554092,-15.572355,SDL
3912485429000,1.909984,-1.20128902789821,9.60557366343073,10.3769984109331,-2.1276436,0.38362336,-1.7702875,302.19492,-29.558424,-15.676895,SDL
3912490441000,1.914996,-1.30986349734213,7.28931839402451,10.1010379743638,-2.0576997,0.073303826,-1.9581286,302.50357,-29.537281,-15.771303,SDL
3912495465000,1.92002,-1.15568681859529,5.00879326333266,9.1435818488227,-1.9795089,-0.42363504,-2.157576,302.875,-29.181463,-15.849177,SDL
3912500445000,1.925,-0.848550555162004,2.77245761611994,7.79506199050111,-1.8500054,-0.7318166,-2.2314909,303.2721,-28.863802,-15.899801,SDL
3912505562000,1.930117,-0.476886789405041,0.356660282913247,6.30221258417351,-1.7400496,-1.3988814,-2.3090706,303.8398,-28.374481,-15.755954,SDL
3912510493000,1.935048,-0.0893573267975772,-2.03310478868699,4.80745614404064,-1.4532484,-1.9520199,-2.2149973,304.38913,-27.994574,-15.546289,SDL
3912515546000,1.940101,0.244391478939539,-4.7879693824856,3.85795609745681,-1.1343768,-2.286163,-2.0024164,305.0234,-27.521112,-15.218126,SDL
3912520495000,1.94505,0.53094848168906,-7.68083015278311,3.29848755834933,-0.8176431,-2.3167064,-1.7602082,305.62817,-27.152323,-14.814272,SDL
3912525432000,1.949987,0.635409352047025,-10.1423988460349,2.90388586912447,-0.61453044,-2.171015,-1.5796975,306.25415,-26.681938,-14.345363,SDL
3912530436000,1.954991,0.566221685634732,-12.2279129897907,2.66172901087965,-0.516792,-1.9737056,-1.518611,306.8098,-26.287983,-13.870348,SDL
3912535421000,1.959976,0.469653841821591,-12.9911754878626,2.46370104086244,-0.4908302,-1.8002199,-1.5635096,307.4809,-25.477812,-13.478106,SDL
3912540436000,1.964991,0.35117227455299,-12.7447338152753,2.29782692190645,-0.4437936,-1.6377298,-1.6267341,308.10062,-24.69924,-13.1191025,SDL
3912545426000,1.969981,0.143393634939472,-11.8106505024807,2.30367913228815,-0.33169982,-1.4321736,-1.6206255,308.69513,-23.717543,-12.821484,SDL
3912550588000,1.975143,-0.150923557364556,-10.2360535477277,2.46064828922405,-0.20799962,-1.1786644,-1.5696182,309.25842,-22.748688,-12.571322,SDL
3912555465000,1.98002,-0.511849877668856,-8.64357915782766,2.88444202893834,-0.124005646,-0.97005403,-1.5296066,309.80194,-21.836275,-12.367135,SDL
3912560423000,1.984978,-0.949384459004019,-6.93533260317616,3.55005311581218,-0.10720685,-0.9388999,-1.496009,310.31738,-20.940844,-12.169573,SDL
3912565482000,1.990037,-1.33463051372762,-5.2969657704777,4.37716435474236,-0.12767084,-1.0057896,-1.4563028,310.78397,-20.266207,-11.992169,SDL
3912570446000,1.995001,-1.6496469061715,-3.79711150747701,5.34102066553259,-0.21930063,-1.0961977,-1.393689,311.22446,-19.578867,-11.805051,SDL
3912575426000,1.999981,-1.8086011581771,-2.38119831155564,6.14680118236936,-0.33567044,-1.3029755,-1.3301591,311.53806,-19.277338,-11.472414,SDL
3912580425000,2.00498,-1.78473073377543,-1.0635527091085,6.76743112010371,-0.4251622,-1.6056592,-1.2797627,311.83563,-18.96475,-11.088365,SDL
3912585422000,2.009977,-1.6944519124383,0.204620368963475,7.15534925310958,-0.50976706,-1.9272798,-1.2528846,312.26346,-18.59936,-10.729225,SDL
3912590435000,2.01499,-1.52383923290227,1.41786664875814,7.26435186572557,-0.56199604,-2.189341,-1.2672399,312.69647,-18.2231,-10.305739,SDL
3912595383000,2.019938,-1.31680814868232,2.55344959323248,7.22813576260947,-0.60994893,-2.2660046,-1.2742649,313.15222,-17.960398,-9.823551,SDL
3912600419000,2.024974,-1.05281687879379,3.62381410437898,6.99294368669387,-0.6227771,-2.3051,-1.2788464,313.6172,-17.698624,-9.289432,SDL
3912605439000,2.029994,-0.861894455688805,4.50697078889943,6.79950556151803,-0.6178902,-2.1331415,-1.2620476,314.0406,-17.664711,-8.732047,SDL
3912610424000,2.034979,-0.771305484379507,5.13203445256167,6.66362202888046,-0.55924714,-1.8573358,-1.2428054,314.44543,-17.64641,-8.210282,SDL
3912615367000,2.039922,-0.742105454039124,5.62660876699777,6.64815778843503,-0.52290064,-1.559539,-1.244027,314.80652,-17.895048,-7.6598783,SDL
3912620445000,2.045,-0.85547597308433,5.83856240762214,6.9143321266268,-0.5384777,-1.3100005,-1.241889,315.133,-18.138292,-7.1979165,SDL
3912625359000,2.049914,-1.03587929727139,5.96631580757517,7.10846310804669,-0.6230826,-1.1743884,-1.2724323,315.50735,-18.425255,-6.8025165,SDL
3912630549000,2.055104,-1.37781506765865,5.93558003142923,7.17761868461003,-0.7339546,-1.0613784,-1.3170254,315.85925,-18.691952,-6.491246,SDL
3912635421000,2.059976,-1.69879986020716,5.90672748781016,7.24253698307181,-0.8414669,-0.88361657,-1.3857478,316.25146,-18.919691,-6.2573423,SDL
3912640434000,2.064989,-2.29136974641468,5.79154877855789,7.45319500355041,-0.9275989,-0.659429,-1.4633276,316.63654,-19.114403,-6.088493,SDL
3912645365000,2.06992,-2.96013402731625,5.65026045738506,7.70751372593996,-1.0519099,-0.5174029,-1.5271631,317.02094,-19.26144,-5.964506,SDL
3912650436000,2.074991,-3.53500775689127,5.42023780336907,7.98868500995406,-1.1688906,-0.50915617,-1.5512923,317.4281,-19.378433,-5.915807,SDL
3912655546000,2.080101,-4.0736573662902,5.15793888185299,8.27908785547473,-1.2623531,-0.6053675,-1.5861117,317.8459,-19.461777,-5.8925886,SDL
3912660495000,2.08505,-4.44469831384748,4.60090781422018,8.79285475659404,-1.3206906,-0.8426886,-1.6288722,318.31705,-19.477962,-5.915806,SDL
3912666061000,2.090616,-4.78090785232225,3.81132475642202,9.4958383225344,-1.3429873,-1.2208142,-1.7266107,318.8292,-19.47664,-5.8882313,SDL
3912670429000,2.094984,-4.8303778133067,3.12702464044253,10.1034989683466,-1.3796391,-1.7122552,-1.8402315,319.42807,-19.369959,-5.8405757,SDL
3912675434000,2.099989,-4.75181710407703,2.30213603995083,10.8350959479615,-1.3860532,-2.1927009,-1.9230038,320.0714,-19.270327,-5.7052474,SDL
3912680430000,2.104985,-4.28979120313231,1.52998960534933,11.1990345750025,-1.2977833,-2.5668557,-1.9969184,320.79187,-18.98782,-5.5246797,SDL
3912685437000,2.109992,-3.58269205132716,0.788754710383403,11.3307019222008,-1.1071932,-2.7983737,-2.0317378,321.54492,-18.743898,-5.261758,SDL
3912690438000,2.114993,-2.64075031359928,0.102809583862194,11.2494488585675,-0.88270026,-2.8603766,-2.0302107,322.30682,-18.367401,-4.9256744,SDL
3912695426000,2.119981,-1.57247758411403,-0.551627773889393,11.0521547918807,-0.6826419,-2.886949,-2.0124955,323.07858,-18.05198,-4.544622,SDL
3912700576000,2.125131,-0.382753134954466,-1.0152343138539,10.741890649099,-0.6001751,-2.7867672,-1.9413297,323.79712,-17.653206,-4.0760174,SDL
3912705447000,2.130002,0.78323656764193,-1.35418475062972,10.3984209700639,-0.49266282,-2.558609,-1.8069394,324.47076,-17.333145,-3.6369762,SDL
3912710421000,2.134976,1.87117588962911,-1.53633324441682,10.1777038485632,-0.48166725,-2.1649065,-1.6059648,325.04532,-16.928593,-3.108103,SDL
3912715502000,2.140057,2.91143119374565,-1.60890919351695,10.0422285347519,-0.5158757,-1.7504344,-1.3768903,325.53943,-16.555656,-2.6431751,SDL
3912720436000,2.144991,3.79223140965993,-1.52726228436668,10.7667291754559,-0.5320636,-1.4511104,-1.1786644,325.92062,-16.186357,-2.0599349,SDL
3912725440000,2.149995,4.59526711473632,-1.3383127241104,12.0988240635781,-0.48258355,-1.2962561,-1.0186177,326.2105,-15.838311,-1.5444937,SDL
3912730426000,2.154981,5.23351570942008,-1.13650615430148,12.8124571932423,-0.40133846,-1.219287,-0.9025534,326.42572,-15.55537,-0.90205544,SDL
3912736085000,2.16064,5.81067382669184,-0.895149097542841,13.064307621551,-0.33475417,-1.2027937,-0.8594874,326.5866,-15.289197,-0.29360676,SDL
3912740433000,2.164988,5.84731584994911,-0.651918742511704,13.1799469601058,-0.3042109,-1.2137892,-0.8594874,326.72086,-14.996327,0.4242034,SDL
3912745428000,2.169983,5.52600655272746,-0.320872733372685,13.2432359383269,-0.30268374,-1.2516629,-0.88178396,326.82925,-14.722642,1.1245493,SDL
3912750428000,2.174983,5.02560235963855,0.143950168383534,13.235738876004,-0.34300083,-1.3109168,-0.9104946,326.9574,-14.463458,1.8976618,SDL
3912755471000,2.180026,4.35644304409639,0.735525673208835,13.16300372751,-0.43004912,-1.4489723,-0.9428705,327.08142,-14.199027,2.676199,SDL
3912760419000,2.184974,3.54418448458824,1.26642001335294,12.9832263111765,-0.5021312,-1.6334536,-0.981355,327.2675,-13.969994,3.4231107,SDL
3912765517000,2.190072,2.56773345678431,1.76900519380392,12.7008216015686,-0.53878313,-1.824349,-1.0424415,327.46008,-13.7344475,4.1833405,SDL
3912770415000,2.19497,1.60211989585497,2.19566176907711,12.5133821685977,-0.48747048,-1.9859229,-1.1172725,327.75327,-13.603534,4.88334,SDL
3912775437000,2.199992,0.583733761286456,2.57515462636836,12.4077004686376,-0.40500367,-2.1319196,-1.2003502,328.05948,-13.477361,5.6050134,SDL
3912780427000,2.204982,-0.17746852195547,3.0438984525847,12.4423747841239,-0.27885997,-2.3115141,-1.2699889,328.47156,-13.476116,6.2341704,SDL
3912785437000,2.209992,-0.679096663436592,3.61055253835431,12.6235180513069,-0.1777618,-2.5115724,-1.2589933,328.87973,-13.491674,6.88841,SDL
3912790398000,2.214953,-0.867882741700707,4.31766668349108,12.6262137791173,-0.09743301,-2.6258042,-1.1859949,329.38013,-13.586294,7.4179873,SDL
3912795431000,2.219986,-0.627770807701505,5.23969653812892,12.3812996851649,-0.07360926,-2.8225029,-1.0965031,329.8807,-13.691419,8.008593,SDL
3912800415000,2.22497,-0.0490673041134823,6.27721011059035,11.8490637625648,-0.055588737,-2.9345965,-0.84940815,330.38513,-13.902484,8.536046,SDL
3912805438000,2.229993,1.02066331919625,7.50044455057838,10.8992584413642,-0.0033597588,-2.9251282,-0.52106804,330.83557,-14.115241,9.074418,SDL
3912810354000,2.234909,2.15031897974074,8.67545265913778,9.78600543395856,0.089186326,-2.8228083,-0.095294975,331.26343,-14.446874,9.647992,SDL
3912815439000,2.239994,3.44631979153491,9.85667873396838,8.35131785122263,0.258396,-2.5961773,0.38423425,331.56473,-14.7814045,10.189839,SDL
3912820369000,2.244924,4.54754464232528,10.8405890502939,7.05353373677335,0.47555858,-2.2656991,0.85154617,331.82523,-15.237021,10.817052,SDL
3912825434000,2.249989,5.40298287564617,11.564769205188,5.88579248082486,0.72387534,-1.8264871,1.2797627,331.9366,-15.71306,11.37271,SDL
3912830357000,2.254912,6.13999503518235,12.1283575608336,4.92428358320564,0.92087936,-1.3521502,1.5992452,331.98746,-16.358328,12.013248,SDL
3912835435000,2.25999,6.55233304451936,12.1929408606599,4.57156100337113,1.0592403,-0.8762862,1.7757853,331.92505,-17.02686,12.552309,SDL
3912840376000,2.264931,6.7827335051069,12.0768161975884,4.41679934724896,1.142318,-0.43066,1.7977765,331.8254,-17.828476,13.107161,SDL
3912845429000,2.269984,6.53266028422333,11.4491817824501,4.79436069510589,1.1468995,-0.07544186,1.6951511,331.67578,-18.628633,13.563321,SDL
3912850446000,2.275001,6.11985918054086,10.714755968254,5.21786774172056,1.103528,0.10873401,1.5580118,331.50366,-19.433685,14.008615,SDL
3912855547000,2.280102,5.31093624303351,9.70479845238095,5.76353179776602,1.0476339,0.15515977,1.4474452,331.32813,-20.227049,14.392029,SDL
3912860472000,2.285027,4.53021941356083,8.71943714797763,6.22459531681932,1.0067059,0.118507855,1.3313808,331.1399,-20.919378,14.717164,SDL
3912865483000,2.290038,3.73668497595039,7.68862067020345,6.51244601153441,0.95294976,0.04428773,1.2119566,330.98022,-21.589859,15.031466,SDL
3912870395000,2.29495,2.9588280297236,6.67816955489179,6.79460977374564,0.9062186,-0.046120327,1.0965031,330.81454,-22.112381,15.264733,SDL
3912875512000,2.300067,2.02301316771357,5.24232717457077,6.96207176717965,0.8323039,-0.1432479,0.99021256,330.68832,-22.612999,15.509142,SDL
3912880351000,2.304906,1.10606704547739,3.7868571416876,7.08821236928392,0.7162395,-0.27488935,0.90285885,330.6035,-23.088648,15.776542,SDL
3912885407000,2.309962,0.436976671734606,2.37804321588544,7.02201264822912,0.6010914,-0.4184427,0.8567385,330.51068,-23.365284,15.967086,SDL
3912890394000,2.314949,-0.178540016001909,1.00566894817184,6.92626572365633,0.48808134,-0.49357912,0.8405506,330.44238,-23.609653,16.166208,SDL
3912895428000,2.319983,-0.677396583814949,-0.484537927816521,6.77213243096945,0.43157628,-0.6621779,0.8216137,330.47183,-23.514244,16.381607,SDL
3912900445000,2.325,-1.13988458699342,-1.99942213729496,6.60223880476378,0.3145956,-0.80573124,0.79717916,330.5079,-23.378086,16.600061,SDL
3912905547000,2.330102,-1.33862423407854,-3.33994006807795,6.28234065987734,0.21105394,-0.91354895,0.7480045,330.42938,-23.181973,16.77273,SDL
3912910440000,2.334995,-1.44523853663073,-4.56368706406173,5.93004993574043,0.12705997,-0.97158116,0.7199047,330.36148,-22.961082,16.964525,SDL
3912915447000,2.340002,-1.16602440298807,-5.3904073288239,5.65718044367314,0.05681047,-0.94806284,0.6780604,330.2096,-22.591583,17.138773,SDL
3912920445000,2.345,-0.743058829552701,-6.05755928263642,5.41735457584039,-0.004886922,-0.8750645,0.62858033,330.0645,-22.20399,17.305897,SDL
3912925434000,2.349989,-0.101031860066042,-6.19226551177034,5.37336286408181,-0.076358154,-0.8155051,0.57787853,329.86093,-21.642591,17.511116,SDL
3912930425000,2.35498,0.733953880592245,-5.86132600734981,5.50064718662122,-0.15699236,-0.7449502,0.5390886,329.65158,-21.06524,17.685308,SDL
3912935441000,2.359996,1.47726024672196,-4.99598024391785,5.69685150483807,-0.27672195,-0.66675943,0.5354234,329.38876,-20.342978,17.961243,SDL
3912940435000,2.36499,2.16670334676145,-3.85320472290679,5.92823992496051,-0.38912117,-0.5564982,0.5546656,329.11038,-19.605032,18.2034,SDL
3912945428000,2.369983,2.88209609137555,-2.55787420302799,6.17225847772926,-0.49754974,-0.42058071,0.593761,328.80856,-18.847712,18.532106,SDL
3912950423000,2.374978,3.61321631353712,-1.17159435863041,6.42387778558952,-0.5549711,-0.2657264,0.63224554,328.47964,-18.076569,18.822021,SDL
3912955707000,2.380262,4.43405770601039,0.233533615788803,6.85111073170899,-0.55741453,-0.11484267,0.6621779,328.18936,-17.43658,19.140028,SDL
3912960433000,2.384988,5.19290233720953,1.45833572632709,7.31706805813315,-0.55741453,-0.009773844,0.6795876,327.87598,-16.78563,19.425129,SDL
3912965466000,2.390021,5.89433962596451,2.6540168845679,7.78184639853395,-0.56413406,0.043066,0.6640105,327.70087,-16.310959,19.787666,SDL
3912970438000,2.394993,6.50974571296296,3.75623639259259,8.2181417962963,-0.5888741,0.054367006,0.64751714,327.5093,-15.841293,20.125885,SDL
3912975431000,2.399986,6.9069908085855,4.78542501630936,8.60886962303826,-0.6258314,-0.008246681,0.63346726,327.46356,-15.544925,20.580551,SDL
3912980428000,2.404983,7.08370551823777,5.73772076941225,8.95248115981126,-0.6404922,-0.1337795,0.6545421,327.405,-15.253859,21.031786,SDL
3912985436000,2.409991,7.06994050831527,6.43241217753695,9.13611588522167,-0.6401868,-0.20708331,0.69058317,327.33405,-15.102005,21.44494,SDL
3912991114000,2.415669,6.87707579840394,6.97886177871921,9.19504681231527,-0.5876524,-0.34391713,0.70738196,327.2773,-14.961377,21.895887,SDL
3912995425000,2.41998,6.64893113774912,7.26555184103165,9.16196137866354,-0.5564982,-0.41386122,0.7690793,327.24106,-14.933741,22.290892,SDL
3913000436000,2.424991,6.320750535805,7.4999665776866,9.06350717360297,-0.4783075,-0.46028697,0.8173377,327.21362,-14.928882,22.705042,SDL
3913005435000,2.42999,5.9956723128896,7.60263479529459,8.99582769374623,-0.40408736,-0.46670106,0.87017757,327.20898,-14.997925,23.064035,SDL
3913010423000,2.434978,5.67388161833903,7.55940910625377,8.96220759079027,-0.3659083,-0.45356745,0.9086621,327.19632,-15.068364,23.423868,SDL
3913015435000,2.43999,5.38222064453773,7.05501190286049,8.92663625998243,-0.32711834,-0.42088616,0.95142263,327.19397,-15.199709,23.719978,SDL
3913020444000,2.444999,5.1246434678805,6.05748591047545,8.88917072000391,-0.29565877,-0.4529566,0.9663888,327.19247,-15.330861,24.025106,SDL
3913025417000,2.449972,4.96953545209661,5.26126180555183,8.90800511120429,-0.2782491,-0.50243664,0.9633345,327.18948,-15.464749,24.279814,SDL
3913030428000,2.454983,4.94538784485072,4.71391578916471,9.00057077088226,-0.28527406,-0.53878313,0.93462384,327.19098,-15.595361,24.534372,SDL
3913035624000,2.460179,4.92201482039452,4.14500591548493,9.09441952690411,-0.2910773,-0.5681047,0.90469146,327.15067,-15.58309,24.819725,SDL
3913040438000,2.464993,4.9169625208,3.6044036864,9.160100424,-0.301462,-0.5653558,0.8793405,327.11673,-15.568429,25.096893,SDL
3913045441000,2.469996,4.90793625185185,3.08550524,9.20196333333333,-0.310625,-0.55741453,0.86345804,327.08612,-15.4566965,25.42325,SDL
3913050432000,2.474987,4.88608082944673,2.71396287654321,9.1538813127572,-0.32406402,-0.51893,0.8698721,327.04718,-15.3423395,25.728392,SDL
3913055520000,2.480075,4.8603988158707,2.34179392771436,9.10389627769153,-0.3368922,-0.4633413,0.87781334,326.96936,-15.153742,26.036251,SDL
3913061094000,2.485649,4.76778251250114,2.05907037620309,9.0307781836362,-0.35094208,-0.4025602,0.89888823,326.87506,-14.963189,26.322525,SDL
3913065413000,2.489968,4.69601900079445,1.84000273734819,8.97412281079353,-0.36713,-0.32406402,0.92179567,326.73016,-14.71885,26.595335,SDL
3913070426000,2.494981,4.60316704870864,1.67850001454206,8.81672257307333,-0.37415496,-0.24709499,0.94042706,326.5702,-14.477342,26.84435,SDL
3913075363000,2.499918,4.50998843249663,1.53628025855202,8.64507822539156,-0.41050145,-0.17654006,0.9578367,326.3938,-14.227708,27.067595,SDL
3913080426000,2.504981,4.38052077830004,1.3849082675284,8.40907773952213,-0.46639562,-0.1518,0.9828822,326.17697,-13.943996,27.278263,SDL
3913085389000,2.509944,4.25020071856639,1.23597078563455,8.17170836501175,-0.5360342,-0.14019357,0.99204516,325.95383,-13.6544895,27.468065,SDL
3913090434000,2.514989,4.10610230251217,1.02803062046738,7.9970718188705,-0.5684101,-0.12003502,0.99082345,325.70807,-13.352773,27.644558,SDL
3913095413000,2.519968,3.96217119339825,0.814455712492697,7.83456933064265,-0.66645396,-0.14385876,0.9801333,325.46533,-13.024565,27.82575,SDL
3913100422000,2.524977,3.8053758820425,0.57374325283513,7.68232650450197,-0.73273283,-0.21197024,0.9691377,325.2093,-12.687163,28.006554,SDL
3913105510000,2.530065,3.64342764508007,0.323459567307886,7.53019320350489,-0.788627,-0.3173445,0.93523467,324.9691,-12.34024,28.198353,SDL
3913110452000,2.535007,3.40715241952055,0.0744235948219178,7.47273624150685,-0.8353582,-0.43004912,0.90041536,324.71286,-11.961451,28.397877,SDL
3913115415000,2.53997,3.15601709246575,-0.176711761369863,7.43088028082192,-0.8741482,-0.550695,0.86284715,324.4765,-11.583581,28.622393,SDL
3913120455000,2.54501,2.81385973781925,-0.466318995717092,7.44830020825147,-0.9111055,-0.6826419,0.8341365,324.22998,-11.17525,28.867144,SDL
3913125401000,2.549956,2.45558369277014,-0.759453956683693,7.48087093005894,-0.93767816,-0.8219192,0.8054258,324.0029,-10.77242,29.14037,SDL
3913130560000,2.555115,1.99167212824773,-0.93890320694864,7.55325086404834,-0.91690874,-0.95142263,0.8188649,323.75027,-10.345521,29.41321,SDL
3913135449000,2.560004,1.52487656257805,-1.07092619621349,7.63340781611279,-0.8509353,-1.0546589,0.8723156,323.4987,-9.928012,29.712568,SDL
3913140432000,2.564987,0.970790834237439,-1.36488622341691,7.87149669358835,-0.768163,-1.146594,0.96486163,323.20874,-9.4777,29.992973,SDL
3913145444000,2.569999,0.390484313936181,-1.70736217834704,8.1568931157467,-0.7171558,-1.2620476,1.0839803,322.89667,-9.02927,30.306816,SDL
3913150414000,2.574969,-0.0427955365469326,-2.14712115889025,8.39273103837792,-0.7076874,-1.4315627,1.2211196,322.55365,-8.571725,30.589893,SDL
3913155451000,2.580006,-0.43494037525475,-2.62590260233481,8.61616262624067,-0.7150178,-1.6123788,1.349096,322.17703,-8.110414,30.907082,SDL
3913160423000,2.584978,-0.504474439062218,-3.40933748427011,8.75367764983469,-0.732122,-1.7788396,1.4123205,321.76273,-7.603075,31.171515,SDL
3913165518000,2.590073,-0.392035002001803,-4.39196063400461,8.84656224105801,-0.73975784,-1.8915442,1.3897184,321.33475,-7.094,31.465483,SDL
3913170438000,2.594993,0.167714215346031,-5.2260200795776,9.08072196153121,-0.691194,-1.8829921,1.2760975,320.8632,-6.5343676,31.705626,SDL
3913175436000,2.599991,0.980054272811616,-6.01128193814822,9.39663222421271,-0.5900958,-1.8332067,1.1081096,320.4129,-6.0015326,31.954191,SDL
3913180427000,2.604982,2.02504681661216,-6.41481937867887,9.93816399640288,-0.43890667,-1.8325957,0.9230174,319.8498,-5.3529863,32.24432,SDL
3913185431000,2.609986,3.28918528933944,-6.46705646958797,10.6903779964029,-0.24495697,-1.9413297,0.83169305,319.30347,-4.7552257,32.539555,SDL
3913190439000,2.614994,4.55157533867141,-6.05449584954527,11.10263709569,-0.12889257,-2.1111503,0.6795876,318.66486,-4.049675,32.960167,SDL
3913195429000,2.619984,5.80816684638197,-5.4309244161724,11.3577348141558,0.12461651,-2.2611177,0.5864306,318.02835,-3.4364972,33.39407,SDL
3913200817000,2.625372,7.12868998858962,-4.68561938521058,11.1566186596474,0.3576616,-2.282498,0.5296202,317.3724,-2.838823,33.930763,SDL
3913205479000,2.630034,8.25689220780607,-4.01219617921645,10.7936698594515,0.5503896,-2.159714,0.49174652,316.73322,-2.3138628,34.452885,SDL
3913210420000,2.634975,9.27901134401114,-3.35618486406685,10.1610337512933,0.6383542,-1.9242256,0.4550946,316.1595,-1.9254855,35.06994,SDL
3913215486000,2.640041,10.2201813614206,-2.71908526852368,9.35983264703542,0.64996064,-1.6658295,0.41141775,315.59467,-1.5795524,35.627655,SDL
3913220424000,2.644979,10.7799577098158,-2.13701328033921,8.67654948211327,0.6169739,-1.3594806,0.40866885,315.09265,-1.3646848,36.28865,SDL
3913225430000,2.649985,11.1210947247295,-1.57156628145043,8.04567900627742,0.51893,-1.1007792,0.38056904,314.6092,-1.1516312,36.867256,SDL
3913230420000,2.654975,11.1177593233736,-1.14088130333766,7.45850665823923,0.39645153,-0.9486737,0.31398472,314.195,-1.0455029,37.57587,SDL
3913235442000,2.659997,10.8390054522834,-0.814065933716398,6.90099821347057,0.312763,-0.8539896,0.24831672,313.78265,-0.92596895,38.19819,SDL
3913240437000,2.664992,10.4381994170969,-0.598827131816918,6.28753423403495,0.26939157,-0.70707655,0.20616703,313.44708,-0.8439054,38.81138,SDL
3913245429000,2.669984,9.93980977452343,-0.470669813564337,5.62776133999206,0.24404067,-0.5137377,0.1740966,313.12952,-0.7550078,39.36028,SDL
3913250435000,2.67499,9.42672098306233,-0.431920281346303,5.15621976388889,0.22388211,-0.30970868,0.15454891,312.87375,-0.7003047,39.848736,SDL
3913255582000,2.680137,8.88762155284553,-0.470086626399535,4.83657676666667,0.18875736,-0.12858713,0.15454891,312.62234,-0.6379041,40.27374,SDL
3913260427000,2.684982,8.4054682636652,-0.572130182195846,4.70863766351172,0.16615535,-0.008246681,0.16768251,312.40143,-0.5883603,40.64859,SDL
3913265496000,2.690051,7.92861327905454,-0.750950814391691,4.76327726150619,0.1414153,0.09193522,0.19456059,312.1756,-0.5276703,40.969894,SDL
3913270394000,2.694949,7.54621305915288,-0.929264506026177,4.90906498268497,0.12034045,0.1432479,0.22876903,311.9494,-0.4591481,41.236996,SDL
3913275430000,2.699985,7.2262072548264,-1.11776099731867,5.14578147150518,0.11575896,0.19394971,0.26419923,311.71274,-0.38326705,41.47166,SDL
3913280368000,2.704923,6.91940044731369,-1.31026320164645,5.52551049306759,0.111177474,0.21624629,0.29443705,311.4808,-0.2977481,41.669018,SDL
3913285438000,2.709993,6.62020142189486,-1.52531257744079,6.25013338445985,0.09621128,0.2574797,0.3118467,311.23932,-0.20403522,41.843098,SDL
3913290400000,2.714955,6.36505375852619,-1.6901255956151,6.88210796041413,0.09468412,0.31123585,0.33261612,310.993,-0.097349025,41.965397,SDL
3913295427000,2.719982,6.22822924807146,-1.70967191051563,7.27303446252538,0.07238753,0.3313944,0.35033122,310.74054,0.019766567,42.083076,SDL
3913300490000,2.725045,6.08084520044566,-1.72796612567609,7.62511591441305,0.062308256,0.34697145,0.3491095,310.4952,0.15219899,42.082764,SDL
3913305420000,2.729975,5.91347187521523,-1.74231241069584,7.86422096434721,0.04795292,0.3371976,0.35705075,310.24268,0.2928456,42.085075,SDL
3913310409000,2.734964,5.73474164211866,-1.76908389227531,8.05422396211083,0.016798794,0.30298916,0.34880406,310.01398,0.43326434,42.030025,SDL
3913315418000,2.739973,5.5327914538085,-1.82544210603094,8.11997505619738,-0.002443461,0.27122417,0.3200934,309.79404,0.56884545,41.97923,SDL
3913320437000,2.744992,5.32177808774212,-1.8947108141274,8.15362315278982,-0.032986723,0.23090707,0.2959642,309.59784,0.70621,41.90008,SDL
3913325398000,2.749953,5.08827734252674,-2.00001515051556,8.09410334374097,-0.058643065,0.19120082,0.27275133,309.41565,0.8385193,41.832005,SDL
3913330411000,2.754966,4.86015737493357,-2.10565913976971,8.0355599340124,-0.09254608,0.15302174,0.25717425,309.24164,0.9805368,41.743954,SDL
3913335404000,2.759959,4.66956704668733,-2.20730719984942,7.98473592608503,-0.11881329,0.11728613,0.23396139,309.08237,1.1177714,41.668556,SDL
3913340425000,2.76498,4.47790791627989,-2.30952528710363,7.93362690469442,-0.13347405,0.09682214,0.21166481,308.91763,1.270122,41.58077,SDL
3913345405000,2.76996,4.33548860405978,-2.43509793488735,7.90511459736783,-0.14294247,0.06719518,0.2012801,308.75955,1.4221282,41.507217,SDL
3913350712000,2.775267,4.20769283999213,-2.56399343421571,7.87996853611494,-0.15363261,0.0421497,0.19730948,308.60995,1.5718125,41.43954,SDL
3913355332000,2.779887,4.17721502460146,-2.64671857592009,7.87126064081874,-0.1423316,0.0015271631,0.19333886,308.4474,1.7300876,41.367493,SDL
3913360325000,2.78488,4.15196500035908,-2.72849207052017,7.86489301477233,-0.13103059,-0.032986723,0.17654006,308.27362,1.9043103,41.289936,SDL
3913365371000,2.789926,4.22185747326318,-2.71644166585208,7.89622404174355,-0.11453723,-0.07941248,0.16768251,308.0998,2.0731568,41.228092,SDL
3913370338000,2.794893,4.29065571204927,-2.70457992189916,7.92706455124931,-0.1001819,-0.14874569,0.14660765,307.92004,2.2477906,41.181473,SDL
3913375337000,2.799892,4.35989718490848,-2.69264175841604,7.958103751374,-0.07513642,-0.18142697,0.124005646,307.74597,2.4121444,41.138184,SDL
3913380389000,2.804944,4.43186314167162,-2.68003030781343,7.98189179468212,-0.0711658,-0.23762658,0.12064589,307.5744,2.5748932,41.122982,SDL
3913385489000,2.810044,4.52859849520697,-2.66068318660131,7.91417709771242,-0.061391957,-0.28588495,0.10598512,307.41644,2.7225046,41.1153,SDL
3913390470000,2.815025,4.62167658301288,-2.64068497020639,7.84638309169166,-0.061086524,-0.34300083,0.087964594,307.26337,2.8627129,41.137665,SDL
3913395340000,2.819895,4.69571999772447,-2.60777673339213,7.75999939421415,-0.05497787,-0.36468655,0.080634214,307.1125,2.9968388,41.163044,SDL
3913400358000,2.824913,4.77201360245193,-2.57386841053096,7.67099048375375,-0.05955936,-0.39400807,0.059253927,306.9689,3.1232085,41.22699,SDL
3913405436000,2.829991,4.85261672158198,-2.55053077841802,7.59166885332635,-0.067500606,-0.39950588,0.05497787,306.82214,3.2490485,41.28874,SDL
3913410368000,2.834923,4.93179162379256,-2.53073715620744,7.51744207247774,-0.06505715,-0.39828414,0.04337143,306.68597,3.3665051,41.356014,SDL
3913415435000,2.83999,5.03546949577236,-2.47523865723577,7.46333780227642,-0.081855945,-0.3943135,0.052534413,306.53925,3.4837384,41.44559,SDL
3913420498000,2.845053,5.14213714781444,-2.41494832732664,7.41232290773792,-0.10629055,-0.37934732,0.048258353,306.4025,3.5958617,41.530388,SDL
3913425436000,2.849991,5.28163394478016,-2.3319375497812,7.38690694069598,-0.111177474,-0.35979962,0.04795292,306.25772,3.7055933,41.629993,SDL
3913430357000,2.854912,5.42893786059596,-2.24355509774953,7.36726641858721,-0.1282817,-0.3268129,0.055588737,306.11258,3.8222547,41.71935,SDL
3913435441000,2.859996,5.55785437471396,-2.18310657482838,7.3565162465103,-0.13713925,-0.30176744,0.05100725,305.97928,3.922218,41.826164,SDL
3913440441000,2.864996,5.68112573245614,-2.12831938947368,7.34738514429825,-0.1459968,-0.27122417,0.054367006,305.84146,4.027263,41.91951,SDL
3913445444000,2.869999,5.79560016124205,-2.06729335634119,7.37000141178451,-0.16310102,-0.2443461,0.042455133,305.7242,4.1147537,42.026558,SDL
3913450389000,2.874944,5.9063307916199,-2.00528411083053,7.40100589579125,-0.17531833,-0.22143865,0.03970624,305.6032,4.204141,42.12347,SDL
3913456292000,2.880847,6.04551885049827,-1.91275443432288,7.4165450510857,-0.1777618,-0.19456059,0.027794369,305.4993,4.2782345,42.22949,SDL
3913460426000,2.884981,6.1451908784433,-1.84215349403126,7.42069795829225,-0.17989981,-0.16829337,0.026572637,305.3932,4.3552046,42.3265,SDL
3913465464000,2.890019,6.2325253616074,-1.79185086488066,7.42896074456892,-0.183565,-0.14935656,0.0036651916,305.31134,4.408349,42.430386,SDL
3913470428000,2.894983,6.30662446212372,-1.75480124208475,7.43822333161227,-0.18417588,-0.124005646,-0.003970624,305.22528,4.4633484,42.522057,SDL
3913475436000,2.899991,6.3633080538539,-1.71985167230227,7.44448280638791,-0.18234327,-0.105374254,-0.019242255,305.17065,4.494134,42.627445,SDL
3913480429000,2.904984,6.41148635350126,-1.68612686254912,7.44930053573804,-0.1740966,-0.06872234,-0.022296581,305.1155,4.5245476,42.71744,SDL
3913485406000,2.909961,6.435289598329,-1.685193498329,7.47851255939473,-0.16890424,-0.03940081,-0.042760566,305.0802,4.5390325,42.81372,SDL
3913490437000,2.914992,6.44870796468622,-1.69861186468622,7.51876775187523,-0.1600467,0.004886922,-0.05467244,305.0443,4.5524383,42.89233,SDL
3913495430000,2.919985,6.43260442311291,-1.71298282883266,7.58958484046353,-0.15241088,0.035124753,-0.06291912,305.0224,4.553586,42.972546,SDL
3913500407000,2.924962,6.39206541941314,-1.72818495522007,7.68586508007655,-0.15210545,0.08032878,-0.069027774,305.00607,4.5532064,43.03376,SDL
3913505507000,2.930062,6.35513330210569,-1.76957631674428,7.74850354014983,-0.13836098,0.102319926,-0.087964594,305.00226,4.548245,43.089523,SDL
3913510507000,2.935062,6.32120052219073,-1.82289930722818,7.79213140004049,-0.13805555,0.12950343,-0.105068825,305.00165,4.5456033,43.129505,SDL
3913515448000,2.940003,6.28536393363168,-1.86449873359276,7.81797356721471,-0.12950343,0.15332718,-0.12156218,305.0126,4.5366893,43.146465,SDL
3913520417000,2.944972,6.24832760162467,-1.90153516228232,7.83649185407141,-0.122783914,0.17928895,-0.13775012,305.03088,4.5251145,43.15502,SDL
3913525716000,2.950271,6.17794459059915,-1.92534198277184,7.84673179144644,-0.112704635,0.19883664,-0.15454891,305.04633,4.5198298,43.14626,SDL
3913530429000,2.954984,6.1005484690236,-1.93900007992738,7.85128439542062,-0.09590584,0.21319197,-0.1704314,305.06833,4.5088086,43.132267,SDL
3913535409000,2.959964,6.0254757305007,-1.94986924995788,7.85009293534862,-0.08857546,0.22693644,-0.18051068,305.08878,4.503425,43.105465,SDL
3913540449000,2.965004,5.95319939470286,-1.95890379782873,7.84557575575105,-0.0852157,0.23854288,-0.19547687,305.11755,4.4913607,43.076466,SDL
3913545418000,2.969973,5.89680398046181,-1.95121061136767,7.81452140674956,-0.053145275,0.25442538,-0.20372356,305.14883,4.4750104,43.030933,SDL
3913550477000,2.975032,5.85377642166963,-1.92730641203868,7.75715112867574,-0.03573562,0.26450464,-0.22082779,305.18933,4.4564033,42.98553,SDL
3913555488000,2.980043,5.82309951014856,-1.90847949458808,7.72160121435462,-0.023518313,0.269697,-0.22479841,305.23386,4.436851,42.929127,SDL
3913560408000,2.984963,5.80491772276674,-1.89484317778314,7.70796513486398,-0.01038471,0.2773328,-0.22113322,305.2821,4.411886,42.870724,SDL
3913565411000,2.989966,5.78257945598852,-1.85859745253128,7.70676132070311,0.0125227375,0.27000242,-0.2180789,305.3348,4.378688,42.817497,SDL
3913570525000,2.99508,5.75402993928523,-1.78832144745527,7.72433021877943,0.026267206,0.27152961,-0.21899518,305.3877,4.345093,42.760803,SDL
3913575448000,3.000003,5.72654670292812,-1.72067014260795,7.74124294565266,0.03145956,0.26511553,-0.22785273,305.44464,4.3058496,42.708813,SDL
3913580410000,3.004965,5.69884574440608,-1.65248290420609,7.75828965512757,0.039095376,0.25595254,-0.22876903,305.49805,4.2653174,42.658096,SDL
3913585990000,3.010545,5.66759274709405,-1.57722314594928,7.77448976389574,0.04795292,0.2443461,-0.21991149,305.5491,4.2269177,42.608208,SDL
3913590522000,3.015077,5.64083894152871,-1.53518166243396,7.74773619778091,0.06536258,0.24373524,-0.22052236,305.6035,4.1838617,42.5591,SDL
3913595440000,3.019995,5.61180645790771,-1.48955941708348,7.71870397400493,0.06291912,0.24923302,-0.2134974,305.69476,4.1173515,42.4986,SDL
3913600464000,3.025019,5.59019812822753,-1.42895142037364,7.70015418020262,0.063224554,0.23548855,-0.2098322,305.78546,4.047276,42.444805,SDL
3913605551000,3.030106,5.57208587394739,-1.36103082143322,7.68656996585184,0.062002823,0.21685717,-0.21227567,305.8746,3.979564,42.39184,SDL
3913610433000,3.034988,5.55949244337812,-1.28485458541267,7.65512209021113,0.07391469,0.19822577,-0.20280726,305.97296,3.904146,42.344337,SDL
3913615462000,3.040017,5.55068854479481,-1.19681550765012,7.60670055607349,0.07360926,0.18967366,-0.19364429,306.07065,3.832498,42.300007,SDL
3913620410000,3.044965,5.55874308729294,-1.11037429652666,7.57181097817677,0.064751714,0.18112154,-0.18051068,306.181,3.7486818,42.262917,SDL
3913625444000,3.049999,5.59996109408999,-1.02278597828364,7.5615064764775,0.051618114,0.18051068,-0.1740966,306.2888,3.668056,42.226265,SDL
3913630428000,3.054983,5.6374462536807,-0.933783637555286,7.54250546367767,0.059253927,0.1731803,-0.16890424,306.41336,3.5718558,42.199665,SDL
3913635442000,3.059997,5.67138834516813,-0.841655587406846,7.51341241599515,0.05589417,0.17531833,-0.14844026,306.52817,3.4867833,42.17008,SDL
3913640450000,3.065005,5.70966064937048,-0.769162759239615,7.51500185625062,0.046120327,0.17256944,-0.14202617,306.6576,3.3867495,42.148342,SDL
3913645442000,3.069997,5.75231619317934,-0.71702817105284,7.5481782913453,0.040011674,0.16737708,-0.1255328,306.77347,3.2946339,42.125854,SDL
3913650404000,3.074959,5.78127713637242,-0.659371574435001,7.56998540256906,0.040927973,0.16218472,-0.10995574,306.9056,3.1878211,42.11374,SDL
3913655518000,3.080073,5.7954675232374,-0.593149719673556,7.57944575926212,0.049480084,0.17012598,-0.1001819,307.03183,3.0851173,42.098553,SDL
3913660371000,3.084926,5.81273199150366,-0.549942605097807,7.57931860509781,0.03756821,0.16646078,-0.08368854,307.15704,2.979181,42.090717,SDL
3913665484000,3.090039,5.83691998715669,-0.535429807705987,7.56480580770599,0.03359759,0.17470746,-0.0720821,307.27887,2.8733644,42.076458,SDL
3913670424000,3.094979,5.83865311225071,-0.52307413492267,7.56157578046398,0.032986723,0.17806722,-0.070554934,307.41364,2.759035,42.06572,SDL
3913675478000,3.100033,5.80417936068376,-0.513224460763126,7.57635024542125,0.029321533,0.1826487,-0.06078109,307.53888,2.6527472,42.05121,SDL
3913680354000,3.104909,5.76561717332611,-0.512690994331348,7.60019160220177,0.026572637,0.20097467,-0.04734206,307.66217,2.5470004,42.036987,SDL
3913685440000,3.109995,5.71726997491428,-0.525876621434759,7.63974858447934,0.017715093,0.2125811,-0.043982297,307.78345,2.445923,42.022667,SDL
3913690416000,3.114971,5.66629634123324,-0.541205141898123,7.67886872096515,0.0076358155,0.22235495,-0.03176499,307.90063,2.3545103,41.992493,SDL
3913695437000,3.119992,5.5992606875496,-0.566988065741555,7.72012147234316,-0.0027488936,0.22388211,-0.028099801,308.01794,2.2662277,41.961372,SDL
3913700402000,3.124957,5.53630776993654,-0.594006895354488,7.76307098672711,-0.0106901415,0.23335053,-0.018020526,308.1281,2.1876729,41.911148,SDL
3913705499000,3.130054,5.47877654924751,-0.624985222917498,7.81175107976428,-0.0027488936,0.24648413,-0.011911872,308.23688,2.10953,41.86,SDL
3913710977000,3.135532,5.42145526295652,-0.657668502782609,7.86587278313043,0.0027488936,0.2434298,-0.005192355,308.3388,2.0419219,41.796272,SDL
3913715464000,3.140019,5.38824088490821,-0.682579286318841,7.91569426349758,0.0009162979,0.23732115,0.0033597588,308.4366,1.9769394,41.73076,SDL
3913720555000,3.14511,5.35195697748463,-0.710531237790121,7.96975053779012,0.004581489,0.23151793,0.010995574,308.5288,1.9175638,41.651257,SDL
3913725450000,3.150005,5.33335821087086,-0.733779817437016,7.99299911743702,0.010079277,0.22388211,0.0125227375,308.6189,1.8595858,41.57554,SDL
3913730614000,3.155169,5.31412500848913,-0.75790501980351,8.01879595707745,0.03359759,0.21746802,0.023518313,308.69623,1.803378,41.490395,SDL
3913735455000,3.16001,5.30085866448874,-0.77559344922644,8.05859475820298,0.02687807,0.19242255,0.029626964,308.77353,1.752702,41.414528,SDL
3913740939000,3.165494,5.28750560181666,-0.795059653764673,8.10271674161543,0.03573562,0.17684549,0.029321533,308.84488,1.6996185,41.333725,SDL
3913745520000,3.170075,5.31202837680268,-0.799146785774175,8.11906541475685,0.046731193,0.16157386,0.027183503,308.91345,1.6491624,41.26147,SDL
3913750403000,3.174958,5.33816780274828,-0.803503359797839,8.13649186552077,0.061086524,0.13652839,0.037873644,308.9728,1.6019305,41.189934,SDL
3913755548000,3.180103,5.36452011031712,-0.792054579289641,8.13202074450317,0.06841691,0.1328632,0.036957346,309.0368,1.5521342,41.118233,SDL
3913760448000,3.185003,5.38932250143763,-0.777173103179704,8.12209979841438,0.08399397,0.13897185,0.03573562,309.09598,1.5003635,41.052048,SDL
3913765501000,3.190056,5.41572996194908,-0.723747621598686,8.16910750643307,0.09865474,0.1301143,0.040011674,309.15082,1.4497974,40.994312,SDL
3913770555000,3.19511,5.44222945040606,-0.666332216999726,8.22210602217356,0.10170906,0.12980886,0.036651913,309.2086,1.397702,40.933712,SDL
3913775618000,3.200173,5.39472789678992,-0.663933757415685,8.2142630724807,0.11789699,0.12034045,0.034513887,309.26166,1.3400669,40.88194,SDL
3913780544000,3.205099,5.32284352539618,-0.680706777407558,8.18550947404511,0.13225232,0.122478485,0.035430185,309.31433,1.2832315,40.82802,SDL
3913785432000,3.209987,5.25151368224299,-0.697350407476635,8.15697768574766,0.13164146,0.12156218,0.035430185,309.385,1.2139444,40.775654,SDL
3913790396000,3.214951,5.1790747826087,-0.714252817391304,8.12800227717391,0.13988814,0.13683382,0.029321533,309.45685,1.1402028,40.719086,SDL
3913795429000,3.219984,5.13579067478033,-0.755557908277952,8.09502367478033,0.13591751,0.14569137,0.030848695,309.51694,1.0699267,40.664692,SDL
3913800393000,3.224948,5.10218026855873,-0.803572517897182,8.06141326855873,0.12950343,0.15241088,0.025961773,309.581,0.9976857,40.607746,SDL
3913805666000,3.230221,5.06355815929825,-0.833592877317739,8.04626852475634,0.12767084,0.1572978,0.023823744,309.63922,0.9340783,40.535538,SDL
3913810464000,3.235019,5.02773014649123,-0.855985433255361,8.03731179044834,0.12644911,0.16798794,0.024740042,309.69754,0.8726586,40.46115,SDL
3913815482000,3.240037,5.01465052009819,-0.869105034906322,8.05651819206492,0.12736541,0.18234327,0.025045475,309.74786,0.8222813,40.385666,SDL
3913820444000,3.244999,5.00988951564973,-0.878627143232141,8.08508436789901,0.12492194,0.18203785,0.034513887,309.79398,0.77563685,40.312824,SDL
3913825433000,3.249988,4.99885378983643,-0.872886053335784,8.1103977714115,0.12797627,0.18020524,0.03145956,309.8415,0.7325108,40.23233,SDL
3913830431000,3.254986,4.98565814206947,-0.861889718470869,8.13458963922073,0.12797627,0.18448131,0.03145956,309.8842,0.6935073,40.15184,SDL
3913835396000,3.259951,4.97254962042823,-0.850965988458004,8.15862177681033,0.12461651,0.18203785,0.031154128,309.92142,0.65516937,40.069874,SDL
3913840494000,3.265049,4.95908995409851,-0.83974963888991,8.18329767558813,0.118202426,0.18600847,0.030543262,309.9587,0.61806387,39.986664,SDL
3913845491000,3.270046,4.94058453947949,-0.814058148875165,8.19562117445964,0.11759156,0.1957823,0.027794369,309.99677,0.58057255,39.904278,SDL
3913850989000,3.275544,4.91155209219232,-0.761799683127481,8.18981486689458,0.10445796,0.1994475,0.028099801,310.03378,0.54825145,39.824245,SDL
3913855446000,3.280001,4.89779011199163,-0.702711547414274,8.20477416402512,0.090713486,0.20341812,0.027183503,310.07907,0.5091879,39.731766,LYI
3913860427000,3.284982,4.8882801854067,-0.626631707735247,8.23330394377991,0.09437868,0.21288654,0.026267206,310.12405,0.46988982,39.638596,LYI
3913865503000,3.290058,4.88162233630405,-0.568270379084206,8.25327765079654,0.09285152,0.21777347,0.03023783,310.17917,0.42758656,39.543938,LYI
3913870462000,3.295017,4.87729904534365,-0.525037428851161,8.26624779453801,0.09101892,0.22082779,0.024129177,310.23804,0.38317907,39.44918,LYI
3913875476000,3.300031,4.85090665661923,-0.488123936390686,8.28225696636481,0.08735373,0.21899518,0.024129177,310.31512,0.327908,39.349945,LYI
3913880465000,3.30502,4.78909721706555,-0.462370014896507,8.30285998738681,0.09865474,0.2134974,0.032375857,310.39075,0.2709956,39.25294,LYI
3913885415000,3.30997,4.7267193721851,-0.458653451195249,8.32609368423658,0.096516706,0.20861048,0.03848451,310.47375,0.20934321,39.152805,LYI
3913890454000,3.315009,4.66223264187082,-0.475372209759465,8.35236631447662,0.09040806,0.1957823,0.03573562,310.55615,0.14704816,39.05855,LYI
3913895483000,3.320038,4.5978738868102,-0.492057789600594,8.37858680613709,0.08460484,0.1908954,0.03970624,310.64383,0.084755845,38.952312,LYI
3913900526000,3.325081,4.53333596639446,-0.508789819654046,8.40488029180896,0.07513642,0.17959438,0.039095376,310.73337,0.024317183,38.85368,LYI
3913905508000,3.330063,4.45470313375295,-0.558903858379229,8.42497328304485,0.07819075,0.17379116,0.046120327,310.81647,-0.03474176,38.756535,LYI
3913910494000,3.335049,4.36078117309205,-0.643433701431943,8.43906138099921,0.0711658,0.17531833,0.041233405,310.90335,-0.09077239,38.662415,LYI
3913915491000,3.340046,4.29120208767761,-0.723011703940789,8.44134374493787,0.06963864,0.160963,0.041233405,310.98248,-0.14244117,38.549133,LYI
3913920507000,3.345062,4.25077261611961,-0.796735902960543,8.42945275310659,0.064751714,0.15424347,0.03573562,311.06482,-0.193001,38.43566,LYI
3913925384000,3.349939,4.21146349873756,-0.868417106832021,8.41789127639982,0.061086524,0.13225232,0.03573562,311.13623,-0.22774638,38.320324,LYI
3913930432000,3.354987,4.17077610391603,-0.942611635670083,8.40592442497153,0.059253927,0.11759156,0.035124753,311.20956,-0.26261228,38.2072,LYI
3913935402000,3.359957,4.15020858589152,-0.998491605569139,8.40058581997646,0.058643065,0.09896017,0.030543262,311.27814,-0.29854548,38.102715,LYI
3913940439000,3.364994,4.15894508746717,-1.02906924705243,8.40495413918319,0.05681047,0.0842994,0.030848695,311.34488,-0.3327132,38.003414,LYI
3913945398000,3.369953,4.17084683780745,-1.05203848227532,8.40561639400328,0.047036625,0.07666359,0.029932396,311.38196,-0.33823803,37.90194,LYI
3913950455000,3.37501,4.19731772740689,-1.04447541044741,8.39049040829234,0.04153884,0.06169739,0.020158553,311.42236,-0.34596908,37.808693,LYI
3913955510000,3.380065,4.22377814799719,-1.03691532974936,8.37537040477864,0.03145956,0.057726767,0.022602014,311.445,-0.34119892,37.7151,LYI
3913960431000,3.384986,4.23010088504129,-1.02575093355856,8.35304131024775,0.033292156,0.043676864,0.017715093,311.47418,-0.34119904,37.63047,LYI
3913965455000,3.39001,4.22558560275901,-1.01220536959459,8.32594961655406,0.023518313,0.03970624,0.011301007,311.50323,-0.33647665,37.545868,LYI
3913970399000,3.394954,4.23091966226175,-0.995501150317662,8.31015206003812,0.0125227375,0.036651913,0.008552114,311.52716,-0.33327845,37.472183,LYI
3913975426000,3.399981,4.24621272884371,-0.975110394875053,8.30505426471834,0.0009162979,0.030848695,0.010079277,311.55206,-0.32839817,37.401928,LYI
3913980426000,3.404981,4.26095414041227,-0.964306940402212,8.29128882322775,-0.0061086523,0.03756821,0.006414085,311.582,-0.32615015,37.332592,LYI
3913985404000,3.409959,4.27533532963298,-0.959513244032177,8.27211413785822,-0.011301007,0.027794369,0.0076358155,311.6098,-0.32093605,37.271004,LYI
3913990362000,3.414917,4.31668727370098,-0.946207303063726,8.26908645833333,-0.03145956,0.029321533,0.0012217305,311.64285,-0.3167354,37.207573,LYI
3913995437000,3.419992,4.37624879220588,-0.927147568382353,8.27623375,-0.0290161,0.029932396,-0.0036651916,311.675,-0.3163589,37.14846,LYI
3914000546000,3.425101,4.43620934354412,-0.907960142867647,8.283428925,-0.03176499,0.027794369,-0.004581489,311.70706,-0.3114752,37.095287,LYI
3914005573000,3.430128,4.49520752157843,-0.889080677598039,8.29050861666667,-0.043066,0.015882496,0.005192355,311.7371,-0.30455703,37.045864,LYI
3914010512000,3.435067,4.522911737268,-0.878407162731997,8.29484354639941,-0.032986723,0.020463986,0.0106901415,311.76892,-0.3031696,36.993366,LYI
3914015431000,3.439986,4.52757476911161,-0.873744130888394,8.29717511101213,-0.043066,0.016798794,0.008552114,311.80005,-0.29465312,36.947624,LYI
3914020400000,3.444955,4.53228519912398,-0.869033700876021,8.29953037520416,-0.04795292,0.014966198,0.016493361,311.82596,-0.29326233,36.917614,LYI
3914025449000,3.450004,4.53707146620638,-0.864247433793615,8.30192355872309,-0.055283304,0.016493361,0.016493361,311.85535,-0.2909835,36.888237,LYI
3914030433000,3.454988,4.5464995659289,-0.8642770219763,8.28890441876408,-0.053145275,0.010079277,0.018020526,311.88126,-0.2884119,36.862244,LYI
3914036036000,3.460591,4.56226456751542,-0.869532022505142,8.25737430584664,-0.064751714,0.014966198,0.020463986,311.9067,-0.28117353,36.833145,LYI
3914040433000,3.464988,4.5844136275269,-0.873524018596524,8.23952622919158,-0.07574729,0.008857546,0.025045475,311.93268,-0.27611235,36.810444,LYI
3914045432000,3.469987,4.61963802610135,-0.877927074165364,8.22631724639014,-0.07971791,0.008552114,0.03145956,311.95697,-0.26954588,36.785133,LYI
3914050498000,3.475053,4.65545282139373,-0.882255291817806,8.20619826552038,-0.07360926,0.010079277,0.03145956,311.97833,-0.26642954,36.77142,LYI
3914055472000,3.480027,4.69089280782012,-0.886193069914855,8.17075856691742,-0.0888809,0.0125227375,0.043066,311.99313,-0.25469685,36.757755,LYI
3914060449000,3.485004,4.7263541693891,-0.89013322302885,8.13529749334546,-0.105374254,0.013439035,0.046120327,312.00626,-0.24432513,36.75245,LYI
3914065471000,3.490026,4.73870772090934,-0.902290587309936,8.12682640846375,-0.10567969,0.01160644,0.0421497,312.0177,-0.23374252,36.747295,LYI
3914070510000,3.495065,4.74764512163163,-0.915696683727197,8.12235761477915,-0.10415252,0.015271631,0.04520403,312.02548,-0.21853158,36.74038,LYI
3914075429000,3.499984,4.77425692206032,-0.926276474577135,8.10042285418789,-0.1133155,0.00061086525,0.0571159,312.01926,-0.19799137,36.749332,LYI
3914080357000,3.504912,4.80791921934991,-0.935894259455879,8.0715693991237,-0.11301007,-0.0036651916,0.062308256,312.01434,-0.18100713,36.754124,LYI
3914085410000,3.509965,4.85488523537152,-0.928231252345201,8.07739866331269,-0.110872045,-0.0143553335,0.06811147,312.0006,-0.15760253,36.767097,LYI
3914090446000,3.515001,4.90621223897059,-0.914232970220588,8.09606294852941,-0.112704635,-0.013744468,0.07147124,311.986,-0.13341078,36.777782,LYI
3914095426000,3.519981,4.93197502107834,-0.922458462203555,8.11780525688611,-0.1133155,-0.017715093,0.07238753,311.9587,-0.10469235,36.797573,LYI
3914100496000,3.525051,4.94620266524712,-0.941428715504981,8.14151807970307,-0.10323623,-0.033292156,0.08002335,311.92807,-0.076853305,36.820118,LYI
3914106309000,3.530864,4.98328625424504,-0.94008453643874,8.15387174051751,-0.10720685,-0.04153884,0.08368854,311.91074,-0.048549846,36.85016,LYI
3914110433000,3.534988,5.01611985973189,-0.931876135067027,8.15797602691469,-0.10934488,-0.035430185,0.0870483,311.89072,-0.022122981,36.879646,LYI
3914115439000,3.539994,5.03288500139505,-0.944134957289124,8.14594156070948,-0.09896017,-0.035124753,0.09743301,311.86246,0.007501255,36.912052,LYI
3914120408000,3.544963,5.03999786828758,-0.965473421802601,8.12697414672911,-0.09743301,-0.03940081,0.1001819,311.83575,0.03839591,36.943157,LYI
3914125432000,3.549987,5.04718946483982,-0.987048073788052,8.10779678954711,-0.095294975,-0.027488936,0.09896017,311.8069,0.06559544,36.974483,LYI
3914130424000,3.554979,5.05433525504459,-1.00848530760799,8.08874158113696,-0.10170906,-0.025350908,0.093767814,311.77853,0.093817815,37.008846,LYI
3914135411000,3.559966,5.05336042776754,-1.02472204996604,8.07963142776754,-0.09590584,-0.021685716,0.09285152,311.7484,0.11968207,37.03758,LYI
3914140432000,3.564987,5.04869504336858,-1.03871795959057,8.07496604336859,-0.0888809,-0.021380283,0.09132435,311.72046,0.14531498,37.065857,LYI
3914145428000,3.569983,5.04958755166739,-1.05170349145084,8.07585855166739,-0.09560041,-0.016493361,0.080634214,311.68234,0.18003297,37.098442,LYI
3914150491000,3.575046,5.05378749545258,-1.06430305967951,8.08005849545258,-0.09743301,-0.006414085,0.07269296,311.64404,0.21175086,37.12859,LYI
3914155443000,3.579998,5.05986499506094,-1.07922445926876,8.08448046295702,-0.08674286,-0.007330383,0.058948494,311.60834,0.24176717,37.15964,LYI
3914160413000,3.584968,5.07004164654693,-1.09957797477015,8.08956868243532,-0.076358154,-0.01038471,0.061391957,311.56998,0.27314627,37.187687,LYI
3914165472000,3.590027,5.06932038964113,-1.11516760690592,8.10304651726479,-0.056199603,0.0061086523,0.05100725,311.53778,0.29772502,37.210148,LYI
3914170438000,3.594993,5.0554818671969,-1.1243932885354,8.12611072133851,-0.051618114,0.006414085,0.05375614,311.50018,0.32577187,37.23737,LYI
3914175833000,3.600388,5.05106936593106,-1.13210938296553,8.14847029596024,-0.052839845,0.017715093,0.03390302,311.46835,0.35035592,37.255417,LYI
3914180425000,3.60498,5.05908991409812,-1.13611965704906,8.16451151791902,-0.03848451,0.032375857,0.035124753,311.42834,0.37410322,37.271843,LYI
3914185383000,3.609938,5.0701446520422,-1.13874799360965,8.18171499442351,-0.03848451,0.0421497,0.028099801,311.39886,0.39768153,37.28108,LYI
3914190425000,3.61498,5.09197728461693,-1.13389632562673,8.19869568038181,-0.024129177,0.046120327,0.026572637,311.36734,0.41557112,37.287556,LYI
3914195362000,3.619917,5.11335525110274,-1.12914569396634,8.21532274237629,-0.026267206,0.03726278,0.017715093,311.33786,0.43699712,37.29175,LYI
3914200505000,3.62506,5.13562522915348,-1.12419683866365,8.23264358090932,-0.017715093,0.04550946,0.015882496,311.30692,0.4533585,37.289936,LYI
3914205420000,3.629975,5.15855319097891,-1.11529398181446,8.24770701064919,-0.007941248,0.040927973,0.013133603,311.2769,0.46694508,37.294273,LYI
3914210430000,3.634985,5.1880307771964,-1.09072928388286,8.25753309502355,-0.009162978,0.044898596,-0.00061086525,311.25186,0.47871637,37.29384,LYI
3914215418000,3.639973,5.21647270610515,-1.06479775840022,8.25809429389485,-0.008857546,0.040927973,-0.005192355,311.2261,0.48689938,37.299805,LYI
3914220411000,3.644966,5.24234544242042,-1.03461295940121,8.23222155757959,-0.003970624,0.03726278,0.0009162979,311.2017,0.49373907,37.304512,LYI
3914225483000,3.650038,5.26613283817139,-1.00600916473144,8.20665631218495,0.00061086525,0.027794369,-0.0012217305,311.18646,0.49360508,37.315105,LYI
3914230424000,3.654979,5.2455701018599,-1.01423425925604,8.1943188421693,0.016187929,0.040317107,-0.0125227375,311.17255,0.48944193,37.32025,LYI
3914235372000,3.659927,5.22497823396489,-1.02247100641404,8.1819638934469,0.009468411,0.040927973,-0.01160644,311.1593,0.48509005,37.33867,LYI
3914240461000,3.665016,5.1931656264709,-1.00975010888285,8.15988276110356,0.01863139,0.044898596,-0.01863139,311.153,0.4707266,37.352158,LYI
3914245545000,3.6701,5.15754856441634,-0.989397532354478,8.1344420404431,0.010995574,0.044593163,-0.025045475,311.14612,0.4624157,37.366276,LYI
3914250486000,3.675041,5.14875007865209,-0.989983134853739,8.12713689054859,0.025961773,0.050396383,-0.019242255,311.1381,0.45129228,37.374832,LYI
3914255491000,3.680046,5.14448810777096,-0.994244883231084,8.12287505316973,0.021991149,0.050396383,-0.021685716,311.13528,0.44399488,37.384872,LYI
3914260455000,3.68501,5.12808683775842,-1.00771442979326,8.10647383775842,0.024740042,0.05497787,-0.016798794,311.13333,0.43068504,37.388737,LYI
3914265493000,3.690048,5.10277047801448,-1.02796751758841,8.08115747801448,0.02107485,0.061086524,-0.014660766,311.1331,0.41934407,37.3919,LYI
3914270440000,3.694995,5.07264030180818,-1.04699267497052,8.07959673776533,0.022602014,0.06352998,-0.0106901415,311.12357,0.40686926,37.39436,LYI
3914275437000,3.699992,5.03972099292453,-1.06580375772406,8.08900220548349,0.024129177,0.07788532,-0.015882496,311.11664,0.39450198,37.391537,LYI
3914280428000,3.704983,5.01873005566928,-1.08472685910762,8.0893704801749,0.024129177,0.08032878,-0.018020526,311.10278,0.38779202,37.390556,LYI
3914285417000,3.709972,5.0044861954288,-1.1037186727616,8.08462267549439,0.01863139,0.073303826,-0.018936822,311.09048,0.3816712,37.38822,LYI
3914290432000,3.714987,4.98747716121835,-1.11671754971384,8.09444083878165,0.02321288,0.08674286,-0.020158553,311.0786,0.37994653,37.370544,LYI
3914295428000,3.719983,4.96891262809196,-1.12599986473955,8.11300537190804,0.03176499,0.09285152,-0.016798794,311.06558,0.379325,37.357174,LYI
3914300540000,3.725095,4.94703163488166,-1.13556494604733,8.13488636511833,0.027183503,0.084910266,-0.0106901415,311.0485,0.38277432,37.344772,LYI
3914305461000,3.730016,4.92389138505352,-1.14482104597859,8.15802661494648,0.02565634,0.08368854,-0.009162978,311.03214,0.38351285,37.329044,LYI
3914310428000,3.734983,4.90544137450632,-1.15916429200237,8.18145033254344,0.02565634,0.07941248,-0.009162978,311.01474,0.3871918,37.311752,LYI
3914315424000,3.739979,4.89126902280806,-1.17806074449052,8.20507083649289,0.03634648,0.08460484,-0.012217305,310.99817,0.3885451,37.2925,LYI
3914320418000,3.744973,4.87938120272983,-1.18033859156965,8.22408538338017,0.04184427,0.0842994,-0.004581489,310.97906,0.3941486,37.2701,LYI
3914325409000,3.749964,4.86978715229827,-1.16594739069651,8.23847633380169,0.040317107,0.07666359,-0.004886922,310.9642,0.39705914,37.248867,LYI
3914330403000,3.754958,4.86057315300582,-1.14990395242405,8.23674039883646,0.03481932,0.08155051,-0.013439035,310.94574,0.40308866,37.21904,LYI
3914335439000,3.759994,4.85166577160403,-1.13208928262998,8.2189258220519,0.03481932,0.079107046,-0.0067195175,310.9222,0.4107728,37.19405,LYI
3914340411000,3.764966,4.84068458049014,-1.11530666246137,8.20559638476292,0.025961773,0.07513642,-0.0012217305,310.91452,0.41629088,37.168125,LYI
3914345412000,3.769967,4.82537501945658,-1.09999704814065,8.20049307341503,0.03176499,0.06811147,-0.002443461,310.90698,0.41845095,37.144318,LYI
3914350589000,3.775144,4.81954076572613,-1.08453562742718,8.19293256907362,0.02687807,0.08368854,0.00061086525,310.8958,0.4232553,37.11428,LYI
3914355344000,3.779899,4.82414606593851,-1.07071958252427,8.18372216100324,0.023823744,0.08307768,-0.0009162979,310.88684,0.4253727,37.09139,LYI
3914360317000,3.784872,4.82449923093807,-1.06413132875801,8.18080438824055,0.022296581,0.08032878,-0.005192355,310.88226,0.42539403,37.063225,LYI
3914365348000,3.789903,4.81971389723891,-1.06652398311566,8.18558954705269,0.037873644,0.07422013,-0.0012217305,310.87546,0.4234013,37.036785,LYI
3914370331000,3.794886,4.81497421967523,-1.06889380952476,8.19032905139792,0.03756821,0.064751714,-0.004276057,310.8753,0.42088687,37.01425,LYI
3914375343000,3.799898,4.81020695819635,-1.07127742781944,8.19509613865025,0.03573562,0.057421334,0.00030543262,310.87103,0.41735893,36.99329,LYI
3914380310000,3.804865,4.81376907698027,-1.07363774255973,8.21017015396054,0.036651913,0.067500606,-0.0033597588,310.8692,0.41319585,36.96834,LYI
3914385340000,3.809895,4.82809587533459,-1.07602553397442,8.23882375066918,0.03756821,0.06169739,-0.006414085,310.8655,0.41049185,36.95042,LYI
3914390295000,3.81485,4.84220905343511,-1.0783777221374,8.26705010687023,0.04153884,0.058643065,-0.008857546,310.86322,0.40713733,36.926785,LYI
3914395332000,3.819887,4.85655578967979,-1.08076883652226,8.29574357935957,0.044898596,0.05589417,-0.010079277,310.86163,0.40353858,36.905174,LYI
3914400353000,3.824908,4.87017446252845,-1.08733568047627,8.32126231360532,0.056505036,0.0571159,-0.010079277,310.8592,0.39505184,36.885117,LYI
3914405530000,3.830085,4.88319641692348,-1.10035768019611,8.34296609971984,0.05375614,0.06047566,-0.015577064,310.8592,0.38818988,36.8656,LYI
3914410525000,3.83508,4.89299960069383,-1.1086635020815,8.36205035170527,0.04886922,0.055283304,-0.020463986,310.859,0.38179415,36.844933,LYI
3914415445000,3.84,4.88839509996091,-1.09484999988273,8.37125906469266,0.06658431,0.06841691,-0.028710667,310.86215,0.36952004,36.818577,LYI
3914420440000,3.844995,4.88628506117216,-1.08175648776557,8.38055144212454,0.0580322,0.065973446,-0.029626964,310.8614,0.36755294,36.798527,LYI
3914425434000,3.849989,4.90818365970696,-1.07737676805861,8.38931106446887,0.06383542,0.06505715,-0.04734206,310.86966,0.35413474,36.77491,LYI
3914431241000,3.855796,4.93334567737521,-1.06953823037577,8.39853744934125,0.06872234,0.07238753,-0.05681047,310.87375,0.34444425,36.742973,LYI
3914435437000,3.859992,4.94825913265448,-1.03411879306643,8.39480901252552,0.07727446,0.084910266,-0.0580322,310.88126,0.33117208,36.710526,LYI
3914440480000,3.865035,4.96618300180924,-0.991549626633884,8.39032795750603,0.07360926,0.08827003,-0.077579886,310.89856,0.3143448,36.681988,LYI
3914445514000,3.870069,4.98407488309519,-0.949056431349044,8.38585489961032,0.08155051,0.0983493,-0.08032878,310.91037,0.29589108,36.648636,LYI
3914450566000,3.875121,5.00203074011876,-0.906411293768788,8.38136584746706,0.09437868,0.112704635,-0.089186326,310.93118,0.27313003,36.613842,LYI
3914455525000,3.88008,5.00259591703088,-0.896717111256797,8.37666922807018,0.093767814,0.11942416,-0.08979719,310.94882,0.25146192,36.580112,LYI
3914460456000,3.885011,4.99290607454601,-0.906406903151739,8.37182473684211,0.10354166,0.12797627,-0.09132435,310.96982,0.22333153,36.542534,LYI
3914465480000,3.890035,4.97685085775707,-0.912963008988775,8.3447986526358,0.100792766,0.14172074,-0.09560041,311.0067,0.18332258,36.5046,LYI
3914470446000,3.895001,4.95778550880938,-0.917729328806374,8.30666725796753,0.10873401,0.15821409,-0.09560041,311.04224,0.1400156,36.464153,LYI
3914475430000,3.899985,4.93863098383859,-0.903650831293917,8.27150255380446,0.11728613,0.1704314,-0.09773844,311.07776,0.09880726,36.42102,LYI
3914480427000,3.904982,4.91941595884361,-0.87963189956836,8.23787638546477,0.10140363,0.18051068,-0.093767814,311.11075,0.0633116,36.37472,LYI
3914485430000,3.909985,4.90372366204866,-0.856192210546437,8.19588264664993,0.09987647,0.19028452,-0.093767814,311.14355,0.02366746,36.327305,LYI
3914490452000,3.915007,4.88979389076076,-0.832975986480015,8.1494502373045,0.10842858,0.19303341,-0.094989546,311.17505,-0.013362411,36.279957,LYI
3914495428000,3.919983,4.87595602007175,-0.812651427748473,8.12523191806458,0.105068825,0.20219639,-0.09987647,311.21628,-0.052262902,36.23112,LYI
3914501091000,3.925646,4.86017973562494,-0.79161646052555,8.11471421206245,0.10720685,0.20922135,-0.102319926,311.2566,-0.093264565,36.18299,LYI
3914505526000,3.930081,4.85047648833902,-0.776610220162116,8.12520750426621,0.10140363,0.20799962,-0.101098195,311.29456,-0.1357527,36.13648,LYI
3914510472000,3.935027,4.84149533447099,-0.760893102423208,8.14990585324232,0.09560041,0.20891592,-0.10445796,311.33466,-0.17895807,36.088352,LYI
3914515445000,3.94,4.83246515287258,-0.745090185618601,8.17473902943686,0.09132435,0.204029,-0.11209377,311.38046,-0.22457805,36.041607,LYI
3914520406000,3.944961,4.82345676137656,-0.729325401732082,8.19951228242321,0.0983493,0.2098322,-0.10781772,311.4228,-0.26910445,35.992527,LYI
3914525429000,3.949984,4.80517704795422,-0.716765882945108,8.22213111287219,0.11148291,0.20891592,-0.109650314,311.46747,-0.3192959,35.950512,LYI
3914530424000,3.954979,4.76641976341908,-0.711921228701641,8.23908725096212,0.096516706,0.19792034,-0.112704635,311.51062,-0.36303467,35.910583,LYI
3914535395000,3.95995,4.72784870007089,-0.70709985207616,8.25596191811829,0.0983493,0.19120082,-0.106595986,311.56302,-0.41890344,35.8609,LYI
3914540441000,3.964996,4.68869569551347,-0.70220573289447,8.27309118194247,0.09101892,0.18325958,-0.09865474,311.61517,-0.46816513,35.815544,LYI
3914545356000,3.969911,4.6490518409979,-0.697456554744014,8.28228679260595,0.09560041,0.17715092,-0.099265605,311.66385,-0.520296,35.77143,LYI
3914550489000,3.975044,4.60472552404569,-0.692531425558561,8.2773620748422,0.08979719,0.17715092,-0.093767814,311.70706,-0.56485474,35.728653,LYI
3914555427000,3.979982,4.56779039647934,-0.686222398826448,8.26939934462361,0.09010262,0.16829337,-0.09590584,311.76273,-0.61562616,35.674404,LYI
3914560459000,3.985014,4.54020307221639,-0.677026624072131,8.25560539442801,0.09010262,0.17073683,-0.1001819,311.8166,-0.6634226,35.618015,LYI
3914565460000,3.990015,4.51200246530225,-0.669197896801301,8.25388027161832,0.07788532,0.16065755,-0.098043874,311.87103,-0.7097431,35.562927,LYI
3914570656000,3.995211,4.48052800165356,-0.664701551558688,8.28535487611819,0.076358154,0.15027285,-0.09285152,311.92535,-0.75778455,35.50839,LYI
3914575470000,4.000025,4.45101985096289,-0.658878940366369,8.31184480084547,0.06963864,0.13958271,-0.09162979,311.9774,-0.80489933,35.45379,LYI
3914580440000,4.004995,4.41524971747299,-0.627580004697041,8.29843070314702,0.067500606,0.12889257,-0.08124508,312.02393,-0.8494051,35.403324,LYI
3914585420000,4.009975,4.37940761188351,-0.59621809330202,8.28498961531235,0.06688975,0.12614368,-0.08032878,312.0786,-0.8951386,35.345398,LYI
3914590463000,4.015018,4.33882130853116,-0.589039609902501,8.29810458615939,0.05955936,0.12156218,-0.06627888,312.1246,-0.93407995,35.292286,LYI
3914595604000,4.020159,4.29909857236081,-0.584777125092792,8.31355584618041,0.052534413,0.12156218,-0.064751714,312.1742,-0.97406685,35.239655,LYI
3914600480000,4.025035,4.28700626071644,-0.592838666189038,8.32564841035822,0.04795292,0.108123146,-0.062308256,312.23196,-1.0228904,35.194992,LYI
3914605505000,4.03006,4.27454443421666,-0.601146550522227,8.33811049710833,0.04428773,0.11362094,-0.046120327,312.28857,-1.0685809,35.137886,LYI
3914610442000,4.034997,4.27043346772429,-0.600871291269147,8.35373672647702,0.033292156,0.106901415,-0.032375857,312.3448,-1.1106164,35.089077,LYI
3914615421000,4.039976,4.26929932532585,-0.597468930391019,8.37074850718295,0.027183503,0.10598512,-0.03604105,312.40076,-1.1523612,35.038013,LYI
3914620422000,4.044977,4.26816017165351,-0.594051535984207,8.38783545542765,0.02107485,0.10598512,-0.022296581,312.44516,-1.1842846,34.986042,LYI
3914625433000,4.049988,4.26701874012939,-0.590627308155266,8.40495657073542,0.009773844,0.09712757,-0.013439035,312.49216,-1.2143892,34.93782,LYI
3914630439000,4.054994,4.26587844753116,-0.587206497037389,8.42206060251165,0.00580322,0.09407325,-0.019242255,312.5391,-1.2444422,34.888943,LYI
3914635425000,4.05998,4.26474271063648,-0.583799352763771,8.43909630016174,0.00580322,0.09437868,-0.0143553335,312.57886,-1.2691792,34.842724,LYI
3914640433000,4.064988,4.26360196246789,-0.580377174961469,8.45620716535058,-0.0018325958,0.0870483,-0.0106901415,312.6181,-1.2961584,34.80321,LYI
3914645429000,4.069984,4.26246394772144,-0.576963197265722,8.47327703006374,0.0027488936,0.0842994,-0.004276057,312.65427,-1.3242713,34.763176,LYI
3914650521000,4.075076,4.25306134594358,-0.572884869188716,8.49194508725126,-0.0021380284,0.08399397,-0.0009162979,312.6836,-1.3486497,34.723724,LYI
3914655476000,4.080031,4.22711938005686,-0.567696476011371,8.51269855160726,-0.0067195175,0.08277224,-0.0033597588,312.7125,-1.3735973,34.68612,LYI
3914660504000,4.085059,4.21069412365521,-0.565806823133598,8.52723411566799,-0.0015271631,0.07666359,0.006414085,312.74298,-1.3987285,34.640358,LYI
3914665464000,4.090019,4.20449986402165,-0.567355396127013,8.53497698063507,-0.008246681,0.07086037,0.007941248,312.77686,-1.4212245,34.595665,LYI
3914670427000,4.094982,4.19830185786008,-0.568904905757319,8.54272452878659,-0.0033597588,0.05955936,0.015882496,312.80908,-1.4461522,34.54917,LYI
3914675436000,4.099991,4.19204640493578,-0.570468777153289,8.55054388576645,-0.013439035,0.055588737,0.011301007,312.8448,-1.4673104,34.503067,LYI
3914680397000,4.104952,4.18585089645954,-0.572017662359001,8.55828831179501,-0.020158553,0.05681047,0.02076942,312.87265,-1.4863842,34.459732,LYI
3914685406000,4.109961,4.17959544353524,-0.573581533754972,8.56610766877486,-0.015882496,0.05497787,0.021685716,312.90485,-1.5074061,34.419064,LYI
3914690406000,4.114961,4.17064763558488,-0.579448670070894,8.57285545480504,-0.01985312,0.048563786,0.021380283,312.92902,-1.5206001,34.3761,LYI
3914695428000,4.119983,4.15644055779835,-0.593655470945254,8.57759114740055,-0.028710667,0.04795292,0.027183503,312.95056,-1.5322282,34.33294,LYI
3914700487000,4.125042,4.15164103117207,-0.604966816392353,8.59384282813799,-0.02565634,0.03481932,0.02076942,312.9783,-1.5471797,34.2903,LYI
3914705467000,4.130022,4.16650806982544,-0.609922392452203,8.63348748836243,-0.023518313,0.030543262,0.018936822,313.0022,-1.5579851,34.246326,LYI
3914710387000,4.134942,4.18239250452489,-0.614641773340875,8.66088575226244,-0.03023783,0.022602014,0.020463986,313.0207,-1.5689939,34.2071,LYI
3914715446000,4.140001,4.20066127460407,-0.61920898493684,8.67002013730204,-0.022296581,0.025350908,0.02565634,313.03836,-1.5834012,34.16684,LYI
3914720432000,4.144987,4.22001687593913,-0.618759305735889,8.67534259882489,-0.033292156,0.013744468,0.015882496,313.06052,-1.5929121,34.132053,LYI
3914725437000,4.149992,4.2431010042381,-0.604908833577345,8.67072567674822,-0.01863139,0.0106901415,0.009162978,313.0796,-1.6088047,34.094875,LYI
