timestamp,rel_time,acc_x,acc_y,acc_z,gyro_x,gyro_y,gyro_z,azimuth,pitch,roll,label
9060869631000,0,1.05471780480717,9.83284297524187,-0.726024434664681,-0.058948494,-0.040011674,0.011911872,21.085945,-43.46723,34.01851,STD
9060874624000,0.004993,1.05555436950246,9.83116983586805,-0.724829341369295,-0.053450707,-0.04153884,0.015271631,21.411093,-44.09047,33.66614,STD
9060879642000,0.010011,1.0563951228854,9.82948831906896,-0.723628264230051,-0.053450707,-0.042455133,0.016798794,21.730942,-44.706676,33.31487,STD
9060884620000,0.014989,1.05722917436811,9.82782020615029,-0.722436761240981,-0.051923547,-0.03573562,0.016187929,22.039066,-45.316853,32.96447,STD
9060889692000,0.020061,1.05807897531635,9.82612059411263,-0.721222758999003,-0.059864793,-0.042455133,0.015271631,22.34163,-45.917984,32.618187,STD
9060894648000,0.025017,1.05890934075394,9.8244598533282,-0.720036521792528,-0.055588737,-0.03634648,0.013133603,22.629576,-46.514885,32.270344,STD
9060899647000,0.030016,1.05974691073427,9.82278470337232,-0.718839992374616,-0.06383542,-0.039095376,0.010079277,22.913311,-47.101357,31.926311,STD
9060904695000,0.035064,1.06059269054237,9.82109313366291,-0.717631734622742,-0.056505036,-0.027794369,0.011911872,23.181871,-47.683617,31.58216,STD
9060909650000,0.040019,1.06142288843246,9.81943272797549,-0.716445736770021,-0.054061573,-0.026572637,0.0125227375,23.446287,-48.25727,31.24106,STD
9060914642000,0.045011,1.06225928558025,9.81775992369867,-0.71525088282839,-0.05589417,-0.029626964,0.012217305,23.70008,-48.824036,30.901577,STD
9060919839000,0.050208,1.06313002996668,9.81601842453469,-0.714006961367121,-0.06078109,-0.027183503,0.013744468,23.943329,-49.382904,30.5643,STD
9060924627000,0.054996,1.06393224742334,9.81441398004804,-0.712860935591373,-0.065973446,-0.026267206,0.013133603,24.180334,-49.93469,30.229652,STD
9060929643000,0.060012,1.06477266571127,9.81273313344297,-0.711660337159638,-0.06841691,-0.025961773,0.01863139,24.407885,-50.477158,29.899414,STD
9060934625000,0.064994,1.065607387384,9.81106368013626,-0.71046787675555,-0.06536258,-0.017104227,0.014049901,24.626736,-51.01486,29.568058,STD
9060939650000,0.070019,1.06644931359948,9.8093798176581,-0.709265124140026,-0.06078109,-0.028405234,0.013133603,24.842762,-51.54316,29.244476,STD
9060944652000,0.075021,1.06728738622232,9.80770366241118,-0.708067876660852,-0.065973446,-0.014966198,0.007941248,25.043049,-52.065075,28.91737,STD
9060949637000,0.080006,1.06812261053758,9.80603320381344,-0.706874698195501,-0.062308256,-0.015271631,0.019242255,25.241573,-52.578655,28.600487,STD
9060954714000,0.085083,1.06897324922334,9.80433191629073,-0.705659499184751,-0.057726767,-0.02107485,0.014049901,25.434055,-53.089207,28.280172,STD
9060959653000,0.090022,1.06980076635334,9.80267687215548,-0.7044773309921,-0.06169739,-0.019547688,0.01160644,25.615965,-53.588596,27.96584,STD
9060964643000,0.095012,1.07063682840612,9.80100473807268,-0.703282955757977,-0.06566802,-0.02443461,0.01282817,25.795322,-54.08202,27.6558,STD
9060969637000,0.100006,1.07147356064892,9.79933126360185,-0.702087623108837,-0.05589417,-0.03145956,0.0125227375,25.969189,-54.570965,27.348064,STD
9060974652000,0.105021,1.07231381138934,9.79765075209379,-0.700887264030856,-0.050396383,-0.01740966,0.018936822,26.131252,-55.04962,27.043928,STD
9060979640000,0.110009,1.07314953834711,9.79597928820502,-0.699693367504243,-0.054061573,-0.027488936,0.021380283,26.29721,-55.522324,26.745504,STD
9060984623000,0.114992,1.07398442756735,9.79430949980131,-0.6985006677464,-0.043066,-0.044593163,0.013439035,26.455883,-55.992443,26.448568,STD
9060989758000,0.120127,1.07484478400844,9.79258877665198,-0.6972715862179,-0.040011674,-0.03604105,0.02076942,26.602306,-56.44958,26.158024,STD
9060994761000,0.12513,1.07568302417879,9.79091228630805,-0.696074099384971,-0.03756821,-0.03573562,0.021685716,26.752546,-56.90484,25.869772,STD
9061000939000,0.131308,1.07671813266818,9.78884205697669,-0.6945953718907,-0.05100725,-0.043982297,0.022602014,26.896702,-57.349327,25.58683,STD
9061004657000,0.135026,1.07734107429388,9.78759616629135,-0.69370545463209,-0.045814894,-0.045814894,0.016798794,27.034424,-57.791935,25.305021,STD
9061009648000,0.140017,1.07817730389417,9.78592369711155,-0.692510840044213,-0.057421334,-0.035124753,0.020463986,27.164803,-58.220238,25.028988,STD
9061014651000,0.14502,1.07901554406452,9.78424720676762,-0.691313353211284,-0.053145275,-0.010995574,0.020463986,27.287994,-58.64761,24.752745,STD
9061019625000,0.149994,1.07984892535721,9.782580434237,-0.690122807637231,-0.046120327,-0.0290161,0.02076942,27.415478,-59.065937,24.484087,STD
9061024647000,0.155016,1.08069034893017,9.78089757704987,-0.68892077308297,-0.048563786,-0.021380283,0.023518313,27.52347,-59.476273,24.214813,STD
9061029642000,0.160011,1.08152724872048,9.77922376748202,-0.687725201080075,-0.053145275,-0.008246681,0.028099801,27.630613,-59.880424,23.950848,STD
9061034625000,0.164994,1.08236213794072,9.77755397907831,-0.686532501322233,-0.05100725,-0.01282817,0.03023783,27.73652,-60.278774,23.691402,STD
9061039726000,0.170095,1.08321679776662,9.77584464922734,-0.68531155782138,-0.04917465,-0.009162978,0.033292156,27.831482,-60.668686,23.435005,STD
9061044665000,0.175034,1.08404431489662,9.77418960509209,-0.684129389628728,-0.055283304,-0.010079277,0.0290161,27.925747,-61.052555,23.181522,STD
9061049636000,0.180005,1.08487719354679,9.7725238378525,-0.682939562115938,-0.058643065,-0.016798794,0.030543262,28.015974,-61.42892,22.934097,STD
9061054621000,0.18499,1.08571241786204,9.77085337925476,-0.681746383650587,-0.044898596,-0.007330383,0.029932396,28.098593,-61.802452,22.687105,STD
9061059656000,0.190025,1.08655601955257,9.76916616580649,-0.680541237497519,-0.05009095,-0.0030543262,0.028099801,28.181114,-62.166176,22.444666,STD
9061064640000,0.195009,1.08739107632032,9.76749604230576,-0.679348298385923,-0.0421497,-0.00061086525,0.029321533,28.257664,-62.52772,22.20572,STD
9061069626000,0.199995,1.08822646818308,9.76582524861101,-0.678154880566818,-0.049480084,-0.0018325958,0.02565634,28.33123,-62.881523,21.968338,STD
9061074654000,0.205023,1.08906889704107,9.76414038084182,-0.676951409890031,-0.05681047,-0.0021380284,0.024129177,28.387537,-63.243614,21.721882,STD
9061079631000,0.21,1.08990278097628,9.76247260302016,-0.675760146254714,-0.05681047,-0.0021380284,0.02565634,28.44078,-63.599926,21.47892,STD
9061084630000,0.214999,1.09074035095661,9.76079745306427,-0.674563616836803,-0.05131268,0.0021380284,0.021685716,28.490149,-63.951744,21.2373,STD
9061089758000,0.220127,1.09159953456516,9.75907907559402,-0.673336210784582,-0.049480084,0.0015271631,0.018936822,28.537533,-64.296555,21.00036,STD
9061094665000,0.225034,1.09242169017498,9.75743475456311,-0.672161701912069,-0.056505036,0.00030543262,0.021380283,28.580624,-64.6348,20.76703,STD
9061099637000,0.230006,1.09325473637266,9.75576865222651,-0.670971635045525,-0.05681047,0.0036651916,0.019547688,28.620068,-64.97041,20.535002,STD
9061105609000,0.235978,1.0942553300759,9.75376745287933,-0.669542214424647,-0.05681047,0.0076358155,0.020158553,28.65638,-65.298195,20.307878,STD
9061109659000,0.240028,1.09493389747345,9.75241030998648,-0.668572831719598,-0.05681047,0.0061086523,0.015577064,28.691011,-65.62207,20.082445,STD
9061114642000,0.245011,1.09576878669369,9.75074052158276,-0.667380131961756,-0.05100725,0.008552114,0.01740966,28.72003,-65.93974,19.861874,STD
9061119628000,0.249997,1.09660417855645,9.74906972788801,-0.66618671414265,-0.061086524,0.009468411,0.02687807,28.747051,-66.248764,19.64582,STD
9061124653000,0.255022,1.09744610477193,9.74738586540985,-0.664983961527126,-0.051618114,0.005192355,0.025350908,28.77295,-66.55863,19.430813,STD
9061129670000,0.260039,1.09828669060736,9.74570468370777,-0.663783123741637,-0.05131268,0.015271631,0.018020526,28.791569,-66.859375,19.219168,STD
9061134626000,0.264995,1.09911705604495,9.74404394292334,-0.662596886535161,-0.05375614,0.004886922,0.01863139,28.814613,-67.15446,19.014233,STD
9061139668000,0.270037,1.09996183056802,9.742354383796,-0.661390064905814,-0.05375614,-0.002443461,0.028099801,28.831322,-67.44444,18.812195,STD
9061144690000,0.275059,1.10080325414098,9.74067152660887,-0.660188030351552,-0.055588737,-0.00061086525,0.023518313,28.846867,-67.73216,18.60958,STD
9061149636000,0.280005,1.10163194410351,9.73901413679454,-0.659004186682621,-0.04886922,0.004276057,0.022907447,28.860662,-68.012764,18.414349,STD
9061154633000,0.285002,1.10246917898883,9.73733965703267,-0.657808135972218,-0.039095376,0.0015271631,0.022602014,28.874168,-68.28988,18.221272,STD
9061159656000,0.290025,1.10331077010929,9.73565646474853,-0.656605862064202,-0.050701816,0.00030543262,0.022907447,28.88367,-68.55988,18.030954,STD
9061164642000,0.295011,1.10414616197205,9.73398567105378,-0.655412444245097,-0.05100725,-0.01038471,0.0290161,28.894375,-68.826935,17.84599,STD
9061169619000,0.299988,1.10498004590726,9.73231789323213,-0.654221180609781,-0.046120327,-0.0009162979,0.030848695,28.897745,-69.089226,17.661894,STD
9061175421000,0.30579,1.10595215653456,9.73037366037675,-0.65283245012714,-0.047036625,0.008246681,0.030848695,28.90217,-69.34489,17.482634,STD
9061179644000,0.310013,1.10665970965057,9.72895854570107,-0.651821659222591,-0.05589417,0.016798794,0.029626964,28.90209,-69.595375,17.306019,STD
9061184627000,0.314996,1.10749459887081,9.72728875729735,-0.650628959464749,-0.055283304,0.019242255,0.03573562,28.898888,-69.84083,17.134233,STD
9061189669000,0.320038,1.10833937339388,9.72559919817001,-0.649422137835401,-0.06291912,0.0033597588,0.03023783,28.89756,-70.082466,16.962265,STD
9061194683000,0.325052,1.1091794565868,9.72391902175896,-0.648222018111174,-0.06383542,0.008246681,0.03359759,28.88691,-70.31719,16.796139,STD
9061200947000,0.331316,1.11022897416167,9.72181997408469,-0.646722706194031,-0.06261369,0.012217305,0.02687807,28.880417,-70.55067,16.629333,STD
9061204641000,0.33501,1.11084789464724,9.72058212572761,-0.645838533425524,-0.06047566,0.0070249503,0.03481932,28.872663,-70.77552,16.470598,STD
9061209646000,0.340015,1.1116864699126,9.71890496518966,-0.644640567885087,-0.062002823,-0.0067195175,0.034513887,28.86552,-70.99956,16.31063,STD
9061214641000,0.34501,1.11252336970291,9.71723115562181,-0.643444995882193,-0.052839845,0.008246681,0.03023783,28.849762,-71.22042,16.153316,STD
9061219627000,0.349996,1.11335876156567,9.71556036192707,-0.642251578063088,-0.051618114,-0.004276057,0.034208454,28.844273,-71.43393,16.002888,STD
9061224636000,0.355005,1.11419800702105,9.71388186100107,-0.641052655107633,-0.0421497,-0.0106901415,0.032070424,28.831697,-71.64853,15.851138,STD
9061229645000,0.360014,1.11503725247644,9.71220336007508,-0.639853732152178,-0.04062254,-0.009773844,0.035430185,28.818806,-71.85588,15.704877,STD
9061234625000,0.364994,1.11587163905416,9.71053457696239,-0.638661750455599,-0.044898596,-0.011301007,0.030543262,28.807646,-72.06244,15.558624,STD
9061239682000,0.370051,1.11671892678982,9.70883999137989,-0.637451338519936,-0.05131268,-0.015271631,0.038789943,28.794842,-72.260956,15.419578,STD
9061245093000,0.375462,1.11762552634244,9.70702678145565,-0.636156195355239,-0.053145275,-0.013744468,0.035430185,28.780342,-72.45986,15.278147,STD
9061249649000,0.380018,1.1183888727778,9.70550007947545,-0.635065699650497,-0.053450707,-0.017104227,0.03604105,28.766657,-72.65135,15.142946,STD
9061254623000,0.384992,1.1192222540705,9.70383330694482,-0.633875154076444,-0.055283304,-0.016493361,0.03145956,28.750526,-72.84093,15.007448,STD
9061259659000,0.390028,1.12006602330853,9.70214575839954,-0.632669768569622,-0.056505036,-0.011301007,0.03756821,28.73239,-73.02415,14.877434,STD
9061264644000,0.395013,1.12403846499091,9.70012097874848,-0.633016447866659,-0.05222898,-0.020463986,0.03359759,28.717772,-73.20806,14.746133,STD
9061269630000,0.399999,1.13119137130945,9.69773667747219,-0.634923890630455,-0.043982297,-0.010079277,0.03145956,28.694471,-73.38692,14.618335,STD
9061274656000,0.405025,1.13840166155352,9.69533324822737,-0.636846635783051,-0.039095376,-0.01985312,0.042760566,28.650274,-73.56003,14.49236,STD
9061279645000,0.410014,1.14555887166647,9.69294751235345,-0.638755226226007,-0.04734206,-0.02443461,0.03268129,28.601576,-73.735245,14.361358,STD
9061284680000,0.415049,1.15278207329379,9.69053977931572,-0.640681414416083,-0.058337633,-0.01985312,0.029321533,28.551453,-73.90305,14.237671,STD
9061289764000,0.420133,1.16007557022989,9.68810861451655,-0.642626348032437,-0.058337633,-0.019547688,0.021380283,28.50365,-74.07186,14.112338,STD
9061294774000,0.425143,1.16726290690375,9.68571283645914,-0.644542972229513,-0.05222898,-0.027794369,0.016798794,28.456194,-74.23699,13.989319,STD
9061299685000,0.430054,1.1743082183619,9.68336440012383,-0.646421723014311,-0.048563786,-0.036957346,0.017104227,28.408144,-74.399574,13.86761,STD
9061304652000,0.435021,1.1814338673158,9.68098918463259,-0.648321897143428,-0.056199603,-0.038789943,0.016493361,28.35968,-74.55988,13.746524,STD
9061309655000,0.440024,1.18861116180268,9.67859675396968,-0.650235843422464,-0.05131268,-0.036651913,0.016493361,28.311808,-74.719086,13.62799,STD
9061314671000,0.44504,1.19580710606537,9.676198106717,-0.65215476297786,-0.05497787,-0.047036625,0.0076358155,28.267624,-74.87573,13.509336,STD
9061319625000,0.449994,1.20291410524347,9.67382910781553,-0.654049963830617,-0.060170226,-0.047036625,0.010995574,28.218504,-75.02682,13.395766,STD
9061324621000,0.45499,1.21008135754339,9.67144002454711,-0.655961232191613,-0.057726767,-0.046120327,0.0106901415,28.171766,-75.17876,13.28101,STD
9061329644000,0.460013,1.21728734399305,9.66903802989993,-0.657882829665049,-0.0571159,-0.04153884,0.015577064,28.122875,-75.324844,13.170567,STD
9061334612000,0.464981,1.22441442754509,9.66666233620948,-0.659783386353886,-0.052534413,-0.03604105,0.0106901415,28.073011,-75.47159,13.059176,STD
9061339677000,0.470046,1.23168066711656,9.66424025719536,-0.66172105133556,-0.046120327,-0.04642576,0.0143553335,28.025257,-75.61247,12.953892,STD
9061344657000,0.475026,1.23882496584627,9.66185882511435,-0.663626198741037,-0.04520403,-0.061391957,0.018325957,27.976671,-75.75175,12.849187,STD
9061349648000,0.480017,1.24598504515549,9.65947213284199,-0.665535554303433,-0.03481932,-0.05497787,0.017715093,27.924175,-75.89056,12.7457485,STD
9061354627000,0.484996,1.25312790928706,9.65709117896019,-0.66744031914919,-0.03390302,-0.06963864,0.024129177,27.881136,-76.02287,12.648348,STD
9061359652000,0.490021,1.26033676493299,9.65468822791459,-0.669362681742066,-0.02687807,-0.06719518,0.015882496,27.830984,-76.15854,12.547671,STD
9061364654000,0.495023,1.26751262482174,9.6522962754509,-0.671276245461382,-0.019242255,-0.07452556,0.008552114,27.78703,-76.28994,12.451518,STD
9061369629000,0.499998,1.27464975056075,9.64991723436595,-0.673179480068259,-0.010995574,-0.06566802,0.019242255,27.736658,-76.41713,12.359344,STD
9061374654000,0.505023,1.28185860620668,9.64751428332035,-0.675101842661134,-0.006414085,-0.07513642,0.01863139,27.69362,-76.54705,12.264329,STD
9061379642000,0.510011,1.28901438172149,9.64512902564563,-0.677010050544371,-0.010079277,-0.08002335,0.017104227,27.645704,-76.6719,12.173375,STD
9061384623000,0.514992,1.29616011504933,9.64274711536541,-0.678915580509567,0.0070249503,-0.07513642,0.02321288,27.596834,-76.79532,12.086055,STD
9061389739000,0.520108,1.30349951912587,9.64030064819142,-0.680872756036961,0.008552114,-0.073303826,0.022602014,27.549847,-76.9162,11.998214,STD
9061394677000,0.525046,1.31058356473376,9.63793930047736,-0.682761835934198,0.014660766,-0.076358154,0.021380283,27.502058,-77.03564,11.913495,STD
9061400930000,0.531299,1.31955410689376,9.63494912079813,-0.685153981863203,0.008552114,-0.08674286,0.026267206,27.4551,-77.149994,11.832021,STD
9061404880000,0.535249,1.32522076954082,9.63306023390657,-0.686665092757105,0.016798794,-0.087659165,0.019242255,27.405993,-77.26764,11.748159,STD
9061409610000,0.539979,1.33200641873589,9.63079835162882,-0.688474600232588,0.02076942,-0.0842994,0.027488936,27.357538,-77.37646,11.671665,STD
9061414646000,0.545015,1.33923105496135,9.62839014039188,-0.690401170982384,0.020158553,-0.07941248,0.024129177,27.308767,-77.48824,11.591321,STD
9061419622000,0.549991,1.3463696152985,9.62601062110772,-0.69230478814898,0.0076358155,-0.0720821,0.014049901,27.257664,-77.59649,11.512687,STD
9061424654000,0.555023,1.3535885131314,9.62360432266763,-0.694229828659896,-0.0021380284,-0.06688975,-0.00030543262,27.205376,-77.70476,11.433222,STD
9061429644000,0.560013,1.36074715784249,9.62121810859448,-0.696138801662572,-0.008857546,-0.06627888,0.002443461,27.151604,-77.807945,11.357142,STD
9061434652000,0.565021,1.36793162532007,9.61882328693551,-0.698054660740208,-0.013439035,-0.063224554,0.012217305,27.09529,-77.91011,11.280292,STD
9061439752000,0.570121,1.37524807582639,9.61638447094893,-0.700005715312082,-0.016187929,-0.064446285,0.002443461,27.039953,-78.01417,11.2001705,STD
9061444655000,0.575024,1.38228191049943,9.61403986020732,-0.70188140561912,-0.01282817,-0.06688975,0.0070249503,26.983109,-78.10991,11.128278,STD
9061449634000,0.580003,1.38942477463099,9.61165890632552,-0.703786170464877,-0.01282817,-0.06872234,0.008857546,26.9542627683768,-78.1591622142214,11.0910562528253,SDL
9061454654000,0.585023,1.39662645728624,9.60925834627599,-0.705706620259153,0.00580322,-0.064751714,0.0067195175,26.925179,-78.20882,11.053528,SDL
9061459651000,0.59002,1.40379514418429,9.60686878480836,-0.707618271179869,-0.002443461,-0.0693332,0.0012217305,26.869509,-78.30358,10.98015,SDL
9061464610000,0.594979,1.41781843886909,9.59550908207302,-0.702666949243811,0.004276057,-0.070554934,0.009773844,26.811525,-78.395966,10.91192,SDL
9061469629000,0.599998,1.4409694164146,9.57235815287545,-0.688776391725267,0.0125227375,-0.06963864,0.0027488936,26.754278,-78.491394,10.839054,SDL
9061474575000,0.604944,1.45050066931469,9.52272882267978,-0.691594674431469,0.018325957,-0.0729984,0.005497787,26.654978,-78.56944,10.787364,SDL
9061479645000,0.610014,1.43557926511985,9.42200892562999,-0.725167921511985,0.02076942,-0.08002335,0.0125227375,26.556145,-78.64679,10.736009,SDL
9061484658000,0.615027,1.42082561635679,9.32242138245237,-0.758363717885679,0.03848451,-0.080634214,0.008857546,26.364218,-78.74617,10.660738,SDL
9061490256000,0.620625,1.45023723920504,9.31368809501638,-0.744231315106053,0.04184427,-0.081855945,-0.005192355,26.175014,-78.843124,10.586313,SDL
9061494665000,0.625034,1.48300293673047,9.32825094826694,-0.722387491412313,0.04795292,-0.08124508,-0.0061086523,25.98572,-78.93706,10.516229,SDL
9061500859000,0.631228,1.52382916643798,9.35540516630077,-0.69742228726674,0.050701816,-0.08460484,-0.011301007,25.6328,-79.08417,10.391868,SDL
9061504642000,0.635011,1.54619893097558,9.37528927456092,-0.684994654720088,0.050396383,-0.090713486,-0.003970624,25.28354,-79.2247,10.274235,SDL
9061509644000,0.640013,1.57577692786087,9.40158065957739,-0.668562453293085,0.05467244,-0.09682214,-0.0070249503,24.589046,-79.46407,10.053763,SDL
9061514673000,0.645042,1.59467880903475,9.41153675135135,-0.648477411972973,0.052839845,-0.099265605,-0.00030543262,23.909004,-79.6903,9.8469925,SDL
9061519644000,0.650013,1.60386920918919,9.40694193513514,-0.625501382797297,0.062002823,-0.11301007,-0.0012217305,23.24782,-79.91291,9.645929,SDL
9061524620000,0.654989,1.61300842849465,9.43213320304399,-0.602653308047562,0.065973446,-0.12064589,0.0067195175,21.821556,-80.3702,9.215026,SDL
9061530625000,0.660994,1.62394943853032,9.50598484941736,-0.575300754397146,0.06688975,-0.12583824,0.01038471,20.458998,-80.802574,8.81352,SDL
9061534687000,0.665056,1.63135033491082,9.55594078406659,-0.55679849412604,0.07391469,-0.13255776,0.01282817,18.656551,-81.419174,8.258901,SDL
9061539665000,0.670034,1.64042016804281,9.61716201564804,-0.534123887619501,0.0852157,-0.14660765,0.004581489,16.95155,-81.986855,7.7553606,SDL
9061544663000,0.675032,1.62410174170694,9.61678001760442,-0.513996321007076,0.10354166,-0.16340645,0.015271631,15.131685,-82.61696,7.214556,SDL
9061549717000,0.680086,1.53221135994995,9.43299899240594,-0.501465824712634,0.116675265,-0.19394971,0.047036625,13.414957,-83.16964,6.7382407,SDL
9061554550000,0.684919,1.44433913695202,9.25725429616845,-0.489483258707283,0.14110987,-0.20433442,0.023823744,11.342502,-83.82257,6.158171,SDL
9061559573000,0.689942,1.41266470191995,9.18436318353401,-0.431161989768955,0.15057829,-0.21777347,0.004276057,9.404524,-95.67206,5.6705604,SDL
9061564564000,0.694933,1.3872203710233,9.13165519402229,-0.377037034660588,0.1441642,-0.2501493,-0.013744468,7.5904217,-95.300644,5.2494617,SDL
9061569939000,0.700308,1.36635905390071,9.20466969503546,-0.429190360141844,0.14966199,-0.2779437,-0.03359759,6.4853125,-95.14531,5.0026994,SDL
9061574561000,0.70493,1.34898485644148,9.26391022036156,-0.474194983459562,0.15454891,-0.29046643,-0.03023783,5.7083254,-95.09516,4.843206,SDL
9061579561000,0.70993,1.33531673084681,9.29580270371075,-0.52431148203235,0.1685988,-0.2919936,-0.040317107,4.952482,-95.08124,4.689078,SDL
9061584544000,0.714913,1.32169507687916,9.32758675261656,-0.574257584509991,0.18295415,-0.29932398,-0.05681047,4.372251,-95.11822,4.57385,SDL
9061589607000,0.719976,1.31915127602827,9.31312120504347,-0.640707798362906,0.21074851,-0.31490102,-0.059253927,3.8031912,-95.18879,4.468837,SDL
9061594562000,0.724931,1.31673869562255,9.29864567222533,-0.705847519701052,0.22021692,-0.33108896,-0.073303826,3.2441156,-95.27812,4.3644967,SDL
9061600499000,0.730868,1.31384798121918,9.28130132543597,-0.78389686896131,0.24251351,-0.3463606,-0.07971791,2.7965548,-95.39852,4.284545,SDL
9061604617000,0.734986,1.3088891428867,9.26617104748768,-0.836663816793103,0.25778514,-0.35338554,-0.08552113,2.3545785,-95.533554,4.2063046,SDL
9061609567000,0.739936,1.26685496209852,9.21012534305419,-0.883368432310345,0.26389378,-0.35796702,-0.09560041,1.9202238,-95.68337,4.1304812,SDL
9061614757000,0.745126,1.21909777928425,9.14685708546248,-0.930786664595389,0.25473082,-0.35430184,-0.11636983,1.4808875,-95.86082,4.0518966,SDL
9061619578000,0.749947,1.12867353591204,9.03177196572599,-0.955447819927891,0.2574797,-0.36651915,-0.1160644,1.0519578,-96.05625,3.9814422,SDL
9061624590000,0.754959,1.03466683444316,8.91212736499599,-0.981086009209472,0.25595254,-0.3631594,-0.13836098,0.62632096,-96.25245,3.8971405,SDL
9061629583000,0.759952,0.927586731074658,8.81166144332282,-0.98243134042061,0.26175576,-0.31978795,-0.18203785,0.19640258,-96.456375,3.812659,SDL
9061634577000,0.764946,0.816946924391167,8.71610878895899,-0.977402261640379,0.25045475,-0.29138273,-0.20891592,359.77377,-96.662575,3.7314143,SDL
9061639669000,0.770038,0.73282481856199,8.65897083307423,-1.01475445219588,0.22876903,-0.27214047,-0.2275473,359.35837,-96.86224,3.6290126,SDL
9061644573000,0.774942,0.655250056898562,8.60877559133307,-1.0558234509522,0.21746802,-0.21930063,-0.23945917,358.92886,-97.06501,3.5278666,SDL
9061649598000,0.779967,0.558406883583424,8.53258882132565,-0.900511091255093,0.2171626,-0.21899518,-0.28008172,358.52795,-97.252815,3.4000776,SDL
9061654659000,0.785028,0.457260864811686,8.45070855043228,-0.70303547810792,0.20341812,-0.23640485,-0.31642818,358.12076,-97.439026,3.2762146,SDL
9061659647000,0.790016,0.386486541698389,8.38727772767204,-0.624644782796486,0.19028452,-0.26450464,-0.33200526,357.73492,-97.629196,3.137253,SDL
9061664543000,0.794912,0.322739986785191,8.32843458690651,-0.570705373635223,0.16737708,-0.26083946,-0.36041048,357.34702,-97.81263,2.9899142,SDL
9061669582000,0.799951,0.221390554489127,8.23620499761692,-0.504803553410783,0.17287487,-0.21502456,-0.398895,356.9835,-97.955055,2.8270733,SDL
9061674549000,0.804918,0.117478734552676,8.14173976953629,-0.438677844434515,0.17531833,-0.21655174,-0.43004912,356.63467,-98.09347,2.6615212,SDL
9061679595000,0.809964,0.0610819922325713,8.16692397845517,-0.434980195832157,0.17012598,-0.24648413,-0.46883908,356.29404,-98.21699,2.4783845,SDL
9061684578000,0.814947,0.0116950755856619,8.20733133126353,-0.439469912117791,0.183565,-0.2434298,-0.4859433,355.94696,-98.35051,2.2987478,SDL
9061689633000,0.820002,-0.0389158187919463,8.26749077443372,-0.498906846067534,0.20219639,-0.23854288,-0.50946164,355.62155,-98.46731,2.0917032,SDL
9061694539000,0.824908,-0.0881857560805369,8.33154195878775,-0.572811774637164,0.21655174,-0.21899518,-0.52320606,355.29355,-98.59182,1.8883331,SDL
9061699593000,0.829962,-0.0802903613706767,8.48843712326128,-0.831828512776316,0.21471913,-0.18753563,-0.5332854,354.97278,-98.71637,1.6751028,SDL
9061704661000,0.83503,-0.0620440257285714,8.66177725089286,-1.12376991925,0.22999077,-0.1441642,-0.52290064,354.646,-98.85511,1.4703157,SDL
9061709620000,0.839989,-0.137267895324222,8.80689007661083,-1.09552826657075,0.25686884,-0.1572978,-0.5222898,354.3326,-99.010155,1.2535763,SDL
9061714615000,0.844984,-0.245416631445895,8.9445338693865,-0.95788439679889,0.2666427,-0.17654006,-0.5357288,354.0111,-99.16856,1.042634,SDL
9061719631000,0.85,-0.226516539802691,9.15135900747384,-0.978154161240658,0.2864958,-0.18906279,-0.53786683,353.67834,-99.40304,0.8393074,SDL
9061724633000,0.855002,-0.174006814863976,9.37571877030394,-1.04021113653712,0.30573806,-0.21777347,-0.50610185,353.35925,-99.641655,0.6455938,SDL
9061729640000,0.860009,-0.14479320161161,9.5892931059767,-1.08226880534657,0.32986724,-0.24404067,-0.45845437,353.06787,-99.849655,0.44148603,SDL
9061734656000,0.865025,-0.121861528455222,9.80026441856024,-1.11895945174718,0.37201694,-0.2593123,-0.42577308,352.78467,-100.06906,0.24655198,SDL
9061739672000,0.870041,-0.119740851821233,9.92836657955308,-1.10114817242735,0.3912592,-0.2883284,-0.3924809,352.50806,-100.29562,0.07816427,SDL
9061744738000,0.875107,-0.126720247031745,10.0214251175794,-1.05927180602283,0.40561453,-0.301462,-0.3463606,352.23578,-100.5305,-0.07263779,SDL
9061749634000,0.880003,-0.133465434349286,10.1113608858732,-1.01880068681308,0.41263947,-0.32834008,-0.3109304,351.9736,-100.76632,-0.2100881,SDL
9061754673000,0.885042,-0.140407631835619,10.203923454589,-0.977147506727726,0.42180246,-0.34238997,-0.26297748,351.7166,-101.00242,-0.326945,SDL
9061759643000,0.890012,-0.174301503098576,10.1691663603138,-0.860159858205385,0.4156938,-0.3463606,-0.22449298,351.4677,-101.231445,-0.4336259,SDL
9061764641000,0.89501,-0.232881127070539,10.0200546336782,-0.673770119280151,0.41172317,-0.35155296,-0.20005837,351.2268,-101.458664,-0.528262,SDL
9061769629000,0.899998,-0.286028599458066,9.86120486451644,-0.538329647920802,0.3921755,-0.38331795,-0.19211712,351.00247,-101.64897,-0.61677504,SDL
9061774667000,0.905036,-0.337665839759681,9.69690493992022,-0.420972300532205,0.35033122,-0.42546764,-0.18845193,350.78522,-101.82721,-0.69762486,SDL
9061779628000,0.909997,-0.332195252940943,9.5710774437178,-0.389399862960761,0.3115413,-0.46853364,-0.21655174,350.5915,-101.96681,-0.7939013,SDL
9061784629000,0.914998,-0.298975342352358,9.46192610929449,-0.398891267401902,0.25289822,-0.5140431,-0.23487769,350.4122,-102.08593,-0.88632244,SDL
9061789656000,0.920025,-0.30219396899962,9.42059998649677,-0.446895186998859,0.22296582,-0.539394,-0.27397305,350.24298,-102.18493,-1.0015104,SDL
9061794653000,0.925022,-0.324947539547356,9.41604918115253,-0.515155898642069,0.1872302,-0.5555819,-0.31398472,350.0837,-102.264915,-1.1213756,SDL
9061800981000,0.93135,-0.342992417003296,9.5310635328139,-0.740982343592049,0.1469131,-0.602924,-0.36346483,349.93396,-102.34169,-1.2492385,SDL
9061804632000,0.935001,-0.349977719832185,9.63584296583758,-0.915614841374488,0.09010262,-0.6068946,-0.39095375,349.77634,-102.40356,-1.377495,SDL
9061809651000,0.94002,-0.346523553588431,9.82509490140635,-1.16023561204095,0.05467244,-0.6001751,-0.43371433,349.62747,-102.47675,-1.5284028,SDL
9061814642000,0.945011,-0.332271848949958,10.0507469824579,-1.40726516076132,-0.014660766,-0.59315014,-0.473726,349.47882,-102.525276,-1.6831344,SDL
9061819627000,0.949996,-0.318037277196243,10.2761277927247,-1.65399773947722,-0.048563786,-0.5555819,-0.5030475,349.3128,-102.618034,-1.843664,SDL
9061825294000,0.955663,-0.301855267541619,10.5323430488496,-1.93448590870149,-0.09010262,-0.5002986,-0.5235115,349.1386,-102.6903,-2.0076954,SDL
9061829641000,0.96001,-0.307343169023811,10.5622786119939,-1.96490806135315,-0.10048734,-0.41630468,-0.52595496,348.94592,-102.762505,-2.1670277,SDL
9061834623000,0.964992,-0.327351778020596,10.4689050538186,-1.85819545991799,-0.12186762,-0.32589662,-0.5137377,348.73648,-102.820496,-2.320357,SDL
9061839661000,0.97003,-0.347585293100042,10.3744819333675,-1.75028335914915,-0.14263703,-0.24648413,-0.49602258,348.48566,-102.95567,-2.4568918,SDL
9061844732000,0.975101,-0.367951342121057,10.2794403208611,-1.64166441055869,-0.1957823,-0.21868975,-0.47250426,348.22668,-103.071945,-2.5824142,SDL
9061849590000,0.979959,-0.403634869452026,10.1352834918321,-1.52963445476634,-0.22907446,-0.22999077,-0.44929138,347.9571,-103.184616,-2.6972644,SDL
9061854646000,0.985015,-0.498753399543011,9.79485922715054,-1.3844534952957,-0.25320363,-0.28008172,-0.4251622,347.69394,-103.28108,-2.803001,SDL
9061859572000,0.989941,-0.554666115588235,9.49027734117647,-1.28070064411765,-0.25411993,-0.36163223,-0.4034765,347.46033,-103.3362,-2.9128866,SDL
9061864645000,0.995014,-0.517186356200579,9.24665886846673,-1.27133075930569,-0.24404067,-0.44165558,-0.4016439,347.2419,-103.38674,-3.0219793,SDL
9061869587000,0.999956,-0.483026400789559,8.9874231035557,-1.27923258202814,-0.21899518,-0.52626044,-0.37873647,347.0696,-103.427704,-3.143659,SDL
9061874621000,1.00499,-0.45713228673864,8.64044266204748,-1.35173602566334,-0.21655174,-0.59528816,-0.3717115,346.91528,-103.46625,-3.2706375,SDL
9061879575000,1.009944,-0.466550834675057,8.30093406321896,-1.40634426861666,-0.19028452,-0.6404922,-0.35705075,346.7768,-103.52432,-3.385948,SDL
9061884653000,1.015022,-0.543052315091928,7.95667701691082,-1.43025105925671,-0.1853976,-0.6750061,-0.36468655,346.65433,-103.57811,-3.5068965,SDL
9061889622000,1.019991,-0.59224837303096,7.66188162175113,-1.45063888510156,-0.17959438,-0.6936375,-0.38331795,346.53564,-103.66619,-3.6261656,SDL
9061894936000,1.025305,-0.58723051509367,7.4410957677184,-1.46569240651745,-0.18875736,-0.72387534,-0.36682457,346.4324,-103.748726,-3.7386513,SDL
9061899614000,1.029983,-0.580083714226764,7.31257232196895,-1.52404648358224,-0.18692477,-0.72418076,-0.3726278,346.33078,-103.86153,-3.8804977,SDL
9061904629000,1.034998,-0.565927381292985,7.3314475048143,-1.69392239009629,-0.18448131,-0.7281514,-0.39706242,346.23917,-103.971756,-4.023057,SDL
9061909631000,1.04,-0.531532103671822,7.38077498190989,-1.87055902905178,-0.20341812,-0.689056,-0.41355577,346.13516,-104.08925,-4.1622963,SDL
9061914644000,1.045013,-0.438711301277741,7.51798832658036,-2.06830763565905,-0.20922135,-0.61666846,-0.4251622,346.0224,-104.21213,-4.3028493,SDL
9061920467000,1.050836,-0.33258325042848,7.67836372372628,-2.29264577780857,-0.19639318,-0.45845437,-0.4166101,345.85803,-104.36887,-4.4285665,SDL
9061924702000,1.055071,-0.285030962344916,7.81237452536772,-2.3618127800469,-0.18234327,-0.408058,-0.42241332,345.70328,-104.52523,-4.5616155,SDL
9061929815000,1.060184,-0.227362340503925,7.9709156717757,-2.43499707239252,-0.17562376,-0.30879238,-0.4364632,345.45935,-104.71911,-4.6517806,SDL
9061934623000,1.064992,-0.167116170114393,8.04407186317757,-2.26286514543925,-0.16310102,-0.23915374,-0.40439278,345.21533,-104.91135,-4.727182,SDL
9061939720000,1.070089,-0.10324871369271,8.12162533813084,-2.08038668627103,-0.15332718,-0.19211712,-0.39553526,344.9277,-105.111664,-4.791678,SDL
9061944737000,1.075106,-0.0382774949060924,8.22926453744664,-1.80851877601863,-0.14202617,-0.14721853,-0.3839288,344.62762,-105.308426,-4.839846,SDL
9061949574000,1.079943,0.0246369581950912,8.33711818781529,-1.53439151443539,-0.13805555,-0.16890424,-0.38148534,344.33694,-105.50169,-4.887729,SDL
9061954638000,1.085007,0.0163733969863978,8.40076506934272,-1.38709290437553,-0.14752395,-0.21471913,-0.37598756,344.05212,-105.638466,-4.9133754,SDL
9061959605000,1.089974,-0.010774705101208,8.45053664881575,-1.27850052626272,-0.14477506,-0.29168814,-0.38728857,343.78412,-105.77773,-4.945432,SDL
9061964643000,1.095012,-0.0858336057242749,8.53924572993643,-1.30833091678586,-0.13469578,-0.37293324,-0.4120286,343.53952,-105.84354,-4.9657726,SDL
9061969652000,1.100021,-0.181126067506555,8.64406706495828,-1.39885879070322,-0.10170906,-0.44440445,-0.4297437,343.31528,-105.91503,-4.9910116,SDL
9061974681000,1.10505,-0.270419456077376,8.57703755339515,-1.5430853556885,-0.07666359,-0.48563787,-0.44012842,343.10794,-105.960976,-5.0292435,SDL
9061979641000,1.11001,-0.355673943025227,8.43494683248579,-1.70885791287267,-0.0720821,-0.54244834,-0.4615087,342.92413,-106.01175,-5.080318,SDL
9061984655000,1.115024,-0.435699446275992,8.19734859168242,-1.84262103327032,-0.055588737,-0.5723807,-0.48075095,342.7552,-106.08841,-5.151745,SDL
9061989719000,1.120088,-0.513624613323251,7.91315097655955,-1.96180069376181,-0.06658431,-0.559858,-0.47739118,342.59164,-106.15727,-5.2219715,SDL
9061994679000,1.125048,-0.634485993797305,7.55754517574303,-2.17821879220971,-0.06994407,-0.54702985,-0.48472157,342.43524,-106.27989,-5.32259,SDL
9062000993000,1.131362,-0.829831968949603,7.03290154642791,-2.5465855598117,-0.084910266,-0.4437936,-0.49235737,342.2521,-106.3939,-5.412315,SDL
9062004675000,1.135044,-0.888900104158676,6.8992179265166,-2.73524703552034,-0.092240654,-0.40439278,-0.49235737,342.08813,-106.554695,-5.5273337,SDL
9062009683000,1.140052,-0.908264463500555,6.9089000429999,-2.96277816300596,-0.09437868,-0.3390302,-0.5036584,341.88907,-106.71194,-5.635234,SDL
9062014675000,1.145044,-0.926631409347537,6.97873926732577,-3.12026683626609,-0.09682214,-0.26419923,-0.53023106,341.6706,-106.97355,-5.785416,SDL
9062019632000,1.150001,-0.943610033455958,7.12912133039035,-3.18333030085837,-0.079107046,-0.1872302,-0.52931476,341.43857,-107.23439,-5.9231067,SDL
9062024654000,1.155023,-0.96081129435418,7.28147531883303,-3.24722070214592,-0.04734206,-0.13133603,-0.54702985,341.17004,-107.55083,-6.067843,SDL
9062029642000,1.160011,-0.977896099085428,7.43279783861639,-3.31067855193133,-0.013133603,-0.08124508,-0.5488624,340.8888,-107.86522,-6.199331,SDL
9062034721000,1.16509,-1.01920895404717,7.55038508696227,-3.30013698857547,0.03359759,-0.041233405,-0.54641896,340.59354,-108.18676,-6.3281245,SDL
9062039663000,1.170032,-1.08171840051887,7.63075440858491,-3.21976762033019,0.057421334,-0.02321288,-0.5519168,340.2955,-108.50621,-6.454271,SDL
9062044579000,1.174948,-1.11353885667255,7.67365149294533,-3.15081721957672,0.09285152,-0.020158553,-0.57451874,339.9954,-108.84132,-6.5792117,SDL
9062049641000,1.18001,-1.09453914607094,7.65465188154027,-3.09856791622575,0.1255328,-0.033292156,-0.5897904,339.70053,-109.17467,-6.7005033,SDL
9062054599000,1.184968,-1.0429164566729,7.61402275002462,-3.05044344060869,0.1459968,-0.028710667,-0.605062,339.41367,-109.48617,-6.837909,SDL
9062059663000,1.190032,-0.923501122013198,7.52804348163105,-3.00745400591943,0.16249016,-0.026572637,-0.62980205,339.1335,-109.80124,-6.980021,SDL
9062064595000,1.194964,-0.795197775505618,7.44193186067416,-2.9657971741573,0.15943582,-0.021380283,-0.6585127,338.85358,-110.100334,-7.1203465,SDL
9062069629000,1.199998,-0.636429072518404,7.34853867807051,-2.92377019810151,0.16065755,0.0030543262,-0.68691796,338.56985,-110.40122,-7.2618284,SDL
9062074609000,1.204978,-0.484926217389115,7.24504079329847,-2.8888624616502,0.14752395,0.029321533,-0.7049385,338.26367,-110.684265,-7.379819,SDL
9062079644000,1.210013,-0.349505216265737,7.10495008566725,-2.87485340063916,0.13316862,0.07666359,-0.7189884,337.94763,-110.963745,-7.496737,SDL
9062084635000,1.215004,-0.219711744612705,6.98712731588597,-2.87371367869649,0.1386664,0.12644911,-0.73914695,337.59958,-111.23168,-7.5794735,SDL
9062089713000,1.220082,-0.10826471243377,6.96483792620772,-2.93166609185993,0.14844026,0.19639318,-0.74464476,337.23892,-111.49088,-7.652507,SDL
9062094823000,1.225192,0.00200900122074074,6.94117599842963,-2.99164686983704,0.1731803,0.28191432,-0.7504479,336.83173,-111.754845,-7.693023,SDL
9062099640000,1.230009,0.0566833451772839,6.88650164495802,-3.0918831924642,0.19853121,0.3203988,-0.752586,336.42532,-112.01543,-7.7290783,SDL
9062105128000,1.235497,0.116569988001157,6.82562601284351,-3.20887300451258,0.22082779,0.43310347,-0.75411314,335.95474,-112.2874,-7.7177176,SDL
9062109652000,1.240021,0.137457790234307,6.79220560080995,-3.33837731379809,0.29077184,0.4700608,-0.7528914,335.50308,-112.57167,-7.7076807,SDL
9062114575000,1.244944,0.160187819056986,6.75583763254267,-3.47930342224472,0.312763,0.5143485,-0.7556403,334.99634,-112.87103,-7.6692343,SDL
9062119634000,1.250003,0.150200030740379,6.7432451691346,-3.5837742511428,0.3747658,0.5644395,-0.73426,334.49185,-113.18887,-7.617556,SDL
9062124587000,1.254956,0.136300658767337,6.73397887922446,-3.68106988398125,0.43004912,0.60139686,-0.7287622,333.98798,-113.504196,-7.565685,SDL
9062129645000,1.260014,0.0783926465095883,6.75848055770244,-3.75233008953922,0.48472157,0.61544675,-0.7147123,333.4628,-113.862854,-7.4924674,SDL
9062134620000,1.264989,0.0134404305389439,6.78879161445969,-3.81728234755976,0.54244834,0.61483586,-0.6951646,332.94614,-114.22626,-7.4127536,SDL
9062139748000,1.270117,-0.139258718332495,6.80925910256539,-3.86299391830986,0.59131753,0.5928447,-0.67347896,332.43408,-114.61651,-7.32958,SDL
9062144719000,1.275088,-0.330833393290543,6.82362714293763,-3.89651946253521,0.63499445,0.5571091,-0.6646214,331.9403,-115.00958,-7.245757,SDL
9062150118000,1.280487,-0.569219029635627,6.79515641907895,-3.94412250374494,0.68019843,0.5222898,-0.6536258,331.4765,-115.41796,-7.174294,SDL
9062154622000,1.284991,-0.77877661940081,6.75586435276316,-3.98778021338057,0.7162395,0.48930305,-0.64965516,331.0341,-115.82469,-7.1060243,SDL
9062159655000,1.290024,-0.990589688957483,6.78815662965249,-3.99981331193866,0.7367035,0.43585235,-0.6291912,330.65106,-116.23897,-7.0857253,SDL
9062164732000,1.295101,-1.19392543468087,6.85593521156029,-3.99497208937568,0.7693848,0.39461896,-0.6258314,330.2813,-116.65715,-7.070403,SDL
9062169624000,1.299993,-1.33561793223831,6.92117842867483,-3.99052631848552,0.78954333,0.35033122,-0.6291912,329.95218,-117.09108,-7.1183352,SDL
9062174624000,1.304993,-1.45559459333705,6.98783196430958,-3.98608274016333,0.818254,0.3182608,-0.63621616,329.6381,-117.52643,-7.168163,SDL
9062179641000,1.31001,-1.55743624372976,7.06656103812187,-3.97656813246983,0.850019,0.30024028,-0.6411031,329.36768,-117.96065,-7.269127,SDL
9062184632000,1.315001,-1.64185988292611,7.15567494887646,-3.96249753818075,0.86467975,0.30115658,-0.64660084,329.10492,-118.38946,-7.3708653,SDL
9062189697000,1.320066,-1.7275352450839,7.24611012378569,-3.94821832357963,0.8866709,0.29352075,-0.65270954,328.86133,-118.82051,-7.504376,SDL
9062194712000,1.325081,-1.81236484848396,7.33565255264449,-3.93408006864881,0.8961393,0.31031954,-0.66981375,328.61322,-119.244644,-7.6351724,SDL
9062200894000,1.331263,-1.8821401988189,7.46682555946954,-3.88493709258185,0.90377516,0.3622431,-0.6747007,328.36307,-119.6651,-7.75712,SDL
9062204665000,1.335034,-1.9083315753937,7.55662458719436,-3.84003765685868,0.90316427,0.3827071,-0.675617,328.11896,-120.07826,-7.88083,SDL
9062209644000,1.340013,-1.93262022037401,7.69038180374006,-3.73730956276475,0.89919364,0.43768495,-0.6872234,327.86316,-120.47148,-8.030141,SDL
9062214644000,1.345013,-1.94746183624341,7.83879796243414,-3.59384040272755,0.8915578,0.48349985,-0.700357,327.6075,-120.855804,-8.174117,SDL
9062220433000,1.350802,-1.87495330363355,8.09594274758407,-3.43801429822188,0.87964594,0.54000485,-0.6933321,327.34375,-121.20845,-8.306475,SDL
9062224630000,1.354999,-1.78561633801701,8.31734317711635,-3.32925627075763,0.8677341,0.54825157,-0.68691796,327.08194,-121.55285,-8.438421,SDL
9062229646000,1.360015,-1.75780097020875,8.50042165293241,-3.21933305596421,0.8622363,0.569021,-0.70157874,326.80563,-121.850296,-8.558132,SDL
9062234621000,1.36499,-1.80516143715706,8.60461452196819,-3.12934836163022,0.84299403,0.5830709,-0.711658,326.5337,-122.133736,-8.6711855,SDL
9062239758000,1.370127,-1.84383247236534,8.71119550648907,-3.09350686387588,0.83169305,0.5873469,-0.7165449,326.22583,-122.35387,-8.741951,SDL
9062244760000,1.375129,-1.87187881522248,8.81403204815574,-3.11220432816159,0.82772243,0.6038403,-0.729984,325.91187,-122.5674,-8.810632,SDL
9062249612000,1.379981,-1.89688452380447,8.87837660239105,-3.18356065717316,0.79717916,0.6230826,-0.75136423,325.5952,-122.744736,-8.885408,SDL
9062254655000,1.385024,-1.92016639001157,8.90165841997686,-3.32325165993058,0.7819075,0.6606508,-0.7690793,325.27142,-122.92192,-8.95459,SDL
9062259595000,1.389964,-1.89957862450218,8.97090689455718,-3.45758865769012,0.7556403,0.6969972,-0.7791586,324.93726,-123.08026,-9.022749,SDL
9062264643000,1.395012,-1.80331289114356,9.12218127650294,-3.59052701490613,0.7458665,0.73426,-0.7800749,324.59537,-123.23601,-9.084498,SDL
9062269590000,1.399959,-1.75436155375334,9.24907084516818,-3.72374982248799,0.72173727,0.72234815,-0.8191703,324.24875,-123.40499,-9.160674,SDL
9062274622000,1.404991,-1.83669447684997,9.31596716123866,-3.8678324513401,0.7058548,0.70005155,-0.8353582,323.90225,-123.5678,-9.224924,SDL
9062279594000,1.409963,-1.97115482721701,9.32132255142693,-3.98515670660793,0.6936375,0.65668017,-0.8561276,323.53665,-123.72252,-9.269586,SDL
9062284624000,1.414993,-2.19258990737407,9.22905755334227,-4.06358149735683,0.6817256,0.6078109,-0.8368854,323.18536,-123.86736,-9.310889,SDL
9062290130000,1.420499,-2.38106736913178,9.16334922323267,-4.17428800425532,0.6783658,0.57787853,-0.8353582,322.83603,-124.033554,-9.375887,SDL
9062294726000,1.425095,-2.46036678309883,9.1595729799245,-4.30267775319149,0.6753115,0.54244834,-0.8512407,322.50372,-124.192764,-9.446494,SDL
9062299982000,1.430351,-2.55422634172662,9.1549885500327,-4.45240712537606,0.66828656,0.5360342,-0.85062987,322.19913,-124.38703,-9.568889,SDL
9062304646000,1.435015,-2.70515875035971,9.14525078504469,-4.64715856134729,0.63713247,0.5503896,-0.838718,321.90002,-124.57021,-9.690557,SDL
9062309643000,1.440012,-2.87013021729245,9.14068106471698,-4.83867538227358,0.61453044,0.58184916,-0.80481493,321.60687,-124.78235,-9.823457,SDL
9062314648000,1.445017,-3.05552717432075,9.1723343845283,-4.92459107062264,0.5537493,0.6065892,-0.7675522,321.3169,-124.969795,-9.947046,SDL
9062319937000,1.450306,-3.2461103423539,9.21436696090409,-5.01133866456934,0.49418998,0.6105598,-0.7324274,321.03577,-125.18788,-10.089453,SDL
9062324653000,1.455022,-3.35646887161474,9.34771711850947,-5.04352644489921,0.4370741,0.6010914,-0.6994407,320.75995,-125.38222,-10.217087,SDL
9062329750000,1.460119,-3.47620674731045,9.49245660620525,-5.07705064861392,0.39003745,0.5647449,-0.68294734,320.50916,-125.58208,-10.382449,SDL
9062334620000,1.464989,-3.59607946825776,9.63801614081146,-5.09417531026253,0.34697145,0.54641896,-0.67011917,320.2628,-125.7607,-10.534268,SDL
9062339685000,1.470054,-3.72075202094731,9.78940403460621,-5.11198566164861,0.31429017,0.50793445,-0.6603453,320.03247,-125.923035,-10.705104,SDL
9062344717000,1.475086,-3.8493135314433,9.96939160927835,-5.12720985072165,0.28496864,0.48288897,-0.6426302,319.80795,-126.06942,-10.866384,SDL
9062349586000,1.479955,-3.97429975752577,10.1472566812371,-5.14163132676289,0.26206118,0.46395215,-0.6453791,319.59048,-126.20676,-11.030177,SDL
9062354651000,1.48502,-3.99639657418938,10.3103317769053,-5.17593185773672,0.24312437,0.45540005,-0.64599,319.3873,-126.32648,-11.208232,SDL
9062359809000,1.490178,-4.01008631120554,10.4746087163972,-5.21243810900693,0.22693644,0.4569272,-0.6536258,319.18518,-126.43956,-11.384362,SDL
9062364640000,1.495009,-3.96199064047342,10.6227370604459,-5.22325929463172,0.21135938,0.45753807,-0.6560693,318.995,-126.53618,-11.572905,SDL
9062369602000,1.499971,-3.89670890520976,10.7733872187467,-5.22828091413928,0.1872302,0.45478916,-0.65209866,318.80536,-126.6248,-11.756103,SDL
9062374649000,1.505018,-3.81463970926195,10.8420903742605,-5.26570864536902,0.1777618,0.43768495,-0.65209866,318.61603,-126.6988,-11.931238,SDL
9062379606000,1.509975,-3.7317669958297,10.8973389780817,-5.30714500208515,0.17348573,0.4266894,-0.6533204,318.4268,-126.76665,-12.099855,SDL
9062384622000,1.514991,-3.62423377940777,10.9713754931631,-5.32921517984243,0.16249016,0.42943826,-0.64476824,318.21317,-126.8098,-12.240616,SDL
9062389722000,1.520091,-3.50923923988047,11.050986848773,-5.34690654088563,0.13958271,0.40591997,-0.6420194,318.00803,-126.84903,-12.384807,SDL
9062394671000,1.52504,-3.39315686258619,11.1434913139608,-5.36921657849019,0.119729586,0.39278635,-0.6417139,317.78436,-126.87897,-12.499754,SDL
9062400899000,1.531268,-3.24360538824214,11.2716786903376,-5.4012634225844,0.1142318,0.32559118,-0.6609562,317.57758,-126.90837,-12.628096,SDL
9062404619000,1.534988,-3.18705337345423,11.3682096327289,-5.41862937732139,0.0693332,0.3036,-0.66553766,317.35355,-126.90411,-12.715538,SDL
9062409657000,1.540026,-3.15542921894254,11.5263304052873,-5.43971203692375,0.053450707,0.2501493,-0.6817256,317.14948,-126.90999,-12.823958,SDL
9062414639000,1.545008,-3.16155615217902,11.6916941955734,-5.43647582577612,0.01985312,0.19822577,-0.7021896,316.92493,-126.88288,-12.90341,SDL
9062419628000,1.549997,-3.19898918936441,11.8648224139653,-5.41308014699834,-0.02565634,0.14660765,-0.72021013,316.71265,-126.85124,-12.993251,SDL
9062424635000,1.555004,-3.27155483689261,12.0056026328093,-5.37200205139853,-0.07544186,0.09285152,-0.7492262,316.49774,-126.7998,-13.084658,SDL
9062429646000,1.560015,-3.37933011126991,12.1133774979584,-5.31321564505921,-0.12339478,0.06811147,-0.7791586,316.2869,-126.74119,-13.182726,SDL
9062434615000,1.564984,-3.4856510831528,12.1550892040619,-5.29136740720503,-0.17745635,0.06780604,-0.8029824,316.075,-126.653885,-13.288827,SDL
9062439687000,1.570056,-3.59369675,12.1409965,-5.300762625,-0.24801129,0.09285152,-0.8136725,315.86185,-126.55498,-13.396969,SDL
9062444675000,1.575044,-3.64675510517497,12.0675403546557,-5.29550952587486,-0.310625,0.1328632,-0.8206975,315.64612,-126.439545,-13.520842,SDL
9062449646000,1.580015,-3.64260061762807,11.9304424391308,-5.27473708814033,-0.3811799,0.18570304,-0.8216137,315.42188,-126.308464,-13.63753,SDL
9062454599000,1.584968,-3.62307850474755,11.7649812298418,-5.26035168877166,-0.462425,0.21685717,-0.8206975,315.1984,-126.17368,-13.770911,SDL
9062459650000,1.590019,-3.5293434942405,11.4577386168587,-5.2759742267736,-0.52106804,0.24251351,-0.82619524,314.96347,-126.031845,-13.896132,SDL
9062464568000,1.594937,-3.42101724972493,11.1482969203745,-5.30929082284529,-0.5662721,0.25045475,-0.82772243,314.7224,-125.88992,-14.022287,SDL
9062469621000,1.59999,-3.27155959524177,10.8073464647235,-5.38401947939388,-0.5833763,0.24953845,-0.8237518,314.4786,-125.744545,-14.1435795,SDL
9062475492000,1.605861,-3.08753134928881,10.3537083845919,-5.59266087085648,-0.5729916,0.24984388,-0.83291477,314.222,-125.62499,-14.261974,SDL
9062479646000,1.610015,-2.94424697920151,9.96028342750748,-5.89380101938221,-0.548557,0.2602286,-0.8341365,313.96667,-125.506836,-14.374058,SDL
9062484622000,1.614991,-2.772609274446,9.48900692619498,-6.25453125025945,-0.50793445,0.2724459,-0.8268061,313.70035,-125.43172,-14.471178,SDL
9062490268000,1.620637,-2.59277732381401,8.96667482877788,-6.65658396201696,-0.45723262,0.30604348,-0.8206975,313.42795,-125.36781,-14.562132,SDL
9062494660000,1.625029,-2.57075329968583,8.65833931888156,-6.91206175881244,-0.41538838,0.31245756,-0.8206975,313.16174,-125.31367,-14.653344,SDL
9062499678000,1.630047,-2.55096356487736,8.31274251164053,-7.18790487518094,-0.38453966,0.33383787,-0.8151997,312.85034,-125.396965,-14.699665,SDL
9062504639000,1.635008,-2.59872251544029,8.05484501640531,-7.25954300180941,-0.3494149,0.3494149,-0.8026769,312.5447,-125.48939,-14.74295,SDL
9062509636000,1.640005,-2.64697784069845,7.80058849041774,-7.31869872936531,-0.3182608,0.3622431,-0.77549344,312.2304,-125.64945,-14.776984,SDL
9062514643000,1.645012,-2.69716923984204,7.61351117137692,-7.21831607401275,-0.27977628,0.3717115,-0.7510588,311.92087,-125.81584,-14.805651,SDL
9062519977000,1.650346,-2.75060844932425,7.41562367693181,-7.10544945866089,-0.2666427,0.37232238,-0.7098254,311.6157,-126.01364,-14.836181,SDL
9062524724000,1.655093,-2.79750947536366,7.27023094676571,-6.87563466614051,-0.27030787,0.36377025,-0.6630942,311.32202,-126.20926,-14.858371,SDL
9062529848000,1.660217,-2.83629581476771,7.11905242226836,-6.62450079029328,-0.28924468,0.36926803,-0.6068946,311.0363,-126.405334,-14.885321,SDL
9062534640000,1.665009,-2.73703968548317,7.04361770265594,-6.35452409542348,-0.30940324,0.38912117,-0.5564982,310.76202,-126.59152,-14.900467,SDL
9062539681000,1.67005,-2.63262604864608,6.96426327411541,-6.07051897880439,-0.33841935,0.40042216,-0.5012149,310.5061,-126.7502,-14.922404,SDL
9062545474000,1.675843,-2.33391366025785,6.99498938079223,-5.72808816704036,-0.37048978,0.42149702,-0.441961,310.2571,-126.89366,-14.925783,SDL
9062549613000,1.679982,-2.08210017155269,7.04313000317638,-5.47997785369955,-0.40408736,0.4288274,-0.37965274,310.0235,-127.01975,-14.915193,SDL
9062554628000,1.684997,-1.94786375190983,6.92836661552912,-5.16187495241077,-0.44135013,0.45753807,-0.3567453,309.7783,-127.09535,-14.885396,SDL
9062559664000,1.690033,-1.93779721782509,6.68676974493843,-4.82967922250052,-0.48899764,0.47891834,-0.3313944,309.5483,-127.15061,-14.840506,SDL
9062564643000,1.695012,-1.76493516160392,6.55040334796756,-4.49739242681217,-0.52870387,0.49541172,-0.2950479,309.30676,-127.12729,-14.7318735,SDL
9062569623000,1.699992,-1.51186126432719,6.4644537234181,-4.16314358219864,-0.5739079,0.5009095,-0.26939157,309.06927,-127.08835,-14.619427,SDL
9062574613000,1.704982,-1.37603159092001,6.39742955125638,-3.84733836303934,-0.6252206,0.50579643,-0.2574797,308.83023,-127.0195,-14.519274,SDL
9062579677000,1.710046,-1.29835097664431,6.33916921728902,-3.53661621011112,-0.6936375,0.52656585,-0.26236662,308.59076,-126.93386,-14.414708,SDL
9062584669000,1.715038,-1.31503173461727,6.32387068727825,-3.27916413652847,-0.7583892,0.55680364,-0.2779437,308.33527,-126.78728,-14.274241,SDL
9062589819000,1.720188,-1.37787273824365,6.32870461063413,-3.03746781730863,-0.838718,0.569021,-0.2864958,308.0824,-126.61948,-14.134325,SDL
9062594705000,1.725074,-1.56335725990579,6.43846679656415,-2.58908400720421,-0.92149025,0.54550266,-0.28313604,307.83374,-126.39646,-13.993853,SDL
9062601128000,1.731497,-1.8928748384317,6.654357607509,-1.85051025522305,-0.9654725,0.4868596,-0.29565877,307.5889,-126.16687,-13.864122,SDL
9062604676000,1.735045,-2.14904947817829,6.81874337231815,-1.71180614029786,-1.1114693,0.4578435,-0.30024028,307.3446,-125.86064,-13.751675,SDL
9062609663000,1.740032,-2.56139160237427,7.08161160835312,-1.70665186643643,-1.1597277,0.37384954,-0.30787608,307.12698,-125.57249,-13.661729,SDL
9062615231000,1.7456,-3.00432778436508,7.27281719964286,-1.57282331357143,-1.2647965,0.2883284,-0.3118467,306.93613,-125.14671,-13.635949,SDL
9062619648000,1.750017,-3.3484410928373,7.38192617026786,-1.41335620482143,-1.3524556,0.21319197,-0.31795537,306.76175,-124.71797,-13.623905,SDL
9062624652000,1.755021,-3.57588498906264,7.19568936066758,-1.55831686602652,-1.4251486,0.1432479,-0.31673363,306.6241,-124.27043,-13.684157,SDL
9062629614000,1.759983,-3.69321861463192,6.80457726031093,-1.91900911568358,-1.475545,0.09010262,-0.33200526,306.49695,-123.81529,-13.757692,SDL
9062634654000,1.765023,-3.57362508242346,6.54857154363091,-1.99625067565832,-1.4749341,0.03023783,-0.33841935,306.40942,-123.3517,-13.906595,SDL
9062639661000,1.77003,-3.11166876819739,6.49724309404838,-1.65748258683365,-1.4462235,-0.018020526,-0.36254853,306.32657,-122.89578,-14.067363,SDL
9062644607000,1.774976,-2.5112238585959,7.16380497056903,-0.764856451659887,-1.3994923,-0.04917465,-0.3735441,306.2606,-122.56624,-14.271515,SDL
9062649640000,1.780009,-1.77530797982884,8.46376173356938,0.627089603224348,-1.3787229,-0.0571159,-0.3640757,306.1995,-122.24617,-14.477093,SDL
9062654560000,1.784929,-1.05591475043604,9.73453210391743,1.98778393861684,-1.4266758,-0.020158553,-0.3915646,306.10397,-121.858246,-14.619181,SDL
9062659583000,1.789952,-0.321461053029531,11.0319060003114,3.37696435460801,-1.5625933,0.028710667,-0.5021312,305.9966,-121.471664,-14.777198,SDL
9062664580000,1.794949,0.14853702444853,12.6820286098712,4.6155593368302,-1.8081611,0.09468412,-0.5543602,305.81595,-120.73024,-14.707912,SDL
9062669580000,1.799949,0.402763547405958,14.631098514502,5.73603927980533,-2.2033908,0.12767084,-0.4908302,305.6311,-119.92963,-14.634861,SDL
9062674582000,1.804951,0.315847198394248,16.0890414965049,5.1103004261434,-2.7974575,0.093767814,-0.36285394,305.37253,-118.58806,-14.369894,SDL
9062679561000,1.80993,-0.0936526404493709,17.0746980394448,2.83424325495307,-3.472158,0.05375614,-0.2968805,305.1048,-117.16614,-14.105695,SDL
9062684527000,1.814896,-0.889644861395908,17.7916796947144,0.417400888901231,-3.8151588,0.062308256,-0.35185838,304.80383,-115.40808,-13.717301,SDL
9062689614000,1.819983,-2.09821787188929,18.256168047024,-2.2071867292789,-3.7323866,0.024740042,-0.82711154,304.48807,-113.73379,-13.450637,SDL
9062694506000,1.824875,-3.24839856110811,18.1840827802703,-4.13286063724324,-2.9028316,-0.08827003,-1.6227635,304.179,-112.55954,-13.348288,SDL
9062699590000,1.829959,-4.41955397671171,17.0699498292793,-4.93556258801802,-1.3396275,0.22693644,-2.0894647,303.7558,-111.67161,-13.269173,SDL
9062704722000,1.835091,-5.46384974882238,16.1284424590933,-5.50279875294847,0.2996294,0.8011498,-2.2464569,303.3001,-111.5293,-13.494589,SDL
9062709714000,1.840083,-5.738994255711,16.1961703825925,-4.74932614547547,1.2260065,1.3252722,-2.3640485,302.73746,-111.67043,-13.813475,SDL
9062714643000,1.845012,-6.01066638601027,16.2630435666726,-4.00536250720737,1.2562444,1.7305813,-2.4559836,302.09958,-112.27802,-14.355564,SDL
9062719790000,1.850159,-6.41355646768351,16.6249302087703,-2.16389183255672,0.7495316,1.9233092,-2.5369234,301.36395,-112.96831,-14.879065,SDL
9062724635000,1.855004,-6.80722357159199,17.0009049799809,-0.301714151946616,0.1731803,1.8973475,-2.6838365,300.56262,-113.658134,-15.408992,SDL
9062729667000,1.860036,-7.68102288955166,17.376031938426,1.42445836010006,-0.2443461,1.6737708,-2.785851,299.7908,-114.20824,-15.986683,SDL
9062734686000,1.865055,-8.67989273850298,17.7459835197229,3.08924169278045,-0.4804455,1.3286319,-2.8041768,299.05887,-114.68118,-16.578194,SDL
9062739657000,1.870026,-9.19094809752191,17.5217760241214,3.83440080680298,-0.6160576,0.98746365,-2.783102,298.44687,-114.94202,-17.255615,SDL
9062744684000,1.875053,-9.51301808319985,17.0545487490813,4.21997710657684,-0.75961095,0.6588182,-2.718045,297.94022,-115.16948,-17.94083,SDL
9062749639000,1.880008,-9.31678955265323,15.8644660335253,4.18916552638832,-1.0143417,0.3839288,-2.6508498,297.6107,-115.30933,-18.755774,SDL
9062754653000,1.885022,-8.75384550425065,14.1427139154669,3.86654281423968,-1.3738359,0.12308934,-2.581211,297.38864,-115.43495,-19.559767,SDL
9062759645000,1.890014,-8.19337149355546,12.4285163539696,3.5453356784108,-1.7107282,-0.08368854,-2.5244007,297.27182,-115.59085,-20.417564,SDL
9062764605000,1.894974,-7.51218456486052,11.1082813259657,2.9778854711588,-1.9346102,-0.18081611,-2.4446826,297.2171,-115.737175,-21.241283,SDL
9062769640000,1.900009,-6.75681922446352,9.96488576909871,2.27425740291846,-2.0182989,-0.22174409,-2.3698518,297.2199,-115.89404,-22.041626,SDL
9062774639000,1.905008,-5.91516571589411,8.80935114770261,1.71136640105487,-1.9834795,-0.23243423,-2.2892175,297.21704,-116.1584,-22.84448,SDL
9062779723000,1.910092,-5.0361161260777,7.62905385369713,1.17307192413024,-1.8597792,-0.29077184,-2.198504,297.25647,-116.441696,-23.614983,SDL
9062784713000,1.915082,-4.11774585545202,6.60104754825535,0.334233234040444,-1.6878207,-0.3191771,-2.143526,297.25336,-116.778114,-24.330212,SDL
9062789633000,1.920002,-3.20229123887788,5.61086194555908,-0.548526597442506,-1.5176947,-0.36560285,-2.1242838,297.2841,-117.13828,-25.023405,SDL
9062794601000,1.92497,-2.56460714094812,4.98292569549195,-1.24882932134168,-1.4385877,-0.3436117,-2.1025982,297.2583,-117.50966,-25.648329,SDL
9062799811000,1.93018,-1.9665792481932,4.41613818368515,-1.93611513914132,-1.3784174,-0.26908615,-2.1001546,297.23486,-117.90847,-26.264637,SDL
9062804680000,1.935049,-1.74567507304096,4.08018967119036,-2.32520626346988,-1.4327844,-0.18325958,-2.094657,297.11548,-118.29076,-26.794699,SDL
9062809714000,1.940083,-1.75032178255422,3.86644074245783,-2.55289517518072,-1.5674802,-0.093462385,-2.060143,296.974,-118.665985,-27.30484,SDL
9062814671000,1.94504,-1.86112537997659,3.77143997657198,-2.57446253852538,-1.7290541,-0.03268129,-2.0118847,296.6882,-118.98152,-27.699585,SDL
9062819674000,1.950043,-2.07522652669433,3.78673290041494,-2.40114268174274,-1.8515326,-0.021685716,-1.9813415,296.39288,-119.282394,-28.080133,SDL
9062824676000,1.955045,-2.28349926275777,3.7151848142925,-2.17941940886629,-1.9220876,-0.022296581,-1.9624046,296.05515,-119.57229,-28.436447,SDL
9062829677000,1.960046,-2.48830900868574,3.59229898574551,-1.92909638078495,-1.9785925,-0.010995574,-1.9908098,295.7131,-119.85599,-28.789307,SDL
9062835131000,1.9655,-2.68816303229653,3.51043016404651,-1.77197288601809,-2.026851,-0.036957346,-2.026851,295.4365,-120.17891,-29.19701,SDL
9062839656000,1.970025,-2.838886047302,3.47597918918812,-1.71599000690649,-2.1077905,-0.0888809,-2.0690005,295.16486,-120.5046,-29.607996,SDL
9062844641000,1.97501,-3.01912726285204,3.37100178570012,-1.74060649317731,-2.21683,-0.15882497,-2.083356,294.96216,-120.88603,-30.090391,SDL
9062849644000,1.980013,-3.21393333662237,3.19995271839548,-1.8498879092622,-2.293799,-0.23854288,-2.1077905,294.77808,-121.28127,-30.58297,SDL
9062854622000,1.984991,-3.34510321551473,3.05841438100515,-2.03189642666472,-2.3683245,-0.32375857,-2.1224513,294.61157,-121.71965,-31.122065,SDL
9062859651000,1.99002,-3.4106484354914,2.9460510140663,-2.29407764878001,-2.3921483,-0.42546764,-2.121535,294.47778,-122.16266,-31.659521,SDL
9062864631000,1.995,-3.37420346956219,2.87241804039801,-2.55837672467662,-2.382069,-0.49968776,-2.126422,294.35382,-122.66422,-32.24618,SDL
9062869755000,2.000124,-3.19842482800995,2.84800434726368,-2.83669303034826,-2.320677,-0.5332854,-2.13925,294.25024,-123.171646,-32.829056,SDL
9062874580000,2.004949,-2.95572360371801,2.73474032689522,-3.0558846085466,-2.239432,-0.5015204,-2.1423044,294.11313,-123.69453,-33.409832,SDL
9062879676000,2.010045,-2.58810741575085,2.48494971211975,-3.22555370166103,-2.1410828,-0.37659842,-2.1771238,293.95294,-124.2318,-33.994232,SDL
9062884666000,2.015035,-2.24064557158215,2.21879554008114,-3.22436042211968,-2.0616703,-0.3286455,-2.2143865,293.72327,-124.73491,-34.529785,SDL
9062889765000,2.020134,-1.90882468174442,1.90678493752536,-2.9123497678499,-2.0335703,-0.24678956,-2.240043,293.43903,-125.24042,-35.060043,SDL
9062894643000,2.025012,-1.52808612347292,1.54482300599941,-2.46267673897634,-1.9947804,-0.19303341,-2.300824,293.03577,-125.67236,-35.502724,SDL
9062899681000,2.03005,-1.03132470973171,1.06716778705079,-1.75097048418968,-1.9847012,-0.22693644,-2.409558,292.64246,-126.11715,-35.957626,SDL
9062905374000,2.035743,-0.665899552266353,0.657059195069212,-0.964281309152266,-2.02624,-0.2941316,-2.597399,292.22354,-126.547195,-36.399532,SDL
9062909685000,2.040054,-0.576253783529359,0.470297181742513,-0.385318989833529,-2.1294763,-0.3182608,-2.6471846,291.8159,-126.95924,-36.823746,SDL
9062914604000,2.044973,-0.731959918376022,0.602477186009471,0.430516212226647,-2.172237,-0.36377025,-2.7785206,291.56293,-127.473946,-37.36449,SDL
9062919669000,2.050038,-2.50684354690056,2.89938535023676,2.24194154816616,-2.2696698,-0.58551437,-2.7525587,291.39438,-127.9492,-37.86803,SDL
9062924628000,2.054997,-4.54161367621825,5.29561004506115,4.27262426421449,-2.3295345,-0.96852684,-2.5940392,291.55557,-128.59387,-38.551983,SDL
9062929679000,2.060048,-7.36296096225776,8.10785621787394,6.9893085580809,-2.375044,-1.5088371,-2.3197608,291.87018,-129.20274,-39.18976,SDL
9062934717000,2.065086,-10.1139226670627,10.6480516376596,9.3770288008118,-2.4715607,-2.2116377,-2.012801,292.5875,-50.30144,-39.697662,SDL
9062939729000,2.070098,-12.5563996234036,11.9405685856846,10.2513784279774,-2.6224444,-2.6343563,-1.8246545,293.4125,-49.834034,-40.133167,SDL
9062944657000,2.075026,-14.7809540118577,13.0361204733202,10.6106804708498,-2.7708848,-2.3237314,-1.7941113,294.6163,-49.30279,-40.54154,SDL
9062949645000,2.080014,-15.9940632134387,13.1163651697628,8.03813475029644,-2.6062565,-1.3231341,-1.7638733,295.67886,-48.790985,-40.864063,SDL
9062954644000,2.085013,-17.1375018260529,13.1606092581783,5.77912012168462,-1.9767599,-0.5299256,-1.572978,296.74802,-48.1463,-41.262897,SDL
9062959703000,2.090072,-17.7496393395691,12.9328368259549,5.89775129331048,-1.185384,-0.43371433,-1.4987578,297.66238,-47.49467,-41.653217,SDL
9062964639000,2.095008,-18.324100953872,12.631287652904,5.9757712107665,-0.591623,-0.6224717,-1.6759088,298.08456,-46.75984,-42.249535,SDL
9062969679000,2.100048,-18.6292275520545,11.3440376015409,5.58959639448834,-0.2406809,-0.64965516,-1.9214766,298.40396,-46.08074,-42.8299,SDL
9062974799000,2.105168,-18.926631809945,10.0679885592571,5.15625328212461,-0.118507855,-0.34116822,-2.1713204,298.70074,-45.305004,-43.53361,SDL
9062979675000,2.110044,-19.0734762682783,9.19610024675708,4.29813138004127,-0.14844026,0.2669481,-2.3805418,298.9047,-44.512558,-44.282127,SDL
9062984895000,2.115264,-19.1785440039611,8.33036582825616,3.44108130951618,-0.24220806,0.82558435,-2.4801128,299.03604,-43.55709,-45.22169,SDL
9062989751000,2.12012,-18.5645006743375,8.44878847694049,3.48494148192021,-0.35888332,0.99204516,-2.4959953,299.09674,-42.596874,-46.17552,SDL
9062995115000,2.125484,-17.8862205219278,8.579599656418,3.53338999196454,-0.4392121,0.91813046,-2.4110851,298.98975,-41.574276,-47.23245,SDL
9063000927000,2.131296,-15.5313936973763,8.52003411215702,3.20781395337472,-0.84788096,0.6102544,-2.3328943,298.91727,-40.551785,-48.258858,SDL
9063004649000,2.135018,-14.014362629281,8.48076973302624,2.99721435241338,-1.2153164,0.4364632,-2.300213,298.81885,-39.56765,-49.247887,SDL
9063009654000,2.140023,-11.8385815338491,7.830123,2.32345922920696,-1.398576,0.13805555,-2.2296581,298.89294,-38.68946,-50.08812,SDL
9063014596000,2.144965,-9.67523725898402,7.12185636842105,1.61519284918049,-1.7434094,-0.076358154,-2.0693061,298.9999,-37.83954,-50.865784,SDL
9063019632000,2.150001,-7.49727916106738,6.12994850610482,0.944426845761182,-2.0622811,-0.2507602,-1.8548924,299.15878,-37.16914,-51.438316,SDL
9063024608000,2.154977,-5.34739735803417,5.1281952124976,0.285739630756383,-2.3603833,-0.42210788,-1.6447546,299.39832,-36.535698,-51.93885,SDL
9063029643000,2.160012,-3.43891504516852,3.50323095717487,-0.620022014760527,-2.6077838,-0.5891795,-1.4935656,299.60547,-36.033195,-52.292156,SDL
9063034656000,2.165025,-1.58777846822892,1.77311300215666,-1.56576007199048,-2.7974575,-0.7779369,-1.368949,299.87827,-35.572292,-52.56961,SDL
9063039660000,2.170029,-0.835212486653077,0.665298960973598,-1.91149231476412,-2.9232957,-1.0027353,-1.2773192,300.11005,-35.23037,-52.711334,SDL
9063044773000,2.175142,-0.52150929009901,-0.209267454950495,-2.01606001386139,-3.0017917,-1.246776,-1.2336423,300.42432,-34.902126,-52.80371,SDL
9063049639000,2.180008,-0.5608117629713,-0.903809117163759,-2.03200757850309,-3.004846,-1.4624114,-1.2082914,300.79535,-34.53279,-52.9251,SDL
9063054629000,2.184998,-0.775953071637591,-1.54475095889139,-2.00511493247046,-2.9458976,-1.6536123,-1.1746938,301.25412,-34.17582,-53.00105,SDL
9063059644000,2.190013,-1.1469459416,-2.12114771584,-2.065685036928,-2.812118,-1.7467692,-1.1368202,301.879,-33.70092,-53.158386,SDL
9063064641000,2.19501,-1.66250708586667,-2.63160419141333,-2.20861288206933,-2.595872,-1.6789632,-1.070236,302.5042,-33.249813,-53.286392,SDL
9063069624000,2.199993,-2.14423617445951,-3.01099491912789,-2.34387517667644,-2.3188446,-1.5045611,-1.0290025,303.08597,-32.77207,-53.448418,SDL
9063074680000,2.205049,-2.6144226832173,-3.32149547698791,-2.47694677154635,-2.0195205,-1.2504412,-0.9789116,303.58594,-32.333035,-53.600475,SDL
9063079644000,2.210013,-3.12102505102167,-3.57407018427245,-2.5722827879257,-1.6835446,-1.103528,-0.9633345,303.89645,-31.941982,-53.766933,SDL
9063084651000,2.21502,-3.68515526684211,-3.76706218315789,-2.62671647368421,-1.3387111,-0.81092364,-0.97249746,304.0302,-31.588806,-53.971607,SDL
9063089707000,2.220076,-4.20300491579255,-3.83467479737277,-2.65029766491194,-1.1765264,-0.52931476,-0.9972375,304.11273,-31.168886,-54.28361,SDL
9063094736000,2.225105,-4.67164136059161,-3.78781109417145,-2.64561130437871,-0.8582657,-0.26083946,-1.0302242,304.08273,-30.795172,-54.63242,SDL
9063099637000,2.230006,-5.05143798601649,-3.64054187325454,-2.53324947231105,-0.5925393,-0.015577064,-1.058324,304.065,-30.301922,-55.135937,SDL
9063104642000,2.235011,-5.35133963394577,-3.37396256989771,-2.29523222119376,-0.37812558,0.21319197,-1.0684034,303.94077,-29.833086,-55.674316,SDL
9063109640000,2.240009,-5.71544324526766,-3.14201135080399,-1.94545438491757,-0.22479841,0.398895,-1.0589349,303.80945,-29.291264,-56.323944,SDL
9063114646000,2.245015,-6.15943631837981,-2.95172863429676,-1.45754988825565,-0.12522738,0.5103779,-1.0595458,303.6093,-28.760485,-56.99738,SDL
9063119612000,2.249981,-6.6548621964621,-2.76107133561617,-0.81050699160589,-0.055588737,0.61422503,-1.0852021,303.3976,-28.210308,-57.704773,SDL
9063124663000,2.255032,-7.21894443907501,-2.56507656249629,0.0260558211443818,-0.058337633,0.6722572,-1.1249083,303.1516,-27.65975,-58.422344,SDL
9063129624000,2.259993,-7.74086138708183,-2.325370417598,0.891065452842183,-0.10995574,0.65209866,-1.1502593,303.01596,-27.061855,-59.15273,SDL
9063134650000,2.265019,-8.23151421573533,-2.02651833753128,1.81884510906311,-0.23762658,0.5571091,-1.128879,302.88446,-26.462057,-59.87611,SDL
9063139691000,2.27006,-8.77459186089267,-1.70679764630181,2.77897353436769,-0.36926803,0.41722095,-1.0940597,302.99594,-25.809483,-60.572975,SDL
9063144657000,2.275026,-9.4215075618491,-1.3479615051966,3.78977956119022,-0.54428095,0.26358834,-1.0552697,303.16736,-25.156334,-61.243706,SDL
9063149571000,2.27994,-10.0754175316942,-1.0070060112015,4.67175799872263,-0.72418076,0.053145275,-1.0268645,303.6709,-24.495777,-61.809124,SDL
9063154648000,2.285017,-10.7712103369189,-0.675453691590473,5.40957858248175,-0.9049969,-0.15271631,-1.0283916,304.27185,-23.83286,-62.34128,SDL
9063159573000,2.289942,-11.4835861314839,-0.403643393729242,6.01214649413832,-1.0977248,-0.35888332,-1.074512,305.20996,-23.159922,-62.76182,SDL
9063164644000,2.295013,-12.2956003608208,-0.22832213633935,6.39508518369751,-1.255328,-0.51893,-1.1621711,306.26407,-22.47461,-63.150772,SDL
9063169592000,2.299961,-13.0733117082217,-0.0605945625786112,6.60547089672368,-1.3750577,-0.61544675,-1.2873985,307.57547,-21.757566,-63.468704,SDL
9063174649000,2.305018,-13.8167756341438,0.0990754524016073,6.24621324917577,-1.4395039,-0.6337727,-1.4278975,308.96872,-21.017954,-63.770573,SDL
9063179574000,2.309943,-14.3553084754496,0.334420007375227,5.84041819407961,-1.4092661,-0.63194007,-1.4920384,310.47473,-20.253487,-64.04688,SDL
9063184655000,2.315024,-14.424134003334,0.786703056097191,5.27506444092746,-1.3634512,-0.5925393,-1.5888605,312.0298,-19.45644,-64.33286,SDL
9063189712000,2.320081,-14.4123524684512,1.07832465975143,4.90419490143404,-1.2024882,-0.5907067,-1.6258179,313.4804,-18.681576,-64.65104,SDL
9063194860000,2.325229,-14.228532448566,1.03590469680688,4.93718821688337,-1.0247264,-0.75319684,-1.6615535,315.02948,-17.907412,-64.93347,SDL
9063200901000,2.33127,-13.9351983412666,1.03347174965,4.96264644925471,-0.9230174,-1.1071932,-1.72264,316.48074,-17.210032,-65.17858,SDL
9063204641000,2.33501,-13.6785816122869,1.07771607592852,4.96559603815367,-0.9053023,-1.1863003,-1.6832392,317.8379,-16.555807,-65.407646,SDL
9063209635000,2.340004,-13.3359228035905,1.13679526454748,4.96953460685992,-0.9288206,-1.3420709,-1.6044376,319.411,-15.915736,-65.51693,SDL
9063214643000,2.345012,-13.0098067411427,0.931441496025109,4.86147508380679,-1.0164797,-1.4110987,-1.5622878,320.9525,-15.287027,-65.60282,SDL
9063219625000,2.349994,-12.6900030494733,0.657324122502394,4.72441644210022,-1.1441506,-1.3918564,-1.5100589,322.44562,-14.689916,-65.63576,SDL
9063224630000,2.354999,-12.3067868386243,0.253636978941799,4.49377917879819,-1.3130548,-1.2925909,-1.427592,323.83783,-14.137786,-65.60579,SDL
9063230109000,2.360478,-11.8804322208995,-0.202462955846561,4.23102603089569,-1.5173893,-1.1178834,-1.3466524,325.12503,-13.593693,-65.573,SDL
9063234610000,2.364979,-11.5688909943199,-0.769763890342834,3.91320147950096,-1.7256943,-0.8943067,-1.3197744,326.36548,-13.015774,-65.574196,SDL
9063239724000,2.370093,-11.2211571493052,-1.44536054955979,3.5356620245461,-1.9281962,-0.6423248,-1.3170254,327.46863,-12.442693,-65.60028,SDL
9063244662000,2.375031,-10.8337484674593,-2.03036160391514,3.22880414851901,-2.112372,-0.40744713,-1.3472633,328.57718,-11.802186,-65.69964,SDL
9063249569000,2.379938,-10.4388061307779,-2.59869414599775,2.93500520563698,-2.230269,-0.2003638,-1.3723087,-4.2421374,-11.160332,-65.83725,SDL
9063254642000,2.385011,-10.0178532570089,-2.95705523859918,2.61664646140082,-2.2821925,-0.030543262,-1.4089607,-4.729506,-10.416526,-66.07947,SDL
9063259636000,2.390005,-9.60141262357669,-3.27281772083054,2.30088397916946,-2.2632558,0.08827003,-1.4370605,-5.226215,-9.67586,-66.34386,SDL
9063264694000,2.395063,-9.24576635561524,-3.4177349875858,2.03527959236049,-2.1474967,0.14202617,-1.4682146,-5.7066193,-8.867443,-66.66393,SDL
9063269627000,2.399996,-8.91681332587287,-3.51172151844226,1.79091428827216,-1.9721785,0.13775012,-1.4706581,-6.164887,-8.080378,-66.976974,SDL
9063274613000,2.404982,-8.72737072269902,-3.47241006996153,1.56356173660846,-1.7299703,0.07269296,-1.4333953,-6.5713487,-7.2834353,-67.29938,SDL
9063279690000,2.410059,-8.57868128430502,-3.39087075545033,1.33812931380093,-1.430341,0.03176499,-1.3753631,-6.916403,-6.5275655,-67.6027,SDL
9063284675000,2.415044,-8.59372848602396,-3.13543998602396,1.13647133542499,-1.0977248,-0.089491755,-1.3368785,-7.1844463,-5.8044,-67.86259,SDL
9063289719000,2.420088,-8.66261807415859,-2.81854764082525,0.938987753527287,-0.9233228,-0.17623462,-1.2522738,-7.4246144,-5.133277,-68.09275,SDL
9063294673000,2.425042,-8.77371322672597,-2.68522223055696,1.03095443143637,-0.61269784,-0.22632557,-1.1487321,-7.5370474,-4.5467467,-68.301,SDL
9063300170000,2.430539,-8.92270954230264,-2.64265184674012,1.30234120475083,-0.37110063,-0.23579398,-1.0057896,-7.6338377,-4.011817,-68.47458,SDL
9063304670000,2.435039,-9.04037626574823,-2.63999693950285,1.54796843032844,-0.17195857,-0.24037547,-0.9642508,-7.6438484,-3.563569,-68.65037,SDL
9063309690000,2.440059,-9.16996012119397,-2.6495956786463,1.83113291390636,-0.009773844,-0.24923302,-0.8741482,-7.618478,-3.1931863,-68.804855,SDL
9063314671000,2.44504,-9.26669717501743,-2.69075832069927,2.08320022283096,0.11911872,-0.23335053,-0.7846564,-7.5575695,-2.8565364,-68.928215,SDL
9063319668000,2.450037,-9.3477352845901,-2.74796150184281,2.32154721743202,0.2275473,-0.20861048,-0.71959925,-7.4653134,-2.5567372,-69.04362,SDL
9063324655000,2.455024,-9.3906672143747,-2.80962209405846,2.50859113189267,0.34025195,-0.15882497,-0.6435465,-7.35472,-2.2957914,-69.12785,SDL
9063329679000,2.460048,-9.41372128394825,-2.87417363330139,2.66996966705319,0.4382958,-0.09407325,-0.57818395,-7.2244697,-2.0630083,-69.21804,SDL
9063334684000,2.465053,-9.43165002940309,-2.91791622166388,2.83044781752385,0.52381694,-0.023518313,-0.5323691,-7.080405,-1.8453925,-69.28822,SDL
9063339701000,2.47007,-9.44582481817288,-2.94626520716885,2.99109211805487,0.5815437,0.060170226,-0.4972443,-6.9230394,-1.6529119,-69.376366,SDL
9063344677000,2.475046,-9.403898286494,-3.01019177496279,3.15120742339982,0.6114761,0.15515977,-0.47678033,-6.7592974,-1.463256,-69.46055,SDL
9063349649000,2.480018,-9.31411907442691,-3.10469589190235,3.31186445180113,0.6081163,0.25503623,-0.47311515,-6.590913,-1.2839575,-69.56692,SDL
9063354666000,2.485035,-9.21258167500242,-3.21816450305321,3.46721248217505,0.5925393,0.32375857,-0.5039638,-6.4209704,-1.0979564,-69.66416,SDL
9063359689000,2.490058,-9.10067836861491,-3.34871795478337,3.61641646874091,0.56016344,0.36682457,-0.5345071,-6.256822,-0.9139648,-69.779274,SDL
9063364673000,2.495042,-8.96350514249001,-3.49383895059966,3.76532310833809,0.5109888,0.37293324,-0.5946773,-6.103925,-0.6953674,-69.86943,SDL
9063369889000,2.500258,-8.787582559585,-3.66500725823339,3.92222739861032,0.45570546,0.3594942,-0.6637051,-5.957437,-0.4660538,-69.96248,SDL
9063374614000,2.504983,-8.63383830594721,-3.80903397127107,4.06326357710166,0.37873647,0.33750305,-0.7333437,-5.835313,-0.1925056,-70.019165,SDL
9063379653000,2.510022,-8.48036381681332,-3.94204530202481,4.21162246360649,0.30604348,0.2941316,-0.7657196,-5.7236347,0.08959162,-70.06076,SDL
9063384614000,2.514983,-8.3684526720704,-4.0248448253358,4.28432813441408,0.2669481,0.2284636,-0.82711154,-5.62526,0.42621493,-70.04653,SDL
9063389741000,2.52011,-8.30022581417323,-4.05213533102362,4.27068276283465,0.2049453,0.1282817,-0.8741482,-5.550376,0.7708736,-70.00357,SDL
9063394648000,2.525017,-8.22946085680191,-4.06711372430217,4.22078797831275,0.1337795,0.03970624,-0.9108001,-5.4901967,1.1514887,-69.90542,SDL
9063400901000,2.53127,-8.12382395823389,-4.05468578136349,4.05301136505136,0.062002823,-0.047647487,-0.9483683,-5.4415317,1.543957,-69.772,SDL
9063404605000,2.534974,-8.05497574373801,-4.05989989877889,3.95320396683823,-0.040927973,-0.064446285,-0.9569204,-5.419907,1.9468182,-69.624916,SDL
9063409651000,2.54002,-7.9525623130992,-4.08428406105561,3.81665265808861,-0.07269296,-0.08979719,-0.9639453,-5.3942904,2.3518994,-69.4442,SDL
9063414570000,2.544939,-7.85999446023314,-4.10061161073954,3.69149020290464,-0.129198,-0.09010262,-0.9633345,-5.393595,2.7678292,-69.275795,SDL
9063419663000,2.550032,-7.7761091589528,-4.10527200257978,3.57498274269062,-0.16249016,-0.079107046,-0.9447031,-5.395773,3.1742744,-69.09884,SDL
9063424595000,2.554964,-7.70970704272009,-4.12290620344244,3.45873684737585,-0.19700404,-0.04550946,-0.91446525,-5.409151,3.586759,-68.93808,SDL
9063429677000,2.560046,-7.67766377082393,-4.17326016224605,3.33056332959932,-0.20219639,-0.025045475,-0.88697636,-5.4246693,3.9882278,-68.77273,SDL
9063434604000,2.564973,-7.66064946715852,-4.22097904889332,3.20982290733799,-0.17104226,-0.0018325958,-0.8564331,-5.436369,4.3783693,-68.62799,SDL
9063439741000,2.57011,-7.71460312719841,-4.26512313880359,3.10191522874377,-0.12308934,0.012217305,-0.81092364,-5.4489107,4.749264,-68.484764,SDL
9063444714000,2.575083,-7.77524778827215,-4.30256271389134,3.00381243054332,-0.07544186,0.03023783,-0.7715228,-5.449512,5.1171246,-68.363686,SDL
9063449644000,2.580013,-7.87230952209496,-4.31642868276065,2.93448258619677,-0.009468411,0.03573562,-0.7290677,-5.4373226,5.4590425,-68.242744,SDL
9063454650000,2.585019,-7.9730844138862,-4.33048776355719,2.86300646381846,0.051618114,0.048258353,-0.69913524,-5.409555,5.793523,-68.14534,SDL
9063459685000,2.590054,-8.08973606760209,-4.34448588209793,2.78368319117476,0.14782938,0.047647487,-0.65026605,-5.3614,6.095527,-68.04769,SDL
9063464704000,2.595073,-8.20296626052104,-4.3554894244489,2.70762619358717,0.21594086,0.058948494,-0.6068946,-5.303864,6.3835855,-67.97411,SDL
9063469667000,2.600036,-8.27553811756847,-4.32827528590514,2.67134059659319,0.30390546,0.06352998,-0.5589417,-5.221458,6.640405,-67.90103,SDL
9063475104000,2.605473,-8.352240053936,-4.297458292128,2.6318523139303,0.3817908,0.06047566,-0.5177083,-5.122847,6.880955,-67.85039,SDL
9063479676000,2.610045,-8.37302873953091,-4.25588092093818,2.60274798043871,0.4541783,0.057726767,-0.4999932,-5.005417,7.102177,-67.80172,SDL
9063485580000,2.615949,-8.40064934144899,-4.20200803586989,2.56637349085757,0.47403142,0.06261369,-0.43218717,-4.8861055,7.2866197,-67.774666,SDL
9063489768000,2.620137,-8.43425365529818,-4.16049680278955,2.56242007252341,0.54336464,0.076052725,-0.41874814,-4.7312207,7.4647617,-67.744865,SDL
9063494581000,2.62495,-8.47287293957615,-4.11279060297684,2.55787666219813,0.559858,0.06841691,-0.37782016,-4.5910954,7.6091337,-67.72916,SDL
9063499677000,2.630046,-8.51376300246427,-4.0622793222277,2.55306610349926,0.59406644,0.070554934,-0.3549127,-4.428063,7.7430897,-67.718834,SDL
9063504597000,2.634966,-8.55324084967965,-4.0135125441104,2.5484216865451,0.60903263,0.07971791,-0.33383787,-4.270657,7.8644342,-67.712036,SDL
9063509694000,2.640063,-8.57714253279425,-3.96441354681042,2.5590380410003,0.6200282,0.09560041,-0.31306845,-4.1061816,7.9758663,-67.70919,SDL
9063514611000,2.64498,-8.59594611859838,-3.91740443504043,2.57314090215633,0.6414085,0.102319926,-0.2941316,-3.9377728,8.077485,-67.70826,SDL
9063519687000,2.650056,-8.56175888930768,-3.88058732251537,2.5876253332077,0.66339964,0.11728613,-0.2751948,-3.7665107,8.150735,-67.72999,SDL
9063524641000,2.65501,-8.51470129438604,-3.84764700607022,2.60174261168419,0.67256266,0.12583824,-0.26725355,-3.594518,8.219601,-67.752525,SDL
9063529677000,2.660046,-8.46668990204285,-3.78402687471848,2.62740055877429,0.6826419,0.15027285,-0.24740042,-3.4171574,8.268317,-67.788284,SDL
9063534699000,2.665068,-8.41876295675137,-3.71213635669158,2.65615672594918,0.70432764,0.15485434,-0.23579398,-3.2349386,8.314042,-67.82091,SDL
9063539879000,2.670248,-8.37824444610058,-3.63248948400808,2.70764022447351,0.7049385,0.16218472,-0.22143865,-3.0565588,8.350061,-67.858925,SDL
9063544711000,2.67508,-8.34264405067795,-3.55684013064718,2.76103974888932,0.70371675,0.15699236,-0.21135938,-2.8743947,8.381497,-67.89557,SDL
9063549639000,2.680008,-8.30977489018825,-3.4960479306332,2.83711400938391,0.6924158,0.1328632,-0.19883664,-2.6958265,8.396681,-67.9276,SDL
9063555274000,2.685643,-8.27385993534893,-3.4344788855676,2.93459838431261,0.68416905,0.121256754,-0.1863139,-2.5186782,8.408735,-67.96273,SDL
9063559691000,2.69006,-8.25880922959875,-3.37112277258989,3.01001781903075,0.66767573,0.100792766,-0.17195857,-2.3517678,8.403462,-67.984634,SDL
9063564684000,2.695053,-8.24884196310578,-3.29138620177176,3.0947378669828,0.6404922,0.080634214,-0.16371189,-2.191652,8.398439,-68.00454,SDL
9063569655000,2.700024,-8.26780887777996,-3.24351228764023,3.17907005971266,0.6081163,0.062308256,-0.1469131,-2.0454333,8.378144,-68.009125,SDL
9063574697000,2.705066,-8.30107059752017,-3.21025081598111,3.26459968584924,0.5739079,0.055588737,-0.13164146,-1.9089493,8.359197,-68.01266,SDL
9063579680000,2.710049,-8.36463912975601,-3.09471154197439,3.395476143386,0.5366451,0.022602014,-0.12064589,-1.780662,8.324167,-67.99762,SDL
9063584684000,2.715053,-8.44527898504254,-2.93343229919604,3.55227550335608,0.52290064,-0.008552114,-0.10323623,-1.6588496,8.284956,-67.984184,SDL
9063589855000,2.720224,-8.51802702611465,-2.80992056082803,3.65159374089172,0.49632803,-0.03756821,-0.086437434,-1.5567482,8.239233,-67.95506,SDL
9063594804000,2.725173,-8.57840377537155,-2.72941840360934,3.69184476696391,0.46792278,-0.058948494,-0.057726767,-1.4633473,8.187959,-67.92355,SDL
9063600536000,2.730905,-8.63380753396712,-2.67434372955041,3.69494599584076,0.45448375,-0.09407325,-0.02107485,-1.3794471,8.092107,-67.87532,SDL
9063604681000,2.73505,-8.66918698484849,-2.64682635606061,3.68315281818182,0.44165558,-0.093767814,-0.0030543262,-1.3059266,7.9980817,-67.83229,SDL
9063609659000,2.740028,-8.70339077321966,-2.60491072129388,3.64304037348044,0.4456262,-0.10262536,0.028710667,-1.2391782,7.873518,-67.78714,SDL
9063614658000,2.745027,-8.73220196068205,-2.55689209223671,3.58541819911735,0.4529566,-0.108123146,0.0580322,-1.1784586,7.748111,-67.74453,SDL
9063619648000,2.750017,-8.77422909039984,-2.51559601068186,3.52362118559011,0.44990227,-0.12034045,0.084910266,-1.116366,7.609668,-67.70891,SDL
9063625312000,2.755681,-8.8318559414719,-2.47368525526367,3.45027725420128,0.46792278,-0.12339478,0.11362094,-1.0517472,7.4628325,-67.67701,SDL
9063629645000,2.760014,-8.86672124632904,-2.43841514595944,3.41328067965238,0.45814893,-0.11575896,0.1386664,-0.9946807,7.3058367,-67.66238,SDL
9063634666000,2.765035,-8.90034404105484,-2.3951861465488,3.3844613132754,0.45998153,-0.10903945,0.1685988,-0.9348254,7.1401467,-67.64906,SDL
9063639650000,2.770019,-8.91472810036856,-2.36353830362498,3.36336277581158,0.46211955,-0.10903945,0.19242255,-0.86208826,6.963556,-67.65571,SDL
9063644696000,2.775065,-8.91228827899227,-2.34158029337608,3.34872417873984,0.45875978,-0.11178834,0.20341812,-0.7934612,6.786575,-67.66364,SDL
9063649618000,2.779987,-8.90990841359116,-2.320161877513,3.33444530938052,0.4636467,-0.112704635,0.21838433,-0.72289646,6.595104,-67.68398,SDL
9063654589000,2.784958,-8.90750485590953,-2.29853023483617,3.3200242895542,0.462425,-0.10903945,0.2452624,-0.6584079,6.4025946,-67.70511,SDL
9063659594000,2.789963,-8.90643,-2.28228120220643,3.3109450541932,0.4569272,-0.11301007,0.26633725,-0.5958498,6.211664,-67.72298,SDL
9063664581000,2.79495,-8.90643,-2.27049399606101,3.30623008803988,0.44806966,-0.11453723,0.28619036,-0.53829414,6.0185246,-67.74286,SDL
9063669564000,2.799933,-8.90643,-2.25871624426181,3.30151890369219,0.43218717,-0.11881329,0.3118467,-0.4855117,5.814962,-67.76878,SDL
9063674590000,2.804959,-8.90643,-2.24683685824078,3.2967670649341,0.42119157,-0.11911872,0.32406402,-0.43537432,5.614476,-67.79385,SDL
9063679578000,2.809947,-8.89678786656627,-2.2313306162249,3.29683194594378,0.410196,-0.12095132,0.3454443,-0.37643686,5.408002,-67.8183,SDL
9063684601000,2.81497,-8.87746898493976,-2.21201163373494,3.30166169156626,0.38759398,-0.12950343,0.36163223,-0.32523602,5.206445,-67.83929,SDL
9063689587000,2.819956,-8.86083572402501,-2.19537822256624,3.32100213140816,0.37873647,-0.13316862,0.38759398,-0.2743011,4.994833,-67.86453,SDL
9063694587000,2.824956,-8.84658048933214,-2.18112278940161,3.35426490802818,0.3643811,-0.13775012,0.41416663,-0.23345853,4.7862096,-67.8861,SDL
9063699563000,2.829932,-8.82778833859822,-2.16233053859822,3.36871509195459,0.34147367,-0.1563815,0.4370741,-0.19895774,4.5734777,-67.90058,SDL
9063704628000,2.834997,-8.80384633859822,-2.13838853859822,3.36392674195459,0.33383787,-0.16493362,0.45906523,-0.16767652,4.3584523,-67.9159,SDL
9063709524000,2.839893,-8.78942076821824,-2.13440395268981,3.35310652550553,0.33444872,-0.17501289,0.48258355,-0.14726326,4.1401887,-67.917694,SDL
9063714584000,2.844953,-8.78479852289203,-2.15289254788249,3.33461788204884,0.33628133,-0.18967366,0.51068336,-0.13212721,3.920212,-67.91504,SDL
9063719528000,2.849897,-8.77310045343137,-2.16259209068627,3.31785303517157,0.33261612,-0.19792034,0.5305365,-0.11046095,3.697118,-67.90982,SDL
9063724587000,2.854956,-8.74836136478758,-2.15764427295752,3.30300947865605,0.33933565,-0.2049453,0.54702985,-0.08898381,3.4709501,-67.89986,SDL
9063729506000,2.859875,-8.73030880282242,-2.15291204045472,3.30003011767934,0.3454443,-0.21013765,0.57696223,-0.07134934,3.245382,-67.89015,SDL
9063734600000,2.864969,-8.72074681967856,-2.14813114872599,3.31437289270874,0.35033122,-0.2134974,0.59956425,-0.053933658,3.0214953,-67.877304,SDL
9063739524000,2.869893,-8.7030847118611,-2.14857891252439,3.34002256262193,0.36346483,-0.21655174,0.6236934,-0.036161456,2.7920148,-67.8633,SDL
9063744679000,2.875048,-8.66937658320328,-2.15820989262583,3.38817746312915,0.38087448,-0.20433442,0.6417139,-0.018346759,2.5619767,-67.85122,SDL
9063749598000,2.879967,-8.64333689292617,-2.15682504553537,3.44152009485891,0.38820487,-0.19150625,0.6627888,-0.0052816668,2.328417,-67.8337,SDL
9063754691000,2.88506,-8.62919628768844,-2.13325786231156,3.51222174296482,0.39828414,-0.1957823,0.68111473,0.010836787,2.0935657,-67.81316,SDL
9063759616000,2.889985,-8.61323467943128,-2.10351347014218,3.58260268993365,0.41141775,-0.17898351,0.6960809,0.035718177,1.8565389,-67.78818,SDL
9063764682000,2.895051,-8.59024128189573,-2.05292789952607,3.6607802415545,0.4129449,-0.17165314,0.7141015,0.05695168,1.6189556,-67.75791,SDL
9063769650000,2.900019,-8.57308016641304,-1.99495352404889,3.73567153959059,0.4184427,-0.16584991,0.72692966,0.07164874,1.3771236,-67.71441,SDL
9063774716000,2.905085,-8.58498828795837,-1.8901619798439,3.80235706998184,0.42210788,-0.16584991,0.74220127,0.08301877,1.1349839,-67.66987,SDL
9063779673000,2.910042,-8.59664019449217,-1.78762512934564,3.86760779523833,0.41355577,-0.16829337,0.75747293,0.08803594,0.8815654,-67.606514,SDL
9063784723000,2.915092,-8.60851070649453,-1.68316454935447,3.93408271203181,0.40683624,-0.16920967,0.77274454,0.0915632,0.6288481,-67.541954,SDL
9063789654000,2.920023,-8.62573942823036,-1.57537291226306,3.99985428265085,0.40286562,-0.17806722,0.7831292,0.09213439,0.3780929,-67.47289,SDL
9063794784000,2.925153,-8.70749096274056,-1.3976525578281,4.07805133806974,0.37110063,-0.19120082,0.8136725,0.07855829,0.1270123,-67.40086,SDL
9063800907000,2.931276,-8.8050669170887,-1.18553136285632,4.1713847825785,0.3585779,-0.20677789,0.8338311,0.054043245,-0.16557816,-67.298965,SDL
9063804669000,2.935038,-8.85739034390244,-1.09291221197561,4.20108838060976,0.3390302,-0.21930063,0.84391034,0.015664896,-0.45293653,-67.1921,SDL
9063809668000,2.940037,-8.91334104176829,-1.03696137694207,4.1913576797815,0.32986724,-0.24740042,0.870483,-0.028597025,-0.74341804,-67.074196,SDL
9063814633000,2.945002,-8.96891119878049,-0.981391083695122,4.18169316095528,0.31123585,-0.27091873,0.8866709,-0.084137894,-1.078075,-66.93995,SDL
9063819658000,2.950027,-9.02515289847561,-0.925149246118902,4.17191185036077,0.29443705,-0.29138273,0.9108001,-0.14681084,-1.4131972,-66.79563,SDL
9063824589000,2.954958,-9.07225418340789,-0.869051434575031,4.17490726226108,0.2764165,-0.30970868,0.93126404,-0.21536432,-1.7424897,-66.64294,SDL
9063829685000,2.960054,-9.1069863558357,-0.809510891736478,4.19971596425376,0.24709499,-0.3109304,0.9560041,-0.29559943,-2.0684838,-66.4869,SDL
9063834610000,2.964979,-9.14018400851064,-0.756454052419594,4.20801488223652,0.22418754,-0.3210097,0.9807441,-0.3685232,-2.417075,-66.334816,SDL
9063839718000,2.970087,-9.17407069787234,-0.708044012360218,4.19349208758041,0.19547687,-0.3231477,0.9981538,-0.4533667,-2.7580488,-66.18205,SDL
9063844775000,2.975144,-9.1996451356532,-0.664190588432124,4.1791538643468,0.1704314,-0.32650748,1.0219775,-0.5452235,-3.1108341,-66.02026,SDL
9063849645000,2.980014,-9.21339918755529,-0.627513853919198,4.16539981244471,0.15210545,-0.31978795,1.0522153,-0.6460551,-3.459026,-65.857895,SDL
9063854595000,2.984964,-9.21275139463713,-0.582292753086564,4.16442871058001,0.1432479,-0.31795537,1.0778717,-0.74646693,-3.8144264,-65.69604,SDL
9063859682000,2.990051,-9.18435305528029,-0.520763187495385,4.18809410869523,0.1469131,-0.32925636,1.099252,-0.85158014,-4.167526,-65.52928,SDL
9063864604000,2.994973,-9.16221963258786,-0.448212926277955,4.22231641022364,0.13897185,-0.32162055,1.1267409,-0.9550161,-4.5292244,-65.36846,SDL
9063869619000,2.999988,-9.15262924620607,-0.342720804048522,4.28465261988818,0.14019357,-0.32467487,1.146594,-1.0568372,-4.887515,-65.19887,SDL
9063874615000,3.004984,-9.14190234564394,-0.243148421748106,4.31950545077651,0.13072516,-0.3231477,1.1591167,-1.1708832,-5.2534904,-65.01987,SDL
9063880109000,3.010478,-9.12695512784091,-0.148481318153409,4.28462801960227,0.13041973,-0.31612277,1.1795808,-1.2854778,-5.619217,-64.838295,SDL
9063884709000,3.015078,-9.10540782514227,-0.0735031058670461,4.25875100724263,0.13500121,-0.31031954,1.2018774,-1.4117451,-6.00519,-64.63549,SDL
9063889646000,3.020015,-9.04670426445939,-0.00990775870522505,4.24407537247801,0.15760323,-0.2959642,1.219287,-1.535179,-6.388195,-64.43459,SDL
9063894657000,3.025026,-8.97644919498479,0.0450243230925602,4.23406849191481,0.16432275,-0.2742785,1.2428054,-1.6539959,-6.790052,-64.23582,SDL
9063899680000,3.030049,-8.87444899972343,0.0716331351374574,4.23850319845118,0.16982053,-0.24281894,1.258077,-1.7682719,-7.187373,-64.04137,SDL
9063904660000,3.035029,-8.77197513986889,0.0953616620263224,4.24557361108943,0.17592919,-0.22571471,1.2684617,-1.8845674,-7.597887,-63.839302,SDL
9063909695000,3.040064,-8.65373742581194,0.0905356385889006,4.28176874277636,0.17073683,-0.22052236,1.2867876,-2.0049775,-8.004105,-63.638878,SDL
9063914707000,3.045076,-8.53603982445078,0.0857316605415603,4.3177985342391,0.17165314,-0.21746802,1.2999213,-2.129241,-8.414007,-63.42548,SDL
9063919656000,3.050025,-8.41982166221288,0.0809880676931392,4.35337543726167,0.17104226,-0.21166481,1.3106114,-2.2569928,-8.817755,-63.211544,SDL
9063924716000,3.055085,-8.31020949297521,0.0795646647915289,4.39256962339876,0.16523905,-0.20525073,1.3228287,-2.3849466,-9.216341,-62.996033,SDL
9063929681000,3.06005,-8.28564915619835,0.109037092517769,4.45642655030992,0.15241088,-0.21319197,1.3252722,-2.514721,-9.605121,-62.77748,SDL
9063934735000,3.065104,-8.2718705963808,0.137224870802518,4.5240617018096,0.15577064,-0.23426682,1.3307699,-2.6744246,-9.993903,-62.513706,SDL
9063939790000,3.070159,-8.31472076947286,0.156269225356019,4.60500036526357,0.15668693,-0.25137106,1.3261884,-2.8369634,-10.370233,-62.25037,SDL
9063944645000,3.075014,-8.35799373395748,0.174002003397698,4.66808369758143,0.14202617,-0.26419923,1.3240504,-3.0151894,-10.74609,-61.9643,SDL
9063950209000,3.080578,-8.4255485293544,0.189591632506339,4.61611803208504,0.13744467,-0.25045475,1.3176364,-3.18923,-11.112536,-61.683445,SDL
9063954710000,3.085079,-8.47325874331021,0.200374510437066,4.56848313913776,0.1441642,-0.23701571,1.3115277,-3.375214,-11.473171,-61.38716,SDL
9063959686000,3.090055,-8.44492168087215,0.190928686516353,4.45041045109019,0.15241088,-0.19608775,1.2855659,334.08447,-11.818459,-61.107376,SDL
9063964786000,3.095155,-8.41191283986051,0.182280440515021,4.33155026241953,0.17715092,-0.1469131,1.2678508,333.46088,-12.164483,-60.850956,SDL
9063969655000,3.100024,-8.33269537660944,0.18644973944206,4.24399476727468,0.2302962,-0.12064589,1.2492194,332.86786,-12.5006895,-60.604626,SDL
9063974613000,3.104982,-8.25202990468527,0.190695248597997,4.15483885334406,0.27152961,-0.074830994,1.2342533,332.2748,-12.831883,-60.400772,SDL
9063979681000,3.11005,-8.24737288071935,0.244362095556145,4.14661363900005,0.2941316,-0.03268129,1.2009611,331.7133,-13.1509495,-60.208652,SDL
9063984618000,3.114987,-8.26105037732028,0.308190238471144,4.158011679784,0.31887165,-0.0070249503,1.171945,331.167,-13.465919,-60.0265,SDL
9063989704000,3.120073,-8.27514066448098,0.373944732063546,4.16975371653247,0.35277468,0.01282817,1.1395692,330.62805,-13.7792,-59.86693,SDL
9063994580000,3.124949,-8.28864916628899,0.436984234768333,4.18101092675377,0.35002577,0.018325957,1.108415,330.1156,-14.0773115,-59.714527,SDL
9064000891000,3.13126,-8.25840214065801,0.57818995188852,4.16311965253044,0.34574974,0.037873644,1.0708468,329.62524,-14.366339,-59.575188,SDL
9064004643000,3.135012,-8.22948014367643,0.675802265505584,4.14504304578931,0.34330627,0.05222898,1.0619892,329.14975,-14.648574,-59.436882,SDL
9064009691000,3.14006,-8.12147488867431,0.892658191892979,4.163504562241,0.35246924,0.10781772,1.044885,328.6578,-14.940095,-59.308346,SDL
9064014651000,3.14502,-7.98291852094146,1.14588200681955,4.20172714441762,0.37965274,0.15149458,1.03786,328.17807,-15.227804,-59.18076,SDL
9064020161000,3.15053,-7.89831122313139,1.46728586585366,4.41067344453186,0.40103304,0.17623462,1.0387764,327.66217,-15.538628,-59.051395,SDL
9064024667000,3.155036,-7.85162719301731,1.74314648292683,4.63560606904013,0.3912592,0.18753563,1.0320568,327.15897,-15.838658,-58.931526,SDL
9064029679000,3.160048,-7.86798880348494,1.99117816958063,4.86111497147076,0.35033122,0.20708331,1.022283,326.58768,-16.18744,-58.770916,SDL
9064034777000,3.165146,-7.92085819515653,2.21226866318173,5.07739920236267,0.3032946,0.24953845,0.9868528,326.03833,-16.518225,-58.623806,SDL
9064039696000,3.170065,-7.94845982691204,2.24242093613902,5.13993925939102,0.24770586,0.30695978,0.92149025,325.439,-16.890425,-58.400543,SDL
9064044695000,3.175064,-7.96318432657371,2.16879823282756,5.12030626858725,0.22388211,0.38759398,0.82924956,324.86792,-17.23572,-58.204918,SDL
9064049641000,3.18001,-7.94030339222446,1.9520069691851,4.90548368221775,0.26358834,0.4636467,0.7134906,324.29535,-17.592455,-57.978004,SDL
9064054675000,3.185044,-7.8987554180791,1.66117028248588,4.59156483050847,0.3662137,0.5332854,0.57879484,323.76794,-17.917027,-57.789852,SDL
9064059685000,3.190054,-7.74271044752609,1.42466854677232,4.14118049734248,0.5271767,0.6252206,0.44898596,323.28635,-18.205517,-57.657097,SDL
9064064679000,3.195048,-7.50699779793197,1.22593031878624,3.59580601711442,0.7244862,0.7122689,0.3277292,322.85178,-18.473452,-57.561977,SDL
9064069664000,3.200033,-7.18298082352941,1.38244021176471,3.18813783333333,0.92087936,0.7309003,0.23671028,322.5028,-18.684254,-57.575783,SDL
9064074679000,3.205048,-6.77353765776854,1.87377201067775,2.90664551992754,1.0115929,0.7467828,0.2012801,322.1619,-18.8856,-57.618065,SDL
9064079673000,3.210042,-6.52966743749379,2.28400507203617,2.81209701526384,1.1414018,0.7012733,0.11484267,321.87775,-19.067293,-57.76801,SDL
9064084751000,3.21512,-6.37502232927556,2.65611963029912,2.82176237237404,1.1685852,0.6227771,0.019547688,321.62173,-19.230848,-57.918156,SDL
9064089752000,3.220121,-6.26277023355432,2.93013227018603,2.85869202582624,1.1404854,0.53786683,-0.084910266,321.25232,-19.504238,-58.01248,SDL
9064094691000,3.22506,-6.17384325998417,3.15010978810608,2.91017618919454,1.0732902,0.49266282,-0.18295415,320.93835,-19.746014,-58.1111,SDL
9064099679000,3.230048,-6.12152273913043,3.43201289951691,2.90468724830918,0.9932669,0.46273044,-0.26633725,320.55658,-20.060709,-58.126865,SDL
9064104678000,3.235047,-6.0932027609583,3.75296959645075,2.86220767533274,0.92271197,0.46731192,-0.31673363,320.21362,-20.342886,-58.151325,SDL
9064109683000,3.240052,-6.25094982229236,4.03560845315099,2.76086360305581,0.8481864,0.4822781,-0.36987892,319.84055,-20.656391,-58.12303,SDL
9064114687000,3.245056,-6.54383282427612,4.29008032799319,2.61682280377718,0.7819075,0.49449542,-0.41386122,319.49445,-20.941849,-58.10394,SDL
9064119665000,3.250034,-7.10182328969769,4.44270502891806,2.47691490043755,0.7302894,0.5360342,-0.4615087,319.0184,-21.30975,-58.038498,SDL
9064124692000,3.255061,-7.85824046880469,4.52409168901154,2.33807886850636,0.6545421,0.58459806,-0.5311473,318.57883,-21.635834,-57.99275,SDL
9064129678000,3.260047,-8.73875896146789,4.58762525012071,2.34797960685659,0.593761,0.59773165,-0.57818395,318.06848,-21.990059,-57.974365,SDL
9064134674000,3.265043,-9.71831413944954,4.63845128778368,2.46811374611299,0.49357912,0.571159,-0.5992588,317.59125,-22.304094,-57.967766,SDL
9064139695000,3.270064,-10.7907294536629,4.64941898528823,2.82041081489191,0.39278635,0.4615087,-0.56107974,317.1663,-22.53409,-58.079548,SDL
9064144682000,3.275051,-11.9426560806645,4.62074024159327,3.39876386565252,0.2959642,0.3155119,-0.5183192,316.7842,-22.738775,-58.17741,SDL
9064149640000,3.280009,-12.51229004,4.555878472,3.804290776,0.20005837,0.15699236,-0.47036624,316.5114,-22.84486,-58.356728,SDL
9064154680000,3.285049,-12.5029175972816,4.45278370617476,4.04328336784466,0.10567969,0.04520403,-0.42455134,316.27185,-22.945353,-58.500587,SDL
9064159587000,3.289956,-12.4338674903619,4.37978796427026,4.20742071313926,0.06658431,-0.057421334,-0.38423425,316.21927,-22.939745,-58.66258,SDL
9064164655000,3.295024,-12.2811207216758,4.34160137178403,4.28379399779701,0.05222898,-0.1386664,-0.35124752,316.19537,-22.93567,-58.79185,SDL
9064169584000,3.299953,-12.1401386174254,4.33557661948116,4.30680121836515,0.046731193,-0.15577064,-0.33261612,316.24423,-22.91031,-58.880768,SDL
9064174629000,3.304998,-12.0077037867841,4.37814476387665,4.25004346202643,0.0290161,-0.17806722,-0.30634892,316.31598,-22.892906,-58.941597,SDL
9064179577000,3.309946,-11.8611117117188,4.41675434585843,4.16973355476355,-0.029932396,-0.16768251,-0.27305678,316.39032,-22.878572,-58.975246,SDL
9064184630000,3.314999,-11.6795658874519,4.45019708434199,4.04074022754467,-0.124005646,-0.1386664,-0.24312437,316.4581,-22.864635,-59.002228,SDL
9064189619000,3.319988,-11.4805001596696,4.46465246010225,3.90892372838462,-0.23915374,-0.0729984,-0.21197024,316.46472,-22.871159,-59.01597,SDL
9064194652000,3.325021,-11.2388122436339,4.44095762458952,3.76675461634058,-0.37843102,-0.016187929,-0.18020524,316.45294,-22.872765,-59.026463,SDL
9064200568000,3.330937,-10.9578232955801,4.4053020214825,3.61036885316759,-0.5002986,0.03573562,-0.12370021,316.36566,-22.899494,-59.02821,SDL
9064205130000,3.335499,-10.7446065055249,4.3690954102302,3.50174880937385,-0.6038403,0.03604105,-0.106901415,316.2819,-22.910633,-59.031956,SDL
9064209631000,3.34,-10.5258744660078,4.33058778668264,3.39333883801537,-0.61727935,0.030543262,-0.07544186,316.13034,-22.951546,-59.02356,SDL
9064214641000,3.34501,-10.2241146187481,4.2683198435859,3.26401326778477,-0.5876524,0.0076358155,-0.030848695,315.97885,-22.993275,-59.00484,SDL
9064219610000,3.349979,-9.92327917324818,4.2047703824593,3.13773394598363,-0.5311473,-0.037873644,0.013133603,315.81042,-23.057423,-58.967583,SDL
9064224739000,3.355108,-9.60073533921022,4.12523900210488,3.02285532648196,-0.4156938,-0.09193522,0.058643065,315.64307,-23.141647,-58.914482,SDL
9064229571000,3.35994,-9.29686873634973,4.05031296781506,2.91462887114329,-0.2837469,-0.16310102,0.11148291,315.4743,-23.258394,-58.83083,SDL
9064234696000,3.365065,-8.96366019171473,3.89971282674358,2.81949533613005,-0.15821409,-0.21960606,0.15760323,315.31317,-23.394444,-58.732586,SDL
9064240096000,3.370465,-8.61460590432802,3.72440843721898,2.72662802285827,-0.023518313,-0.28130344,0.19394971,315.17398,-23.553679,-58.61268,SDL
9064244693000,3.375062,-8.35299576537585,3.50204002398732,2.69610684756858,0.071776666,-0.3368922,0.22937989,315.0277,-23.743269,-58.46501,SDL
9064249978000,3.380347,-8.05349856158537,3.24398552704268,2.66333041829268,0.12522738,-0.37659842,0.26267207,314.89563,-23.94833,-58.299347,SDL
9064254673000,3.385042,-7.81588861951219,2.9606814497561,2.6861775097561,0.16065755,-0.42332962,0.2837469,314.78662,-24.163681,-58.120518,SDL
9064260062000,3.390431,-7.55157587844669,2.63650020087316,2.71767857325368,0.15118915,-0.43127087,0.29168814,314.71106,-24.357767,-57.94726,SDL
9064264681000,3.39505,-7.40520940551471,2.36816122139706,2.79492769720588,0.11148291,-0.42363504,0.30543262,314.6421,-24.556099,-57.765945,SDL
9064269630000,3.399999,-7.24838592109375,2.08065102234375,2.8776958103125,0.029626964,-0.42088616,0.30757064,314.63885,-24.707838,-57.597145,SDL
9064275289000,3.405658,-7.19331104113873,1.80947118500401,3.07620547377707,-0.023518313,-0.39522982,0.2959642,314.62335,-24.855906,-57.436886,SDL
9064279623000,3.409992,-7.16834761820369,1.60976367119086,3.24262833678829,-0.17195857,-0.39003745,0.2959642,314.61096,-24.986458,-57.27334,SDL
9064284679000,3.415048,-7.2227567541225,1.44407868056537,3.42946121319199,-0.22082779,-0.38087448,0.28313604,314.66455,-25.066101,-57.135757,SDL
9064289642000,3.420011,-7.29273558997841,1.29479029605418,3.6114065079309,-0.29565877,-0.3567453,0.2770274,314.7058,-25.12759,-57.002384,SDL
9064294684000,3.425053,-7.38332015074184,1.20316521961424,3.71354754771513,-0.35888332,-0.310625,0.24923302,314.8137,-25.130116,-56.888386,SDL
9064299577000,3.429946,-7.47601902789317,1.12900606949555,3.79234169008902,-0.39187005,-0.25686884,0.22907446,314.90506,-25.127462,-56.781227,SDL
9064304691000,3.43506,-7.61710083262006,1.13312109078,3.81527110868751,-0.39675698,-0.1957823,0.2012801,315.0396,-25.07722,-56.694782,SDL
9064309609000,3.439978,-7.76572132803471,1.1609874457943,3.81991549310719,-0.38331795,-0.13500121,0.1740966,315.1557,-25.020138,-56.623062,SDL
9064314682000,3.445051,-7.90789911487482,1.21622632847324,3.81228377938144,-0.36468655,-0.07971791,0.15088372,315.28104,-24.936422,-56.57572,SDL
9064319588000,3.449957,-8.04167742574374,1.278502374757,3.80075113896907,-0.33322698,-0.038789943,0.1328632,315.3924,-24.850443,-56.541763,SDL
9064324669000,3.455038,-8.18022769022091,1.34299984543937,3.78880712226804,-0.3051272,-0.014660766,0.10720685,315.4947,-24.754042,-56.53367,SDL
9064329663000,3.460032,-8.31640561204713,1.40639295084929,3.77706761835052,-0.27000242,-0.0018325958,0.09254608,315.58563,-24.661234,-56.53219,SDL
9064334678000,3.465047,-8.44977869077013,1.46199726895944,3.73183552463257,-0.21563543,-0.003970624,0.0842994,315.6776,-24.569962,-56.536037,SDL
9064339843000,3.470212,-8.58548266392318,1.51530957304527,3.66883001454047,-0.18478674,-0.023823744,0.06841691,315.77734,-24.475412,-56.54313,SDL
9064345176000,3.475545,-8.69342302606128,1.57543582170416,3.59482984471139,-0.16157386,-0.040011674,0.06505715,315.851,-24.394129,-56.566883,SDL
9064349646000,3.480015,-8.77186622467678,1.62773145430113,3.5294602698361,-0.12003502,-0.058337633,0.06811147,315.93484,-24.317408,-56.58776,SDL
9064354683000,3.485052,-8.84940847805267,1.69875581053472,3.48256024357542,-0.09682214,-0.084910266,0.07788532,316.01138,-24.24922,-56.616627,SDL
9064359684000,3.490053,-8.92107683918595,1.77520216219074,3.44911500837989,-0.06994407,-0.100792766,0.07513642,316.09277,-24.185009,-56.64533,SDL
9064364678000,3.495047,-8.95755537470597,1.8581219846354,3.44928959003053,-0.05681047,-0.11636983,0.08368854,316.15607,-24.135496,-56.67577,SDL
9064369670000,3.500039,-8.97669666292978,1.94425718203293,3.46603808606176,-0.0720821,-0.13194689,0.09040806,316.22595,-24.085592,-56.703506,SDL
9064374667000,3.505036,-8.99585712311696,2.03047865266503,3.48280335742956,-0.07666359,-0.13958271,0.08979719,316.2771,-24.050156,-56.731823,SDL
9064379679000,3.510048,-9.01507509919423,2.11695894300085,3.49961895480707,-0.106595986,-0.15027285,0.08277224,316.3345,-24.010824,-56.75602,SDL
9064384681000,3.51505,-9.00688923543668,2.18859306348622,3.54849955409748,-0.14660765,-0.15027285,0.079107046,316.39215,-23.971039,-56.779797,SDL
9064389682000,3.520051,-8.98539494551656,2.25307588835832,3.61298251363432,-0.20158553,-0.14294247,0.064751714,316.45624,-23.922205,-56.806255,SDL
9064394685000,3.525054,-8.97567092752426,2.28445093696056,3.67299509671691,-0.24709499,-0.12370021,0.05955936,316.4837,-23.89963,-56.81261,SDL
9064399577000,3.529946,-8.98050787610985,2.27477724181293,3.72620042002891,-0.2919936,-0.1020145,0.045814894,316.51465,-23.865398,-56.825436,SDL
9064404672000,3.535041,-8.94332419833948,2.28211583431734,3.76403838745387,-0.32406402,-0.082161374,0.02565634,316.53815,-23.839014,-56.821915,SDL
9064409687000,3.540056,-8.86455795858959,2.30673025211152,3.78372992168922,-0.35185838,-0.07666359,0.037873644,316.55142,-23.81344,-56.81572,SDL
9064414772000,3.545141,-8.86520560660928,2.26858597722371,3.82236060480855,-0.36468655,-0.064751714,0.030543262,316.5771,-23.772491,-56.817566,SDL
9064419667000,3.550036,-8.92550220401702,2.18509816100722,3.8733810634016,-0.36957347,-0.056505036,0.028405234,316.59494,-23.734644,-56.815834,SDL
9064424776000,3.555145,-9.05524901658537,2.07532678019512,3.88999618458537,-0.38026363,-0.06994407,0.01160644,316.6186,-23.696335,-56.804253,SDL
9064429687000,3.560056,-9.23419914887805,1.95143834869268,3.87623081927805,-0.38240165,-0.07819075,-0.009468411,316.63852,-23.6575,-56.796497,SDL
9064434655000,3.565024,-9.33009019283446,1.83190739099841,3.90095198541088,-0.38545597,-0.089491755,0.016493361,316.6807,-23.603844,-56.78986,SDL
9064439646000,3.570015,-9.33483402044462,1.71805785643112,3.9673640859468,-0.39706242,-0.105374254,0.030848695,316.73755,-23.54179,-56.787083,SDL
9064444598000,3.574967,-9.36093323890314,1.64394419899388,4.01594842335766,-0.38789943,-0.10781772,0.025961773,316.81775,-23.450722,-56.820038,SDL
9064449643000,3.580012,-9.41335635243638,1.61534977795423,4.04454289416058,-0.40469822,-0.110872045,0.024129177,316.8958,-23.361763,-56.84509,SDL
9064454606000,3.584975,-9.39320621499128,1.63894720389309,4.08830040650784,-0.4196644,-0.11881329,-0.0009162979,317.01645,-23.247093,-56.87755,SDL
9064459674000,3.590043,-9.27569840674027,1.73295315601395,4.15410470060043,-0.43096542,-0.108123146,0.01985312,317.1124,-23.144703,-56.902798,SDL
9064464570000,3.594939,-9.20498320452756,1.76410815137795,4.21136329606299,-0.4334089,-0.099265605,0.039095376,317.23114,-23.02783,-56.935574,SDL
9064469660000,3.600029,-9.20978113070866,1.68734283543307,4.25934155590551,-0.43371433,-0.09743301,0.07849618,317.3305,-22.923082,-56.95936,SDL
9064474602000,3.604971,-9.16995931590414,1.63295077082591,4.31382523772034,-0.42913285,-0.08857546,0.08002335,317.41306,-22.83691,-56.95737,SDL
9064479684000,3.610053,-9.03741765577342,1.61849168062983,4.38612066353733,-0.41416663,-0.07422013,0.0571159,317.48492,-22.75744,-56.95341,SDL
9064484602000,3.614971,-8.90915321568627,1.60449919625668,4.45608306105169,-0.40653083,-0.08093964,0.06688975,317.56763,-22.672792,-56.94231,SDL
9064489707000,3.620076,-8.77601170152505,1.5899746674391,4.52870567986235,-0.39645153,-0.10323623,0.09132435,317.65094,-22.58998,-56.932014,SDL
9064494610000,3.624979,-8.65819609934902,1.56479074004006,4.58470547516274,-0.37568212,-0.13683382,0.105374254,317.73834,-22.510996,-56.91764,SDL
9064499686000,3.630055,-8.56082637115674,1.51123733869805,4.60904790721082,-0.37232238,-0.183565,0.11362094,317.82904,-22.437544,-56.89194,SDL
9064504633000,3.635002,-8.45319358708835,1.47215502287527,4.62693408856237,-0.35705075,-0.22510384,0.11728613,317.93875,-22.377686,-56.81385,SDL
9064509693000,3.640062,-8.3130477787107,1.46311339436515,4.63145490281743,-0.34972036,-0.23915374,0.092240654,318.05908,-22.312866,-56.736572,SDL
9064514620000,3.644989,-8.19134596851006,1.45069678617941,4.62308532357858,-0.3491095,-0.2574797,0.087659165,318.19962,-22.248705,-56.639744,SDL
9064519682000,3.650051,-8.14894157138692,1.41771551188648,4.54298794315288,-0.36285394,-0.26450464,0.11362094,318.334,-22.186033,-56.54208,SDL
9064524648000,3.655017,-8.11356631743215,1.38360868016701,4.46834604413361,-0.3747658,-0.2507602,0.113926366,318.46936,-22.122599,-56.4364,SDL
9064530359000,3.660728,-8.13640256764092,1.3265177565762,4.42267330526096,-0.37965274,-0.22724187,0.10751228,318.59158,-22.06391,-56.32865,SDL
9064534679000,3.665048,-8.15160676425093,1.29112426307648,4.390520125666,-0.37659842,-0.19608775,0.11362094,318.69977,-22.006184,-56.234936,SDL
9064539781000,3.67015,-8.16093777809606,1.28179339537859,4.36252771743531,-0.38148534,-0.15851954,0.1151481,318.79767,-21.944813,-56.150505,SDL
9064544624000,3.674993,-8.17064121481924,1.26965224173887,4.33504314490589,-0.39706242,-0.13775012,0.12003502,318.89017,-21.876942,-56.080677,SDL
9064549645000,3.680014,-8.18979662234837,1.22176347289115,4.29673202981775,-0.38912117,-0.0983493,0.116675265,318.96277,-21.810743,-56.024563,SDL
9064554666000,3.685035,-8.2090577893943,1.17833280964883,4.26071522587792,-0.37873647,-0.06505715,0.12614368,319.018,-21.74568,-55.975662,SDL
9064559684000,3.690053,-8.22944461183125,1.1828632251473,4.24938918713175,-0.36835176,-0.040011674,0.12186762,319.06686,-21.678373,-55.93688,SDL
9064564851000,3.69522,-8.25043678232383,1.18752816274806,4.23772684312986,-0.33322698,-0.023823744,0.12675454,319.10535,-21.612804,-55.912514,SDL
9064569666000,3.700035,-8.26999886881923,1.19187530316757,4.22685899208108,-0.3115413,-0.016187929,0.12705997,319.13992,-21.545818,-55.8932,LYI
9064574709000,3.705078,-8.2904872597219,1.19642828948857,4.21547652627858,-0.30634892,-0.007941248,0.122783914,319.17645,-21.480667,-55.878384,LYI
9064579679000,3.710048,-8.30484706647372,1.2273217794697,4.22135037764915,-0.2761111,-0.0021380284,0.12003502,319.20908,-21.423212,-55.864178,LYI
9064584654000,3.715023,-8.31819191989544,1.26290731209971,4.23024694659696,-0.2648101,-0.012217305,0.11148291,319.2467,-21.362507,-55.849983,LYI
9064589703000,3.720072,-8.30583849293047,1.29668444416037,4.25263673995739,-0.24953845,-0.01863139,0.11026118,319.27652,-21.309568,-55.84363,LYI
9064594658000,3.725027,-8.28286103602557,1.3288529318129,4.28020959227193,-0.2415972,-0.020463986,0.1142318,319.30817,-21.257362,-55.836475,LYI
9064601723000,3.732092,-8.27688564761905,1.35337729266818,4.30555872483749,-0.22937989,-0.018936822,0.112399206,319.3354,-21.212736,-55.826237,LYI
9064604725000,3.735094,-8.27833423174603,1.36062081839254,4.31425094057949,-0.22266038,-0.0143553335,0.106595986,319.3611,-21.169298,-55.816162,LYI
9064609672000,3.740041,-8.28072135555556,1.3725574345679,4.32857485506173,-0.22327125,-0.02107485,0.103847094,319.38318,-21.134275,-55.79321,LYI
9064614755000,3.745124,-8.2831741047619,1.38482220513983,4.34329255413454,-0.21991149,-0.01985312,0.09315695,319.40555,-21.097868,-55.77559,LYI
9064619690000,3.750059,-8.27759990204202,1.39180561515241,4.37321948591299,-0.22327125,-0.007941248,0.09315695,319.42242,-21.063192,-55.75747,LYI
9064624674000,3.755043,-8.26818305761073,1.3965141357009,4.41088804363224,-0.22876903,-0.00030543262,0.08857546,319.44525,-21.02553,-55.741524,LYI
9064629689000,3.760058,-8.27107508855071,1.39506809003166,4.44964980967215,-0.23182335,0.003970624,0.082161374,319.4597,-20.990894,-55.72192,LYI
9064634721000,3.76509,-8.28091860770095,1.39014622766827,4.48902506833827,-0.23518312,0.013133603,0.071776666,319.47253,-20.95401,-55.70669,LYI
9064639649000,3.770018,-8.28998346927166,1.37654431399795,4.52830757507227,-0.22968534,0.018020526,0.06872234,319.48752,-20.919285,-55.683796,LYI
9064644643000,3.775012,-8.29890402098293,1.3587035831577,4.56844926603562,-0.23701571,0.023518313,0.06963864,319.50085,-20.881523,-55.66429,LYI
9064649607000,3.779976,-8.30439055148125,1.33603501866584,4.61587988980733,-0.2406809,0.03848451,0.06719518,319.51575,-20.841473,-55.645027,LYI
9064654562000,3.784931,-8.30684829101927,1.30900042266936,4.66994913312617,-0.23762658,0.040011674,0.067500606,319.532731862778,-20.8003133961156,-55.6229466098912,LYI
9064664590000,3.794959,-8.31182229951316,1.25428741991403,4.77937524251088,-0.2321288,0.033292156,0.06505715,319.5671,-20.717014,-55.57826,LYI
9064669724000,3.800093,-8.3094039573601,1.22540105314581,4.82409209580559,-0.2312125,0.02565634,0.060170226,319.59454,-20.67074,-55.542255,LYI
9064674585000,3.804954,-8.30477680329987,1.19763870856774,4.86110855524302,-0.21013765,0.013133603,0.055588737,319.62338,-20.627579,-55.504868,LYI
9064679581000,3.80995,-8.31241704428787,1.17198044398591,4.85594238419728,-0.21135938,0.002443461,0.052534413,319.6592,-20.571692,-55.47005,LYI
9064684569000,3.814938,-8.32684132611978,1.14793958935078,4.82709346908908,-0.21410827,0.0009162979,0.05222898,319.6951,-20.518974,-55.43502,LYI
9064689589000,3.819958,-8.35327904561557,1.14117269696705,4.78647998063765,-0.20861048,-0.010079277,0.048258353,319.74606,-20.459522,-55.3937,LYI
9064694563000,3.824932,-8.38564178633474,1.1434842902703,4.74024799388557,-0.20647246,-0.018325957,0.0421497,319.7956,-20.399694,-55.35333,LYI
9064699554000,3.829923,-8.41811513553647,1.14580378407337,4.69385799672441,-0.204029,-0.032986723,0.047647487,319.84558,-20.339912,-55.315998,LYI
9064704639000,3.835008,-8.45120008458291,1.14816696299316,4.64659429494832,-0.19333886,-0.034208454,0.04642576,319.897,-20.279482,-55.28227,LYI
9064709644000,3.840013,-8.50203915539413,1.16986894655934,4.60236386544616,-0.19120082,-0.02565634,0.047647487,319.9447,-20.221275,-55.246296,LYI
9064714645000,3.845014,-8.56785922754491,1.20748052155689,4.56005089880239,-0.19120082,-0.02687807,0.048563786,319.99432,-20.164898,-55.208355,LYI
9064719630000,3.849999,-8.61489970945187,1.2507093049505,4.50457710346024,-0.1853976,-0.016798794,0.05497787,320.0314,-20.112566,-55.196533,LYI
9064724644000,3.855013,-8.64430737986118,1.2997223960396,4.43595879640706,-0.183565,-0.027488936,0.056505036,320.07516,-20.059742,-55.180298,LYI
9064729642000,3.860011,-8.66792558097648,1.35307539642751,4.37647805805299,-0.1740966,-0.027488936,0.056199603,320.09775,-20.01706,-55.17838,LYI
9064734645000,3.865014,-8.68694437848566,1.41013134212563,4.3241768737918,-0.17165314,-0.014966198,0.07147124,320.11185,-19.978857,-55.173744,LYI
9064739774000,3.870143,-8.69443077182154,1.47975765430599,4.2698517128159,-0.16676621,-0.013744468,0.07849618,320.11514,-19.949755,-55.177727,LYI
9064744663000,3.875032,-8.69215521034215,1.55484966244168,4.21751477297823,-0.1695151,-0.011301007,0.086437434,320.10742,-19.924591,-55.18177,LYI
9064749612000,3.879981,-8.68985172215202,1.63086323336897,4.16453553074942,-0.16554448,0.0070249503,0.0983493,320.07446,-19.916111,-55.192463,LYI
9064754674000,3.885043,-8.68749563865669,1.70861241422045,4.1103466190173,-0.1826487,0.0033597588,0.10293079,320.04733,-19.904718,-55.198265,LYI
9064759674000,3.890043,-8.67782927586207,1.76089038941105,4.07138475410436,-0.16829337,0.0067195175,0.11575896,320.0049,-19.90349,-55.206104,LYI
9064764681000,3.89505,-8.65831924137931,1.78040057668599,4.05187466869088,-0.16707164,0.011301007,0.12003502,319.96527,-19.89724,-55.21374,LYI
9064769617000,3.899986,-8.6414694957037,1.77808813596049,4.05418709734321,-0.17531833,0.015577064,0.12980886,319.87057,-19.93214,-55.218723,LYI
9064774748000,3.905117,-8.62690961807407,1.74896893814321,4.08330614313086,-0.17623462,0.020463986,0.13683382,319.7756,-19.967846,-55.22444,LYI
9064779613000,3.909982,-8.61509598849777,1.7213115867526,4.10894834437283,-0.16065755,0.025350908,0.1441642,319.67072,-20.011904,-55.227867,LYI
9064784690000,3.915059,-8.60545396757561,1.69238461782846,4.13305415180962,-0.16554448,0.029321533,0.14844026,319.56516,-20.053082,-55.231354,LYI
9064789626000,3.919995,-8.60171302437403,1.65506024431642,4.15980764613339,-0.16890424,0.026267206,0.1518,319.46616,-20.091063,-55.230057,LYI
9064794685000,3.925054,-8.60600706501219,1.60353012002216,4.19201409432307,-0.16432275,0.018020526,0.15210545,319.3691,-20.128906,-55.228195,LYI
9064800880000,3.931249,-8.61126533379127,1.54042889052958,4.23145251032129,-0.14294247,0.017104227,0.15393804,319.27853,-20.163002,-55.224503,LYI
9064804668000,3.935037,-8.61448055931753,1.50184495875914,4.25556755790826,-0.1423316,0.01160644,0.15699236,319.193,-20.194504,-55.217655,LYI
9064809651000,3.94002,-8.61871009173499,1.45108895769998,4.28729017726568,-0.1386664,0.0106901415,0.15577064,319.10907,-20.227999,-55.212124,LYI
9064814680000,3.945049,-8.63173452837668,1.37044822182152,4.33243710634245,-0.12980886,0.014660766,0.14905111,319.02805,-20.260891,-55.206974,LYI
9064819644000,3.950013,-8.6455236305714,1.28771524044281,4.3783997724548,-0.12980886,0.0125227375,0.1423316,318.95132,-20.29198,-55.20054,LYI
9064824778000,3.955147,-8.62301431635119,1.2447322699557,4.43172226149819,-0.12858713,0.006414085,0.13561209,318.90924,-20.296995,-55.19686,LYI
9064829593000,3.959962,-8.595157417942,1.2122326682642,4.48279306415626,-0.122783914,0.0106901415,0.13164146,318.8669,-20.301498,-55.195732,LYI
9064834707000,3.965076,-8.60949529763897,1.14174004814092,4.51444141728016,-0.12583824,0.040927973,0.12370021,318.85095,-20.281227,-55.20521,LYI
9064839626000,3.969995,-8.6313898315672,1.06729858706079,4.54071481226994,-0.12705997,0.03268129,0.10476339,318.8513,-20.258654,-55.20929,LYI
9064844684000,3.975053,-8.64519938915191,0.997165837829354,4.56282186861877,-0.12034045,0.014660766,0.09896017,318.85278,-20.231922,-55.208405,LYI
9064849576000,3.979945,-8.6548431645739,0.932069955966447,4.58210954533759,-0.1133155,0.0143553335,0.08246681,318.8628,-20.198288,-55.21455,LYI
9064854659000,3.985028,-8.66486346516056,0.864432513711918,4.60215027730033,-0.11026118,0.008552114,0.06505715,318.90182,-20.146862,-55.222263,LYI
9064859592000,3.989961,-8.67458806535611,0.798791061293742,4.62159960462124,-0.111177474,0.0027488936,0.063224554,318.94016,-20.096703,-55.229652,LYI
9064864673000,3.995042,-8.6650831199173,0.762290061474845,4.64093634045486,-0.10567969,0.00061086525,0.052839845,318.99332,-20.042131,-55.240864,LYI
9064869627000,3.999996,-8.65107027951167,0.734263956327656,4.6596205341144,-0.105068825,0.00580322,0.03573562,319.04813,-19.98575,-55.253468,LYI
9064874746000,4.005115,-8.63659365620079,0.724082930472441,4.65264177380906,-0.09468412,0.017104227,0.022602014,319.1303,-19.90653,-55.27482,LYI
9064879675000,4.010044,-8.62265516220472,0.719436862834646,4.63870342535433,-0.09010262,0.004581489,0.0033597588,319.2255,-19.822489,-55.2951,LYI
9064884681000,4.01505,-8.59078786889764,0.732429639527559,4.60683605793307,-0.095294975,-0.009468411,-0.0012217305,319.31808,-19.735836,-55.314102,LYI
9064889729000,4.020098,-8.55272217283465,0.751462586929134,4.56877021281496,-0.07544186,0.0036651916,-0.016493361,319.41623,-19.64769,-55.34076,LYI
9064894689000,4.025058,-8.52516349161057,0.798204156364915,4.53774171747212,-0.065973446,0.004276057,-0.022296581,319.51764,-19.560665,-55.360683,LYI
9064899701000,4.03007,-8.50105070069326,0.856074904923139,4.50880626765799,-0.05467244,0.016798794,-0.029321533,319.61624,-19.474335,-55.388367,LYI
9064904623000,4.034992,-8.48483194391635,0.913939601473384,4.4782412516635,-0.054061573,0.014966198,-0.035430185,319.71426,-19.39287,-55.41402,LYI
9064909656000,4.040025,-8.471086878327,0.973502429467681,4.44616903326996,-0.040317107,0.013744468,-0.03848451,319.80817,-19.315464,-55.442547,LYI
9064914638000,4.045007,-8.45418285255011,1.03406136467553,4.44577640279817,-0.0290161,0.014049901,-0.04337143,319.8887,-19.25006,-55.468132,LYI
9064919620000,4.049989,-8.43524551815836,1.09560646558841,4.46471334171463,-0.017715093,0.019242255,-0.04337143,319.96576,-19.188421,-55.49357,LYI
9064925103000,4.055472,-8.43085448000393,1.17271702337624,4.45604664084701,-0.008552114,0.01985312,-0.043066,320.0288,-19.139954,-55.517185,LYI
9064929648000,4.060017,-8.43513152284563,1.24114832439815,4.43466187323376,-0.007330383,0.025961773,-0.037873644,320.08545,-19.094248,-55.541874,LYI
9064934645000,4.065014,-8.42909914229092,1.30598720822434,4.40834878801031,0.002443461,0.024740042,-0.019547688,320.12384,-19.067482,-55.551155,LYI
9064939693000,4.070062,-8.41472844867222,1.36347083303607,4.37960705063417,0.0106901415,0.028405234,-0.020158553,320.1638,-19.037954,-55.564922,LYI
9064944646000,4.075015,-8.39286234357708,1.41459467035573,4.35404516482213,0.0106901415,0.03176499,-0.004276057,320.17343,-19.031168,-55.570927,LYI
9064949645000,4.080014,-8.36447819940711,1.46190141264822,4.33039179367589,0.014966198,0.04734206,-0.0067195175,320.1859,-19.02166,-55.58358,LYI
9064954615000,4.084984,-8.34357922288438,1.50659489368296,4.31420891823599,0.018936822,0.0571159,-0.003970624,320.1779,-19.03045,-55.589436,LYI
9064959777000,4.090146,-8.32884844994041,1.55078634090187,4.30438860802543,0.02076942,0.056505036,0.004581489,320.16714,-19.04027,-55.595818,LYI
9064964642000,4.095011,-8.31995553069066,1.58204340748758,4.30227577368569,0.023823744,0.062002823,0.009162978,320.14096,-19.061024,-55.602306,LYI
9064969629000,4.099998,-8.31547980217412,1.60442158272889,4.30675131526567,0.025961773,0.07147124,0.014660766,320.11044,-19.083853,-55.60797,LYI
9064974617000,4.104986,-8.31444337552468,1.6317960428293,4.30601215625625,0.025045475,0.07941248,0.018325957,320.06732,-19.116383,-55.609695,LYI
9064979645000,4.110014,-8.31925555241855,1.66788852527983,4.29638755121927,0.03176499,0.07880162,0.02687807,320.02063,-19.15219,-55.60993,LYI
