timestamp,rel_time,acc_x,acc_y,acc_z,gyro_x,gyro_y,gyro_z,azimuth,pitch,roll,label
9230907289000,0,-0.139710482919474,9.80890179603859,0.22533889032193,-0.14660765,0.03481932,-0.03023783,268.55585,-72.07054,-17.061863,STD
9230911687000,0.004398,-0.141602919139171,9.80679909062816,0.227757003256513,-0.14080444,0.035124753,-0.030848695,268.6443,-72.2586,-16.86226,STD
9230916677000,0.009388,-0.143750089838646,9.80441334710882,0.230500610246865,-0.15302174,0.036957346,-0.038789943,268.7326,-72.43878,-16.669174,STD
9230921748000,0.014459,-0.145932114411198,9.80198887709147,0.23328875274147,-0.15607607,0.034208454,-0.035430185,268.82214,-72.61992,-16.476183,STD
9230926717000,0.019428,-0.148070248921356,9.79961317377532,0.236020813489979,-0.15149458,0.03145956,-0.027183503,268.91147,-72.79663,-16.287302,STD
9230931653000,0.024364,-0.150194183705445,9.79725324792132,0.238734730144163,-0.14508049,0.029932396,-0.022907447,269.00146,-72.96992,-16.101719,STD
9230936747000,0.029458,-0.152386105056773,9.79481778149096,0.241535518522691,-0.14110987,0.035124753,-0.022602014,269.09036,-73.14141,-15.918184,STD
9230941741000,0.034452,-0.154534996935165,9.79243012555196,0.244281324797204,-0.1337795,0.025045475,-0.02107485,269.18433,-73.312164,-15.735764,STD
9230946770000,0.039481,-0.156698949129084,9.79002573594099,0.247046374808123,-0.13439035,0.022602014,-0.022907447,269.27484,-73.47863,-15.5576725,STD
9230951688000,0.044399,-0.158815138608045,9.78767441597544,0.249750394683584,-0.13530666,0.02443461,-0.028099801,269.36734,-73.642204,-15.383023,STD
9230956759000,0.04947,-0.160997163180597,9.78524994595809,0.252538537178189,-0.13805555,0.019242255,-0.029321533,269.46283,-73.80311,-15.210523,STD
9230961663000,0.054374,-0.163107328533347,9.78290531946133,0.255234859559088,-0.12736541,0.002443461,-0.024129177,269.56137,-73.96264,-15.040348,STD
9230966668000,0.059379,-0.165260953653762,9.78051240436828,0.257986713865042,-0.12736541,0.0061086523,-0.029321533,269.65594,-74.114845,-14.876822,STD
9230971687000,0.064398,-0.167420602900388,9.77811279580645,0.260746265665559,-0.11362094,0.008857546,-0.034208454,269.75583,-74.26811,-14.7141285,STD
9230977493000,0.070204,-0.169918894099015,9.77533691867753,0.263938526624675,-0.116980694,0.011301007,-0.034208454,269.85492,-74.41678,-14.554465,STD
9230981677000,0.074388,-0.171719247246631,9.77333652771863,0.266238977856665,-0.122783914,0.014966198,-0.03481932,269.95322,-74.56237,-14.399239,STD
9230986682000,0.079393,-0.173872872367046,9.77094361262559,0.26899083216262,-0.12583824,0.009773844,-0.034208454,270.0536,-74.70553,-14.246209,STD
9230991720000,0.084431,-0.176040697213529,9.76853492007039,0.2717608305629,-0.1255328,0.021380283,-0.0421497,270.14844,-74.84335,-14.0990505,STD
9230996781000,0.089492,-0.178218418838788,9.76611523110218,0.274543474847103,-0.12308934,0.03970624,-0.04153884,270.24274,-74.98095,-13.951954,STD
9231003196000,0.095907,-0.180978759527591,9.76304818808083,0.27807057681967,-0.13561209,0.04153884,-0.035124753,270.33878,-75.11391,-13.807886,STD
9231006621000,0.099332,-0.182452518975627,9.76141067875142,0.279953713882186,-0.13439035,0.041233405,-0.04153884,270.43066,-75.24283,-13.670272,STD
9231011573000,0.104284,-0.184583338475387,9.7590431032188,0.282676427673013,-0.13347405,0.037873644,-0.031154128,270.52246,-75.37411,-13.528499,STD
9231016592000,0.109303,-0.186742987722012,9.75664349465696,0.285435979473529,-0.14049901,0.040317107,-0.027488936,270.61322,-75.49877,-13.393058,STD
9231021633000,0.114344,-0.188912103452684,9.75423336778703,0.288207627336929,-0.1441642,0.038789943,-0.025350908,270.70612,-75.62383,-13.257335,STD
9231026606000,0.119317,-0.19105195914176,9.75185575205122,0.290941887369599,-0.13897185,0.03390302,-0.02107485,270.79932,-75.74826,-13.122351,STD
9231031597000,0.124308,-0.193199560135963,9.74946953042697,0.293686044180992,-0.14049901,0.019242255,-0.014049901,270.89587,-75.870476,-12.988054,STD
9231036635000,0.129346,-0.195367384982447,9.74706083787177,0.296456042581271,-0.13255776,0.018936822,-0.010079277,270.9898,-75.99231,-12.85606,STD
9231041622000,0.134333,-0.197513264797733,9.74467652866717,0.299198000108503,-0.14110987,0.0143553335,-0.005497787,271.08923,-76.111786,-12.72375,STD
9231046621000,0.139332,-0.199664308149772,9.74228648220361,0.301946555488217,-0.11911872,0.009773844,0.005497787,271.1886,-76.236046,-12.590851,STD
9231051621000,0.144332,-0.20181578179654,9.73989595763514,0.304695660688971,-0.112704635,0.004276057,0.00580322,271.28986,-76.353645,-12.461909,STD
9231056626000,0.149337,-0.203969406916955,9.73750304254209,0.307447514994925,-0.1142318,-0.00580322,0.009162978,271.39355,-76.47421,-12.331088,STD
9231061613000,0.154324,-0.206115286732242,9.73511873333749,0.310189472522157,-0.09254608,-0.013133603,0.010995574,271.49826,-76.59563,-12.202905,STD
9231066607000,0.159318,-0.208264178610634,9.7327310773985,0.31293527879667,-0.07696902,-0.019547688,0.010079277,271.6057,-76.71405,-12.0766325,STD
9231071599000,0.16431,-0.210412209899567,9.73034437766933,0.315679985429103,-0.069027774,-0.015577064,0.014049901,271.71225,-76.833626,-11.950857,STD
9231076624000,0.169335,-0.2100621197395,9.73338336342825,0.318126720722697,-0.05681047,-0.013439035,0.01863139,271.82135,-76.953255,-11.827231,STD
9231081620000,0.174331,-0.209346220017706,9.73720149760348,0.320513052962558,-0.03604105,-0.018325957,0.02076942,271.9314,-77.07305,-11.705365,STD
9231086637000,0.179348,-0.208627311109731,9.74103568078145,0.322909415822323,-0.04153884,-0.022907447,0.01985312,272.0594,-77.17485,-11.588044,STD
9231091708000,0.184419,-0.207900664294435,9.74491113282361,0.325331571704697,-0.02107485,-0.022907447,0.024740042,272.18692,-77.282394,-11.470594,STD
9231096731000,0.189442,-0.207180895618981,9.74874990143093,0.327730800455863,-0.025350908,-0.043982297,0.025961773,272.32178,-77.383095,-11.3558445,STD
9231101727000,0.194438,-0.206464995897187,9.75256803560616,0.330117132695724,-0.008246681,-0.052839845,0.03145956,272.4525,-77.489365,-11.240932,STD
9231106725000,0.199436,-0.205748809586232,9.75638769825785,0.332504420232719,-0.004276057,-0.04428773,0.031154128,272.58414,-77.59038,-11.129312,STD
9231111720000,0.204431,-0.205033053159018,9.76020506819485,0.334890274824014,-0.008857546,-0.052839845,0.036651913,272.72272,-77.6934,-11.015847,STD
9231116837000,0.209548,-0.204299814793041,9.76411567519539,0.337334402540462,0.0027488936,-0.05131268,0.034513887,272.85583,-77.79501,-10.907235,STD
9231121790000,0.214501,-0.203590076738188,9.76790094712692,0.33970019589195,-0.010995574,-0.05100725,0.04062254,272.99115,-77.894424,-10.796474,STD
9231126793000,0.219504,-0.202873173954334,9.77172443096973,0.342089871671779,-0.006414085,-0.059864793,0.036651913,273.12878,-77.99266,-10.691016,STD
9231131721000,0.224432,-0.202167018263981,9.77549059694562,0.344443723809096,-0.009773844,-0.069027774,0.03848451,273.26584,-78.08928,-10.584178,STD
9231136749000,0.22946,-0.201446533115627,9.77933318674407,0.346845340803096,-0.0076358155,-0.07238753,0.050701816,273.4033,-78.18702,-10.4773855,STD
9231141736000,0.234447,-0.200731923045053,9.78314444277528,0.349227374205856,-0.0018325958,-0.06963864,0.052839845,273.54156,-78.2809,-10.374824,STD
9231146722000,0.239433,-0.200017456269059,9.78695493456825,0.35160892996005,-0.013439035,-0.07391469,0.053450707,273.68225,-78.37364,-10.2709055,STD
9231151718000,0.244429,-0.199301556547265,9.79077306874349,0.353995262199911,-0.016187929,-0.06169739,0.061086524,273.81686,-78.46881,-10.166873,STD
9231156727000,0.249438,-0.19858379399593,9.79460113801565,0.356387803871141,-0.022907447,-0.0711658,0.052839845,273.95908,-78.55626,-10.068411,STD
9231161714000,0.254425,-0.197869183925356,9.79841239404685,0.358769837273902,-0.011301007,-0.06841691,0.058643065,274.09332,-78.64951,-9.966371,STD
9231166717000,0.259428,-0.197152281141502,9.80223587788966,0.361159513053731,-0.014049901,-0.064751714,0.0571159,274.23016,-78.73427,-9.870397,STD
9231171786000,0.264497,-0.196425920915366,9.80610980145537,0.363580713638971,-0.01160644,-0.06169739,0.061391957,274.36578,-78.82253,-9.77304,STD
9231176804000,0.269515,-0.195706868712812,9.80994474887157,0.365977554147302,-0.0070249503,-0.047647487,0.06261369,274.49698,-78.90789,-9.679205,STD
9231181723000,0.274434,-0.195002002673679,9.81370403670342,0.368327107447518,-0.0018325958,-0.036957346,0.052534413,274.6282,-78.99026,-9.589186,STD
9231186703000,0.279414,-0.194288395665165,9.81750994306705,0.370705797310311,-0.009162978,-0.032070424,0.058337633,274.75635,-79.074135,-9.496289,STD
9231191727000,0.284438,-0.193568483695131,9.8213494759126,0.373105503710043,-0.0061086523,-0.016187929,0.058948494,274.87842,-79.154816,-9.410032,STD
9231196711000,0.289422,-0.192854303508297,9.82515843922912,0.375486104167103,-0.0033597588,-0.016187929,0.06291912,275.00317,-79.235146,-9.322555,STD
9231201717000,0.294428,-0.192136970840702,9.82898421578661,0.377877212892633,-0.0027488936,-0.0143553335,0.061391957,275.1228,-79.31286,-9.238598,STD
9231206735000,0.299446,-0.191417918638148,9.83281916320281,0.380274053400965,-0.005497787,-0.009468411,0.060170226,275.24127,-79.38999,-9.155169,STD
9231211727000,0.304438,-0.190702592094674,9.83663424042514,0.382658475046559,-0.0076358155,-0.01282817,0.064446285,275.3613,-79.466774,-9.072044,STD
9231216729000,0.30944,-0.1899858326054,9.84045696002973,0.385047673177821,-0.013744468,-0.018020526,0.062308256,275.4805,-79.53924,-8.992749,STD
9231221819000,0.31453,-0.189256463193083,9.84434693259817,0.387478904382965,-0.0061086523,-0.01160644,0.0720821,275.5967,-79.61593,-8.9106245,STD
9231226753000,0.319464,-0.188549447735251,9.84811768400341,0.389835622411683,-0.017104227,-0.017104227,0.07574729,275.7179,-79.68555,-8.831926,STD
9231232343000,0.325054,-0.187748431032923,9.85238977568467,0.392505677900239,-0.016493361,-0.013439035,0.0693332,275.83447,-79.7565,-8.755272,STD
9231236745000,0.329456,-0.187117648291662,9.85575395235388,0.394608286891406,-0.02107485,-0.01282817,0.07513642,275.95288,-79.82752,-8.6754055,STD
9231241726000,0.334437,-0.186403897988569,9.85956062295573,0.396987454402765,-0.027183503,-0.023518313,0.076358154,276.07367,-79.89433,-8.599956,STD
9231246719000,0.33943,-0.185688428150514,9.86337646441628,0.399372353696926,-0.020158553,-0.022907447,0.07574729,276.19073,-79.96206,-8.525165,STD
9231251715000,0.344426,-0.18497252842872,9.86719459859151,0.401758685936788,-0.03390302,-0.021991149,0.07452556,276.31058,-80.02456,-8.451383,STD
9231256727000,0.349438,-0.184254335993646,9.87102496057836,0.404152660553718,-0.033292156,-0.019547688,0.082161374,276.42944,-80.09097,-8.376736,STD
9231261711000,0.354422,-0.183540155806812,9.87483392389488,0.406533261010778,-0.032986723,-0.021685716,0.08277224,276.5494,-80.152,-8.305738,STD
9231266717000,0.359428,-0.182822823139218,9.87865970045237,0.408924369736308,-0.03268129,-0.022602014,0.07666359,276.66815,-80.21208,-8.235977,STD
9231271802000,0.364513,-0.182094170199802,9.88254585182968,0.411353212698617,-0.02565634,-0.03145956,0.08368854,276.78928,-80.275314,-8.16342,STD
9231276745000,0.369456,-0.181195867629119,9.88536450393171,0.409512293485257,-0.03268129,-0.043982297,0.09468412,276.91165,-80.33469,-8.092676,STD
9231281729000,0.37444,-0.180245068914359,9.88797917849335,0.406659898085586,-0.043676864,-0.061391957,0.08093964,277.0383,-80.38906,-8.027967,STD
9231286699000,0.37941,-0.179296940982505,9.89058650846352,0.403815515032544,-0.03176499,-0.067500606,0.0852157,277.18658,-80.46444,-7.9318237,STD
9231291722000,0.384433,-0.178338702229648,9.89322164295852,0.400940799524409,-0.029626964,-0.07727446,0.08277224,277.34103,-80.53007,-7.8427663,STD
9231296715000,0.389426,-0.177386186583019,9.89584103904324,0.398083253330478,-0.027488936,-0.07819075,0.08307768,277.494,-80.59766,-7.7535896,STD
9231302319000,0.39503,-0.176317110339537,9.89878097408405,0.394876025437269,-0.028405234,-0.08979719,0.0888809,277.65222,-80.66425,-7.6647696,STD
9231306740000,0.399451,-0.175473715251665,9.90110029114605,0.392345840834151,-0.03481932,-0.09193522,0.087659165,277.80774,-80.727196,-7.5798125,STD
9231311716000,0.404427,-0.174524442698565,9.90371076879828,0.389498023918268,-0.04428773,-0.11178834,0.07849618,277.9713,-80.78747,-7.4964128,STD
9231316713000,0.409424,-0.173571163971106,9.9063322633377,0.386638188482443,-0.03634648,-0.109650314,0.08124508,278.12845,-80.850624,-7.412165,STD
9231321790000,0.414501,-0.172602623627037,9.90899572697121,0.383732568208742,-0.04062254,-0.10751228,0.074830994,278.2913,-80.90454,-7.3342195,STD
9231326719000,0.41943,-0.171662317273696,9.91158154778066,0.380911649885111,-0.048258353,-0.115453534,0.07849618,278.45563,-80.96082,-7.2539926,STD
9231331722000,0.424433,-0.170707893924991,9.91420619000214,0.378048380586445,-0.049480084,-0.12064589,0.07422013,278.61844,-81.01288,-7.1795077,STD
9231336727000,0.429438,-0.169753089035871,9.91683188145097,0.375183966666833,-0.06780604,-0.11942416,0.0720821,278.78104,-81.060745,-7.104833,STD
9231341730000,0.434441,-0.168798665687166,9.91945652367246,0.372320697368167,-0.06658431,-0.12186762,0.06963864,278.9458,-81.10953,-7.0326867,STD
9231346712000,0.439423,-0.167848248512821,9.92207014900674,0.369469446589443,-0.06872234,-0.13133603,0.08093964,279.11142,-81.15602,-6.9584846,STD
9231351706000,0.444417,-0.166895542095985,9.92469006970514,0.366611328085039,-0.07544186,-0.14752395,0.07880162,279.27954,-81.19721,-6.8899336,STD
9231356726000,0.449437,-0.16593787565375,9.92732363035911,0.363738329508324,-0.074830994,-0.1423316,0.08093964,279.44327,-81.24171,-6.818672,STD
9231361718000,0.454429,-0.164985550777329,9.92994250183015,0.360881355624866,-0.08368854,-0.15485434,0.084910266,279.61615,-81.28213,-6.7479353,STD
9231366731000,0.459442,-0.164029219726548,9.93257239018839,0.358012363221466,-0.08093964,-0.16249016,0.08277224,279.78564,-81.3228,-6.6799693,STD
9231372505000,0.465216,-0.162927712547771,9.93560150955414,0.354707842547771,-0.09682214,-0.17654006,0.08735373,279.9597,-81.35977,-6.6097775,STD
9231376766000,0.469477,-0.162114840693117,9.93783688842796,0.352269227620404,-0.11209377,-0.17837265,0.0842994,280.13205,-81.39413,-6.543827,STD
9231381721000,0.474432,-0.161169574314378,9.94043634919299,0.349433429224464,-0.11056661,-0.18295415,0.090713486,280.30817,-81.43074,-6.474714,STD
9231386727000,0.479438,-0.16021457865505,9.9430625652555,0.346568442994378,-0.11148291,-0.19058995,0.08735373,280.48532,-81.460335,-6.410387,STD
9231391692000,0.484403,-0.159267404574234,9.94566727215729,0.343726921493703,-0.12003502,-0.19150625,0.07086037,280.66138,-81.4864,-6.349314,STD
9231396682000,0.489393,-0.158315461238229,9.94828509440098,0.340871092231192,-0.13072516,-0.18448131,0.07971791,280.836,-81.515656,-6.2832384,STD
9231401669000,0.49438,-0.157364090212845,9.95090134280364,0.338016979900101,-0.13622294,-0.18203785,0.074830994,281.01233,-81.53706,-6.2267365,STD
9231406728000,0.499439,-0.156398983732514,9.95355536339098,0.335121661214922,-0.14202617,-0.17440203,0.07269296,281.1841,-81.55803,-6.168423,STD
9231411722000,0.504433,-0.155446277315678,9.95617528408938,0.332263542710517,-0.15577064,-0.16920967,0.07238753,281.35526,-81.57501,-6.1120734,STD
9231416724000,0.509435,-0.15449204473718,9.95879940169718,0.329400845722325,-0.1591304,-0.16310102,0.06658431,281.52344,-81.59063,-6.0591955,STD
9231421793000,0.514504,-0.153525030554773,9.96145866842129,0.326499803932411,-0.1685988,-0.14263703,0.06414085,281.6852,-81.60234,-6.0070457,STD
9231426765000,0.519476,-0.152576521082504,9.96406704761881,0.323654276258422,-0.17684549,-0.14538592,0.06688975,281.8512,-81.61294,-5.9555306,STD
9231431720000,0.524431,-0.151631254703764,9.96666650838384,0.320818477862482,-0.16584991,-0.14110987,0.053450707,282.00916,-81.62123,-5.9110537,SDL
9231436746000,0.529457,-0.150672443640284,9.96930321671987,0.317942045422927,-0.17134771,-0.13683382,0.045814894,282.167,-81.62583,-5.864966,SDL
9231441730000,0.534441,-0.149721644925524,9.97191789128151,0.315089650023257,-0.18570304,-0.13072516,0.04917465,282.32245,-81.62991,-5.820606,SDL
9231446722000,0.539433,-0.148769320049103,9.97453676275255,0.312232676139799,-0.18570304,-0.12339478,0.042455133,282.4762,-81.63197,-5.782223,SDL
9231451721000,0.544432,-0.147815659781228,9.97715930651933,0.309371696083027,-0.18020524,-0.12705997,0.035430185,282.63058,-81.63256,-5.7435865,SDL
9231456737000,0.549448,-0.146858756419824,9.97979076871859,0.306500986748206,-0.19517145,-0.13164146,0.03268129,282.78256,-81.628174,-5.7065473,SDL
9231461707000,0.554418,-0.145910628487971,9.98239809868877,0.303656603695164,-0.1966986,-0.12370021,0.021685716,282.9318,-81.62456,-5.674799,SDL
9231466737000,0.559448,-0.14495105434366,9.9850369054795,0.300777882013715,-0.20189096,-0.12675454,0.011911872,283.0849,-81.61664,-5.6436377,SDL
9231471751000,0.564462,-0.143994532522671,9.98766731845142,0.297908317299841,-0.21594086,-0.12889257,0.00030543262,283.23517,-81.60399,-5.616957,SDL
9231476808000,0.569519,-0.137216523700194,9.9856266650923,0.317600436555758,-0.23854288,-0.14385876,-0.020463986,283.38995,-81.5848,-5.5956645,SDL
9231481724000,0.574435,-0.127517782716182,9.98113213461828,0.348825651696194,-0.24312437,-0.13622294,-0.02565634,283.53806,-81.56736,-5.574297,SDL
9231486711000,0.579422,-0.117678966343671,9.97657269127534,0.380501841261971,-0.2611449,-0.1432479,-0.033292156,283.7195,-81.562744,-5.531764,SDL
9231491724000,0.584435,-0.107788854758469,9.97198947702264,0.412343176391957,-0.27030787,-0.15821409,-0.04062254,283.9004,-81.5579,-5.491425,SDL
9231496720000,0.589431,-0.0979322823507954,9.96742180528786,0.44407653172996,-0.28344148,-0.16676621,-0.03848451,284.0805,-81.5485,-5.451287,SDL
9231501718000,0.594429,-0.0880717641575303,9.96285230502155,0.475822590572901,-0.30207285,-0.18081611,-0.038789943,284.26587,-81.53402,-5.413972,SDL
9231506739000,0.59945,-0.0781658694299625,9.95826177664278,0.507714739722644,-0.31581733,-0.20341812,-0.04428773,284.45532,-81.51713,-5.3776584,SDL
9231511703000,0.604414,-0.0683724295917537,9.95372336141231,0.53924483898162,-0.32895094,-0.23823744,-0.049480084,284.65137,-81.49634,-5.34112,SDL
9231516674000,0.609385,-0.0585651795039744,9.94917854632151,0.570819400507884,-0.35246924,-0.23884831,-0.039095376,284.8428,-81.47208,-5.3027024,SDL
9231521719000,0.61443,-0.0486119353493081,9.94456607556451,0.602863991716896,-0.3622431,-0.23793201,-0.040011674,285.04327,-81.44517,-5.2684565,SDL
9231526690000,0.619401,-0.0388046852615289,9.94002126047372,0.634438553243159,-0.38698313,-0.24648413,-0.041233405,285.24518,-81.4116,-5.231599,SDL
9231531678000,0.624389,-0.0289638959962215,9.93546090286501,0.666121094561405,-0.39645153,-0.23457226,-0.043676864,285.44,-81.37912,-5.196656,SDL
9231536765000,0.629476,-0.0189277903441328,9.93081003294611,0.69843245937414,-0.4098906,-0.20158553,-0.045814894,285.63022,-81.34028,-5.162963,SDL
9231541689000,0.6344,-0.00921326621775481,9.92630818834601,0.729708488534333,-0.42241332,-0.19394971,-0.05497787,285.82352,-81.29824,-5.1320186,SDL
9231546687000,0.639398,0.000647251975510243,9.92173868807971,0.761454547377275,-0.4266894,-0.19730948,-0.06566802,286.00964,-81.25485,-5.103343,SDL
9231551659000,0.64437,0.0104564749560853,9.91719295872316,0.793035460656008,-0.4428773,-0.20250183,-0.08460484,286.1938,-81.203445,-5.0802107,SDL
9231557428000,0.650139,0.02183809349489,9.91191855955623,0.829678720652993,-0.45265114,-0.18448131,-0.11209377,286.37195,-81.150024,-5.063582,SDL
9231561691000,0.654402,0.0302485354832632,9.90802104462321,0.856756241430797,-0.4560109,-0.15241088,-0.12461651,286.54675,-81.0945,-5.048641,SDL
9231566672000,0.659383,0.0400755144990001,9.90346708687482,0.888394320481756,-0.4541783,-0.12614368,-0.14935656,286.71857,-81.032425,-5.045487,SDL
9231571741000,0.664452,0.0500761080807649,9.89883267373959,0.920591353750038,-0.46639562,-0.09407325,-0.16523905,286.8788,-80.966736,-5.044732,SDL
9231576779000,0.66949,0.0600155419858609,9.8942266028429,0.952591482691763,-0.47250426,-0.062308256,-0.17867808,287.03168,-80.90049,-5.051116,SDL
9231581693000,0.674404,0.0697103371842812,9.8897339009004,0.98380399432726,-0.49846604,-0.03268129,-0.20005837,287.17618,-80.82409,-5.065117,SDL
9231586672000,0.679383,0.0795333704144265,9.88518177168353,1.01542936987328,-0.50915617,-0.004581489,-0.21471913,287.31158,-80.75013,-5.081822,SDL
9231591682000,0.684393,0.0894175633212409,9.88060130022811,1.04725164974586,-0.5290093,0.01863139,-0.23151793,287.4402,-80.665565,-5.1056437,SDL
9231596683000,0.689394,0.0992840001928932,9.87602905716453,1.07901676384621,-0.55863625,0.024740042,-0.23976462,287.5653,-80.576675,-5.1310425,SDL
9231601657000,0.694368,0.10909716895906,9.87148149927646,1.11061038062988,-0.59864795,0.014966198,-0.24801129,287.68845,-80.47957,-5.1607847,SDL
9231606694000,0.699405,0.11903462997136,9.86687634264554,1.14260415781914,-0.6068946,0.01160644,-0.24984388,287.8075,-80.38448,-5.190789,SDL
9231611681000,0.704392,0.128873446343872,9.86231689930259,1.17428034738491,-0.61636305,0.007330383,-0.25167647,287.92932,-80.28016,-5.2219143,SDL
9231616668000,0.709379,0.138712262716383,9.85775745595964,1.20595653695069,-0.62125,-0.017715093,-0.2574797,288.05762,-80.17601,-5.2529182,SDL
9231621742000,0.714453,0.148722720762127,9.85311847149561,1.23818532898132,-0.6200282,-0.031154128,-0.26511553,288.18332,-80.07247,-5.284469,SDL
9231627414000,0.720125,0.159912968699742,9.84793275610737,1.27421246898876,-0.634689,-0.044593163,-0.26816985,288.3155,-79.965706,-5.314539,SDL
9231631693000,0.724404,0.168354976972847,9.84402061292219,1.30139161780607,-0.6441574,-0.05375614,-0.25778514,288.4493,-79.86333,-5.3417907,SDL
9231636691000,0.729402,0.178215495166112,9.83945111265589,1.33313767664901,-0.6426302,-0.058948494,-0.25167647,288.58536,-79.76095,-5.369923,SDL
9231641643000,0.734354,0.187985260290772,9.83492366861453,1.36459155487836,-0.6178902,-0.06414085,-0.2510656,288.723,-79.66465,-5.3955655,SDL
9231646635000,0.739346,0.197833941127262,9.83035965394278,1.39629950320648,-0.61453044,-0.07147124,-0.23365596,288.8609,-79.568855,-5.4137416,SDL
9231651667000,0.744378,0.207761537675584,9.82575906864065,1.42826152163339,-0.58062744,-0.08002335,-0.21930063,288.99994,-79.48798,-5.4317174,SDL
9231656644000,0.749355,0.217580625120137,9.8212087679553,1.45987419367447,-0.54702985,-0.08582657,-0.20463985,289.13864,-79.41216,-5.4439883,SDL
9231661632000,0.754343,0.227421414385445,9.81664841034659,1.49155673499271,-0.5174029,-0.08582657,-0.19517145,289.2769,-79.3465,-5.4531775,SDL
9231666649000,0.75936,0.23731941754183,9.81206153903086,1.52342347713258,-0.49266282,-0.0888809,-0.17562376,289.41574,-79.29275,-5.4547367,SDL
9231671627000,0.764338,0.247140477879179,9.80751032407975,1.55504250092613,-0.46609017,-0.11789699,-0.16646078,289.56125,-79.24766,-5.4551997,SDL
9231676678000,0.769389,0.207083697105943,9.75239778321814,1.57747144140829,-0.4605924,-0.1423316,-0.14477506,289.70407,-79.20902,-5.4466114,SDL
9231681656000,0.774367,0.156318667308712,9.68668792065364,1.59739790474904,-0.46700647,-0.14813483,-0.1337795,289.84912,-79.17445,-5.4380674,SDL
9231686652000,0.779363,0.105370075732384,9.62074045713973,1.61739642038792,-0.4783075,-0.16615535,-0.14355333,290.11597,-79.05734,-5.3468065,SDL
9231691654000,0.784365,0.0543602968963561,9.55471379330935,1.63741895345952,-0.5045747,-0.19181168,-0.15760323,290.38202,-78.935936,-5.25507,SDL
9231696870000,0.789581,0.00116817246438472,9.48586231819154,1.65829810829788,-0.5155703,-0.21838433,-0.17654006,290.64993,-78.81387,-5.1685367,SDL
9231701654000,0.794365,-0.0476184692692333,9.42271326585957,1.67744800798091,-0.5271767,-0.23090707,-0.20158553,290.91797,-78.683044,-5.0889583,SDL
9231706609000,0.79932,-0.0981489479042827,9.3573070045082,1.69728240449626,-0.5500842,-0.24648413,-0.24770586,291.19232,-78.54246,-5.020875,SDL
9231711600000,0.804311,-0.149046550097528,9.29142554125802,1.71726090560789,-0.56505036,-0.26816985,-0.27275133,291.46832,-78.40189,-4.954379,SDL
9231716587000,0.809298,-0.199903360784308,9.22559687821881,1.7372233950977,-0.58093286,-0.29932398,-0.2968805,291.75,-78.25148,-4.9004,SDL
9231721630000,0.814341,-0.251331252561615,9.15902901222589,1.75741004729284,-0.6032294,-0.31245756,-0.3203988,292.03033,-78.09475,-4.854041,SDL
9231726602000,0.819313,-0.302035095099146,9.09339834997786,1.77731249320087,-0.61300325,-0.35369098,-0.33414328,292.32452,-77.93791,-4.809296,SDL
9231731598000,0.824309,-0.352983686675474,9.02745088646395,1.79731100883976,-0.6200282,-0.37110063,-0.3549127,292.61383,-77.77514,-4.774301,SDL
9231736624000,0.829335,-0.404238214550299,8.96110742136769,1.81742961164221,-0.62949663,-0.37782016,-0.35338554,292.9076,-77.61296,-4.735744,SDL
9231741603000,0.834314,-0.455013442224146,8.89538435875044,1.83736007788841,-0.65301496,-0.37232238,-0.33292156,293.1993,-77.44787,-4.6978498,SDL
9231746606000,0.839317,-0.506033418936791,8.82934449486732,1.85738661386546,-0.66553766,-0.35277468,-0.29260445,293.48413,-77.288345,-4.6548433,SDL
9231751658000,0.844369,-0.557553091603646,8.76265782839969,1.87760929220967,-0.6728681,-0.34238997,-0.2751948,293.7665,-77.126595,-4.6128454,SDL
9231756691000,0.849402,-0.608879004614788,8.69622196293421,1.89775591535028,-0.66950834,-0.34666604,-0.25992316,294.04172,-76.97114,-4.5611525,SDL
9231761684000,0.854395,-0.659797002561266,8.63031409957854,1.91774242227281,-0.64599,-0.355829,-0.23579398,294.31027,-76.8245,-4.5032434,SDL
9231766803000,0.859514,-0.711999932961431,8.562743029577,1.93823329528231,-0.6423248,-0.3662137,-0.20799962,294.57574,-76.67787,-4.4406114,SDL
9231771783000,0.864494,-0.762785358511895,8.497006766907,1.95816776443396,-0.63132924,-0.38728857,-0.18387043,294.84198,-76.543884,-4.372121,SDL
9231776709000,0.86942,-0.813020098725064,8.43198330708524,1.9778860766912,-0.625526,-0.41050145,-0.16707164,295.10696,-76.41365,-4.2983627,SDL
9231781679000,0.87439,-0.863703545509362,8.3663790449427,1.99778051678833,-0.6392705,-0.45112398,-0.19517145,295.38055,-76.28136,-4.229353,SDL
9231786692000,0.879403,-0.914825500988172,8.30020718053213,2.0178470818199,-0.6197228,-0.49113566,-0.18142697,295.6532,-76.16702,-4.144017,SDL
9231791697000,0.884408,-0.96586587345405,8.23414091654351,2.03788162360786,-0.6169739,-0.5158757,-0.16157386,295.93076,-76.04452,-4.0645356,SDL
9231796684000,0.889395,-1.01672268414083,8.16831225350431,2.05784411309767,-0.63041294,-0.5369505,-0.12156218,296.2126,-75.92776,-3.9747252,SDL
9231801666000,0.894377,-1.06752850544453,8.10254959072883,2.07778658806023,-0.6603453,-0.56291234,-0.11209377,296.4997,-75.8082,-3.8875391,SDL
9231806738000,0.899449,-1.11925213564371,8.0355989232063,2.09808932451348,-0.6750061,-0.57635134,-0.111177474,296.78342,-75.693535,-3.7928605,SDL
9231811722000,0.904433,-1.17007835270064,7.96980986032533,2.11803980528694,-0.6948592,-0.58246,-0.13744467,297.06976,-75.56982,-3.7036974,SDL
9231816740000,0.909451,-1.22125129756254,7.90357199565103,2.13812638484577,-0.729984,-0.58551437,-0.17806722,297.35623,-75.43896,-3.6193879,SDL
9231821812000,0.914523,-1.27297492776172,7.8366213281285,2.15842912129902,-0.76052725,-0.58001655,-0.23640485,297.64142,-75.30306,-3.5490992,SDL
9231826756000,0.919467,-1.32339322975399,7.77136026735733,2.17821948585439,-0.8023715,-0.56169057,-0.31398472,297.92456,-75.152824,-3.4974425,SDL
9231831726000,0.924437,-1.37407667653829,7.70575600521479,2.19811392595152,-0.8436049,-0.54305923,-0.39950588,298.2074,-74.99281,-3.4655187,SDL
9231836743000,0.929454,-1.42523942352356,7.63953134059323,2.21819650260491,-0.87598073,-0.5271767,-0.4746423,298.48752,-74.822586,-3.4537168,SDL
9231841722000,0.934433,-1.47601465119741,7.57380827797599,2.23812696885111,-0.9138544,-0.4981606,-0.5119051,298.75916,-74.63995,-3.4572337,SDL
9231846720000,0.939431,-1.52698363852697,7.50783441435659,2.2581334903009,-0.93492925,-0.46944994,-0.5815437,299.0315,-74.44991,-3.4910285,SDL
9231851710000,0.944421,-1.5778710428436,7.44196615115915,2.27810798850707,-0.9611965,-0.441961,-0.6386596,299.2952,-74.25041,-3.5327845,SDL
9231856731000,0.949442,-1.62907458133534,7.37568868632661,2.29820657678226,-0.9978484,-0.41447207,-0.6936375,299.55347,-74.041954,-3.5939958,SDL
9231861711000,0.954422,-1.67986000688581,7.30995242365662,2.31814104593391,-1.0100657,-0.39645153,-0.7431176,299.80823,-73.83386,-3.6691353,SDL
9231866735000,0.959446,-1.7310941390074,7.24363535866585,2.33825164292546,-1.0305296,-0.3924809,-0.77579886,300.05994,-73.61515,-3.7537544,SDL
9231871797000,0.964508,-1.78271579044042,7.17681669167077,2.35851435032418,-1.0442741,-0.40653083,-0.8072584,300.3132,-73.39604,-3.8493207,SDL
9231876841000,0.969552,-1.72301456060948,7.18663170124154,2.39822813233634,-1.0531317,-0.4089743,-0.83169305,300.562,-73.17524,-3.9506803,SDL
9231882559000,0.97527,-1.58910138848758,7.24328712099323,2.45488360586907,-1.0687088,-0.41050145,-0.8564331,300.8148,-72.95098,-4.0571356,SDL
9231886671000,0.979382,-1.46876084123478,7.29022522284237,2.47339993338002,-1.0641272,-0.4007276,-0.85154617,301.0651,-72.56644,-4.3336167,SDL
9231891727000,0.984438,-1.30181216794526,7.35283082551449,2.4786171304924,-1.0906999,-0.40439278,-0.86101454,301.32193,-72.17021,-4.614432,SDL
9231896713000,0.989424,-1.13597109348541,7.43331994620978,2.46481961022014,-1.0928379,-0.4007276,-0.86559606,301.60486,-71.80499,-4.8302016,SDL
9231901723000,0.994434,-0.968694165265465,7.52412745632035,2.44092292329913,-1.0751228,-0.38759398,-0.874759,301.8866,-71.44219,-5.0459604,SDL
9231906750000,0.999461,-0.833358339753579,7.55893138802319,2.45798839475448,-1.0622946,-0.3820962,-0.8765916,302.20966,-71.110985,-5.18992,SDL
9231911722000,1.004433,-0.716885361431419,7.56324510927704,2.4968126517938,-1.0366384,-0.3930918,-0.8756753,302.53314,-70.79364,-5.3318844,SDL
9231916655000,1.009366,-0.582053117039313,7.54189995242132,2.53815413009431,-0.99112886,-0.40317106,-0.8949176,302.909,-70.53272,-5.3949623,SDL
9231921807000,1.014518,-0.414746674873371,7.48438852090707,2.58520913621914,-0.97341377,-0.4025602,-0.89369583,303.2815,-70.27889,-5.4503145,SDL
9231926708000,1.019419,-0.386799664061938,7.4314336167033,2.57073836503496,-0.9611965,-0.3885103,-0.94806284,303.73053,-70.06592,-5.4364285,SDL
9231931690000,1.024401,-0.463062044643357,7.37900326769231,2.50877517552448,-0.9285152,-0.35979962,-1.0161743,304.17438,-69.86811,-5.42751,SDL
9231936658000,1.029369,-0.541372210539629,7.30395442596965,2.45742805969646,-0.88086766,-0.3484986,-1.0806206,304.7226,-69.720436,-5.3145237,SDL
9231941694000,1.034405,-0.622702411610951,7.20827197458586,2.41437093409384,-0.8671232,-0.32620203,-1.1123856,305.25986,-69.57468,-5.217635,SDL
9231946680000,1.039391,-0.682836126510949,7.07775438352311,2.38685632449635,-0.82558435,-0.30787608,-1.1661417,305.95172,-69.53441,-5.016575,SDL
9231952523000,1.045234,-0.731849769489051,6.88714554447689,2.37051844350365,-0.788627,-0.2846632,-1.2232577,306.63394,-69.49798,-4.8356557,SDL
9231956691000,1.049402,-0.800205292781924,6.73340282603006,2.34696199031796,-0.7611381,-0.27458394,-1.241889,307.57224,-69.61346,-4.435604,SDL
9231961682000,1.054393,-0.912601837163889,6.53304369544014,2.30786742251304,-0.75747293,-0.2406809,-1.2586879,308.49158,-69.72857,-4.07611,SDL
9231966653000,1.059364,-1.01548751468871,6.32709644806493,2.27921072727903,-0.75533485,-0.19394971,-1.2550226,309.51593,-69.851,-3.6911619,SDL
9231971805000,1.064516,-1.11316087776898,6.10733134288825,2.25967611585668,-0.75136423,-0.12889257,-1.255328,310.5147,-69.97453,-3.3394332,SDL
9231976717000,1.069428,-1.20014363476013,5.95641607273772,2.298791275237,-0.75716746,-0.07544186,-1.2479976,311.61627,-70.11659,-2.9574513,SDL
9231981679000,1.07439,-1.28205136828498,5.86085720867567,2.39435023432922,-0.77091193,-0.03023783,-1.2208142,312.6849,-70.25948,-2.600726,SDL
9231986671000,1.079382,-1.36489818598582,5.8432179246892,2.5250574521011,-0.78954333,0.017104227,-1.1835514,313.77814,-70.40059,-2.2564871,SDL
9231991689000,1.0844,-1.44883515308743,5.94196729774992,2.70774389537655,-0.8356637,0.06536258,-1.1456778,314.83987,-70.53295,-1.9337202,SDL
9231996657000,1.089368,-1.51527715661505,6.09091007141317,2.89544479333595,-0.88422745,0.11789699,-1.0952814,315.91486,-70.64137,-1.6212301,SDL
9232001663000,1.094374,-1.5622602131223,6.30233375210702,3.09277362085457,-0.93951076,0.16218472,-1.058324,316.9591,-70.73846,-1.330017,SDL
9232006632000,1.099343,-1.6130703285288,6.73891962646971,3.38507681029543,-0.9990701,0.18570304,-0.98929626,317.99182,-70.788246,-1.0581485,SDL
9232011686000,1.104397,-1.67084554705063,7.51407025292947,3.82320537060579,-1.07665,0.20250183,-0.9309586,318.9941,-70.82179,-0.80518275,SDL
9232016642000,1.109353,-1.760761783537,8.10999826698602,4.11150401282628,-1.1261301,0.22174409,-0.8979719,319.95865,-70.80918,-0.5915783,SDL
9232022091000,1.114802,-1.91380905949751,8.49771840209209,4.19823100851501,-1.1756102,0.19364429,-0.8164214,320.90494,-70.78105,-0.36614326,SDL
9232026619000,1.11933,-2.01512885027214,8.78008399059871,4.23094909213261,-1.2156218,0.14446963,-0.72112644,321.80185,-70.694214,-0.1843061,SDL
9232031682000,1.124393,-2.08230586662049,9.02479949856507,4.19736063406234,-1.2617421,0.10903945,-0.6407976,322.68112,-70.598335,-0.0022061507,SDL
9232036643000,1.129354,-2.12318195347497,9.22719584767735,4.16544557724163,-1.2916746,0.070554934,-0.61361414,323.56635,-70.508446,0.1519787,SDL
9232041688000,1.134399,-2.11448282563918,9.35768321939143,4.13499844814548,-1.2950343,0.07147124,-0.5885687,324.42963,-70.41985,0.3083435,SDL
9232046638000,1.139349,-2.1040946472538,9.461371377138,4.10060176509083,-1.3109168,0.18081611,-0.6047566,325.26544,-70.3501,0.4266739,SDL
9232051676000,1.144387,-2.07846619728036,9.36910902145968,4.02884240488686,-1.2742649,0.11148291,-0.59223384,326.133,-70.30004,0.5590564,SDL
9232056648000,1.149359,-2.07133746603485,9.25538469041068,3.94412485376541,-1.2596041,0.029932396,-0.54061574,326.9642,-70.26006,0.6758799,SDL
9232061681000,1.154392,-2.1253679750535,9.06382244288189,3.81150466265158,-1.244638,-0.051618114,-0.505491,327.8055,-70.23483,0.782484,SDL
9232066697000,1.159408,-2.20508829349722,8.87171542188739,3.76704183021412,-1.2327261,-0.11209377,-0.5290093,328.62067,-70.21614,0.86836964,SDL
9232071807000,1.164518,-2.35547106500793,8.67282204460745,3.95623304581681,-1.2296717,-0.14538592,-0.5366451,329.4379,-70.202515,0.9590699,SDL
9232076757000,1.169468,-2.52500317924973,8.53676090945694,4.08164465419817,-1.2333369,-0.1740966,-0.54611355,330.29395,-70.21156,1.0364575,SDL
9232081677000,1.174388,-2.75635884732397,8.55064252784052,4.05388204553668,-1.2504412,-0.18478674,-0.57757306,331.14917,-70.22173,1.0936805,SDL
9232086695000,1.179406,-2.92863903903226,8.5606259172043,4.05887725311828,-1.2663237,-0.13072516,-0.6264423,331.98148,-70.18807,1.0955907,SDL
9232091670000,1.184381,-2.87740835648094,8.55596848074291,4.17996836406647,-1.284955,-0.13194689,-0.66859204,332.8262,-70.15385,1.0858133,SDL
9232096677000,1.189388,-2.8879002579922,8.52631179561403,4.27036100808967,-1.3164146,-0.12889257,-0.6637051,333.71985,-70.15937,1.0521226,SDL
9232101670000,1.194381,-3.1954948502924,8.37717438947368,4.20977392163743,-1.3726143,-0.14294247,-0.6282749,334.61148,-70.155624,1.0051413,SDL
9232106670000,1.199381,-3.47414047983841,8.23829354204921,4.16629065824458,-1.4181237,-0.13988814,-0.6630942,335.4267,-70.09453,0.90531766,SDL
9232111683000,1.204394,-3.53584815337863,8.17658605260742,4.25003684579508,-1.4456125,-0.103847094,-0.6844745,336.22574,-70.02548,0.80863327,SDL
9232116674000,1.209385,-3.59728501726037,8.11514937201616,4.33341550569225,-1.4575244,-0.076358154,-0.6759224,337.13257,-70.00885,0.69526637,SDL
9232121810000,1.214521,-3.57550459803085,8.00498138284652,4.4651670269336,-1.4795157,-0.040317107,-0.6542367,338.0189,-69.98353,0.56489563,SDL
9232126776000,1.219487,-3.54985457294118,7.88720173352941,4.59655729514706,-1.4990633,-0.031154128,-0.59895337,338.89218,-69.95665,0.4360042,SDL
9232131683000,1.224394,-3.52681861333333,7.71673544,4.73477329333333,-1.4978416,-0.040011674,-0.5870415,339.77167,-69.91438,0.2824047,SDL
9232136692000,1.229403,-3.48863267304469,7.55266737579143,4.85815195158287,-1.496009,-0.093767814,-0.5717699,340.62378,-69.82991,0.13389145,SDL
9232141695000,1.234406,-3.27449742536313,7.50805589497207,4.76892898994413,-1.4782939,-0.09101892,-0.52931476,341.45087,-69.752365,-0.016677614,SDL
9232146656000,1.239367,-3.0621598351676,7.46381892588454,4.68045505176909,-1.4611896,-0.03970624,-0.49541172,342.20868,-69.59758,-0.19602682,SDL
9232151672000,1.244383,-2.87136919741625,7.45162973028785,4.48202108537184,-1.4074335,0.01038471,-0.46181414,342.9552,-69.461784,-0.36952603,SDL
9232156626000,1.249337,-2.68493244736222,7.44230799498968,4.27694057270852,-1.3570372,0.07452556,-0.44165558,343.67596,-69.33284,-0.5491385,SDL
9232161667000,1.254378,-2.47677650076359,7.52553157596192,4.44611345683261,-1.3191634,0.29229903,-0.46822822,344.275,-69.18668,-0.7422257,SDL
9232166635000,1.259346,-2.26917898430186,7.61989401626339,4.66314721732447,-1.2385293,0.3005457,-0.4092797,344.89832,-69.07081,-0.8958419,SDL
9232171701000,1.264412,-2.43644382679871,7.57322378320534,4.69688486628941,-1.2147056,0.3210097,-0.37812558,345.4364,-68.96197,-1.0670922,SDL
9232176626000,1.269337,-2.65568655214228,7.5064976974131,4.70165100816492,-1.1746938,0.4364632,-0.410196,345.94434,-68.8817,-1.2526342,SDL
9232181679000,1.27439,-2.68981978995633,7.59840568716157,4.76872292349345,-1.1472049,0.5717699,-0.42546764,346.37158,-68.741356,-1.4156036,SDL
9232186653000,1.279364,-2.69906476899563,7.70934611138282,4.84268309368268,-1.0894781,0.6398814,-0.40317106,346.78412,-68.62306,-1.583151,SDL
9232191691000,1.284402,-2.96940633063778,7.77327418095819,4.95316694242702,-1.0870347,0.711658,-0.4007276,347.2044,-68.49496,-1.8061067,SDL
9232196618000,1.289329,-3.28618040588953,7.8260699102838,5.06835730566575,-1.0699304,0.88056225,-0.48288897,347.58588,-68.38592,-2.0635545,SDL
9232201657000,1.294368,-3.54470362448704,7.94167465271778,5.44601306834953,-1.0369438,1.0302242,-0.5571091,347.95764,-68.27333,-2.3250165,SDL
9232206653000,1.299364,-3.79013252913067,8.06654183162347,5.86367295837833,-1.0146471,0.91996306,-0.5335908,348.35162,-68.16225,-2.5721765,SDL
9232211688000,1.304399,-3.81429459239344,8.12509432655738,6.07177711501639,-1.0647382,0.84940815,-0.51007247,348.75406,-68.03111,-2.9011188,SDL
9232216671000,1.309382,-3.71520129291803,8.14595594196721,6.16043971570492,-1.112691,0.79626286,-0.43127087,349.17242,-67.90749,-3.1982703,SDL
9232221790000,1.314501,-4.12391332457221,8.23609965776865,6.33383525859001,-1.1572843,0.79168135,-0.48808134,349.63034,-67.69849,-3.564954,SDL
9232226743000,1.319454,-4.62946710488902,8.33813862550112,6.51935937325706,-1.1829406,0.7672467,-0.52534413,350.0962,-67.48518,-3.8966238,SDL
9232231690000,1.324401,-4.88839130775233,8.47145688476543,6.40115022656797,-1.1933253,0.7498371,-0.5332854,350.54102,-67.22261,-4.2286553,SDL
9232236702000,1.329413,-5.080444560008,8.61549686155847,6.19469287636291,-1.2052372,0.86315256,-0.5635232,350.96326,-66.9506,-4.586158,SDL
9232241687000,1.334398,-5.21483415087893,8.72085101777602,6.16290887977484,-1.1866057,0.70371675,-0.52106804,351.52353,-66.67611,-4.9662957,SDL
9232246730000,1.339441,-5.33407156800316,8.81624071242346,6.1819869183093,-1.2318097,0.45875978,-0.42424592,352.07202,-66.38249,-5.339163,SDL
9232251700000,1.344411,-5.41706728799598,8.90786295620291,6.24427629860372,-1.3054191,0.38423425,-0.38728857,352.66223,-66.142265,-5.7338247,SDL
9232256736000,1.349447,-5.48973745092918,8.99991172807635,6.32179103789051,-1.3161092,0.29565877,-0.33322698,353.30295,-65.914566,-6.0681553,SDL
9232261714000,1.354425,-5.75674794668788,8.9887324699622,6.3072264699622,-1.3274102,0.1777618,-0.269697,353.97525,-65.67095,-6.393043,SDL
9232266734000,1.359445,-6.08668787109608,8.94569697961011,6.26419097961011,-1.3503176,0.1441642,-0.26450464,354.64227,-65.42182,-6.7174816,SDL
9232271803000,1.364514,-6.17834829360694,8.82631654853986,5.99242801341752,-1.3658947,0.13439035,-0.28221974,355.3143,-65.15791,-7.0323787,SDL
9232277352000,1.370063,-6.19407666475927,8.66903064719811,5.61494141223362,-1.3521502,0.23548855,-0.33383787,355.962,-64.89543,-7.362606,SDL
9232281717000,1.374428,-6.35616433202357,8.5117118021611,5.80578190856582,-1.3069462,0.016493361,-0.23609942,356.74796,-64.67435,-7.6599503,SDL
9232286691000,1.379402,-6.57609037721022,8.32454037760314,6.13801061304519,-1.3521502,-0.10934488,-0.20799962,357.48764,-64.42106,-8.009789,SDL
9232291720000,1.384431,-6.55816599762259,8.25172660653789,6.29957224603269,-1.4101825,-0.1337795,-0.23396139,358.28656,-64.24132,-8.333482,SDL
9232296718000,1.389429,-6.43014689390788,8.23276094175334,6.38017679170877,-1.4089607,-0.19914207,-0.22632557,359.1086,-64.068184,-8.623175,SDL
9232301710000,1.394421,-6.24499782412509,8.20863542367833,6.47527629538347,-1.3860532,-0.28252518,-0.24495697,359.93878,-63.7946,-8.963082,SDL
9232306716000,1.399427,-6.03081398946389,8.18186236280715,6.5779061912137,-1.3753631,-0.37873647,-0.21563543,0.7695871,-63.524025,-9.279083,SDL
9232311717000,1.404428,-5.96964819851651,8.06240351034267,6.61934948148767,-1.4037683,-0.40591997,-0.23151793,1.5568384,-63.20625,-9.59661,SDL
9232316721000,1.409432,-6.0497522430631,7.857136523715,6.60432974442123,-1.3939945,-0.45265114,-0.24098633,2.3584864,-62.907425,-9.890722,SDL
9232321771000,1.414482,-6.07550122613925,7.67537793017798,6.57822185590651,-1.3799446,-0.4908302,-0.24831672,3.100782,-62.55289,-10.157679,SDL
9232326810000,1.419521,-6.06606307960102,7.51020950342265,6.54518812127909,-1.3564262,-0.5403103,-0.23090707,3.8471158,-62.210083,-10.412435,SDL
9232331717000,1.424428,-5.99774150663339,7.32272512139772,6.3820272592301,-1.3225232,-0.5503896,-0.28405234,4.614886,-61.861134,-10.702051,SDL
9232336745000,1.429456,-5.88218009190746,7.11009173988672,6.11392456855141,-1.3014483,-0.52748215,-0.34025195,5.375423,-61.52034,-10.985507,SDL
9232341712000,1.434423,-5.81235148061765,6.9293654082404,5.95178412144119,-1.2055426,-0.6310238,-0.33964106,6.1540847,-61.19667,-11.255075,SDL
9232346927000,1.439638,-5.78966958588081,6.77311227666145,5.89885970038856,-1.1676689,-0.70188415,-0.28130344,6.9091463,-60.866512,-11.53034,SDL
9232351712000,1.444423,-5.76885791448756,6.62974291240349,5.85029913380431,-1.1624765,-0.70952,-0.18417588,7.6518464,-60.57879,-11.782248,SDL
9232356720000,1.449431,-5.74707633656961,6.47969196648837,5.79947545199576,-1.2043208,-0.68569624,-0.19822577,8.402082,-60.28351,-12.043622,SDL
9232361713000,1.454424,-5.63911482374764,6.39470964068049,5.79429309491122,-1.1881329,-0.73426,-0.1994475,9.140788,-60.011368,-12.2681465,SDL
9232366729000,1.45944,-5.44850961013788,6.37088401385775,5.8324140978276,-1.133155,-0.7199047,-0.2321288,9.853815,-59.73452,-12.516398,SDL
9232371808000,1.464519,-5.25683285525981,6.38556526899892,5.87799456899892,-1.1053606,-0.7113526,-0.24007004,10.574254,-59.452766,-12.756955,SDL
9232376766000,1.469477,-5.07097587674919,6.43667589806243,5.92910519806243,-1.0580186,-0.64476824,-0.35308012,11.285856,-59.173355,-13.043457,SDL
9232381697000,1.474408,-4.95973284937759,6.2921408533195,5.84197128008299,-0.93554014,-0.72051555,-0.31795537,11.966283,-58.917587,-13.249787,SDL
9232386687000,1.479398,-4.9361267280577,5.90972154004149,5.58702487403675,-0.8863655,-0.6441574,-0.17592919,12.584515,-58.65557,-13.487594,SDL
9232391677000,1.484388,-4.98151000398975,5.74027572357247,5.50972569756589,-0.88300574,-0.48838675,-0.058337633,13.160284,-58.393772,-13.69096,SDL
9232396710000,1.489421,-5.12265230944363,5.86377507964861,5.67733224286237,-0.8723156,-0.32589662,-0.10629055,13.712212,-58.144726,-13.91285,SDL
9232401698000,1.494409,-5.2518851410359,5.93986443168755,5.82045434308875,-0.8313876,-0.29840767,-0.17715092,14.285595,-57.939022,-14.12707,SDL
9232406744000,1.499455,-5.34854443441415,5.86864183360354,5.89167683492999,-0.76083267,-0.32498032,-0.19425514,14.824395,-57.743237,-14.356143,SDL
9232411616000,1.504327,-5.29466916668971,5.86857756566265,5.92997350306143,-0.70188415,-0.28069258,-0.21471913,15.353601,-57.51625,-14.632013,SDL
9232417162000,1.509873,-4.89603341063599,6.02593362228916,5.90374748449536,-0.6646214,-0.301462,-0.22327125,15.902017,-57.299458,-14.896722,SDL
9232421835000,1.514546,-4.72425302352941,6.03870464889706,5.85804805882353,-0.62888575,-0.32589662,-0.16676621,16.441528,-57.07488,-15.169259,SDL
9232426770000,1.519481,-4.84313839582043,5.83294155229296,5.76659777244582,-0.58001655,-0.32162055,-0.3313944,17.007711,-56.829227,-15.499978,SDL
9232431693000,1.524404,-4.94008878469993,5.63314201157475,5.6706572445482,-0.4364632,-0.42394048,-0.31764993,17.51391,-56.654984,-15.687495,SDL
9232436701000,1.529412,-4.97274356536329,5.44654284044354,5.55869773212723,-0.42088616,-0.4447099,-0.21227567,18.004677,-56.450382,-15.904899,SDL
9232441702000,1.534413,-4.97336857829519,5.32721109984011,5.47203153794344,-0.40133846,-0.42455134,-0.13347405,18.54377,-56.279224,-16.148586,SDL
9232446720000,1.539431,-4.83890488234236,5.49048845567103,5.49124074481863,-0.41233405,-0.3549127,-0.06963864,19.05649,-56.11463,-16.374819,SDL
9232451681000,1.544392,-4.73803351704071,5.60208564619662,5.48361879602781,-0.41386122,-0.3943135,-0.06536258,19.61752,-55.955074,-16.596836,SDL
9232456727000,1.549438,-4.77642435694141,5.49651079888779,5.35884830327706,-0.35369098,-0.47678033,-0.038789943,20.151842,-55.81697,-16.80253,SDL
9232461697000,1.554408,-4.78527751305201,5.40594499332679,5.23208687065751,-0.2929099,-0.49846604,-0.034208454,20.642963,-55.67747,-16.98441,SDL
9232466744000,1.559455,-4.65720852600589,5.37748516339549,5.08504482875368,-0.25045475,-0.48655418,0.016187929,21.129051,-55.55667,-17.142803,SDL
9232471811000,1.564522,-4.53359873640461,5.31882038281422,4.95770913924887,-0.21410827,-0.4352415,0.06963864,21.6149,-55.44876,-17.314644,SDL
9232476772000,1.569483,-4.43843498117176,5.10470178448673,4.93867633851778,-0.172264,-0.3915646,0.106595986,22.087101,-55.354195,-17.48041,SDL
9232481686000,1.574397,-4.32310272942212,4.87452630727486,4.90822258653564,-0.13683382,-0.3576616,0.14966199,22.518185,-55.296963,-17.622513,SDL
9232486814000,1.579525,-4.06859778791434,4.51917967447932,4.80257901739513,-0.10720685,-0.32589662,0.21533,22.922934,-55.253387,-17.75761,SDL
9232491668000,1.584379,-3.85660262843956,4.20790952926446,4.72103758056565,-0.08307768,-0.28619036,0.25870144,23.307896,-55.19846,-17.88899,SDL
9232496714000,1.589425,-3.93253226760287,4.14147085961897,4.82544102023962,-0.056505036,-0.24220806,0.30482176,23.667202,-55.15785,-18.010654,SDL
9232501784000,1.594495,-4.00127535253896,4.0665459794369,4.91772159673203,-0.032070424,-0.22388211,0.3472769,24.003695,-55.10514,-18.097374,SDL
9232506707000,1.599418,-3.97757178819507,3.89587955382604,4.85609207202614,-0.00580322,-0.19639318,0.39461896,24.314264,-55.06435,-18.181503,SDL
9232511716000,1.604427,-3.96515745488399,3.72501835942679,4.80586076098655,0.0009162979,-0.12003502,0.45662177,24.620478,-55.007145,-18.276846,SDL
9232516678000,1.609389,-4.09949995279782,3.59067605500097,4.91240802914798,-0.005497787,-0.1142318,0.50854534,24.927994,-54.955967,-18.359068,SDL
9232521906000,1.614617,-4.22463745839255,3.46639854242819,5.01423424030628,0.003970624,-0.115453534,0.5225952,25.228563,-54.901848,-18.450684,SDL
9232526721000,1.619432,-4.09079106093484,3.61409089624662,4.94961887767991,0.015882496,-0.118507855,0.5500842,25.514019,-54.854065,-18.52914,SDL
9232532763000,1.625474,-3.92660812277736,3.80183576225304,4.87357407218845,-0.0070249503,-0.07696902,0.5885687,25.820776,-54.762886,-18.63759,SDL
9232536716000,1.629427,-3.82952014487082,3.93128637443009,4.83761558966565,-0.03604105,-0.073303826,0.59559363,26.13431,-54.669586,-18.74346,SDL
9232541706000,1.634417,-3.70696284414894,4.09469607712766,4.79222403191489,-0.0693332,-0.11453723,0.6264423,26.404873,-54.602276,-18.797523,SDL
9232546717000,1.639428,-3.91452224584737,4.64442194970268,4.962703385778,-0.11759156,-0.10476339,0.60139686,26.664942,-54.514755,-18.873816,SDL
9232551633000,1.644344,-4.14782059962339,5.21833571679881,5.14934207854311,-0.20677789,-0.07941248,0.63285637,26.914328,-54.42184,-18.927227,SDL
9232556793000,1.649504,-4.35716542619288,6.52269128463405,5.33985981378892,-0.31123585,-0.021685716,0.7706065,27.105705,-54.353107,-18.931643,SDL
9232561616000,1.654327,-4.54860746825718,7.82543214617873,5.51729375171856,-0.45173484,0.17470746,0.93218035,27.242605,-54.26287,-18.948814,SDL
9232566721000,1.659432,-4.46785615329613,9.06141388442258,5.82787949144046,-0.6123924,0.52778757,1.0592403,27.304314,-54.18576,-18.97911,SDL
9232571731000,1.664442,-4.358945349267,10.2594344345976,6.14553661524638,-0.7339546,0.9257663,1.1462886,27.282333,-54.10457,-19.016697,SDL
9232576780000,1.669491,-3.6701176307836,11.4236796445252,6.81283311271406,-0.6728681,1.135293,1.1502593,27.158182,-54.159607,-19.017828,SDL
9232581619000,1.67433,-2.88131462638298,12.5299272765957,7.52948926382979,-0.40653083,1.1939361,1.2189816,26.948814,-54.2589,-19.014942,SDL
9232586685000,1.679396,-2.71405997478552,12.6232540605463,9.7864510533478,-0.01160644,1.0693196,1.280679,26.64401,-54.50469,-18.90216,SDL
9232591624000,1.684335,-2.65342521453506,12.5486265059659,12.2211734995563,0.21380283,0.73792523,1.3854424,26.367258,-54.78497,-18.737995,SDL
9232596702000,1.689413,-1.57141667376847,13.8933832033388,13.9483566836344,0.12858713,0.46914452,1.6417004,25.950037,-55.19706,-18.296335,SDL
9232602382000,1.695093,-0.137324351272578,15.7095691621055,15.7099577491334,-0.3036,0.06780604,1.8344283,25.657635,-55.566826,-17.788647,SDL
9232606721000,1.699432,0.315551094964937,16.6654837124825,16.6559067124825,-0.9828822,-0.43096542,2.035403,25.53004,-55.583168,-17.147284,SDL
9232611662000,1.704373,0.601435686464559,17.59971385554,17.59013685554,-1.7675385,-0.9236283,2.207667,25.473509,-55.47518,-16.428743,SDL
9232616707000,1.709418,0.020793032910419,18.1303581255286,17.8914141996348,-2.5848763,-1.2308935,2.2708917,25.344124,-55.283947,-15.36066,SDL
9232621786000,1.714497,-0.788013601114956,18.5558000430604,18.0269943066128,-3.335935,-1.2599095,2.2687535,25.243204,-54.879456,-14.286475,SDL
9232626821000,1.719532,-1.34202641501907,18.3559706071539,16.5194086773529,-3.8304305,-1.3041973,2.2134702,25.188143,-54.30072,-13.138334,SDL
9232631676000,1.724387,-1.79255389971137,17.9533709457788,14.5112063157406,-3.8994584,-1.3808609,2.1551325,25.136171,-53.5993,-12.036197,SDL
9232636724000,1.729435,-1.99751877354729,16.6750301188079,12.0041934163261,-3.765679,-1.6276505,2.0231857,25.185143,-52.77513,-11.064212,SDL
9232641681000,1.734392,-2.1252722692415,15.1798421999402,9.42546695734077,-3.2791247,-1.790446,1.8573358,25.232971,-52.01074,-10.1511345,SDL
9232646683000,1.739394,-1.83278838920258,13.890448510946,8.20778372174344,-2.6859746,-1.7015651,1.7464638,25.262785,-51.43099,-9.364244,SDL
9232651723000,1.744434,-1.41203501030213,12.6568761840515,7.39496477374938,-2.3252585,-1.5418239,1.7143933,25.323505,-50.908894,-8.606183,SDL
9232656694000,1.749405,-0.822030778583209,11.8124170192442,7.86829186040483,-2.2666154,-1.4178182,1.738217,25.381495,-50.581512,-7.9605517,SDL
9232661679000,1.75439,-0.174638986968392,11.0841010136604,8.74893493199721,-2.440712,-1.3967434,1.8234328,25.417963,-50.288364,-7.3334227,SDL
9232666688000,1.759399,0.246600197055093,10.3228851836094,9.19455232330164,-2.7113254,-1.4819591,1.8994855,25.436913,-49.96931,-6.698826,SDL
9232671911000,1.764622,0.604548964358396,9.51872648269777,9.50346709606901,-2.9938505,-1.5451837,1.9410243,25.43199,-49.60116,-6.0740933,SDL
9232676690000,1.769401,0.622264366132691,8.59749632756828,9.38461899782629,-3.2809572,-1.6930131,1.9706513,25.43648,-48.976612,-5.3191614,SDL
9232681725000,1.774436,0.526564176807485,7.55846571420471,9.11118961355259,-3.438866,-1.8332067,1.9865338,25.439377,-48.310547,-4.5615172,SDL
9232686660000,1.779371,0.36718667605188,5.9968374091293,7.81244791594611,-3.4190128,-1.9104811,1.9947804,25.4243978468119,-47.4853465261329,-3.77367393730116,SDL
9232696687000,1.789398,0.120875068055294,3.178671139658,4.68637009894532,-3.1783319,-1.6899587,2.0399845,25.393963,-45.808693,-2.1729233,SDL
9232701710000,1.794421,0.194760433425763,3.06538027036658,4.22828067687897,-3.0708196,-1.5714508,2.0809124,25.335604,-44.95223,-1.4167707,SDL
9232707361000,1.800072,0.235109697763379,3.01513854498961,3.97366232865763,-3.0042353,-1.4828753,2.1383338,25.237034,-44.118893,-0.70620483,SDL
9232711722000,1.804433,0.251635346830547,3.0027443146602,3.86624570894253,-2.9816332,-1.4123205,2.2250767,25.091879,-43.305416,-0.012103096,SDL
9232716712000,1.809423,0.28199404392394,2.99168543686859,3.63671132794658,-3.0341678,-1.4294246,2.3118196,24.918863,-42.519512,0.6899221,SDL
9232721835000,1.814546,0.319975070613509,2.98219018887169,3.3376107185988,-3.0271428,-1.4117095,2.4260514,24.69193,-41.759598,1.3816873,SDL
9232726765000,1.819476,0.310325207519294,2.96181152962814,3.13769282044703,-3.0051515,-1.4117095,2.5631905,24.439863,-41.004444,2.0910485,SDL
9232731721000,1.824432,0.267510339911797,2.93326825806355,2.99973386496943,-2.95109,-1.391551,2.631913,24.162407,-40.26375,2.7893362,SDL
9232736717000,1.829428,0.0704873473135056,2.88362548016577,2.95073698343247,-2.9266553,-1.3454307,2.7598891,23.833979,-39.567535,3.5029392,SDL
9232741729000,1.83444,-0.243108947430522,2.81809789327157,2.96945913715261,-2.8707612,-1.321607,2.8903089,23.484013,-38.898582,4.2178235,SDL
9232746716000,1.839427,-0.57521003992755,2.76077060601525,3.02106350745472,-2.780353,-1.2788464,3.0014863,23.095318,-38.275433,4.913167,SDL
9232751696000,1.844407,-0.925288430547188,2.71075949009533,3.10290005159199,-2.7088819,-1.2589933,3.079677,22.680256,-37.665268,5.6135626,SDL
9232756716000,1.849427,-1.3200702535803,2.69194594081126,3.1883533087231,-2.6392434,-1.2244794,3.119078,22.234112,-37.104633,6.245517,SDL
9232761718000,1.854429,-1.77114537555877,2.71673027110927,3.27757694955505,-2.5555549,-1.187522,3.154508,21.767832,-36.57561,6.8729935,SDL
9232766724000,1.859435,-2.18696880164984,2.68479618593141,3.48979181631837,-2.4718661,-1.1267409,3.1719177,21.297356,-36.153206,7.3904,SDL
9232771843000,1.864554,-2.57421708245175,2.59166043145685,3.83782495370463,-2.4297166,-1.0311406,3.1688635,20.818981,-35.753002,7.8850884,SDL
9232776980000,1.869691,-2.98216793030905,2.82813385909768,4.19882484658651,-2.4483478,-0.99173975,3.1676416,20.315348,-35.179203,8.385249,SDL
9232781718000,1.874429,-3.37445827487827,3.31962407173805,4.54151539837027,-2.493552,-0.9654725,3.167947,19.803314,-34.622364,8.854863,SDL
9232786671000,1.879382,-3.61994803233438,3.44146483889984,4.92044336740931,-2.516154,-0.9077458,3.1407638,19.270151,-33.966503,9.2621155,SDL
9232791728000,1.884439,-3.68201313572555,3.11681635651617,5.33102814679614,-2.5124888,-0.91507614,3.1117475,18.748549,-33.31991,9.665794,SDL
9232796666000,1.889377,-3.5823618088394,2.83743413206122,5.86659043735897,-2.52043,-0.95905846,3.073874,18.22195,-32.62831,10.000535,SDL
9232801934000,1.894645,-3.26064205642107,2.589957311969,6.61891975544001,-2.418721,-0.9126327,3.016758,17.695879,-31.985317,10.295572,SDL
9232806633000,1.899344,-2.64121464657834,2.25864116931307,7.64052768241176,-2.2449298,-0.7641924,2.9410107,17.165346,-31.312593,10.540762,SDL
9232811720000,1.904431,-1.46724708672333,1.73254791213879,9.27726222637736,-2.0054705,-0.5699373,2.8545732,16.645061,-30.708319,10.742039,SDL
9232816636000,1.909347,-0.033588693164715,1.13851858662123,11.1041222202918,-1.6945401,-0.30818152,2.7440066,16.155884,-30.183706,10.888409,SDL
9232821725000,1.914436,1.91717598180457,0.390023708811672,13.3776757124208,-1.3564262,-0.15882497,2.5735753,15.7131605,-29.76406,10.988382,SDL
9232826645000,1.919356,4.03743755144231,-0.367356495288462,15.2441126602564,-1.0543534,0.09712757,2.4685066,15.054789,-29.042492,11.157999,SDL
9232831717000,1.924428,6.74732104326923,-1.22362125865385,16.4263418076923,-0.91599244,0.27183503,2.1679606,14.49065,-28.411032,11.249433,SDL
9232836635000,1.929346,9.01750620080321,-1.94432255783133,17.3878274618474,-0.69913524,0.42760566,1.7712038,13.802334,-27.578426,11.498249,SDL
9232841735000,1.934446,10.5723652663336,-2.44666161748457,17.9714974589088,-0.602924,0.7473936,1.1963795,13.204773,-26.808794,11.584914,SDL
9232846647000,1.939358,11.5526619889524,-2.78127020166683,18.4549418251769,-0.54244834,1.02717,0.904386,12.522239,-25.899935,11.989223,SDL
9232851708000,1.944419,11.1722056422134,-2.72490643468359,18.7414584785347,-0.5152648,1.072374,0.7110472,11.97246,-25.078892,12.286369,SDL
9232856664000,1.949375,10.4781955544271,-2.624771178125,18.8896920610532,-0.46914452,1.0002918,0.68019843,11.39632,-24.207485,12.718576,SDL
9232861723000,1.954434,8.56228945607639,-2.35374052291667,18.543893699267,-0.42852196,0.81214535,0.7431176,10.876771,-23.39373,13.123946,SDL
9232866699000,1.95941,6.59976564650952,-2.11764652317921,18.0138600250831,-0.4092797,0.61269784,0.8741482,10.38062,-22.603184,13.463887,SDL
9232871831000,1.964542,4.10448224910849,-2.05823495094188,16.3206324393069,-0.47403142,0.39614612,1.0516045,9.8931265,-21.829107,13.845068,SDL
9232876689000,1.9694,1.84422670378759,-2.06938769697379,14.6540642487471,-0.675617,0.07422013,1.2437216,9.47767,-21.084753,14.050186,SDL
9232881721000,1.974432,0.0468365074113339,-2.44094124624133,12.5872977946222,-0.9334021,-0.2843578,1.3368785,9.074724,-20.32576,14.321394,SDL
9232886681000,1.979392,-1.72062190113468,-2.78148364232856,10.552653823039,-1.1795808,-0.58368176,1.3695599,8.758914,-19.595587,14.407891,SDL
9232891715000,1.984426,-3.46634848116428,-2.83380793734583,8.51676529755303,-1.3206906,-0.7987063,1.382388,8.450757,-18.834425,14.570516,SDL
9232896655000,1.989366,-5.16819927304825,-2.86382606543743,6.58411272279325,-1.2935071,-0.95905846,1.3955216,8.221668,-18.105556,14.627185,SDL
9232901712000,1.994423,-6.68816503864261,-2.47433479460573,5.89062854683209,-1.1417072,-1.0806206,1.4178182,7.9985337,-17.383713,14.727185,SDL
9232906985000,1.999696,-8.20227964389457,-2.08336513760086,5.23461386229155,-0.93859446,-1.2339478,1.4456125,7.9359736,-16.807247,14.723537,SDL
9232911720000,2.004431,-8.73892104294423,-1.90855016019365,5.42569068226645,-0.75136423,-1.3793337,1.4413365,7.8836665,-16.287848,14.742174,SDL
9232916642000,2.009353,-9.29675609386767,-1.72683119107047,5.62431372512103,-0.5861252,-1.5424347,1.4358387,7.7859354,-15.8127575,14.601427,SDL
9232921864000,2.014575,-9.05240930778313,-1.99095903838434,6.24555477721145,-0.41050145,-1.6673567,1.3857478,7.7021956,-15.400044,14.480348,SDL
9232926742000,2.019453,-8.61113197884483,-2.35409366798189,6.93045400783233,-0.23579398,-1.6988163,1.3377949,7.617009,-15.036986,14.372281,SDL
9232931717000,2.024428,-7.47546018699641,-2.89487825222377,7.40431260662146,-0.160963,-1.7293595,1.2293663,7.578635,-14.709706,14.185857,SDL
9232936649000,2.02936,-6.13779358595931,-3.4836398835361,7.80467060837655,-0.06627888,-1.6713274,1.1047498,7.5457907,-14.443926,13.975251,SDL
9232941718000,2.034429,-4.31673929946381,-3.70479930589812,7.68252468579088,-0.04428773,-1.4428637,0.9795224,7.5148616,-14.117215,13.761631,SDL
9232946718000,2.039429,-2.368183669437,-3.79191123619303,7.37992549008043,-0.12461651,-1.1716396,0.92149025,7.489674,-13.798706,13.513132,SDL
9232951702000,2.044413,-0.546285542109973,-3.75188672995923,7.12096585176494,-0.2434298,-0.94989544,0.8536842,7.461374,-13.40751,13.398101,SDL
9232956727000,2.049438,1.22897560758676,-3.64661515344536,6.88171239596301,-0.3735441,-0.7812967,0.8323039,7.4274573,-13.008855,13.217439,SDL
9232962242000,2.054953,2.7587762808335,-3.52585582466485,6.50695649798912,-0.514654,-0.58459806,0.8042041,7.2532234,-12.518833,13.254403,SDL
9232966729000,2.05944,3.84829114802798,-3.42567058208665,6.16048229251991,-0.66737026,-0.41905355,0.77854776,7.0755205,-11.996606,13.246199,SDL
9232971830000,2.064541,4.69781000397768,-3.2188304493861,5.62716541951294,-0.7733554,-0.22815818,0.7189884,6.8163548,-11.448804,13.439294,SDL
9232976757000,2.069468,5.2723598977169,-2.96028288721461,5.02388794109589,-0.84421575,-0.03176499,0.7266242,6.534364,-10.870002,13.582442,SDL
9232981709000,2.07442,5.41606580024011,-2.69199882668075,4.55221173598732,-0.8915578,0.14080444,0.745561,6.2081723,-10.288609,13.879477,SDL
9232986667000,2.079378,5.30205860924894,-2.4183809397426,4.16002617423166,-0.8900307,0.30909783,0.7699956,5.8686304,-9.706863,14.119246,SDL
9232991725000,2.084436,5.04416728082071,-2.29301839027811,4.07009376330849,-0.83169305,0.473726,0.76052725,5.5132527,-9.182823,14.421346,SDL
9232996755000,2.089466,4.6658077136972,-2.30074000669231,4.24769110209185,-0.69974613,0.6423248,0.70188415,5.159511,-8.690149,14.671113,SDL
9233001716000,2.094427,4.28836296075614,-2.31467998052178,4.43872826696883,-0.5335908,0.8231409,0.6032294,4.8310933,-8.2851,14.865005,SDL
9233006730000,2.099441,3.81593186400619,-2.46331010557152,4.96954968288746,-0.3549127,0.9810496,0.528093,4.510458,-7.930833,15.016377,SDL
9233011706000,2.104417,3.37499310968852,-2.60426643603905,5.49021457562994,-0.2171626,1.1169671,0.45448375,4.225185,-7.6009626,15.033088,SDL
9233016734000,2.109445,3.02129507197583,-2.72515063587169,5.99613707816829,-0.089186326,1.2156218,0.39828414,3.9569542,-7.3272915,15.015598,SDL
9233021705000,2.114416,2.65886350185391,-2.84756709529106,6.48519813185947,0.032070424,1.2464706,0.3631594,3.7130032,-7.0562563,14.8851385,SDL
9233026733000,2.119444,2.1500250546904,-3.00378931108639,6.85566837735447,0.076358154,1.3185526,0.3643811,3.4756873,-6.8044863,14.717242,SDL
9233032435000,2.125146,1.57527126464377,-3.18027138000571,7.28068812651003,0.16920967,1.4077389,0.3924809,3.253424,-6.5658813,14.447223,SDL
9233036734000,2.129445,1.16798963141444,-3.30558880435651,7.65664023599353,0.25778514,1.396438,0.39400807,3.0469272,-6.3439374,14.188014,SDL
9233041724000,2.134435,0.695243562604394,-3.45104913176068,8.09302102834586,0.26206118,1.3603969,0.38515055,2.8607259,-6.0839515,13.801136,SDL
9233046720000,2.139431,0.461044712686973,-3.60232260629803,8.41349104807873,0.2565634,1.2565498,0.34605515,2.6943724,-5.8516273,13.440448,SDL
9233051703000,2.144414,0.27767353972821,-3.75438658031865,8.70867378725398,0.21868975,1.1896601,0.3277292,2.5330176,-5.614416,13.084317,SDL
9233056684000,2.149395,0.226790302312824,-3.97487163363202,8.88263177618479,0.15515977,1.1249083,0.30604348,2.4195907,-5.336735,12.650238,SDL
9233061718000,2.154429,0.236390000980685,-4.22926335011947,9.00262782158503,0.08277224,1.0189233,0.26908615,2.3282802,-5.0535917,12.251093,SDL
9233066736000,2.159447,0.331780486220541,-4.5006533449229,8.81756679080593,-0.047647487,0.94042706,0.27763826,2.248256,-4.7032547,11.818881,SDL
9233072554000,2.165265,0.488488640665309,-4.82487720807875,8.43930651052274,-0.19456059,0.8582657,0.2950479,2.1882288,-4.337462,11.422379,SDL
9233076679000,2.16939,0.666316107266436,-5.05720693909017,8.43874736474659,-0.32925636,0.8017606,0.3323107,2.1169157,-3.8986967,11.040183,SDL
9233081723000,2.174434,0.912120175640138,-5.34233949536943,8.55181694585793,-0.41691554,0.7348709,0.39095375,2.0448277,-3.4401345,10.689566,SDL
9233086700000,2.179411,1.07385746060334,-5.54241392927779,8.56547789151933,-0.44959682,0.68752885,0.4633413,1.93709,-2.918525,10.386906,SDL
9233091730000,2.184441,1.19415349556488,-5.70120486424933,8.52698339346719,-0.4822781,0.64996064,0.5525276,1.8162048,-2.3793159,10.104097,SDL
9233096717000,2.189428,1.26856790544244,-5.77073362452958,8.52584003666892,-0.5155703,0.6258314,0.6569856,1.6567649,-1.7927365,9.873712,SDL
9233102073000,2.194784,1.3230142322204,-5.79548193139052,8.54563857878993,-0.5513059,0.602924,0.77579886,1.475067,-1.2037791,9.655796,SDL
9233106680000,2.199391,1.35483045331279,-5.72471108505393,8.7773284,-0.58246,0.52412236,0.88789266,1.2537484,-0.5832068,9.482789,SDL
9233111725000,2.204436,1.379645530868,-5.58574633980483,9.1743699,-0.6258314,0.46700647,0.9963212,1.0061654,0.042776436,9.310656,SDL
9233116753000,2.209464,1.27180916693419,-5.3324826035313,9.48117748073836,-0.6814202,0.37048978,1.0772609,0.73192155,0.67674714,9.179726,SDL
9233121785000,2.214496,1.0880973994382,-5.01340443258427,9.73740689044944,-0.7510588,0.3182608,1.1136073,0.44562694,1.3159616,9.051729,SDL
9233126961000,2.219672,0.859197215357562,-4.6660780631385,9.89752967074192,-0.7877107,0.20463985,1.1429288,0.14312802,1.9293337,8.960095,SDL
9233131778000,2.224489,0.627419580263775,-4.3338633843996,9.99796646026629,-0.91232723,0.09712757,1.1456778,359.84293,2.5723398,8.880772,SDL
9233136733000,2.229444,0.347903672750893,-4.02450465222641,10.0830239738723,-0.96486163,-0.030848695,1.1267409,359.56888,3.134151,8.800519,SDL
9233141696000,2.234407,-0.0515055041997489,-3.8087319833285,10.1151602737371,-1.0684034,-0.14630222,1.0974194,359.30008,3.7299612,8.747163,SDL
9233146714000,2.239425,-0.464938544397573,-3.63522807016332,10.1346145265516,-1.162782,-0.2556471,1.0268645,359.06738,4.253261,8.670833,SDL
9233151740000,2.244451,-0.923134474667289,-3.66667286508633,10.0941855983201,-1.2470814,-0.3359759,0.9456194,358.84787,4.786559,8.620713,SDL
9233156788000,2.249499,-1.35524330322098,-3.70867379290985,10.0399390667132,-1.2886202,-0.4007276,0.84574294,358.6815,5.2782154,8.51974,SDL
9233161826000,2.254537,-1.26382817025329,-3.94442853018548,9.7320146780016,-1.3267993,-0.45723262,0.7272351,358.54456,5.7736897,8.443858,SDL
9233166891000,2.259602,-1.16054070780135,-4.179898136856,9.42967702258285,-1.3295482,-0.42943826,0.6221663,358.457,6.2622952,8.272361,SDL
9233171817000,2.264528,-0.902273017528595,-4.38743462466517,9.23597576126699,-1.2916746,-0.3848451,0.51923543,358.40363,6.7302585,8.119255,SDL
9233177081000,2.269792,-0.618969521809837,-4.60946504701187,9.04302463044997,-1.2959507,-0.31764993,0.41996986,358.349,7.2513676,7.9757133,SDL
9233181687000,2.274398,-0.26249218889554,-4.80750806590841,9.08263356510027,-1.2791518,-0.2452624,0.3484986,358.3191,7.7391324,7.8233013,SDL
9233187047000,2.279758,0.148239408090918,-5.03120588197549,9.13198212187821,-1.217149,-0.1863139,0.26053402,358.2877,8.24933,7.7122707,SDL
9233191711000,2.284422,0.428160595108035,-5.09805289864372,9.23643046272566,-1.1551461,-0.16126843,0.20311269,358.27063,8.740508,7.593863,SDL
9233196682000,2.289393,0.726507126124778,-5.16930000839024,9.34775394093163,-1.1001683,-0.15485434,0.16523905,358.2334,9.244233,7.535196,SDL
9233201738000,2.294449,1.02957522269543,-5.1962081798543,9.42295020327823,-1.0491611,-0.17531833,0.13133603,358.21207,9.71769,7.4804106,SDL
9233206732000,2.299443,1.32885425728962,-5.21407561762399,9.48995268679369,-1.0262536,-0.20769419,0.099571034,358.20132,10.171073,7.4298463,SDL
9233211731000,2.304442,1.58189369020536,-5.26213674382713,9.46534689239549,-1.026559,-0.22204952,0.090713486,358.16547,10.618742,7.4357533,SDL
9233216791000,2.309502,1.81826578629823,-5.3235933945271,9.40152637437198,-1.0464121,-0.22174409,0.080634214,358.13834,11.053656,7.448012,SDL
9233221784000,2.314495,2.05150805424126,-5.38423629115653,9.3385509106385,-1.0534371,-0.2125811,0.07544186,358.08102,11.476155,7.5167284,SDL
9233226748000,2.319459,2.28339562044778,-5.44452696587484,9.27594121667236,-1.0454959,-0.17256944,0.05681047,358.0323,11.888705,7.576604,SDL
9233231707000,2.324418,2.39501157316176,-5.52254303897059,9.15137798529412,-1.0506883,-0.1142318,0.043676864,357.97974,12.300044,7.6261783,SDL
9233236722000,2.329433,2.42841708414149,-5.61321537511924,8.98435018124006,-1.031446,-0.020158553,0.035430185,357.93613,12.691583,7.654334,SDL
9233241682000,2.334393,2.36283959695122,-5.64748584219512,8.84808185325203,-0.9941832,0.08368854,0.016493361,357.8596,13.09405,7.7524896,SDL
9233246749000,2.33946,2.22475844009146,-5.64255447713415,8.72972672306911,-0.93676186,0.16920967,0.011911872,357.78693,13.475317,7.8271713,SDL
9233251875000,2.344586,2.07112303352953,-5.56908237338388,8.63631565911812,-0.872621,0.23945917,-0.009468411,357.71985,13.860524,7.8868046,SDL
9233256721000,2.349432,1.91833929887271,-5.46259664784517,8.56223867049082,-0.80970186,0.2828306,-0.033292156,357.65985,14.219977,7.929745,SDL
9233261707000,2.354418,1.72248362028233,-5.33115504262327,8.52429149740222,-0.7501425,0.29901853,-0.051618114,357.61127,14.567698,7.938703,SDL
9233266788000,2.359499,1.49828904033918,-5.1832819539849,8.50998141701794,-0.70005155,0.30573806,-0.07269296,357.57373,14.890834,7.9403877,SDL
9233271788000,2.364499,1.27251298968666,-5.03904303146393,8.54084252140505,-0.65668017,0.31245756,-0.08460484,357.55234,15.18128,7.9122767,SDL
9233276817000,2.369528,1.0418210265243,-4.89486068308552,8.60332136004391,-0.66248333,0.3023783,-0.09193522,357.5357,15.463914,7.888957,SDL
9233281716000,2.374427,0.779609578928675,-4.75993850202137,8.65239743603812,-0.66248333,0.27152961,-0.09682214,357.53943,15.708441,7.831148,SDL
9233287341000,2.380052,0.4477537404216,-4.60956626335547,8.69906452382327,-0.677755,0.22449298,-0.09468412,357.542,15.952951,7.7818832,SDL
9233291727000,2.384438,0.152989949368623,-4.5010237388019,8.70051000979897,-0.7031059,0.19028452,-0.09193522,357.56406,16.170307,7.6962523,SDL
9233296720000,2.389431,-0.214127106774422,-4.38509211968886,8.67152725633902,-0.73639804,0.15241088,-0.0870483,357.58163,16.388952,7.625725,SDL
9233301705000,2.394416,-0.540898544821358,-4.3165652640135,8.63799093583763,-0.77488256,0.11148291,-0.07727446,357.61542,16.587215,7.508944,SDL
9233306716000,2.399427,-0.831425751790393,-4.29275167510917,8.59988898471616,-0.788627,0.09865474,-0.06291912,357.64685,16.783064,7.3960505,SDL
9233311670000,2.404381,-1.09227233523046,-4.29894082143202,8.55592056826747,-0.7883216,0.094989546,-0.06383542,357.7061,16.962078,7.2284694,SDL
9233316797000,2.409508,-1.33423914088318,-4.33689617731182,8.50373158237511,-0.782213,0.06658431,-0.0571159,357.7577,17.139147,7.0719914,SDL
9233321923000,2.414634,-1.49420167458935,-4.39975892905205,8.45320457589551,-0.7611381,0.052839845,-0.057726767,357.83517,17.307673,6.8626027,SDL
9233326761000,2.419472,-1.55380228244607,-4.48686748767069,8.4073579912923,-0.7305948,0.032375857,-0.054367006,357.90872,17.467236,6.665067,SDL
9233331611000,2.424322,-1.56998046369111,-4.60051186623604,8.38330051461875,-0.7174612,0.010995574,-0.05009095,358.00204,17.629965,6.430445,SDL
9233336733000,2.429444,-1.51756894569208,-4.76251119866926,8.39283007149102,-0.6933321,-0.03970624,-0.05131268,358.09372,17.776243,6.2130046,SDL
9233341617000,2.434328,-1.42603734480672,-4.93567357584928,8.38503596095275,-0.6597345,-0.080634214,-0.06169739,358.18756,17.94647,5.990476,SDL
9233346724000,2.439435,-1.24461092053885,-5.15529501581414,8.34206616946505,-0.6261369,-0.12980886,-0.058337633,358.27454,18.105232,5.786007,SDL
9233351634000,2.444345,-1.04957872476717,-5.37913444025257,8.28858615114444,-0.5842926,-0.19914207,-0.069027774,358.3627,18.282368,5.6128306,SDL
9233357420000,2.450131,-0.759838746732439,-5.67980801744278,8.19018390716259,-0.52931476,-0.25137106,-0.086132,358.44998,18.441107,5.451088,SDL
9233361646000,2.454357,-0.540065411434372,-5.89130920274084,8.11893287529185,-0.47403142,-0.3023783,-0.10781772,358.51862,18.632889,5.345352,SDL
9233366798000,2.459509,-0.249566667185057,-6.1267133449396,8.0337868052482,-0.4251622,-0.34666604,-0.13530666,358.58975,18.80516,5.255279,SDL
9233371810000,2.464521,0.0317525153174391,-6.33454080616126,7.95277478060541,-0.3866777,-0.3885103,-0.1563815,358.62878,19.016754,5.228007,SDL
9233376720000,2.469431,0.304673122550228,-6.49409441067952,7.87719681971605,-0.34880406,-0.42394048,-0.1695151,358.66934,19.208866,5.2128053,SDL
9233381783000,2.474494,0.584555351409503,-6.65461966923996,7.80003589058671,-0.29046643,-0.45570546,-0.18967366,358.68692,19.42533,5.263845,SDL
9233386700000,2.479411,0.837848981173424,-6.76250395856161,7.73436722255205,-0.24037547,-0.45448375,-0.2049453,358.70563,19.627794,5.315204,SDL
9233391819000,2.48453,1.10430695346235,-6.86260732619463,7.66078417140237,-0.21380283,-0.45937067,-0.22143865,358.6937,19.853275,5.4376383,SDL
9233396710000,2.489421,1.39214429969733,-6.81105444565716,7.527605511639,-0.16340645,-0.43982297,-0.2489276,358.69,20.051823,5.5536447,SDL
9233401698000,2.494409,1.68569013552233,-6.75847915060075,7.39178560673209,-0.1328632,-0.42424592,-0.26633725,358.65808,20.264069,5.7205863,SDL
9233406753000,2.499464,1.75985679354013,-6.68759269900398,7.2900675046955,-0.106595986,-0.39645153,-0.29260445,358.63745,20.457228,5.879924,SDL
9233411622000,2.504333,1.79966569504838,-6.61682116972112,7.19718031417188,-0.05009095,-0.3885103,-0.3213151,358.62012,20.627886,6.0398035,SDL
9233416747000,2.509458,1.80656000250655,-6.5465722375982,7.18685448997381,-0.029932396,-0.37018433,-0.3436117,358.5742,20.803013,6.253288,SDL
9233421849000,2.51456,1.80199015274972,-6.47802449124579,7.20513388900112,0.024740042,-0.31948254,-0.3631594,358.53745,20.947397,6.455443,SDL
9233426686000,2.519397,1.78146324541202,-6.41997762682616,7.23980036536948,0.076052725,-0.2782491,-0.38912117,358.50592,21.077763,6.6664243,SDL
9233431721000,2.524432,1.75070134945242,-6.3635809692504,7.2859431825412,0.12339478,-0.2510656,-0.4251622,358.48413,21.189507,6.86774,SDL
9233436720000,2.529431,1.7225255370628,-6.25397422605547,7.33843345468407,0.16829337,-0.21563543,-0.45540005,358.47168,21.274784,7.053794,SDL
9233441725000,2.534436,1.69511761711617,-6.12607031344706,7.39324919918041,0.21410827,-0.16554448,-0.4810564,358.47012,21.343033,7.229263,SDL
9233446702000,2.539413,1.69483940581665,-5.99116514199457,7.45905542908322,0.2443461,-0.14355333,-0.50426924,358.47986,21.388706,7.396431,SDL
9233451702000,2.544413,1.70929568034618,-5.85142125550971,7.53133680173091,0.28008172,-0.1255328,-0.51159966,358.49524,21.418295,7.549909,SDL
9233456727000,2.549438,1.71887679071939,-5.76960340361885,7.54067243093536,0.2883284,-0.12492194,-0.51923543,358.53235,21.421244,7.6967545,SDL
9233461724000,2.554435,1.7258599031665,-5.71839381511747,7.51739538944501,0.30573806,-0.12308934,-0.52595496,358.57126,21.41109,7.8367825,SDL
9233466697000,2.559408,1.73280947655042,-5.66743018021305,7.49423014483195,0.31887165,-0.11789699,-0.50885075,358.6075,21.370975,7.972758,SDL
9233471692000,2.564403,1.73978979407559,-5.61624108784474,7.47096241974804,0.32620203,-0.11362094,-0.5002986,358.64597,21.327682,8.10767,SDL
9233476700000,2.569411,1.71290809984642,-5.55777259934728,7.45532067333461,0.3399465,-0.11209377,-0.49754974,358.67987,21.280174,8.238416,SDL
9233481682000,2.574393,1.65795130301401,-5.49365648780956,7.44616131080822,0.36377025,-0.09560041,-0.49877146,358.71283,21.228813,8.361306,SDL
9233486665000,2.579376,1.5963086723617,-5.42249606240233,7.42076926438171,0.40286562,-0.087964594,-0.49754974,358.75702,21.158382,8.490373,SDL
9233491689000,2.5844,1.5261352889676,-5.34229786509011,7.37565773259715,0.44318274,-0.082161374,-0.5039638,358.80322,21.081846,8.614183,SDL
9233496744000,2.589455,1.47287933197599,-5.2738972841921,7.36290103583792,0.5021312,-0.06505715,-0.50579643,358.85605,20.980675,8.718738,SDL
9233501672000,2.594383,1.43510491772886,-5.21723563816908,7.37706645966983,0.5671884,-0.03573562,-0.51159966,358.91177,20.868103,8.817506,SDL
9233506713000,2.599424,1.3812850531432,-5.14681510793447,7.41206851958946,0.6374379,0.006414085,-0.51343226,358.97678,20.73083,8.893743,SDL
9233511684000,2.604395,1.31551099985197,-5.06694662866871,7.46374817961117,0.6936375,0.025350908,-0.5137377,359.04184,20.582224,8.967088,SDL
9233516703000,2.609414,1.2491018319846,-4.98630693898155,7.51592685867956,0.7464773,0.06780604,-0.5149594,359.14053,20.400064,9.015553,SDL
9233521783000,2.614494,1.1818855393434,-4.90468716938386,7.56873970778644,0.77121735,0.093767814,-0.50915617,359.23547,20.214893,9.0611315,SDL
9233526696000,2.619407,1.11687891616501,-4.82575056937728,7.61981638646008,0.8246681,0.11026118,-0.50976706,359.3337,20.011217,9.097285,SDL
9233531682000,2.624393,1.05090638956874,-4.74564108685483,7.67165198993388,0.8707884,0.14446963,-0.49480084,359.42847,19.808613,9.118404,SDL
9233536654000,2.629365,1.01299429059289,-4.66570965039526,7.71907783982213,0.9254609,0.14721853,-0.5030475,359.5409,19.588614,9.146539,SDL
9233541689000,2.6344,1.00822954869565,-4.58470883913043,7.7619604173913,0.96974856,0.10598512,-0.52198434,359.64905,19.364195,9.175883,SDL
9233546679000,2.63939,1.04003823746956,-4.58199129043537,7.86705810616538,1.0134255,0.101098195,-0.505491,359.79666,19.075808,9.141795,SDL
9233551663000,2.644374,1.11907048712379,-4.67961943778124,8.05301611220415,1.0665708,0.15974127,-0.441961,359.93582,18.781395,9.098139,SDL
9233556693000,2.649404,1.20618559230216,-4.66867078316547,8.22384801315519,1.138042,0.1563815,-0.37720928,0.06532018,18.459356,9.067522,SDL
9233561686000,2.654397,1.30447333611511,-4.48192396215827,8.36636557780062,1.1643091,0.11026118,-0.36193767,0.19001614,18.144487,9.031147,SDL
9233566675000,2.659386,1.33992349251969,-4.42456012874016,8.30886053543307,1.1658363,0.09560041,-0.3210097,0.29429922,17.82153,8.990705,SDL
9233571782000,2.664493,1.29295905169964,-4.53727471805262,7.984805839831,1.1814134,0.1881465,-0.26267207,0.39247307,17.497766,8.930656,SDL
9233576672000,2.669383,1.26580866196246,-4.49287291679412,7.87279231740987,1.2305881,0.18661933,-0.2687807,0.4915961,17.121773,8.9203,SDL
9233581686000,2.674397,1.270577564058,-4.16858737511173,8.12077492759956,1.2678508,0.026267206,-0.28710666,0.5699287,16.75747,8.924635,SDL
9233586641000,2.679352,1.26904763175709,-3.90698859566369,8.27926939674286,1.2272283,0.025350908,-0.2687807,0.64944303,16.455824,8.885861,SDL
9233591689000,2.6844,1.25481913580889,-3.75996070515059,8.2650410988914,1.2315043,0.10293079,-0.23976462,0.72183925,16.138918,8.869661,SDL
9233596638000,2.689349,1.22457500646166,-3.64065160949786,8.2660922121448,1.2507466,0.16584991,-0.21166481,0.8042832,15.759949,8.848058,SDL
9233601666000,2.694377,1.1542866881666,-3.57973501152199,8.30357909342156,1.2834278,0.19883664,-0.19486602,0.88294107,15.387696,8.812253,SDL
9233606695000,2.699406,1.07969297696694,-3.51675754326785,8.3329600798275,1.3225232,0.23090707,-0.18570304,0.97450536,14.978875,8.75622,SDL
9233612390000,2.705101,0.980386939760422,-3.43835810483948,8.33818736396742,1.361924,0.24312437,-0.18600847,1.0619652,14.573051,8.696994,SDL
9233616736000,2.709447,0.913514195143504,-3.3687056607676,8.34569579355678,1.3836098,0.29016098,-0.19058995,1.1709671,14.1505785,8.601572,SDL
9233621788000,2.714499,0.878566195692478,-3.24056296773091,8.37132436622363,1.4196508,0.34972036,-0.18997909,1.2768772,13.725691,8.500358,SDL
9233626739000,2.71945,0.844316879524222,-3.11498211396514,8.39644057035539,1.475545,0.40683624,-0.18417588,1.4051459,13.279531,8.366358,SDL
9233631725000,2.724436,0.80982544538669,-2.98851349411538,8.4217343279399,1.5082263,0.46944994,-0.16982053,1.5313756,12.843223,8.215884,SDL
9233636950000,2.729661,0.78012074659247,-2.85984230709902,8.44622641916277,1.5317446,0.48563787,-0.16187929,1.6588831,12.401346,8.06528,SDL
9233641704000,2.734415,0.851017335408079,-2.80145685539984,8.43788547238252,1.5549575,0.49663344,-0.15454891,1.7825147,11.963642,7.9006667,SDL
9233646642000,2.739353,0.924657923454246,-2.74081163863699,8.42922169552075,1.5567901,0.50243664,-0.13591751,1.9243883,11.474935,7.7162056,SDL
9233651706000,2.744417,1.03784104894642,-2.66582906556291,8.45937069536424,1.5488489,0.5021312,-0.111177474,2.0580966,10.998088,7.533108,SDL
9233656628000,2.749339,1.15608572790488,-2.59015250066225,8.49720924944812,1.5515977,0.46761733,-0.10293079,2.1853666,10.532379,7.3614364,SDL
9233661699000,2.75441,1.47359701822878,-2.35535936223704,8.80359692186326,1.5357152,0.41080686,-0.07666359,2.2893736,10.065964,7.2191753,SDL
9233666699000,2.75941,1.82885983753757,-2.09003643774418,9.16335650112697,1.5354098,0.3454443,-0.05375614,2.3861072,9.6085205,7.0919724,SDL
9233671706000,2.764417,2.11176191111111,-1.9576208952381,9.34057893650794,1.5357152,0.27152961,-0.017104227,2.4478252,9.14295,7.0133424,SDL
9233676721000,2.769432,2.36428840520833,-1.88138647723214,9.44063664434524,1.5323554,0.19272798,0.028710667,2.4943495,8.693106,6.9552712,SDL
9233682386000,2.775097,2.62537318824156,-1.81589711395529,9.43709570560341,1.5176947,0.15424347,0.09468412,2.4919255,8.179993,6.9973106,SDL
9233686703000,2.779414,2.81742466560534,-1.77188531357786,9.40108616848931,1.4926492,0.113926366,0.15363261,2.472467,7.6896553,7.060337,SDL
9233691681000,2.784392,2.98331598220608,-1.73443484019237,9.2825864421365,1.452943,0.11728613,0.21319197,2.4091148,7.1937957,7.1842566,SDL
9233696748000,2.789459,3.11737854688427,-1.70464318219585,9.11376663204748,1.4077389,0.15668693,0.2761111,2.326461,6.7262836,7.305015,SDL
9233701690000,2.794401,3.18245451556505,-1.60350358825166,9.07229220007951,1.4049901,0.21502456,0.32620203,2.1923234,6.252476,7.4757514,SDL
9233706791000,2.799502,3.21644306517245,-1.46269383203459,9.09171412702515,1.4129313,0.2003638,0.37690386,2.039578,5.806411,7.651271,SDL
9233711721000,2.804432,3.18659159913303,-1.38912664355755,9.04776002571002,1.3909402,0.16676621,0.44409904,1.8497981,5.370419,7.8508153,SDL
9233716752000,2.809463,3.12417491249626,-1.34591504113602,8.97093938804185,1.3646729,0.09468412,0.46578476,1.6587155,4.947969,8.062933,SDL
9233721790000,2.814501,3.0617742935204,-1.17847765209526,9.24719783293336,1.3243558,0.04917465,0.4886922,1.4540045,4.5123563,8.282698,SDL
9233726790000,2.819501,2.99989710134761,-0.948648410817796,9.70243689514491,1.3045027,0.024740042,0.51251596,1.2436851,4.0938826,8.51327,SDL
9233731715000,2.824426,2.93755264926647,-0.58793184458433,10.2172741594007,1.2977833,-0.00061086525,0.5317582,1.0328101,3.6791897,8.73873,SDL
9233736717000,2.829428,2.87275809130163,-0.0795430017375924,10.8103939469358,1.3509285,-0.009468411,0.5494733,0.81773835,3.2674208,8.963064,SDL
9233741722000,2.834433,2.82521924341478,0.473678613565852,11.0598780980432,1.4495832,0.047036625,0.5687156,0.63416636,2.7900004,9.138971,SDL
9233746725000,2.839436,2.79121441596877,1.06147592484031,11.0404468985096,1.5809193,0.20708331,0.548557,0.4601709,2.3043904,9.284783,SDL
9233752285000,2.844996,2.43164495864433,2.19778950874718,11.1740244153198,1.6166549,0.4251622,0.49632803,0.33716556,1.7091812,9.362802,SDL
9233756713000,2.849424,1.99549637069253,3.32762192320502,11.3526377647174,1.4902058,0.5561928,0.34391713,0.24995413,1.145591,9.419637,SDL
9233761716000,2.854427,1.32204318543133,4.83822482756887,11.5258024004625,1.2443326,0.49296826,0.12767084,0.20899287,0.5252648,9.466395,SDL
9233766726000,2.859437,0.497134092429117,6.54593153358134,11.6753473240499,0.9407325,0.32528573,-0.015577064,0.19105816,-0.018563537,9.5063,SDL
9233771801000,2.864512,-0.297105662271528,7.30424320955918,11.6216163576386,0.62949663,0.12797627,-0.06872234,0.23828514,-0.5905213,9.432637,SDL
9233776772000,2.869483,-1.04393512688887,7.31587605893852,11.4145514443358,0.32803464,-0.025350908,-0.098043874,0.31841326,-1.0713428,9.3958235,SDL
9233781710000,2.874421,-1.78580676162643,7.32743168360864,11.2088611321474,0.089491755,-0.16218472,-0.22968534,0.5298789,-1.6779889,9.22326,SDL
9233786675000,2.879386,-2.53173480262926,7.33905049213176,11.00204614632,-0.06505715,-0.16035213,-0.51343226,0.78568995,-2.2209384,9.058788,SDL
9233791717000,2.884428,-2.8282482297643,6.83301942481272,10.6976987898776,-0.17073683,-0.1001819,-0.75991637,1.0618422,-2.7108335,8.918879,SDL
9233796708000,2.889419,-2.58808004217979,5.73261221665449,10.2872293928376,-0.21655174,-0.06352998,-0.88025683,1.377244,-3.1720116,8.786299,SDL
9233801700000,2.894411,-2.29685151731445,4.59170711215225,9.85901479049915,-0.20708331,-0.0067195175,-0.8854492,1.8222885,-3.6176856,8.32357,SDL
9233806704000,2.899415,-1.86850072454555,3.34034536873556,9.3825346844431,-0.17623462,0.025961773,-0.84299403,2.2700264,-4.051386,7.8714185,SDL
9233811632000,2.904343,-1.34882618606855,2.21574616356418,8.94148146959493,-0.16126843,0.07391469,-0.82558435,2.6850145,-4.3398886,7.4676085,SDL
9233816728000,2.909439,-0.539442108377928,1.35240314135089,8.56376896140316,-0.15760323,0.019547688,-0.7675522,3.0680535,-4.6252766,7.0944157,SDL
9233822004000,2.914715,0.386087559918218,0.481367263114852,8.26139399207921,-0.17012598,-0.115453534,-0.63163465,3.3866167,-4.781272,6.8335323,SDL
9233826752000,2.919463,1.3765380290596,-0.261470527863366,8.14884288712871,-0.16462818,-0.31581733,-0.46761733,3.6794398,-4.935591,6.6127977,SDL
9233831678000,2.924389,2.3109043230725,-0.968060125911009,8.08080966273494,-0.14996742,-0.5036584,-0.2761111,3.8842256,-5.0319743,6.602988,SDL
9233836714000,2.929425,3.00926916012658,-1.51380221227848,8.14555857911392,-0.12950343,-0.63041294,-0.09468412,4.044379,-5.122521,6.6337256,SDL
9233841709000,2.93442,3.63123388548886,-1.98500147342455,8.25772618495955,-0.10293079,-0.7312057,0.062308256,4.065744,-5.0639606,6.924219,SDL
9233846727000,2.939438,3.94799452158194,-2.15298048928393,8.57928662099271,-0.08307768,-0.81336707,0.19394971,4.0425496,-5.004807,7.2439165,SDL
9233851676000,2.944387,4.2311484221169,-2.24509539648499,8.88231274032385,-0.07727446,-0.86742866,0.27458394,3.9347131,-4.865426,7.7269907,SDL
9233856735000,2.949446,4.38422592985782,-1.99634434650474,9.1262801181872,-0.076358154,-0.8530733,0.35002577,3.7875202,-4.7262597,8.208834,SDL
9233861688000,2.954399,4.52099561515513,-1.70756867756563,9.33812961515513,-0.080634214,-0.8002335,0.40653083,3.6004252,-4.56553,8.742666,SDL
9233866701000,2.959412,4.58783312261337,-1.16809330668258,9.40496712261337,-0.069027774,-0.71776664,0.45814893,3.3887496,-4.407529,9.255169,SDL
9233871833000,2.964544,4.60941039478918,-0.596086698009149,9.45366628952864,-0.03848451,-0.61453044,0.4981606,3.1575701,-4.293945,9.760433,SDL
9233876765000,2.969476,4.40744067879873,0.0473992971459825,9.40669678773866,0.0015271631,-0.5384777,0.5448918,2.9063187,-4.1842213,10.240396,SDL
9233881707000,2.974418,4.18715613021845,0.670049399289182,9.35820261646151,0.06261369,-0.36560285,0.5348125,2.6632643,-4.1891346,10.662394,SDL
9233886700000,2.979411,3.85140899538835,1.15916220770458,9.30017175962205,0.113926366,-0.1872302,0.49877146,2.4117358,-4.199942,11.051881,SDL
9233891627000,2.984338,3.52009993604369,1.64180967557212,9.24290798400659,0.17165314,-0.009162978,0.4636467,2.1919677,-4.3808107,11.339371,SDL
9233896723000,2.989434,2.96235380224719,1.94549062247191,9.18883812359551,0.22174409,0.1441642,0.44043383,1.9752686,-4.567118,11.577294,SDL
9233901685000,2.994396,2.37221638344175,2.19840668704908,9.13731861561206,0.28221974,0.30818152,0.2874121,1.8019825,-4.7740536,11.753853,SDL
9233906747000,2.999458,1.70183046198088,2.421527304081,9.15850661615954,0.27214047,0.4111123,0.09468412,1.6920671,-5.104843,11.823015,SDL
9233911617000,3.004328,1.04021565580284,2.62768264423314,9.1968608698602,0.23884831,0.5534439,0.0021380284,1.5912619,-5.4320464,11.833734,SDL
9233916752000,3.009463,0.424603631138843,2.55154891427251,9.22623590996487,0.21197024,0.6169739,-0.19272798,1.6228037,-5.7941346,11.714709,SDL
9233921762000,3.014473,-0.160840428289887,2.42292867273063,9.25284707746349,0.20433442,0.6462954,-0.36651915,1.6707687,-6.139989,11.566756,SDL
9233926762000,3.019473,-0.534058979799959,2.20975585441927,9.29163151581955,0.21746802,0.64476824,-0.48899764,1.8112147,-6.4777126,11.281354,SDL
9233931648000,3.024359,-0.811049411573791,1.96619523717085,9.33461315615432,0.2501493,0.6105598,-0.5674938,1.9864376,-6.8126636,10.99829,SDL
9233936694000,3.029405,-0.916041071534381,1.78373078311661,9.33607910652242,0.29077184,0.5653558,-0.6429357,2.2338965,-7.1413956,10.59374,SDL
9233941663000,3.034374,-0.950693108688235,1.63027174962031,9.32122819062728,0.3277292,0.51251596,-0.6976081,2.496288,-7.466857,10.205932,SDL
9233946716000,3.039427,-0.919177665750298,1.53387156991862,9.26047880790988,0.35033122,0.45723262,-0.74464476,2.7935035,-7.7652965,9.779067,SDL
9233951706000,3.044417,-0.871749835361255,1.45324429292378,9.18933688899365,0.39400807,0.40133846,-0.75900006,3.0958724,-8.066711,9.373102,SDL
9233956713000,3.049424,-0.759839952939773,1.41761866964818,9.12543470423375,0.44043383,0.32986724,-0.75655663,3.406169,-8.344506,8.985529,SDL
9233961691000,3.054402,-0.631915069489167,1.39392889107533,9.06384098310475,0.49938235,0.24007004,-0.73456544,3.7146099,-8.624963,8.624474,SDL
9233966710000,3.059421,-0.274362101634783,1.46455469085024,9.13323013227053,0.548557,0.14996742,-0.700357,4.0171256,-8.903273,8.300967,SDL
9233971852000,3.064563,0.158603956382609,1.56446991131401,9.24266133169082,0.59040123,0.063224554,-0.6575964,4.3109894,-9.182501,8.006705,SDL
9233976818000,3.069529,0.438144841250114,1.6891804825642,9.43072079932377,0.61727935,-0.020463986,-0.6053675,4.5818644,-9.456266,7.7690177,SDL
9233981728000,3.074439,0.665886103061318,1.82238762046057,9.64557087699899,0.6221663,-0.11026118,-0.5516113,4.8406696,-9.722384,7.5614095,SDL
9233986670000,3.079381,0.867476629905349,1.95479196938211,9.90386222854408,0.59864795,-0.19914207,-0.4831944,5.0583277,-9.986576,7.4694905,SDL
9233991720000,3.084431,1.04749368935446,2.08851900915665,10.207319805913,0.55771995,-0.26816985,-0.44104472,5.2671776,-10.235562,7.3981247,SDL
9233996702000,3.089413,1.17990851636186,2.18662712141809,10.4282192940831,0.4908302,-0.3136793,-0.40194935,5.4401565,-10.471618,7.3922644,SDL
9234001712000,3.094423,1.28783376487042,2.26639783584352,10.6065307063081,0.40530908,-0.3481932,-0.36713,5.6010885,-10.6800585,7.4028387,SDL
9234007400000,3.100111,1.40329508135792,2.34651286181836,10.6644029626378,0.29779682,-0.3662137,-0.3491095,5.7436504,-10.86308,7.446899,SDL
9234011723000,3.104434,1.48810735668715,2.403054505219,10.648248117013,0.17165314,-0.36682457,-0.33658674,5.874913,-11.008216,7.494766,SDL
9234016732000,3.109443,1.63226148464528,2.44303238329016,10.5240746245018,0.116675265,-0.3567453,-0.32559118,5.9863896,-11.16411,7.5538435,SDL
9234021869000,3.11458,1.81853593282184,2.46264015259067,10.3083879337385,0.01863139,-0.33200526,-0.3042109,6.08732,-11.265761,7.6076436,SDL
9234026794000,3.119505,2.01033305102071,2.45754573225951,10.0631884798845,-0.07666359,-0.29657507,-0.28405234,6.1740665,-11.356128,7.6739454,SDL
9234031725000,3.124436,2.21254365320653,2.43403291036646,9.78808807827126,-0.14782938,-0.24648413,-0.25350907,6.2468524,-11.42075,7.7284074,SDL
9234036716000,3.129427,2.41721473726847,2.41023398640211,9.50964027773352,-0.1966986,-0.21044308,-0.2134974,6.297819,-11.478946,7.8174934,SDL
9234041835000,3.134546,2.6271348493328,2.38582471135232,9.22405135949014,-0.20555615,-0.18234327,-0.1685988,6.3342834,-11.524816,7.8940363,SDL
9234046717000,3.139428,2.77735814864791,2.33361569681914,9.0104975797965,-0.21868975,-0.1591304,-0.12308934,6.3550677,-11.56106,7.95989,SDL
9234051693000,3.144404,2.88656663822532,2.2549855916216,8.84450106609222,-0.20830505,-0.15302174,-0.070554934,6.3593664,-11.597845,8.02381,SDL
9234056677000,3.149388,2.98431209897736,2.17424296581446,8.70060964791819,-0.1872302,-0.15302174,-0.0125227375,6.317178,-11.646089,8.179154,SDL
9234061721000,3.154432,3.05992325381405,2.08855033770218,8.59979491516227,-0.16982053,-0.13897185,0.04153884,6.2592945,-11.692637,8.328482,SDL
9234066734000,3.159445,3.10500195801338,2.0165787618528,8.53827899557385,-0.13103059,-0.124005646,0.1020145,6.1699114,-11.749877,8.504323,SDL
9234071801000,3.164512,3.10999687778693,1.9616346443438,8.52828894740093,-0.11728613,-0.12370021,0.1600467,6.065806,-11.8009205,8.680442,SDL
9234077376000,3.170087,3.04167437643537,1.88828614610855,8.52624736087938,-0.12583824,-0.122478485,0.21013765,5.9446807,-11.8509035,8.87053,SDL
9234081718000,3.174429,2.94168701009913,1.82298826595348,8.53032855962312,-0.12705997,-0.118202426,0.2687807,5.8048024,-11.901824,9.060972,SDL
9234086677000,3.179388,2.82749139755619,1.74841152995878,8.53498969840023,-0.13591751,-0.11148291,0.31337386,5.6674814,-11.94345,9.255802,SDL
9234091724000,3.184435,2.71126932526254,1.67251139151045,8.53973355147708,-0.1301143,-0.10170906,0.3622431,5.51247,-11.984247,9.449752,SDL
9234096654000,3.189365,2.59238491365854,1.6111191974216,8.54439403066202,-0.13652839,-0.089186326,0.3915646,5.3619156,-12.023385,9.643213,SDL
9234101706000,3.194417,2.46233868843206,1.56777052273768,8.54921065624689,-0.13439035,-0.06536258,0.43554693,5.1929393,-12.061827,9.832178,SDL
9234106659000,3.19937,2.32753679233288,1.53829795442111,8.57171298988634,-0.14966199,-0.055283304,0.44990227,5.0411787,-12.0636,9.976656,SDL
9234111724000,3.204435,2.17802708611058,1.52895351240609,8.62310673795993,-0.15454891,-0.03604105,0.47616947,4.8730383,-12.065911,10.113919,SDL
9234116647000,3.209358,2.03008784229829,1.53022457917685,8.68598052832111,-0.16829337,-0.013439035,0.49021935,4.7220116,-12.053141,10.224994,SDL
9234121794000,3.214505,1.86939730678484,1.55533251139976,8.78139062882029,-0.17867808,0.004581489,0.50579643,4.5638804,-12.038876,10.332709,SDL
9234126620000,3.219331,1.73217854428877,1.56585264178829,8.87101749815139,-0.18936823,0.032986723,0.5103779,4.4237967,-12.018171,10.402116,SDL
9234131727000,3.224438,1.61321386619965,1.55157694203152,8.96618916112084,-0.19822577,0.06291912,0.51068336,4.2811947,-11.995221,10.466391,SDL
9234136644000,3.229355,1.49778210227727,1.53496459163004,9.06543589772273,-0.21105394,0.07391469,0.50823987,4.153385,-11.970876,10.49522,SDL
9234141733000,3.234444,1.37608729804235,1.51062552912505,9.18713070195765,-0.22327125,0.08002335,0.48899764,4.030879,-11.945987,10.516563,SDL
9234146873000,3.239584,1.27348362245568,1.47012289295563,9.30017263380546,-0.23060162,0.08124508,0.47647488,3.91881,-11.914761,10.510631,SDL
9234151701000,3.244412,1.21710253644123,1.400730842829,9.38691269646375,-0.23396139,0.077579886,0.45112398,3.817915,-11.884099,10.503385,SDL
9234156772000,3.249483,1.16753909472158,1.32828204236272,9.46604198298531,-0.23426682,0.081855945,0.42943826,3.7417166,-11.848987,10.47052,SDL
9234161720000,3.254431,1.16295803312065,1.25956678803171,9.48894705181748,-0.2434298,0.063224554,0.4089743,3.6758003,-11.812965,10.444823,SDL
9234166695000,3.259406,1.16268917896163,1.18678907643341,9.50885239909707,-0.22174409,0.059253927,0.3848451,3.615613,-11.767588,10.396982,SDL
9234171685000,3.264396,1.2034416716629,1.07891486344118,9.49926363912716,-0.21991149,0.048258353,0.3631594,3.5637562,-11.716718,10.35649,SDL
9234176703000,3.269414,1.24442283566591,0.970435344243792,9.4896210744921,-0.20586158,0.043676864,0.35094208,3.5145247,-11.664894,10.313637,SDL
9234181687000,3.274398,1.28512632737397,0.862690839724103,9.4800438440933,-0.17806722,0.036651913,0.33261612,3.475385,-11.620585,10.273971,SDL
9234186664000,3.279375,1.32592418909073,0.756053308729379,9.46905933660644,-0.17104226,0.02321288,0.33017266,3.4423811,-11.56854,10.241309,SDL
9234191698000,3.284409,1.36852886283386,0.656642238560487,9.44539004595444,-0.14202617,0.016187929,0.3359759,3.4133701,-11.532434,10.209064,SDL
9234196704000,3.289415,1.40811488938625,0.558868325631749,9.4242267787725,-0.12767084,0.015577064,0.3313944,3.3658395,-11.459152,10.192122,SDL
9234201657000,3.294368,1.41249282025842,0.475689312155053,9.43298264051684,-0.10629055,0.014660766,0.33017266,3.3173072,-11.397332,10.178169,SDL
9234206669000,3.29938,1.41692290092293,0.391519472553761,9.44184280184587,-0.094989546,0.014660766,0.33353242,3.2601328,-11.320417,10.173042,SDL
9234211685000,3.304396,1.40032646538196,0.3106481920621,9.47255338797437,-0.070249505,0.014966198,0.33444872,3.2051973,-11.25527,10.168095,SDL
9234216642000,3.309353,1.38160889201577,0.231098866830951,9.50530867718088,-0.052534413,0.023518313,0.3381139,3.1491983,-11.192684,10.16139,SDL
9234221697000,3.314408,1.32910230181897,0.188475204915548,9.54156051580771,-0.038789943,0.03145956,0.3378085,3.0910394,-11.123207,10.155123,SDL
9234226936000,3.319647,1.26978015336975,0.150366983086121,9.58145761289379,-0.023518313,0.041233405,0.34055737,3.0315487,-11.060357,10.146569,SDL
9234231678000,3.324389,1.22105831180142,0.114932890591047,9.63903778611138,-0.011301007,0.032986723,0.34605515,2.9716537,-10.988494,10.136132,SDL
9234237030000,3.329741,1.16816092344666,0.0778719011965612,9.70319118679171,0.0012217305,0.045814894,0.34025195,2.9072556,-10.913729,10.102499,SDL
9234241690000,3.334401,1.16380098264947,0.104031293767878,9.7424306084408,-0.005497787,0.040011674,0.33964106,2.8426087,-10.838063,10.077667,SDL
9234246654000,3.339365,1.15915661652989,0.131897221820242,9.78422985502149,0.007941248,0.036957346,0.34147367,2.7830665,-10.766193,10.036486,SDL
9234251673000,3.344384,1.12879252485504,0.181219882458446,9.80892633938925,-0.0027488936,0.013744468,0.34422258,2.7261586,-10.687296,10.003498,SDL
9234256634000,3.349345,1.09665360587553,0.231723936350986,9.83188271008891,-0.0067195175,0.005497787,0.3472769,2.6692574,-10.615559,9.968137,SDL
9234261685000,3.354396,1.10440432595326,0.298445736334563,9.7974356699467,-0.021685716,-0.008246681,0.3594942,2.6053858,-10.536077,9.937665,SDL
9234266652000,3.359363,1.11903162164822,0.366706490307503,9.75355337556375,-0.038789943,-0.01038471,0.35705075,2.5459113,-10.457134,9.906427,SDL
9234271705000,3.364416,1.14622468287483,0.442130824262134,9.71487152839457,-0.058337633,-0.02687807,0.3539964,2.4852262,-10.381762,9.87533,SDL
9234276625000,3.369336,1.17400102675378,0.516201013375909,9.6778366610336,-0.08307768,-0.032375857,0.35613444,2.4246187,-10.301807,9.842783,SDL
9234281680000,3.374391,1.21953491918054,0.559994512714585,9.62266968328183,-0.099571034,-0.03023783,0.364992,2.3620164,-10.224774,9.817568,SDL
9234286642000,3.379353,1.26690814378427,0.597893112184229,9.56582161589074,-0.1001819,-0.037873644,0.3549127,2.30634,-10.148213,9.796441,SDL
9234291724000,3.384435,1.31065020164288,0.591027211832671,9.47557553602079,-0.115453534,-0.026267206,0.35338554,2.2393458,-10.073705,9.776139,SDL
9234296700000,3.389411,1.35271659454171,0.577005087373841,9.38209477136972,-0.113926366,-0.01740966,0.35094208,2.1774573,-10.006416,9.758764,SDL
9234301708000,3.394419,1.39505351086754,0.562892788481193,9.28801284424501,-0.122783914,-0.010995574,0.34574974,2.105392,-9.943754,9.74768,SDL
9234306696000,3.399407,1.43722135005149,0.548836848609681,9.19430664366632,-0.11881329,0.00030543262,0.3491095,2.0323973,-9.886655,9.733602,SDL
9234311725000,3.404436,1.41646061675092,0.438442911083026,9.14864825627066,-0.11362094,0.016187929,0.34269542,1.9578711,-9.826234,9.714478,SDL
9234316773000,3.409484,1.37886096713008,0.30214426095664,9.11574840948863,-0.10598512,0.03970624,0.35246924,1.8784642,-9.768538,9.691709,SDL
9234321789000,3.4145,1.38896078255906,0.250443873791339,9.11816706382874,-0.11484267,0.048258353,0.33414328,1.8000883,-9.710545,9.691265,SDL
9234326806000,3.419517,1.41497037220472,0.226798772543307,9.1323541621063,-0.11362094,0.07941248,0.32528573,1.7155961,-9.658245,9.6792555,SDL
9234332196000,3.424907,1.44291370251969,0.20139572376378,9.14759603169291,-0.08246681,0.09621128,0.32253686,1.6325594,-9.5921545,9.661709,SDL
9234336712000,3.429423,1.46632596220472,0.180111833543307,9.1603663996063,-0.0720821,0.102319926,0.31764993,1.5533454,-9.523144,9.638581,SDL
9234341727000,3.434438,1.47157946143331,0.149641336463966,9.20398865926224,-0.073303826,0.121256754,0.3213151,1.4727033,-9.46114,9.608206,SDL
9234346707000,3.439418,1.46678576719268,0.116085456757463,9.26151268981807,-0.07666359,0.12736541,0.321926,1.3963051,-9.4034815,9.580209,SDL
9234351688000,3.444399,1.45548721529199,0.0727975728305238,9.30270857344973,-0.079107046,0.13744467,0.32650748,1.3105327,-9.336331,9.556151,SDL
9234356745000,3.449456,1.44090868500903,0.0242024348452739,9.33672585450532,-0.08124508,0.13072516,0.3286455,1.2274611,-9.270207,9.535826,SDL
9234361708000,3.454419,1.42087343646724,-0.0404954312703704,9.37199997094017,-0.08857546,0.14782938,0.344528,1.1370203,-9.198383,9.503955,SDL
9234366733000,3.459444,1.39802280968661,-0.11361748802963,9.40856078290598,-0.09865474,0.12767084,0.355829,1.0510032,-9.1271305,9.485247,SDL
9234371823000,3.464534,1.34675115931779,-0.160406436272885,9.49059524012334,-0.12095132,0.12675454,0.34880406,0.9657242,-9.043697,9.453027,SDL
9234376727000,3.469438,1.27887007448449,-0.187558870206205,9.59920480574292,-0.12034045,0.11881329,0.355829,0.87615275,-8.964775,9.430496,SDL
9234381714000,3.474425,1.21468833720278,-0.213736504756515,9.68624240598069,-0.11362094,0.10445796,0.36102137,0.79098815,-8.870426,9.404217,SDL
9234386691000,3.479402,1.1553003919323,-0.23848147592358,9.75057960076835,-0.10781772,0.099265605,0.36254853,0.7064576,-8.778267,9.378547,SDL
9234391723000,3.484434,1.08982389929673,-0.260832063530758,9.78975508117268,-0.12370021,0.08399397,0.35918877,0.62306434,-8.666746,9.340184,SDL
9234396721000,3.489432,1.02087771317573,-0.281110362285206,9.81003335875275,-0.12186762,0.070249505,0.3594942,0.54007035,-8.564363,9.304157,SDL
9234402267000,3.494978,0.93018155078342,-0.311005184458273,9.85934883620402,-0.1337795,0.05589417,0.3622431,0.46487904,-8.451559,9.259874,SDL
9234406687000,3.499398,0.831401746360707,-0.348635568367596,9.94872085309479,-0.1469131,0.051923547,0.3652974,0.39125204,-8.341717,9.217663,SDL
9234411643000,3.504354,0.741032656726768,-0.388948903721022,9.9749243814147,-0.15393804,0.024129177,0.3830125,0.3227214,-8.228203,9.170783,SDL
9234416770000,3.509481,0.677796693828017,-0.427863346725778,9.89223106241332,-0.1853976,0.0067195175,0.35796702,0.2668288,-8.108829,9.121681,SDL
9234421681000,3.514392,0.637962978867631,-0.461159012626008,9.84679855190832,-0.17928895,-0.0015271631,0.34055737,0.21497644,-7.9923973,9.056811,SDL
9234426785000,3.519496,0.628468968837525,-0.48964109228416,9.85154566349422,-0.16676621,0.01985312,0.35796702,0.16118434,-7.871871,8.990228,SDL
9234431614000,3.524325,0.624005394004301,-0.509083704004301,9.83637852673771,-0.16615535,-0.023518313,0.3304781,0.13281932,-7.751056,8.933119,SDL
9234436712000,3.529423,0.628778346042624,-0.513856656042624,9.77910340131,-0.16401732,-0.03573562,0.3005457,0.09939282,-7.6365905,8.863256,SDL
9234441620000,3.534331,0.640095199308132,-0.515809880078211,9.72623640078211,-0.16157386,-0.04550946,0.28405234,0.059476346,-7.5195775,8.800144,SDL
9234446704000,3.539415,0.669387394543267,-0.510927853486413,9.67741613486414,-0.1432479,-0.03634648,0.2669481,0.029197615,-7.412017,8.735285,SDL
9234451654000,3.544365,0.697738785714286,-0.536301162857143,9.63153185714286,-0.124311075,-0.049480084,0.25137106,0.002242738,-7.3080883,8.682432,SDL
9234456742000,3.549453,0.726463540125762,-0.636837883281588,9.58844432560424,-0.13164146,-0.04642576,0.2443461,359.97775,-7.2049584,8.623235,SDL
9234461661000,3.554372,0.76056229338287,-0.713618747454564,9.54038035967466,-0.12644911,-0.052839845,0.22968534,359.95468,-7.114712,8.576955,SDL
9234466736000,3.559447,0.814244928938648,-0.733139687307963,9.47205717210563,-0.124005646,-0.03573562,0.21502456,359.93356,-7.024432,8.523832,SDL
9234472179000,3.56489,0.869594849809216,-0.750442708159671,9.40804489932492,-0.10293079,-0.03023783,0.20922135,359.91125,-6.9236307,8.48414,SDL
9234476705000,3.569416,0.91200226535564,-0.758924186840818,9.36987833382252,-0.0842994,-0.028405234,0.20280726,359.89368,-6.826178,8.44086,SDL
9234481697000,3.574408,0.957620313139783,-0.771431427524234,9.33527224268127,-0.06780604,-0.029932396,0.18997909,359.87375,-6.734445,8.409947,SDL
9234486730000,3.579441,0.999671550174486,-0.794793241597518,9.32592757754944,-0.05100725,-0.02321288,0.17898351,359.85553,-6.6505613,8.376566,SDL
9234491697000,3.584408,1.04217681463,-0.811664048903,9.31902164595,-0.03573562,-0.029932396,0.17745635,359.83398,-6.571861,8.35883,SDL
9234496723000,3.589434,1.09030986169,-0.797224154889,9.32383479485,-0.015577064,-0.029321533,0.16920967,359.81766,-6.5019727,8.336879,SDL
9234501677000,3.594388,1.13761443569324,-0.783787918918892,9.336116366359,0.005192355,-0.02443461,0.17531833,359.788,-6.428883,8.324229,SDL
9234506724000,3.599435,1.18507531557345,-0.774295718163786,9.38832337882954,0.0012217305,-0.035124753,0.17959438,359.7623,-6.3567243,8.315737,SDL
9234511702000,3.604413,1.22938978550822,-0.761992926348687,9.43967891383787,0.01863139,-0.038789943,0.17440203,359.7237,-6.3026032,8.311228,SDL
9234516690000,3.609401,1.2569514714011,-0.729837570179825,9.49020885517838,0.02107485,-0.03848451,0.17134771,359.68417,-6.244401,8.3090105,SDL
9234521815000,3.614526,1.28426416964083,-0.696838517593573,9.54174054291115,0.013439035,-0.053145275,0.16432275,359.6448,-6.1910243,8.320231,SDL
9234526803000,3.619514,1.29780937122873,-0.665233234232514,9.58689090056711,0.022296581,-0.06505715,0.15454891,359.60764,-6.1445737,8.33043,SDL
9234531643000,3.624354,1.31095267028355,-0.634565717899811,9.63070159243856,0.021380283,-0.06963864,0.16676621,359.56406,-6.0940914,8.347088,SDL
9234536834000,3.629545,1.32027256131813,-0.582569423325851,9.64664276968663,0.0143553335,-0.071776666,0.1563815,359.53055,-6.04702,8.365242,SDL
9234541819000,3.63453,1.32884584819969,-0.531129661751818,9.65950252096615,0.008246681,-0.0720821,0.14446963,359.4946,-6.000766,8.384295,SDL
9234546716000,3.639427,1.3311762,-0.490789496726067,9.6542119904683,0.00030543262,-0.07269296,0.13225232,359.4562,-5.953832,8.403575,SDL
9234551646000,3.644357,1.3311762,-0.454102553377538,9.64198301616245,-0.013133603,-0.07147124,0.13897185,359.4163,-5.9046435,8.422422,SDL
9234556692000,3.649403,1.3311762,-0.416552387832574,9.62946630128471,-0.029321533,-0.074830994,0.13255776,359.38947,-5.8673363,8.444173,SDL
9234561620000,3.654331,1.3311762,-0.379880327625363,9.61724228802321,-0.031154128,-0.0720821,0.12644911,359.3608,-5.8310595,8.463757,SDL
9234566781000,3.659492,1.36875166587946,-0.365980374671287,9.57002372344306,-0.028405234,-0.06719518,0.11728613,359.33524,-5.7930493,8.483099,SDL
9234571714000,3.664425,1.4118285362451,-0.357365009594237,9.51833180286313,-0.034208454,-0.070249505,0.10781772,359.312,-5.753429,8.503434,SDL
9234576730000,3.669441,1.45121383404649,-0.360813739124666,9.49048515259206,-0.038179077,-0.06627888,0.10262536,359.2921,-5.729683,8.520591,SDL
9234581708000,3.674419,1.48799122840979,-0.370621049408558,9.47577414364328,-0.03848451,-0.06078109,0.101098195,359.27417,-5.706278,8.5377,SDL
9234586684000,3.679395,1.52475384680107,-0.380424419431187,9.46106904510389,-0.035430185,-0.04795292,0.09407325,359.25378,-5.686186,8.562642,SDL
9234591724000,3.684435,1.56198929629706,-0.390353877814236,9.44617481346431,-0.030543262,-0.04428773,0.09407325,359.23212,-5.6669044,8.588329,LYI
9234596705000,3.689416,1.58511559630513,-0.39264908,9.43002753992849,-0.026572637,-0.05131268,0.09468412,359.2124,-5.6490636,8.612848,LYI
9234601722000,3.694433,1.60420451390544,-0.39264908,9.41332463736591,-0.027183503,-0.048258353,0.0852157,359.19537,-5.632243,8.632818,LYI
9234606752000,3.699463,1.62334289451728,-0.39264908,9.39657845441001,-0.020463986,-0.03848451,0.08002335,359.15927,-5.612816,8.666344,LYI
9234611723000,3.704434,1.64225678915375,-0.39264908,9.38002869785459,-0.014966198,-0.035124753,0.07452556,359.12643,-5.5938816,8.700023,LYI
9234616730000,3.709441,1.65062904436416,-0.389230764190751,9.4098770867052,-0.010079277,-0.035430185,0.07696902,359.09296,-5.5770683,8.731572,LYI
9234621787000,3.714498,1.65529478456647,-0.384565062963391,9.45653400154143,-0.004886922,-0.03604105,0.08368854,359.06006,-5.5623927,8.76178,LYI
9234626721000,3.719432,1.65355467722692,-0.405702506739285,9.44883197943602,-0.012217305,-0.027794369,0.1001819,359.01926,-5.545737,8.798472,LYI
9234631687000,3.724398,1.64871309263972,-0.439593280354271,9.41494154453833,-0.013744468,-0.02321288,0.08857546,358.98505,-5.5334587,8.8352165,LYI
9234636664000,3.729375,1.62755170280793,-0.433727415233496,9.38148936642438,-0.004886922,-0.026572637,0.08032878,358.95303,-5.5235853,8.872966,LYI
9234641645000,3.734356,1.59905302265259,-0.409978490305686,9.34824070785622,0.0067195175,-0.027794369,0.06994407,358.92502,-5.514974,8.907863,LYI
9234646641000,3.739352,1.56095395660751,-0.399026334446317,9.34378622474472,0.00580322,-0.023518313,0.0580322,358.8989,-5.500232,8.941484,LYI
9234651671000,3.744382,1.51797366127689,-0.394250751616933,9.35333758986815,-0.005192355,-0.015882496,0.051923547,358.87418,-5.486395,8.9738035,LYI
9234656646000,3.749357,1.48490982084691,-0.389540938241042,9.37208167633995,0.0076358155,-0.015271631,0.037873644,358.85388,-5.48431,8.999766,LYI
9234661634000,3.754345,1.4566190330076,-0.38482578888165,9.39565737390189,-0.004886922,-0.01863139,0.03268129,358.83292,-5.472076,9.024408,LYI
9234666653000,3.759364,1.43565696476987,-0.377106025981787,9.41039119975388,-0.015271631,-0.017104227,0.021380283,358.81775,-5.4679766,9.036135,LYI
9234671648000,3.764359,1.41917388276151,-0.367687145159734,9.41981002648289,-0.0067195175,-0.020158553,0.014660766,358.8032,-5.465854,9.049942,LYI
9234676649000,3.76936,1.40267100125523,-0.358256950366724,9.42924016711789,-0.0070249503,-0.02687807,-0.00580322,358.79965,-5.4603157,9.056684,LYI
9234681672000,3.774383,1.38609552158996,-0.348785271013537,9.43871179207482,-0.004886922,-0.019547688,-0.00030543262,358.79028,-5.4571066,9.060742,LYI
9234686662000,3.779373,1.37362084095787,-0.336606103159777,9.45633021860095,-0.02076942,-0.0125227375,-0.011911872,358.78955,-5.4497538,9.065087,LYI
9234691751000,3.784462,1.36393561028418,-0.322078171186407,9.48054342170111,-0.00580322,-0.0027488936,-0.019547688,358.78586,-5.451366,9.066756,LYI
9234696679000,3.78939,1.36730976751306,-0.311099174991292,9.50295461252177,0.006414085,-0.0009162979,-0.02107485,358.78586,-5.453733,9.060191,LYI
9234701652000,3.794363,1.38040686891557,-0.302367774056284,9.52478311485929,0.004886922,-0.005497787,-0.028099801,358.78958,-5.456912,9.052486,LYI
9234706763000,3.799474,1.38815920153742,-0.285413968154345,9.5356332291808,-0.0036651916,-0.0070249503,-0.03940081,358.79663,-5.4640303,9.040543,LYI
9234711741000,3.804452,1.38696157779787,-0.256671277274349,9.52844753676489,0.0018325958,-0.0125227375,-0.040317107,358.80295,-5.4742455,9.031327,LYI
9234716700000,3.809411,1.38576852514131,-0.228038291321376,9.52128927065592,0.011911872,-0.014966198,-0.04550946,358.81537,-5.48742,9.024161,LYI
9234721817000,3.814528,1.38453746032105,-0.198493022291054,9.51390293315246,0.007330383,-0.016187929,-0.0580322,358.8301,-5.497992,9.018048,LYI
9234727373000,3.820084,1.38320077942573,-0.166412992052152,9.50588290360992,0.0015271631,-0.022296581,-0.059864793,358.84326,-5.51036,9.014222,LYI
9234731703000,3.824414,1.38215905367398,-0.141411816577989,9.49963259260934,0.0015271631,-0.025350908,-0.055283304,358.85785,-5.5229197,9.009722,LYI
9234736700000,3.829411,1.38095685885146,-0.11255942077097,9.4924194738865,0.009162978,-0.023823744,-0.06566802,358.87708,-5.5363746,9.005166,LYI
9234741735000,3.834446,1.37974552186299,-0.0834876151099053,9.4851515025498,0.008857546,-0.032070424,-0.06566802,358.89206,-5.546529,9.004653,LYI
9234746680000,3.839391,1.3843945846693,-0.0597027377921802,9.47903859871109,0.016493361,-0.032375857,-0.07269296,358.9115,-5.5614223,9.00092,LYI
9234751748000,3.844459,1.39729304282962,-0.0419673680072418,9.47420175055642,0.023518313,-0.03176499,-0.07819075,358.93036,-5.575546,8.999237,LYI
9234756746000,3.849457,1.41001334549048,-0.0244769618933661,9.46943170969671,0.0076358155,-0.028405234,-0.07422013,358.95642,-5.605613,8.997266,LYI
9234761724000,3.854435,1.42268274658008,-0.00705654539979405,9.46468075663555,0.009162978,-0.03145956,-0.07849618,358.98602,-5.642042,8.99641,LYI
9234766630000,3.859341,1.43516890201309,0.010111908460685,9.4599985196492,0.011301007,-0.027488936,-0.09162979,359.01114,-5.676793,8.991102,LYI
9234771760000,3.864471,1.44822515504435,0.0280642460685646,9.45510249931901,0.0067195175,-0.022602014,-0.09712757,359.03494,-5.7088556,8.986424,LYI
9234776745000,3.869456,1.45760081720094,0.0421596640166145,9.44460397028929,0.00580322,-0.03145956,-0.09132435,359.05905,-5.7415686,8.984411,LYI
9234781710000,3.874421,1.46224788639562,0.0514538087141321,9.42601530531665,-0.00061086525,-0.03268129,-0.08735373,359.0844,-5.770743,8.978583,LYI
9234786630000,3.879341,1.47663727786381,0.0639670599984117,9.41074799394481,0.0018325958,-0.033292156,-0.099265605,359.1094,-5.811754,8.982887,LYI
9234791725000,3.884436,1.51054203982529,0.0833412218288664,9.40106122255311,-0.007330383,-0.028710667,-0.095294975,359.12808,-5.8455534,8.986406,LYI
9234797031000,3.889742,1.54503485619927,0.0994097348095904,9.38210208676182,-0.0036651916,-0.029932396,-0.0983493,359.14896,-5.885669,8.991961,LYI
9234801698000,3.894409,1.5742227418136,0.107749125225861,9.35291407052897,-0.0061086523,-0.03268129,-0.09162979,359.16534,-5.9196935,8.996843,LYI
9234806754000,3.899465,1.60316367994809,0.115880925988657,9.32876926501971,-0.017104227,-0.023823744,-0.087964594,359.17935,-5.955171,9.005591,LYI
9234811725000,3.904436,1.62146850463328,0.120457136938383,9.33334556675959,-0.014049901,-0.02107485,-0.086132,359.1918,-5.992495,9.0166645,LYI
9234816737000,3.909448,1.64008550413623,0.12572428950818,9.33677408776623,-0.014966198,-0.023823744,-0.086437434,359.20514,-6.0271707,9.035939,LYI
9234821752000,3.914463,1.65985205517029,0.135607544385225,9.33183235970779,-0.019547688,-0.028405234,-0.084910266,359.21695,-6.0604134,9.054612,LYI
9234826681000,3.919392,1.67911752877141,0.144446183022026,9.32542770367107,-0.0125227375,-0.011911872,-0.08002335,359.22787,-6.0960646,9.072218,LYI
9234831695000,3.924406,1.69792049507587,0.149146929506608,9.31132518443465,-0.017104227,-0.0070249503,-0.07422013,359.23816,-6.12604,9.093937,LYI
9234836703000,3.929414,1.71486184047013,0.155682673161606,9.30091935984329,-0.019242255,-0.004276057,-0.08093964,359.24786,-6.159868,9.115006,LYI
9234841667000,3.934378,1.71951798495593,0.174307260828599,9.31488808501469,-0.021991149,0.004581489,-0.06872234,359.2498,-6.1900997,9.133244,LYI
9234846695000,3.939406,1.72341787536826,0.193980079491757,9.32740268812799,-0.025961773,0.0030543262,-0.071776666,359.266,-6.2164807,9.159555,LYI
9234851694000,3.944405,1.71874765556531,0.222001417815823,9.32273261462296,-0.030543262,0.01160644,-0.06383542,359.27444,-6.240049,9.180637,LYI
9234856813000,3.949524,1.71399327687709,0.249507217045015,9.31874374358185,-0.029626964,0.008857546,-0.06841691,359.2877,-6.2673564,9.204713,LYI
9234861729000,3.95444,1.70985405155618,0.257785680653244,9.32702215100229,-0.027794369,0.019547688,-0.0693332,359.29645,-6.292302,9.22239,LYI
9234866839000,3.95955,1.70555148007737,0.266390837088975,9.33562724903288,-0.022296581,0.016493361,-0.06352998,359.30884,-6.3191385,9.244085,LYI
9234871698000,3.964409,1.7028644599248,0.266343454263804,9.34461552256086,-0.02687807,0.013744468,-0.058643065,359.32092,-6.3428774,9.262134,LYI
9234876623000,3.969334,1.70053090856917,0.26400989559816,9.35394967924995,-0.022907447,0.016798794,-0.0580322,359.33206,-6.3696585,9.278993,LYI
9234881681000,3.974392,1.6981343394815,0.261613319003068,9.36353590555116,-0.015271631,0.014660766,-0.058337633,359.3402,-6.398746,9.295675,LYI
9234886641000,3.979352,1.69578420451217,0.259263176671779,9.3729363963487,-0.013744468,0.024129177,-0.051618114,359.34534,-6.4259605,9.308065,LYI
9234891692000,3.984403,1.69348809230195,0.260180482731175,9.38372753849025,-0.021685716,0.021991149,-0.043982297,359.35562,-6.449996,9.325358,LYI
9234896683000,3.989394,1.69125809282448,0.262410489194271,9.39487753587758,-0.028710667,0.023823744,-0.042760566,359.36502,-6.4738326,9.338482,LYI
9234901656000,3.994367,1.68903613582159,0.2646324531576,9.40598732089204,-0.021380283,0.025045475,-0.038789943,359.3741,-6.5009212,9.351157,LYI
9234906710000,3.999421,1.68677798768312,0.26689060836988,9.4172780615844,-0.014660766,0.02321288,-0.036651913,359.3831,-6.525116,9.36384,LYI
9234911638000,4.004349,1.67351090471848,0.272152958128469,9.42157677914354,-0.01863139,0.024740042,-0.032375857,359.38983,-6.5472765,9.375125,LYI
9234916665000,4.009376,1.64487728613204,0.281697481046788,9.41680441802141,-0.036651913,0.011301007,-0.026267206,359.3957,-6.566352,9.391027,LYI
9234921668000,4.014379,1.63372850346654,0.296756514106885,9.41022019595571,-0.026572637,0.0143553335,-0.025045475,359.40668,-6.5954494,9.400701,LYI
9234926695000,4.019406,1.6476358913818,0.319935432650939,9.40094892672123,-0.03604105,0.025045475,-0.025045475,359.41605,-6.612961,9.411815,LYI
9234931618000,4.024329,1.66272769870379,0.338158292453193,9.39336294431109,-0.04550946,0.014660766,-0.02443461,359.42853,-6.634373,9.421854,LYI
9234936673000,4.029384,1.68132039155065,0.347454648583773,9.38871467402785,-0.03145956,0.0143553335,-0.018325957,359.43842,-6.65877,9.426021,LYI
9234941629000,4.03434,1.69684001039326,0.353178385189607,9.38236231601124,-0.042760566,0.009162978,-0.020158553,359.44974,-6.6775546,9.437294,LYI
9234946680000,4.039391,1.70411916621188,0.348325609576645,9.37023038964687,-0.044593163,0.013439035,-0.010995574,359.4555,-6.701305,9.446279,LYI
9234951642000,4.044353,1.71127006131621,0.343558341195827,9.35831223113965,-0.04153884,0.021991149,-0.016493361,359.46393,-6.725052,9.458807,LYI
9234956736000,4.049447,1.71861118579454,0.33866425309992,9.34607702367576,-0.03604105,0.023518313,-0.020158553,359.469,-6.747699,9.472163,LYI
9234961675000,4.054386,1.726251077814,0.330336481838926,9.33374810728667,-0.050396383,0.024740042,-0.016798794,359.48065,-6.7672033,9.484774,LYI
9234966675000,4.059386,1.73543305288591,0.311972522107383,9.31997485704698,-0.044898596,0.031154128,-0.007941248,359.49106,-6.7928777,9.495191,LYI
9234971721000,4.064432,1.74389924944097,0.300562819686122,9.3104969373269,-0.03604105,0.037873644,-0.0033597588,359.499,-6.8133388,9.508699,LYI
9234976692000,4.069403,1.74878244492769,0.320095611830957,9.32026353225972,-0.037873644,0.044593163,-0.007330383,359.5063,-6.8316374,9.5200615,LYI
9234982344000,4.075055,1.75335179817289,0.333595841991461,9.33179099086444,-0.03023783,0.042455133,-0.004276057,359.50806,-6.850553,9.534753,LYI
9234986670000,4.079381,1.75525370501767,0.329792024329982,9.34130052508837,-0.03268129,0.03756821,-0.0033597588,359.51123,-6.865826,9.54784,LYI
9234991773000,4.084484,1.75749721648992,0.325304996700179,9.35251808244962,-0.043982297,0.043066,0.004276057,359.51144,-6.8829637,9.559246,LYI
9234996682000,4.089393,1.75965543671671,0.32098855173943,9.36330918358353,-0.03573562,0.048258353,0.0021380284,359.51413,-6.9046593,9.571513,LYI
9235001637000,4.094348,1.76183388064087,0.316631659341688,9.37420140320433,-0.03848451,0.043066,0.002443461,359.50827,-6.923823,9.583627,LYI
9235006705000,4.099416,1.77051880960196,0.311841426145251,9.36940429678771,-0.0421497,0.05375614,0.012217305,359.49954,-6.943928,9.589871,LYI
9235011670000,4.104381,1.78000582798284,0.30709792933759,9.36228915063847,-0.043066,0.0580322,0.010995574,359.49423,-6.963821,9.598875,LYI
9235016698000,4.109409,1.78961322544892,0.302294243144453,9.355083721668,-0.044898596,0.06566802,0.012217305,359.48727,-6.979104,9.605158,LYI
9235021705000,4.114416,1.79918049655327,0.297510620079808,9.34790838697127,-0.042760566,0.0693332,0.016493361,359.47977,-6.994582,9.611323,LYI
9235026689000,4.1194,1.81330028580004,0.279733549885117,9.36411135820741,-0.03359759,0.06994407,0.02107485,359.4717,-7.010916,9.616197,LYI
9235031619000,4.12433,1.82795986683916,0.260187416320638,9.38365736421031,-0.0421497,0.07238753,0.025350908,359.4624,-7.0221224,9.619633,LYI
9235036724000,4.129435,1.81146027657941,0.249718862912812,9.36756126904153,-0.048563786,0.06994407,0.032986723,359.45032,-7.041432,9.629349,LYI
9235041622000,4.134333,1.79299652283015,0.240486990858099,9.34909761169061,-0.049480084,0.07147124,0.037873644,359.43765,-7.0591545,9.637221,LYI
9235046724000,4.139435,1.7828406300831,0.227386825385042,9.34295280221607,-0.05681047,0.07727446,0.03604105,359.42023,-7.0694313,9.646225,LYI
