timestamp,rel_time,acc_x,acc_y,acc_z,gyro_x,gyro_y,gyro_z,azimuth,pitch,roll,label
56980749653000,0,5.37631943354738,8.24709152213466,-0.488879784356879,-0.051923547,0.013439035,0.009468411,170.90312,-67.09181,9.844388,STD
56980754716000,0.005063,5.36688426359214,8.24945036388402,-0.396886808328469,-0.053450707,0.015271631,0.008857546,170.98128,-67.0162,10.399235,STD
56980759674000,0.010021,5.35764476672504,8.25176028633976,-0.306801646339755,-0.05009095,0.02565634,0.013439035,171.01512,-66.882996,10.943062,STD
56980764698000,0.015045,5.3482822753454,8.25410095806577,-0.21551728695466,-0.06658431,0.022296581,0.014966198,171.0504,-66.73937,11.46995,STD
56980769701000,0.020048,5.37301405632172,8.26845966196442,-0.384425258116644,-0.061086524,0.016493361,0.014660766,171.00514,-66.50139,11.99396,STD
56980774694000,0.025041,5.42838689413622,8.29362913369829,-0.787137084444678,-0.059864793,0.01740966,0.014966198,170.95573,-66.2582,12.500799,STD
56980779651000,0.029998,5.42474714739751,8.29493914371258,-0.753748940557347,-0.061086524,0.0143553335,0.019242255,170.79544,-65.85998,13.005295,STD
56980784737000,0.035084,5.38436322975587,8.28147799401198,-0.448625088406264,-0.05467244,0.0027488936,0.014966198,170.6338,-65.473854,13.489656,STD
56980789722000,0.040069,5.36067773333333,8.27669502292994,-0.315314834530786,-0.06383542,0.016798794,0.017104227,170.08493,-64.69709,14.024267,STD
56980794664000,0.045011,5.35565336666667,8.28171886496815,-0.375606017392781,-0.065973446,0.024129177,0.017715093,169.53947,-63.953495,14.529214,STD
56980799668000,0.050015,5.36951541868306,8.28125716342721,-0.549629308415311,-0.059864793,0.02107485,0.011301007,168.48889,-62.63745,15.051741,STD
56980804710000,0.055057,5.39824591868306,8.27646916342721,-0.812991493415311,-0.06169739,0.018936822,0.0070249503,167.44228,-61.381516,15.521926,STD
56980809649000,0.059996,5.40590417348797,8.25938578107927,-0.7442563958545,-0.061391957,0.017104227,0.01282817,166.19162,-59.979843,15.970551,STD
56980814687000,0.065034,5.39665488258411,8.23163839125851,-0.402039537750407,-0.06872234,-0.00061086525,0.01740966,164.96147,-58.647152,16.36385,STD
56980819692000,0.070039,5.39284828077572,8.22575001517707,-0.263410632740304,-0.054367006,0.015577064,0.01740966,163.84854,-57.545906,16.725777,STD
56980824691000,0.075038,5.3952228181728,8.24474581847039,-0.356015729184605,-0.065973446,0.016493361,0.015882496,162.75594,-56.486855,17.052603,STD
56980829703000,0.08005,5.39760353060212,8.26379102073207,-0.448861647043944,-0.06688975,0.01863139,0.015271631,161.29498,-55.05223,17.322567,STD
56980834696000,0.085043,5.39997521798433,8.28276402450154,-0.541355595142843,-0.07819075,0.01160644,0.010079277,159.8665,-53.686882,17.537453,STD
56980839693000,0.09004,5.4054032927904,8.29555618904298,-0.581509153099243,-0.064446285,0.004276057,0.0067195175,158.467,-52.39574,17.702868,STD
56980844665000,0.095012,5.41477003806433,8.30023965948658,-0.55340889771614,-0.0729984,0.0009162979,0.00580322,157.09843,-51.160374,17.823349,STD
56980849624000,0.099971,5.41875722903764,8.30137555738921,-0.514000890279993,-0.069027774,0.007330383,0.004886922,155.95029,-50.213627,17.940994,STD
56980854693000,0.10504,5.41425659994437,8.29687474031152,-0.45549143377341,-0.0693332,0.005192355,0.0030543262,154.82257,-49.30425,18.030846,STD
56980859662000,0.110009,5.41321524990796,8.29467366128043,-0.414121956547351,-0.06719518,0.004581489,0.0027488936,153.67862,-48.400417,18.08658,STD
56980864698000,0.115045,5.42307989732052,8.29960613949683,-0.423986717267335,-0.065973446,0.004276057,0.0021380284,152.55388,-47.534874,18.115768,STD
56980869679000,0.120026,5.43217608327091,8.30096427231586,-0.407562767365013,-0.06811147,0.005192355,0.0018325958,151.39685,-46.651142,18.106047,STD
56980874693000,0.12504,5.43966954069913,8.29347065839575,-0.325134676970193,-0.06688975,0.0033597588,0.0070249503,150.25906,-45.80516,18.073524,STD
56980879667000,0.130014,5.44710321785268,8.28603682599875,-0.243364170064763,-0.06688975,-0.0067195175,-0.002443461,149.1309,-44.98833,18.01947,STD
56980884707000,0.135054,5.44833788083996,8.283937,-0.203829618113693,-0.06352998,-0.009468411,0.004581489,148.01598,-44.20421,17.947407,STD
56980889625000,0.139972,5.44716741150596,8.283937,-0.181591150158574,-0.05222898,-0.005192355,-0.00061086525,146.92451,-43.45743,17.85138,STD
56980894679000,0.145026,5.44596457457753,8.283937,-0.158737710336456,-0.051923547,-0.017715093,-0.007330383,145.73988,-42.61957,17.69932,STD
56980899638000,0.149985,5.4447843473658,8.283937,-0.136313846450845,-0.057726767,-0.02107485,-0.0027488936,144.57521,-41.81992,17.526329,STD
56980904696000,0.155043,5.4435805584493,8.283937,-0.113442319220875,-0.06291912,-0.024129177,0.0018325958,143.43777,-41.057114,17.33668,STD
56980909697000,0.160044,5.44239033536282,8.283937,-0.0908285375528082,-0.055588737,-0.019242255,-0.0021380284,142.3226,-40.330776,17.128973,STD
56980914713000,0.16506,5.44119654232107,8.283937,-0.0681469281052932,-0.055283304,-0.026267206,-0.0012217305,141.22987,-39.633038,16.911285,STD
56980919773000,0.17012,5.43999227741054,8.283937,-0.0452663571713966,-0.04428773,-0.036957346,0.00061086525,140.15805,-38.97197,16.679142,STD
56980925177000,0.175524,5.42487198355755,8.29869140159442,-0.0567498565510712,-0.056505036,-0.031154128,0.004581489,139.1695,-38.40878,16.479763,STD
56980929716000,0.180063,5.40754508041853,8.31601875705032,-0.0784086134805182,-0.058948494,-0.036651913,0.003970624,138.20001,-37.875774,16.273476,STD
56980934698000,0.185045,5.40771562284234,8.32544304424955,-0.102182830464421,-0.051923547,-0.043066,0.003970624,137.16406,-37.28539,16.011576,STD
56980939709000,0.190056,5.41728096962328,8.3302253181184,-0.126096217392864,-0.06078109,-0.039095376,0.005192355,136.14499,-36.718117,15.738721,STD
56980944667000,0.195014,5.41289655762916,8.32879067798161,-0.168925120220521,-0.05131268,-0.04550946,0.0009162979,135.20299,-36.25048,15.500625,STD
56980949689000,0.200036,5.40131807777938,8.32415943112331,-0.222186166217921,-0.058643065,-0.05100725,0.0009162979,134.736841787709,-36.0228026400638,15.3779642531923,STD
56980954691000,0.205038,5.38978570896047,8.31954662809957,-0.275235101319274,-0.064446285,-0.058337633,0.0012217305,134.27255,-35.796032,15.255792,STD
56980959700000,0.210047,5.37823720128076,8.31492736973374,-0.328358275234243,-0.059253927,-0.054367006,0.0076358155,133.36256,-35.383343,15.010666,STD
56980964775000,0.215122,5.36824866042296,8.31049798489426,-0.36736168326284,-0.060170226,-0.048563786,0.0018325958,132.46832,-34.986893,14.758828,STD
56980969722000,0.220069,5.36006973429435,8.30640843642641,-0.391898470189038,-0.062308256,-0.05222898,0.0036651916,131.5822,-34.610233,14.504053,STD
56980974618000,0.224965,5.3542562140101,8.303091,-0.418646136372524,-0.06872234,-0.05009095,0.0067195175,130.7852,-34.331623,14.2921,STD
56980979697000,0.230044,5.35897982211576,8.303091,-0.45800957342354,-0.058643065,-0.044898596,0.004276057,129.99487,-34.071697,14.073889,STD
56980984627000,0.234974,5.36356485616988,8.303091,-0.496218225650654,-0.06780604,-0.04642576,0.005192355,129.2288,-33.837753,13.865497,STD
56980989687000,0.240034,5.3682707937589,8.303091,-0.535434408261039,-0.057726767,-0.05467244,0.004886922,128.46887,-33.625683,13.6522255,STD
56980995426000,0.245773,5.37360821981095,8.303091,-0.579912999565583,-0.06291912,-0.057421334,0.01282817,127.71625,-33.4304,13.448076,STD
56980999720000,0.250067,5.37760175657128,8.303091,-0.613192503148388,-0.062308256,-0.04734206,0.011911872,126.96911,-33.252773,13.236763,STD
56981005066000,0.255413,5.38298741880927,8.30432401104702,-0.654099965832437,-0.071776666,-0.054061573,0.01038471,126.224045,-33.08212,13.027813,STD
56981009667000,0.260014,5.39160270022485,8.31724675325056,-0.684253450786978,-0.06872234,-0.052839845,0.008552114,125.48015,-32.927677,12.81038,STD
56981014959000,0.265306,5.40127239549277,8.33177440035907,-0.718446914135878,-0.06414085,-0.06047566,0.014966198,124.8156,-32.85416,12.654528,STD
56981019744000,0.270091,5.39910732202589,8.3296095529623,-0.727107027147312,-0.06352998,-0.053145275,0.014660766,124.151695,-32.78994,12.489515,STD
56981024669000,0.275016,5.39687890262685,8.32738136624775,-0.736020518595861,-0.0580322,-0.051618114,0.014049901,123.50435,-32.753284,12.338538,STD
56981029688000,0.280035,5.39460795095908,8.32511065170556,-0.745104135566474,-0.06261369,-0.04734206,0.01038471,122.85719,-32.722736,12.18122,STD
56981034643000,0.28499,5.39236595743173,8.32286889228007,-0.754071922394406,-0.064751714,-0.059253927,0.018325957,122.21042,-32.701984,12.0257845,STD
56981039686000,0.290033,5.39517917582525,8.30849629669899,-0.73938217977275,-0.06536258,-0.056199603,0.008246681,121.57052,-32.697037,11.868851,STD
56981044676000,0.295023,5.39986026408071,8.28977194367715,-0.715977227279851,-0.07360926,-0.058643065,0.009773844,120.92928,-32.696182,11.716079,STD
56981049656000,0.300003,5.40462058278812,8.27403259637645,-0.695477644640161,-0.08155051,-0.05375614,0.014966198,120.29731,-32.711845,11.564262,STD
56981054660000,0.305007,5.409444267539,8.25956204579768,-0.676183308575742,-0.06994407,-0.05131268,0.015882496,119.667114,-32.7387,11.410486,STD
56981059712000,0.310059,5.42981478250696,8.26151341448468,-0.626232487576602,-0.07147124,-0.054367006,0.0067195175,119.02243,-32.74967,11.237348,STD
56981064773000,0.31512,5.45681646278552,8.27051419387187,-0.563228300640669,-0.07727446,-0.057726767,0.006414085,118.375626,-32.770634,11.063203,STD
56981069699000,0.320046,5.47090629150125,8.27946022326075,-0.508254566862594,-0.07788532,-0.052534413,0.016187929,117.7179,-32.789745,10.877242,STD
56981074694000,0.325041,5.47551566864521,8.28867868876469,-0.457551370148391,-0.0711658,-0.049785517,0.015882496,117.06446,-32.818977,10.689593,STD
56981079669000,0.330016,5.48287443713441,8.29598457016102,-0.411192141143608,-0.063224554,-0.055588737,0.016493361,116.37352,-32.825016,10.472865,STD
56981084706000,0.335053,5.4934425917187,8.3012687578048,-0.368919500736116,-0.06352998,-0.043676864,0.015882496,115.68151,-32.84134,10.250643,STD
56981089678000,0.340025,5.49256841163887,8.30459722757548,-0.328736505507803,-0.06505715,-0.03848451,0.019547688,114.965614,-32.847317,10.007145,STD
56981094665000,0.345012,5.48560266197676,8.30691919261996,-0.289263892570373,-0.04520403,-0.032070424,0.02107485,114.25076,-32.87103,9.7608595,STD
56981099664000,0.350011,5.47862015093587,8.30924674490739,-0.249696298410715,-0.049785517,-0.029626964,0.015577064,113.51769,-32.881374,9.495247,STD
56981104693000,0.35504,5.47159573644805,8.31158826530215,-0.209891251195488,-0.05009095,-0.02565634,0.012217305,112.785324,-32.91067,9.230195,STD
56981109705000,0.360052,5.45838161550957,8.30518660539548,-0.184054889028234,-0.05222898,-0.027488936,0.022602014,112.061295,-32.949306,8.961693,STD
56981114713000,0.36506,5.43983177431831,8.29127393395862,-0.1701425032924,-0.05009095,-0.014049901,0.018936822,111.34068,-33.00196,8.688457,STD
56981119683000,0.37003,5.42401031140794,8.28796314314079,-0.148714501514079,-0.040011674,-0.013133603,0.02076942,110.58159,-33.03416,8.380832,STD
56981124692000,0.375039,5.41102199249097,8.2966222032491,-0.11840839872491,-0.03359759,-0.00580322,0.021991149,109.823875,-33.07981,8.072345,STD
56981129712000,0.380059,5.39733403677013,8.30707590774908,-0.0917830988283048,-0.03848451,-0.015882496,0.020158553,109.085,-33.139904,7.7703657,STD
56981134699000,0.385046,5.38178394942479,8.32262577859779,-0.0762330039055785,-0.040317107,-0.00580322,0.029626964,108.341156,-33.21482,7.468746,STD
56981139666000,0.390013,5.35964172692124,8.33552037697387,-0.0725863125946981,-0.042760566,-0.014966198,0.024129177,107.59994,-33.294975,7.166945,STD
56981144662000,0.395009,5.32758891329314,8.34467899310939,-0.0863232394148722,-0.038179077,-0.0125227375,0.02565634,106.853806,-33.388607,6.868157,STD
56981149625000,0.399972,5.2971450689708,8.35798095471517,-0.101372033038583,-0.038789943,-0.014049901,0.024740042,106.100395,-33.483044,6.5543947,STD
56981154773000,0.40512,5.26882456312111,8.38158141732887,-0.120252420872762,-0.03726278,-0.016798794,0.015271631,105.35108,-33.592556,6.245898,STD
56981159682000,0.410029,5.24257582783109,8.40658030710173,-0.137383985604607,-0.048258353,-0.013439035,0.020158553,104.62329,-33.727486,5.966239,STD
56981164715000,0.415062,5.218229916931,8.44066478573593,-0.151991542313365,-0.040011674,-0.014966198,0.024129177,103.900345,-33.879696,5.692572,STD
56981169725000,0.420072,5.19416611373416,8.4683139988211,-0.165221795767757,-0.05467244,-0.018020526,0.027183503,103.19676,-34.04835,5.438132,STD
56981174694000,0.425041,5.17079096922095,8.47766376372925,-0.174571858454662,-0.032070424,-0.026267206,0.02076942,102.49585,-34.239872,5.189769,STD
56981179688000,0.430035,5.15068993546122,8.48423483051388,-0.188488552942866,-0.041233405,-0.03176499,0.023518313,101.79452,-34.43549,4.9522605,STD
56981184712000,0.435059,5.1430110970316,8.48039547143313,-0.219202800194702,-0.051923547,-0.040317107,0.025045475,101.097,-34.64647,4.7216864,STD
56981189695000,0.440042,5.13539492428184,8.47658744470156,-0.249666393756783,-0.04337143,-0.039095376,0.024740042,100.40751,-34.876324,4.5025115,STD
56981194684000,0.445031,5.10730496375751,8.48286361529219,-0.288131640894593,-0.04520403,-0.044593163,0.01740966,99.72177,-35.108685,4.2912536,STD
56981199664000,0.450011,5.07083896135445,8.49328272179137,-0.329807234624795,-0.046731193,-0.05100725,0.021685716,99.03323,-35.35142,4.0872045,STD
56981204655000,0.455002,5.05091271917771,8.54408595376884,-0.369428495685701,-0.05375614,-0.04520403,0.01985312,98.360054,-35.61022,3.8979642,STD
56981209667000,0.460014,5.03337085655551,8.6010968241206,-0.408897714061215,-0.06261369,-0.04795292,0.021380283,97.68724,-35.87513,3.7185109,STD
56981214744000,0.465091,4.99927388716252,8.62983229089745,-0.464203806520115,-0.059864793,-0.0580322,0.01985312,97.03577,-36.163692,3.5623837,STD
56981219704000,0.470051,4.9587224599936,8.64503939366129,-0.525031000202753,-0.0711658,-0.0580322,0.022907447,96.380875,-36.451736,3.4100072,STD
56981224690000,0.475037,4.93970046753669,8.6708740248695,-0.559318361063725,-0.07941248,-0.056505036,0.022296581,95.7577,-36.773983,3.293659,STD
56981229710000,0.480057,4.92549519756722,8.69928451536492,-0.587729019667093,-0.089491755,-0.056199603,0.028405234,95.13157,-37.09696,3.1829545,CSI
56981234701000,0.485048,4.90333387979016,8.73594925231741,-0.609077892169706,-0.099265605,-0.06261369,0.027794369,94.53059,-37.44069,3.097866,CSI
56981239679000,0.490026,4.87905288233676,8.7747988989508,-0.628502685061628,-0.103847094,-0.06566802,0.030543262,93.9258,-37.78651,3.0166745,CSI
56981244682000,0.495029,4.85686903677349,8.7925672498642,-0.663975449720261,-0.12522738,-0.07269296,0.033292156,93.33771,-38.14256,2.9637914,CSI
56981249722000,0.500069,4.83502082384574,8.80567599511135,-0.703302264929386,-0.13805555,-0.07360926,0.040011674,92.74686,-38.50239,2.9140959,CSI
56981254696000,0.505043,4.80587981476926,8.81661379690994,-0.733139681540964,-0.15118915,-0.0729984,0.039095376,92.16392,-38.86872,2.876065,CSI
56981259675000,0.510022,4.77195211520634,8.82630761333604,-0.75737371650742,-0.16279559,-0.079107046,0.035430185,91.58109,-39.23401,2.8429315,CSI
56981264783000,0.51513,4.75644331824952,8.83304578292359,-0.782293097608895,-0.16798794,-0.08307768,0.043676864,91.0084,-39.610905,2.8253953,CSI
56981269778000,0.520125,4.75156362667551,8.83792562735897,-0.806691840820157,-0.1853976,-0.08827003,0.050396383,90.43804,-39.982807,2.8108175,CSI
56981274667000,0.525014,4.74685182672168,8.84263737164291,-0.796183946805701,-0.19242255,-0.090713486,0.04886922,89.8782,-40.365284,2.8052907,CSI
56981279737000,0.530084,4.74199517495874,8.84749387126782,-0.769472346895724,-0.21013765,-0.102319926,0.057421334,89.31739,-40.740704,2.8080823,CSI
56981284703000,0.53505,4.73723814682171,8.8522507503876,-0.74330867724031,-0.22907446,-0.11026118,0.056199603,88.768234,-41.12162,2.8195677,CSI
56981289696000,0.540043,4.73245525485871,8.85703349252313,-0.717002756461115,-0.25045475,-0.11484267,0.06872234,88.216095,-41.497246,2.8388538,CSI
56981294676000,0.545023,4.74310846032309,8.86462899131572,-0.699559403576431,-0.25992316,-0.12797627,0.064751714,87.67128,-41.87204,2.860138,CSI
56981299739000,0.550086,4.76121938196844,8.87368461761135,-0.685976247800915,-0.267559,-0.12889257,0.06688975,87.12153,-42.241703,2.8850906,CSI
56981304689000,0.555036,4.78846751139254,8.86946373940229,-0.668971819870708,-0.28099802,-0.13255776,0.073303826,86.56485,-42.59963,2.9049184,CSI
56981309656000,0.560003,4.82375526706231,8.85434007715133,-0.648807305341246,-0.3109304,-0.12064589,0.06658431,86.008385,-42.95177,2.9217403,CSI
56981314727000,0.565074,4.86445851189958,8.84583914904131,-0.607214763233841,-0.32284227,-0.10842858,0.062308256,85.44155,-43.302376,2.9422903,CSI
56981319756000,0.570103,4.90729855388417,8.84107954200435,-0.554854711919352,-0.3371976,-0.103847094,0.06841691,84.87445,-43.644714,2.9651933,CSI
56981324696000,0.575043,4.96208039534649,8.83025394903304,-0.490606861265109,-0.35002577,-0.10323623,0.0729984,84.298225,-43.9787,2.982695,CSI
56981329706000,0.580053,5.02490639081386,8.81575532796132,-0.418115209250604,-0.36346483,-0.11911872,0.06627888,83.72715,-44.309807,3.0045376,CSI
56981334697000,0.585044,5.08715842732994,8.79520767935271,-0.352467820497453,-0.37048978,-0.15088372,0.06811147,83.136375,-44.62751,3.024735,CSI
56981339694000,0.590041,5.14930221945859,8.77130633603037,-0.29032428792728,-0.38056904,-0.17134771,0.06383542,82.55155,-44.942356,3.0467553,CSI
56981344674000,0.595021,5.16860944546391,8.63951884879693,-0.245218621665574,-0.40042216,-0.20158553,0.073303826,81.942154,-45.23604,3.0615723,CSI
56981349736000,0.600083,5.16407065939519,8.44435531317292,-0.208909058222077,-0.41172317,-0.23182335,0.070554934,81.34362,-45.531788,3.0815916,CSI
56981354696000,0.605043,5.17901070497838,8.2898626038419,-0.201314240202152,-0.44226643,-0.25717425,0.069027774,80.724556,-45.802456,3.09593,CSI
56981359657000,0.610004,5.21245876187268,8.17040493704113,-0.220427402027557,-0.47708577,-0.27855456,0.07513642,80.11411,-46.071117,3.1214917,CSI
56981364800000,0.615147,5.25389590839127,8.05414881288142,-0.217363734954616,-0.49968776,-0.28527406,0.08552113,79.48456,-46.304832,3.1256201,CSI
56981369748000,0.620095,5.29965291584589,7.94890768140209,-0.194485193004056,-0.52931476,-0.28588495,0.08674286,78.8639,-46.530533,3.1380835,CSI
56981374687000,0.625034,5.36345263877005,7.86681633877005,-0.175841221080978,-0.5748242,-0.28160888,0.09437868,78.23833,-46.73624,3.1602266,CSI
56981379683000,0.63003,5.45026214625668,7.81198924625668,-0.162134462265088,-0.60231316,-0.27672195,0.093767814,77.61987,-46.943012,3.1867254,CSI
56981384707000,0.635054,5.55018600797465,7.74677207093344,-0.172378604415704,-0.6200282,-0.27458394,0.10140363,76.977554,-47.124817,3.2027633,CSI
56981389664000,0.640011,5.67152379961149,7.66426247398017,-0.22576726314385,-0.6084218,-0.27030787,0.10598512,76.34151,-47.31244,3.2233496,CSI
56981394686000,0.645033,5.77792648797387,7.58733836080372,-0.281050782713056,-0.59712076,-0.23854288,0.09590584,75.68608,-47.488506,3.2430332,CSI
56981399685000,0.650032,5.85848347045432,7.52099728148075,-0.337914439875285,-0.5992588,-0.19333886,0.094989546,75.03206,-47.669155,3.269045,CSI
56981404651000,0.654998,5.9184485648294,7.46036880380125,-0.376681662693456,-0.61269784,-0.15027285,0.063224554,74.38263,-47.853012,3.306543,CSI
56981409711000,0.660058,5.94476322099738,7.40773930828129,-0.385453254439316,-0.6123924,-0.09743301,0.05497787,73.725,-48.04484,3.3448467,CSI
56981414678000,0.665025,5.96719937471489,7.35183278813946,-0.408775810218312,-0.60903263,-0.071776666,0.030543262,73.09506,-48.238728,3.414807,CSI
56981419746000,0.670093,5.97247093140002,7.27275949290757,-0.508935453289888,-0.593761,-0.04550946,0.0036651916,72.46282,-48.440838,3.4775305,CSI
56981424657000,0.675004,5.97739206732158,7.19747722637966,-0.577537801937783,-0.5852089,-0.008246681,-0.018020526,71.82886,-48.64183,3.5344276,CSI
56981429724000,0.680071,5.9820655366657,7.12269981363768,-0.586884955350091,-0.57726765,0.03970624,-0.037873644,71.198555,-48.851784,3.584837,CSI
56981434687000,0.685034,6.0010663125,7.0473323375,-0.585382335,-0.55833083,0.056199603,-0.0729984,70.61689,-49.07385,3.6805134,CSI
56981439727000,0.690074,6.0645756687753,6.96428186057692,-0.551184996376518,-0.5216789,0.054061573,-0.10445796,70.03712,-49.30642,3.7711918,CSI
56981444671000,0.695018,6.15063094178218,6.89599022670297,-0.535611865342574,-0.45020768,0.059253927,-0.14172074,69.46152,-49.54828,3.8587575,CSI
56981449728000,0.700075,6.30407233841584,6.86242491493069,-0.569177147073267,-0.38759398,0.086437434,-0.17959438,68.89252,-49.801266,3.9401145,CSI
56981454688000,0.705035,6.44741264600158,6.84736373436263,-0.600904838907363,-0.31612277,0.1142318,-0.21197024,68.30815,-50.06693,4.0053887,CSI
56981459683000,0.71003,6.57050657058591,6.8852387766726,-0.629311113224466,-0.2864958,0.17592919,-0.2284636,67.71972,-50.341076,4.0610743,CSI
56981464736000,0.715083,6.70651333560584,6.93270141872581,-0.672891170318547,-0.24984388,0.23151793,-0.25870144,67.125694,-50.63953,4.1291375,CSI
56981469751000,0.720098,6.87809167940855,7.0089583332341,-0.763446483358142,-0.23701571,0.3118467,-0.28313604,66.52007,-50.941242,4.1862774,CSI
56981474695000,0.725042,7.02200425637673,7.08633760678416,-0.806673117983703,-0.23548855,0.410196,-0.2959642,65.91123,-51.258793,4.26136,CSI
56981479729000,0.730076,7.07681928872465,7.17312807864317,-0.683339736403259,-0.24404067,0.46486846,-0.301462,65.302444,-51.577965,4.3330007,CSI
56981484695000,0.735042,7.13656332297496,7.26801242326951,-0.556238984506627,-0.2611449,0.45204028,-0.30757064,64.705444,-51.91196,4.4528704,CSI
56981489727000,0.740074,7.24538816617575,7.44307859351988,-0.381172888365243,-0.27030787,0.43799037,-0.2941316,64.099365,-52.24455,4.5719504,CSI
56981494753000,0.7451,7.35914542926684,7.6158118548182,-0.207295142943572,-0.27947086,0.42821655,-0.2574797,63.457092,-52.56263,4.676612,CSI
56981499648000,0.749995,7.52680136757401,7.76018206513014,-0.0489534034393006,-0.24251351,0.4007276,-0.20097467,62.82368,-52.88927,4.8010097,CSI
56981504802000,0.755149,7.69469736647054,7.91055425351717,0.122138564081848,-0.19730948,0.36896262,-0.15271631,62.13873,-53.20758,4.9113293,CSI
56981509743000,0.76009,7.75287463660315,8.03521997494511,0.338226045978748,-0.13836098,0.30879238,-0.09285152,61.465427,-53.536705,5.0547357,CSI
56981514638000,0.764985,7.81051028471064,8.15872507642048,0.55230178447001,-0.0983493,0.24495697,-0.034513887,60.760525,-53.85959,5.221871,CSI
56981519709000,0.770056,7.90993458070945,8.27012802052611,0.636867205787166,-0.050701816,0.23762658,0.021991149,60.058987,-54.196808,5.4105024,CSI
56981524628000,0.774975,8.01789501449781,8.37339491665006,0.679112603150658,0.007941248,0.2507602,0.089491755,59.367622,-54.54223,5.629079,CSI
56981529723000,0.78007,8.15027953207769,8.4499174014126,0.682236174632137,0.095294975,0.2773328,0.1572978,58.677383,-54.881996,5.8716955,CSI
56981534631000,0.784978,8.28399412595645,8.514469108299,0.673014488463802,0.17837265,0.3268129,0.21288654,57.980618,-55.229877,6.1263885,CSI
56981539724000,0.790071,8.33308819550872,8.60702994915341,0.762543397636708,0.26297748,0.3943135,0.26939157,57.261803,-55.59437,6.408022,CSI
56981544645000,0.794992,8.34755264796153,8.70587008056678,0.885490891068597,0.32375857,0.45723262,0.34300083,56.53191,-55.964108,6.704468,CSI
56981549743000,0.80009,8.36253736216686,8.8082653233925,1.01286059672106,0.3885103,0.4859433,0.4156938,55.791092,-56.352894,7.0328445,CSI
56981554559000,0.804906,8.37669318476648,8.90499649040872,1.13318474392041,0.41355577,0.48991394,0.4541783,55.046864,-56.735096,7.3689694,CSI
56981559577000,0.809924,8.19584086853106,8.99312607889314,1.30138284244922,0.4111123,0.50823987,0.5366451,54.27547,-57.105816,7.7289124,CSI
56981564608000,0.814955,7.96417909131587,9.07822605357669,1.48103886017074,0.43310347,0.52503866,0.6221663,53.509495,-57.474857,8.103002,CSI
56981569603000,0.81995,7.5891137869887,9.13366914608492,1.70122807954811,0.44012842,0.54702985,0.7058548,52.74198,-57.80664,8.491382,CSI
56981574582000,0.824929,7.17116834179977,9.18010748578107,1.93341997199065,0.43371433,0.54305923,0.7779369,51.97799,-58.121475,8.901768,CSI
56981579615000,0.829962,6.63304359289941,9.18308066666667,2.15425265207101,0.3811799,0.5225952,0.8353582,51.225986,-58.389538,9.29732,CSI
56981584580000,0.834927,6.05552734842728,9.16827277192982,2.36650230451573,0.2996294,0.49754974,0.86559606,50.481625,-58.631042,9.7070265,CSI
56981589600000,0.839947,5.54246457378763,9.11407860071629,2.61341988099894,0.17715092,0.46822822,0.88117313,49.761227,-58.81713,10.059389,CSI
56981594602000,0.844949,5.05095965821315,9.04916299235311,2.86844601095731,0.046731193,0.4083634,0.8866709,49.063293,-58.967358,10.426527,CSI
56981599610000,0.849957,4.65593024977952,8.99035438304753,2.99756027789319,-0.090713486,0.32559118,0.8793405,48.413586,-59.061443,10.720247,CSI
56981604686000,0.855033,4.29390177236649,8.93319180862322,3.07854040927977,-0.21227567,0.24281894,0.8707884,47.78897,-59.11933,11.0248,CSI
56981609690000,0.860037,4.04473563705487,8.79906609680008,2.96255627660748,-0.3118467,0.16737708,0.8604037,47.207664,-59.12192,11.257038,CSI
56981614754000,0.865101,3.84041479347979,8.62879906580399,2.75823563622229,-0.39370266,0.10781772,0.829555,46.65705,-59.099335,11.492097,CSI
56981619664000,0.870011,3.73748274125874,8.39939532823426,2.48683885393357,-0.46181414,0.045814894,0.7797695,46.145653,-59.050392,11.678372,CSI
56981624697000,0.875044,3.67194267894328,8.13723473679099,2.17786403003108,-0.52687126,-0.0143553335,0.72418076,45.66314,-58.986202,11.863837,CSI
56981629684000,0.880031,3.69136934197384,7.82235791364447,1.86164695793698,-0.6209445,-0.07666359,0.6392705,45.214165,-58.917526,12.021983,CSI
56981634692000,0.885039,3.75790210075307,7.47543705038644,1.53848769499604,-0.7058548,-0.129198,0.5684101,44.79232,-58.840916,12.176921,CSI
56981639690000,0.890037,3.88906545419374,7.22704377906174,1.15028269586718,-0.7858781,-0.1704314,0.5225952,44.39001,-58.762444,12.331853,CSI
56981645125000,0.895472,4.07405198176279,7.02091566441917,0.685173464703493,-0.8155051,-0.20647246,0.5021312,44.013897,-58.682693,12.481912,CSI
56981649697000,0.900044,4.22915030263887,6.91184848692992,0.36737798745578,-0.8167268,-0.23671028,0.4905248,43.64353,-58.599106,12.657723,CSI
56981654646000,0.904993,4.39681820186442,6.82121733967875,0.05470014852854,-0.80848014,-0.27122417,0.48258355,43.29267,-58.515053,12.834287,CSI
56981659692000,0.910039,4.56645060699774,6.77761218848758,-0.18304023227991,-0.77121735,-0.3155119,0.47647488,43.018177,-58.433956,13.108855,CSI
56981664716000,0.915063,4.73430128198235,6.77267540999384,-0.355827603279294,-0.72601336,-0.344528,0.4841107,42.750523,-58.357754,13.384233,CSI
56981669666000,0.920013,5.03864206601651,6.83956285072122,-0.357908283608818,-0.6872234,-0.3481932,0.4813618,42.521313,-58.29365,13.724912,CSI
56981674697000,0.925044,5.43639809257008,6.95320717545133,-0.253005626031933,-0.65026605,-0.36682457,0.49693888,42.30214,-58.23657,14.074055,CSI
56981679677000,0.930024,5.85643131818182,7.05397486793388,-0.115143289421488,-0.6227771,-0.37720928,0.50976706,42.091003,-58.19123,14.456764,CSI
56981684714000,0.935061,6.31987824715909,7.13869132796488,0.0742222312448347,-0.58093286,-0.3921755,0.5128214,41.8879,-58.155697,14.83958,CSI
56981689692000,0.940039,6.80758312521834,7.26584535596467,0.29611779267368,-0.5555819,-0.4034765,0.5170974,41.63339,-58.099277,15.264786,CSI
56981694664000,0.945011,7.32740735360262,7.44069519046248,0.556029822979357,-0.54305923,-0.39461896,0.5018258,41.38324,-58.04866,15.67967,CSI
56981699682000,0.950029,7.82579020122413,7.57727046171184,0.745797208225007,-0.53969944,-0.3903429,0.5036584,41.067455,-57.970592,16.129433,CSI
56981704698000,0.955045,8.29248843171087,7.66594318593219,0.848470854019236,-0.53786683,-0.3903429,0.5216789,40.75513,-57.891037,16.572842,CSI
56981709694000,0.960041,8.55303244283212,7.67482001521141,0.952924639984989,-0.5311473,-0.36071593,0.5403103,40.3428,-57.795406,17.023907,CSI
56981714864000,0.965211,8.50596073755317,7.5608567105329,1.06441046824618,-0.50518554,-0.30634892,0.5705481,39.92836,-57.696682,17.473293,CSI
56981719663000,0.97001,8.46226690512885,7.45507143023267,1.16789605622017,-0.49571714,-0.25625798,0.62949663,39.49253,-57.556877,17.987417,CSI
56981724701000,0.975048,8.41639703062297,7.34401782695021,1.27653543780235,-0.49510628,-0.2275473,0.65576386,39.057312,-57.417896,18.488426,CSI
56981729664000,0.980011,8.26959624829299,7.19240103169283,1.3104098890219,-0.48349985,-0.20433442,0.64873886,38.61577,-57.276142,18.982153,CSI
56981734772000,0.985119,7.96160636027312,6.97116887264343,1.23232796918507,-0.5128214,-0.18570304,0.6411031,38.17326,-57.11776,19.47156,CSI
56981739683000,0.99003,7.65529514868064,6.74402673824214,1.15080929944218,-0.52320606,-0.16157386,0.6291912,37.73349,-56.943085,19.932178,CSI
56981744673000,0.99502,7.28441218845557,6.42877637211874,1.03027231074408,-0.52839845,-0.15332718,0.5946773,37.30511,-56.76772,20.378593,CSI
56981749666000,1.000013,6.92081081329787,6.11977222576832,0.904583736554374,-0.50671273,-0.1469131,0.5723807,36.88207,-56.552044,20.821442,CSI
56981754689000,1.005036,6.64124479388298,5.8828518820725,0.719785899147951,-0.48197266,-0.13775012,0.5018258,36.475525,-56.352745,21.236038,CSI
56981759981000,1.010328,6.36369281202613,5.64221907522518,0.524990645135108,-0.43371433,-0.11453723,0.39706242,36.089844,-56.17694,21.601664,CSI
56981764729000,1.015076,6.24217352547758,5.49369554455112,0.349462926730674,-0.38148534,-0.08002335,0.36743546,35.705128,-56.007496,21.96259,CSI
56981769920000,1.020267,6.11493892525425,5.3384444294633,0.168515538380224,-0.29779682,-0.042760566,0.29443705,35.350536,-55.885647,22.26916,CSI
56981774678000,1.025025,6.05987931667506,5.27420821945423,0.122632499609908,-0.21074851,0.0030543262,0.23793201,34.99268,-55.77775,22.56563,CSI
56981779885000,1.030232,6.00961170812605,5.21514984213656,0.0803299629396492,-0.12003502,0.02565634,0.18661933,34.685497,-55.687557,22.865273,CSI
56981784729000,1.035076,6.06477772045387,5.27491302215836,0.121704503867605,-0.03573562,0.043066,0.13530666,34.37948,-55.623035,23.14474,CSI
56981790090000,1.040437,6.12697100476348,5.3438471120741,0.164544941285147,0.022296581,0.0720821,0.09468412,34.084553,-55.576984,23.41082,CSI
56981794811000,1.045158,6.19053428015217,5.42610526635792,0.17950097714522,0.06841691,0.11301007,0.086132,33.787914,-55.54558,23.668873,CSI
56981799689000,1.050036,6.25621139460801,5.51109897036057,0.194954385941118,0.09193522,0.15943582,0.08032878,33.499294,-55.500385,23.934774,CSI
56981804575000,1.054922,6.31014690613094,5.61900207851982,0.256636190913072,0.110872045,0.18478674,0.0729984,33.21062,-55.461414,24.196085,CSI
56981809654000,1.060001,6.35807389373768,5.74680760122619,0.352490232853076,0.10995574,0.20433442,0.06261369,32.916016,-55.420795,24.450724,CSI
56981814630000,1.064977,6.37227786852426,5.85624463023512,0.469731107334667,0.10781772,0.22327125,0.04520403,32.622826,-55.378044,24.708405,CSI
56981819594000,1.069941,6.3770341701951,5.96088316766383,0.593395035206603,0.09743301,0.2489276,0.025350908,32.328327,-55.332108,24.95984,CSI
56981824601000,1.074948,6.40475869860697,6.01210943333333,0.685680296835821,0.07666359,0.25778514,0.00030543262,32.039825,-55.27373,25.208153,CSI
56981829678000,1.080025,6.43994380116689,6.04729458181818,0.769244975118046,0.03268129,0.26175576,-0.045814894,31.75575,-55.21464,25.443203,CSI
56981834614000,1.084961,6.51994132641009,6.07100582675293,0.845925834997788,0.0033597588,0.26053402,-0.10048734,31.468979,-55.154335,25.65731,CSI
56981839592000,1.089939,6.63593500258792,6.08682317125636,0.919739901976333,-0.03726278,0.2452624,-0.14477506,31.195448,-55.089516,25.863184,CSI
56981844601000,1.094948,6.73991940034001,6.12131074605214,0.952065558641859,-0.070249505,0.2452624,-0.18600847,30.919043,-55.025726,26.049662,CSI
56981849596000,1.099943,6.8393144279184,6.16197253694749,0.970137405425954,-0.08399397,0.22327125,-0.20677789,30.662306,-54.961937,26.234316,CSI
56981854573000,1.10492,6.92728351396392,6.2026087236682,0.973638284541476,-0.1020145,0.21624629,-0.24587326,30.418512,-54.872322,26.428823,CSI
56981859613000,1.10996,7.00972961709192,6.24383180213515,0.968485399733106,-0.12064589,0.20341812,-0.27397305,30.189228,-54.782574,26.622746,CSI
56981864633000,1.11498,7.06586606300509,6.24270803825202,0.992800410745286,-0.13500121,0.19639318,-0.29993483,29.966772,-54.691494,26.818386,CSI
56981869569000,1.119916,7.11302892003392,6.22855925501347,1.02581423830191,-0.14660765,0.17501289,-0.3295618,29.760983,-54.6051,27.00727,CSI
56981874563000,1.12491,7.15665126063965,6.1829154030413,1.0763041507407,-0.15760323,0.17256944,-0.34055737,29.556625,-54.494644,27.214437,CSI
56981879593000,1.12994,7.19918454191112,6.12620411460806,1.13301524178358,-0.18295415,0.15271631,-0.3539964,29.372065,-54.38809,27.415213,CSI
56981884563000,1.13491,7.25898084533293,6.06235742573929,1.16282972404949,-0.20280726,0.1518,-0.36865717,29.189991,-54.26732,27.622967,CSI
56981889573000,1.13992,7.32654443947898,5.99479393237779,1.1821336440857,-0.2321288,0.1572978,-0.37751472,29.016605,-54.14427,27.827213,CSI
56981894598000,1.144945,7.36580568829287,5.95553264072044,1.17052843177369,-0.24404067,0.17165314,-0.3817908,28.841234,-54.015255,28.03153,CSI
56981899597000,1.149944,7.39392291023884,5.92741532090838,1.14709728299726,-0.28069258,0.17898351,-0.3894266,28.671473,-53.882294,28.22973,CSI
56981904607000,1.154954,7.42250959232307,5.91192060255898,1.10036398117753,-0.29779682,0.18325958,-0.39584067,28.489487,-53.71906,28.449387,CSI
56981909592000,1.159939,7.45114234802079,5.90237635065974,1.04309841995202,-0.310625,0.19058995,-0.39736784,28.308805,-53.55489,28.663313,CSI
56981914622000,1.164969,7.49606892240135,5.93180080931659,0.962991428375037,-0.30970868,0.20891592,-0.40103304,28.12711,-53.392097,28.87724,CSI
56981919600000,1.169947,7.54793376453368,5.97895075531599,0.873406481742657,-0.30573806,0.22693644,-0.40042216,27.946817,-53.23088,29.087336,CSI
56981924604000,1.174951,7.55943560084896,6.02628832161895,0.820913874866733,-0.29138273,0.2302962,-0.39064834,27.759073,-53.05577,29.311832,CSI
56981929616000,1.179963,7.54995911113524,6.07367126495558,0.787745814531096,-0.29138273,0.24312437,-0.39095375,27.568666,-52.88526,29.526798,CSI
56981934599000,1.184946,7.53743930162788,6.11810183187856,0.790861779242984,-0.2678644,0.24770586,-0.38789943,27.393103,-52.722885,29.755014,CSI
56981939601000,1.189948,7.52308691361231,6.16115889601518,0.814782239436732,-0.24617869,0.2489276,-0.38515055,27.218544,-52.563614,29.97806,CSI
56981944602000,1.194949,7.50284523501484,6.19497791798219,0.841542690468843,-0.23915374,0.23640485,-0.38728857,27.058619,-52.417133,30.195093,CSI
56981949615000,1.199962,7.47910215964392,6.2234696084273,0.870034400747774,-0.23976462,0.22785273,-0.39522982,26.900816,-52.276035,30.4072,CSI
56981954608000,1.204955,7.45249220079452,6.25191819920548,0.866552150144006,-0.2302962,0.23518312,-0.4016439,26.74646,-52.14397,30.60861,CSI
56981959595000,1.209942,7.42403296827888,6.28037743172112,0.842836040500546,-0.21533,0.22968534,-0.41599923,26.603628,-52.018604,30.804956,CSI
56981964631000,1.214978,7.38962805850178,6.32048742687277,0.793246572592152,-0.19608775,0.23426682,-0.41325033,26.450962,-51.879868,31.001646,CSI
56981969897000,1.220244,7.34965070709473,6.37045911613159,0.723286155449861,-0.17654006,0.2302962,-0.4147775,26.307993,-51.750145,31.191898,CSI
56981974592000,1.224939,7.23516865909091,6.40133340909091,0.701827581818182,-0.14385876,0.24007004,-0.42363504,26.169123,-51.63637,31.370596,CSI
56981979628000,1.229975,7.0588379958498,6.42516185019763,0.706593270039526,-0.11636983,0.23457226,-0.43463063,26.03922,-51.527245,31.547728,CSI
56981984610000,1.234957,6.92073417150104,6.43033073575052,0.692833824500149,-0.10781772,0.23640485,-0.4728097,25.919035,-51.439133,31.706842,CSI
56981989608000,1.239955,6.81122547087437,6.42080828543718,0.664266324410624,-0.105068825,0.21655174,-0.47983465,25.806768,-51.3501,31.872034,CSI
56981994604000,1.244951,6.74640875560095,6.42880797515439,0.648753379182898,-0.09987647,0.19547687,-0.473726,25.71033,-51.291096,31.999567,CSI
56981999595000,1.249942,6.71916064598575,6.45151477268409,0.644211972256532,-0.10995574,0.17654006,-0.47952923,25.623505,-51.234634,32.122803,CSI
56982004724000,1.255071,6.70818533298351,6.47981572313843,0.628384941045477,-0.11056661,0.15088372,-0.49418998,25.558344,-51.188923,32.23704,CSI
56982009725000,1.260072,6.7177592113943,6.51332442253873,0.599663175852074,-0.11575896,0.12736541,-0.51007247,25.500498,-51.142456,32.35018,CSI
56982014796000,1.265143,6.73412097971642,6.57171106734935,0.561780259511619,-0.12705997,0.08735373,-0.5186246,25.459702,-51.09867,32.460888,CSI
56982019768000,1.270115,6.75756320578968,6.65610337495077,0.514895763304451,-0.13988814,0.06169739,-0.5326745,25.425323,-51.0588,32.56586,CSI
56982024701000,1.275048,6.7983459841454,6.73917803050077,0.500221510619683,-0.14569137,0.03940081,-0.54733527,25.410545,-51.02712,32.670258,CSI
56982029739000,1.280086,6.86364672443929,6.82313607645978,0.528207566526489,-0.1386664,0.018325957,-0.56016344,25.405226,-50.998035,32.77281,CSI
56982034677000,1.285024,6.93891518116719,6.90507919186811,0.532262986208152,-0.1386664,-0.004276057,-0.57940567,25.41743,-50.979595,32.87041,CSI
56982039686000,1.290033,7.0359520298675,6.98756060698898,0.493448185933043,-0.14721853,-0.014660766,-0.5983425,25.433895,-50.96346,32.964207,CSI
56982044667000,1.295014,7.14586927555776,7.05661577025285,0.43570433951413,-0.16432275,-0.03726278,-0.602924,25.459135,-50.94338,33.06144,CSI
56982049730000,1.300077,7.28048975155181,7.10469459057015,0.344354806825979,-0.16584991,-0.058948494,-0.625526,25.491777,-50.933033,33.148247,CSI
56982054652000,1.304999,7.3995595930397,7.11472403191952,0.253142235454051,-0.18051068,-0.07422013,-0.63194007,25.531916,-50.914555,33.24777,CSI
56982059727000,1.310074,7.50046902751495,7.0570614549261,0.154635434277522,-0.18203785,-0.08277224,-0.63804877,25.579004,-50.902912,33.340904,CSI
56982064687000,1.315034,7.59909184426319,7.00070551760838,0.0583608069207574,-0.18661933,-0.07544186,-0.62858033,25.633234,-50.879288,33.45714,CSI
56982069708000,1.320055,7.69892756258836,6.94365649315834,-0.0390978430708389,-0.17348573,-0.064446285,-0.6188065,25.689053,-50.859142,33.569637,CSI
56982074675000,1.325022,7.78555026750703,6.86591488318627,-0.119775556354116,-0.16187929,-0.051618114,-0.6114761,25.740374,-50.836246,33.680374,CSI
56982079701000,1.330048,7.84622407322796,6.73990000718511,-0.166447743841753,-0.14935656,-0.023823744,-0.605062,25.78156,-50.81291,33.78818,CSI
56982084696000,1.335043,7.90571252495276,6.61745641203381,-0.196305012437593,-0.12797627,0.021685716,-0.5910121,25.818033,-50.760506,33.94799,CSI
56982089739000,1.340086,7.96335027846842,6.50218035330681,-0.177092351029339,-0.111177474,0.069027774,-0.5876524,25.8452,-50.71033,34.100018,CSI
56982094686000,1.345033,7.98274917329695,6.40193709053698,-0.179563498354936,-0.09315695,0.09468412,-0.623388,25.862583,-50.651108,34.26319,CSI
56982099694000,1.350041,7.88459393509405,6.34117415437092,-0.249674571037911,-0.08979719,0.14477506,-0.6075055,25.850075,-50.57843,34.43032,CSI
56982104699000,1.355046,7.78855319391181,6.29839593783374,-0.301862152175364,-0.07360926,0.19608775,-0.6056729,25.823524,-50.501377,34.597073,CSI
56982109697000,1.360044,7.70142048408172,6.33228089177791,-0.277658624475121,-0.04428773,0.2519819,-0.6068946,25.777939,-50.423676,34.758564,CSI
56982114774000,1.365121,7.61160459968953,6.37377699123896,-0.249074084349471,-0.016187929,0.30695978,-0.61941737,25.726358,-50.36159,34.903263,CSI
56982119813000,1.37016,7.51796436450956,6.43932520475405,-0.20693595407393,0.016798794,0.3381139,-0.63529986,25.665504,-50.30493,35.04128,CSI
56982124697000,1.375044,7.42210991866235,6.50225639860743,-0.171676258001373,0.05375614,0.37018433,-0.65393126,25.595596,-50.26227,35.156044,CSI
56982129726000,1.380073,7.29458543721683,6.56365700179465,-0.166953130885555,0.0870483,0.39095375,-0.6774496,25.522606,-50.22819,35.26182,CSI
56982134724000,1.385071,7.16425977301017,6.62757995583483,-0.15613462261161,0.11759156,0.40103304,-0.70707655,25.450594,-50.21995,35.335907,CSI
56982139732000,1.390079,7.00639998063036,6.7136853380012,-0.0987310904448434,0.15821409,0.39736784,-0.74036866,25.380362,-50.22291,35.401466,CSI
56982144702000,1.395049,6.84698234472599,6.80000119976429,-0.0418569078408957,0.17440203,0.3820962,-0.75900006,25.325377,-50.251263,35.438763,CSI
56982149745000,1.400092,6.66199532778433,6.89486626045963,0.0150621691897466,0.17562376,0.3381139,-0.78984874,25.286879,-50.29249,35.467213,CSI
56982154796000,1.405143,6.47529472557982,6.98584634827967,0.0692148256554243,0.18478674,0.29657507,-0.82253003,25.260027,-50.367233,35.45643,CSI
56982159736000,1.410083,6.27835626002888,7.03407612518902,0.09332973089712,0.18142697,0.24709499,-0.850019,25.25319,-50.444637,35.444675,CSI
56982164846000,1.415193,6.07464055983349,7.08396563126327,0.118274501298955,0.15699236,0.16982053,-0.8784242,25.277874,-50.559643,35.389988,CSI
56982169759000,1.420106,5.8803614212352,7.18606994742151,0.113739736547813,0.10903945,0.08582657,-0.9114109,25.323862,-50.676556,35.333553,CSI
56982174647000,1.424994,5.68762282656716,7.30653180179105,0.0992843250925373,0.053450707,0.0021380284,-0.9407325,25.396759,-50.792908,35.27905,CSI
56982179722000,1.430069,5.48980118626966,7.44259524775942,-0.0109931045709764,-0.021380283,-0.08246681,-0.97066486,25.507246,-50.9468,35.178783,CSI
56982184657000,1.435004,5.29811819997032,7.57817598828766,-0.146573744534375,-0.07544186,-0.17837265,-0.9755518,25.64743,-51.094208,35.08793,CSI
56982189726000,1.440073,5.02353809079634,7.73474828856187,-0.224731149065853,-0.13164146,-0.29718593,-0.97585726,25.836407,-51.27692,34.959435,CSI
56982194698000,1.445045,4.72825282653805,7.89410830324835,-0.280975921452899,-0.18753563,-0.4111123,-0.97524637,26.052801,-51.450855,34.839947,CSI
56982199696000,1.450043,4.39316068839692,8.06496771379719,-0.34107933391184,-0.24312437,-0.52503866,-0.9896017,26.33494,-51.669483,34.688915,CSI
56982204696000,1.455043,4.04295145732358,8.24007213166634,-0.402602599379324,-0.312763,-0.6197228,-0.99021256,26.642693,-51.872826,34.551514,CSI
56982209711000,1.460058,3.73825720446966,8.40890368140109,-0.500503685752343,-0.3857614,-0.6939429,-1.0024298,26.99951,-52.13766,34.352257,CSI
56982214795000,1.465142,3.45001757968426,8.57704387636902,-0.615799575796744,-0.4538729,-0.7150178,-1.0088439,27.364233,-52.39011,34.15961,CSI
56982219758000,1.470105,3.31058155252228,8.72148001745842,-0.830791324919599,-0.52748215,-0.68661255,-1.0085385,27.754253,-52.705223,33.89543,CSI
56982224721000,1.475068,3.23633684192778,8.85686735578425,-1.09283134046678,-0.59315014,-0.62796944,-1.0076222,28.13594,-53.01101,33.631336,CSI
56982229712000,1.480059,3.24483639151403,9.07952715031971,-1.32332851244175,-0.63713247,-0.5684101,-0.9560041,28.522003,-53.358147,33.322327,CSI
56982234725000,1.485072,3.33849126010621,9.39171040782486,-1.52104434009971,-0.6429357,-0.55771995,-0.8866709,28.89749,-53.69278,33.02097,CSI
56982239727000,1.490074,3.48666705785786,9.71582911011011,-1.37723873973974,-0.6542367,-0.5815437,-0.8185594,29.286795,-54.044247,32.718716,CSI
56982244712000,1.495059,3.66348326136136,10.0455671496496,-1.05227918946446,-0.66339964,-0.6747007,-0.76144356,29.684559,-54.376038,32.439682,CSI
56982249648000,1.499995,3.66209103760463,10.2559221160583,-0.659010565466045,-0.68844515,-0.752586,-0.698219,30.09884,-54.704212,32.18027,CSI
56982254737000,1.505084,3.56116144380016,10.4073164628527,-0.213238271579084,-0.73975784,-0.7874053,-0.6988298,30.524378,-55.026478,31.92451,CSI
56982259722000,1.510069,3.55629151284304,10.5144365932135,0.141168892187644,-0.79901177,-0.75441855,-0.73456544,30.923027,-55.32432,31.665985,CSI
56982264836000,1.515183,3.74168045978775,10.5409207457753,0.33814466598932,-0.86254174,-0.64996064,-0.7779369,31.304775,-55.613674,31.405407,CSI
56982269759000,1.520106,3.92014541594903,10.5664157561511,0.52776369892355,-0.91721416,-0.46028697,-0.8136725,31.606695,-55.90736,31.079575,CSI
56982274704000,1.525051,4.09940789984453,10.5920246991348,0.718230105151413,-0.9440922,-0.22602014,-0.84421575,31.859644,-56.200016,30.738613,CSI
56982279679000,1.530026,4.27975792155942,10.6177890047654,0.909852020416047,-0.9502009,-0.22602014,-0.86070913,31.9283666938469,-56.3438246093046,30.5544394457229,CSI
56982284699000,1.535046,4.46173925000338,10.6437863543666,1.10320719923584,-0.9636399,0.17592919,-0.8744536,31.997711,-56.488934,30.3686,CSI
56982289678000,1.540025,4.61457801261368,10.7092973748517,1.31494217817319,-0.9642508,0.2751948,-0.8518516,32.15425,-56.763298,30.016993,CSI
56982295109000,1.545456,4.73797467054172,10.8429769623369,1.57715978099051,-0.9660834,0.30726522,-0.79809546,32.213417,-57.025192,29.652353,CSI
56982299658000,1.550005,4.75489732634836,10.8541293766578,1.72441794730327,-0.98349303,0.30634892,-0.7125743,32.19509,-57.14354,29.382128,CSI
56982304692000,1.555039,4.64122872605364,10.7120438735632,1.77651601455939,-0.9767735,0.28344148,-0.61086524,32.171047,-57.23988,29.136581,CSI
56982309688000,1.560035,4.45136961426063,10.5210376650647,1.76642345660813,-0.979217,0.23579398,-0.5216789,32.13678,-57.281406,28.925348,CSI
56982314769000,1.565116,4.11407935693161,10.2332163900185,1.64050176617375,-0.9575313,0.20158553,-0.45875978,32.102955,-57.30327,28.73996,CSI
56982319712000,1.570059,3.76235482439253,9.9375533805402,1.52166870945875,-0.906524,0.18234327,-0.42180246,32.076134,-57.305782,28.572758,CSI
56982324698000,1.575045,3.30920573199499,9.57403815455209,1.41709582198352,-0.8713993,0.16920967,-0.41386122,32.05852,-57.298054,28.420034,CSI
56982329685000,1.580032,2.87032306367582,9.2422553440654,1.31992141660275,-0.8200866,0.14355333,-0.4266894,32.067036,-57.328037,28.245674,CSI
56982334703000,1.58505,2.46775117750303,8.99489195024223,1.24231719575091,-0.7703011,0.1282817,-0.46822822,32.08077,-57.36516,28.068972,CSI
56982339685000,1.590032,2.08262989456752,8.78838154700443,1.17159534578116,-0.7293731,0.10781772,-0.4905248,32.108524,-57.44497,27.853724,CSI
56982344727000,1.595074,1.72915694419187,8.67675869919091,1.11578382474475,-0.7171558,0.100792766,-0.5357288,32.144722,-57.540047,27.624737,CSI
56982349682000,1.600029,1.41673741551112,8.5852726890671,1.05620778896559,-0.700357,0.121256754,-0.5665775,32.1952,-57.68224,27.351034,CSI
56982354738000,1.605085,1.22995714532535,8.56069635123338,0.977563430910568,-0.7174612,0.16157386,-0.5934556,32.246914,-57.82683,27.069033,CSI
56982359720000,1.610067,1.07535991729405,8.55773687366969,0.947481017732558,-0.732122,0.20219639,-0.6062838,32.29791,-58.022743,26.729055,CSI
56982364791000,1.615138,1.00836190327158,8.61994906897911,1.06233474534884,-0.75869465,0.2742785,-0.6062838,32.32954,-58.212032,26.383398,CSI
56982369739000,1.620086,0.934843478282484,8.67531450141339,1.17932041438737,-0.81336707,0.40866885,-0.61666846,32.34592,-58.42601,25.999327,CSI
56982374692000,1.625039,0.833123371118043,8.71230388585632,1.31340602775124,-0.9016371,0.30970868,-0.59498274,32.408985,-58.616714,25.643475,CSI
56982379687000,1.630034,0.737214108385294,8.73760846911765,1.41265513535294,-0.872621,0.17470746,-0.55863625,32.441135,-58.814304,25.266575,CSI
56982384734000,1.635081,0.6756117772,8.69969906666667,1.32262091066667,-0.81336707,0.11636983,-0.5369505,32.480984,-58.994514,24.89892,CSI
56982389691000,1.640038,0.614564021789659,8.65228586941648,1.24668384360278,-0.81214535,0.092240654,-0.53969944,32.54654,-59.165108,24.524492,CSI
56982394715000,1.645062,0.548725471626429,8.53001474205845,1.26079209593393,-0.85918194,0.06414085,-0.54305923,32.629536,-59.32573,24.166792,CSI
56982399692000,1.650039,0.481420866933251,8.40696720670563,1.27445175416795,-0.9138544,0.02107485,-0.56291234,32.73404,-59.497757,23.80678,CSI
56982404732000,1.655079,0.387390822516149,8.25849830482928,1.28434969818517,-0.958753,-0.018325957,-0.57696223,32.84606,-59.656315,23.45478,CSI
56982409697000,1.660044,0.303513204528246,8.10715210082385,1.29463576743821,-1.0177015,-0.04428773,-0.59864795,32.96648,-59.799667,23.098282,CSI
56982414806000,1.665153,0.279519519607689,7.91520282189094,1.30903196335818,-1.0751228,-0.09743301,-0.63224554,33.10969,-59.93439,22.746096,CSI
56982419699000,1.670046,0.267168085756006,7.74021460904381,1.3200367900895,-1.162782,-0.14446963,-0.6753115,33.263786,-60.05205,22.385622,CSI
56982424737000,1.675084,0.367163842750824,7.65385431888837,1.30185566138483,-1.2437216,-0.19333886,-0.72692966,33.438866,-60.16223,22.024063,CSI
56982430221000,1.680568,0.481009276614995,7.56408973666764,1.28932360729258,-1.3310753,-0.21930063,-0.7663304,33.621555,-60.23802,21.669764,CSI
56982434672000,1.685019,0.634775049242469,7.54331059227844,1.36828444276104,-1.4138476,-0.21899518,-0.77824235,33.813934,-60.296658,21.315903,CSI
56982439713000,1.69006,0.808923164231257,7.51977707916545,1.45771189088427,-1.455081,-0.22143865,-0.79045963,34.019882,-60.32627,20.987312,CSI
56982444708000,1.695055,0.954536789676905,7.46105627682489,1.68783482680495,-1.5564847,-0.23915374,-0.81061816,34.233017,-60.324375,20.659588,CSI
56982449668000,1.700015,1.09664179869166,7.39947768887116,1.92941333817312,-1.6621643,-0.28588495,-0.8206975,34.455933,-60.306156,20.339315,CSI
56982454725000,1.705072,1.07605772357813,7.1231931283177,2.05822418377569,-1.7385225,-0.33444872,-0.8194757,34.68579,-60.226154,20.063604,CSI
56982459680000,1.710027,1.03817857295949,6.82962989642786,2.17186158619038,-1.7238617,-0.36010507,-0.8359691,34.92637,-60.142597,19.787579,CSI
56982464779000,1.715126,1.1679207009902,6.80384345389216,2.25248007245098,-1.7302758,-0.3921755,-0.8881981,35.180405,-59.973507,19.548494,CSI
56982469658000,1.720005,1.30992882715686,6.80842430872549,2.32577461078431,-1.779145,-0.4007276,-0.94959,35.439163,-59.798233,19.306898,CSI
56982474688000,1.725035,1.51651954986681,7.08145089316616,2.46534654698264,-1.8487836,-0.38026363,-1.0158689,35.699154,-59.574917,19.068243,CSI
56982479680000,1.730027,1.7316902481308,7.39762001788371,2.61464861454946,-1.924531,-0.37110063,-1.0577132,35.97039,-59.341125,18.825949,CSI
56982484740000,1.735087,2.0372350426857,7.82513048939345,2.97449155575738,-1.9645426,-0.36926803,-1.063211,36.248226,-59.061993,18.618015,CSI
56982489658000,1.740005,2.37332724912964,8.28853083399286,3.41752210693048,-2.01555,-0.40500367,-1.0332786,36.53565,-58.761074,18.415518,CSI
56982494742000,1.745089,2.5267338070172,8.64102612032267,3.92347216598309,-2.0873265,-0.46181414,-0.98929626,36.83871,-58.419643,18.256542,CSI
56982499678000,1.750025,2.63699782964331,8.9580349515016,4.42425472001166,-2.1658227,-0.5513059,-0.926988,37.15419,-58.056587,18.121527,CSI
56982504695000,1.755042,2.58739832239736,9.22853496682551,4.81878020034824,-2.2947154,-0.63316184,-0.8933904,37.479378,-57.594646,18.046272,CSI
56982509777000,1.760124,2.48927464538123,9.48722469464809,5.18451388442082,-2.4397957,-0.7012733,-0.86284715,37.81624,-57.10681,17.996115,CSI
56982514709000,1.765056,2.37526805239604,9.81273812673267,5.51710547477228,-2.5854871,-0.74281216,-0.8512407,38.1631,-56.524513,17.963787,CSI
56982519702000,1.770049,2.24744047971287,10.1914868381188,5.8390416569901,-2.7284296,-0.7644979,-0.80878556,38.512993,-55.910145,17.951456,CSI
56982524696000,1.775043,2.08686734576523,10.5867605090639,6.04401819173848,-2.8689287,-0.75716746,-0.7675522,38.86105,-55.25489,17.895836,CSI
56982529716000,1.780063,1.90113704264487,10.9963189122338,6.16307628108965,-3.0161471,-0.6789767,-0.7593055,39.194942,-54.573895,17.835014,CSI
56982534657000,1.785004,1.66722960648276,11.3491564324138,6.11721535931034,-3.1581733,-0.6236934,-0.78038037,39.536484,-53.883835,17.722845,CSI
56982539751000,1.790098,1.38365611186207,11.6711810450246,5.93457463162562,-3.2217033,-0.4437936,-0.86009824,39.83618,-53.194393,17.570707,CSI
56982544717000,1.795064,1.22276533186424,11.7703971375799,6.00542314011313,-3.2925637,-0.21930063,-0.98563105,40.1321,-52.535755,17.328388,CSI
56982569729000,1.820076,0.922315479272012,11.3226675739793,7.46054268393999,-3.0045407,0.82894415,-1.0439687,41.052044,-49.84969,15.13204,CSI
56982574696000,1.825043,0.862650741633055,11.2337553421545,7.74950713197246,-3.032335,0.8784242,-0.95264435,41.11107,-49.262424,14.5629,CSI
56982579722000,1.830069,0.802277282528283,11.1437869755042,8.04190401455977,-3.0622675,0.91874135,-0.84971356,41.144173,-48.672665,14.0156975,CSI
56982584717000,1.835064,0.733275688130461,10.921731002845,8.37931070148344,-3.0723467,0.9621128,-0.7501425,41.16379,-48.0706,13.498345,CSI
56982589739000,1.840086,0.650202123355009,10.4965897709815,8.78979210201179,-3.093727,0.98715824,-0.627664,41.163372,-47.447334,13.0185795,CSI
56982594708000,1.845055,0.631440572446276,10.0881497226965,9.10164283779806,-3.116329,0.9621128,-0.50671273,41.159443,-46.700554,12.628003,CSI
56982599680000,1.850027,0.696853406586204,9.69567299107055,9.28853705387106,-3.1651983,0.872621,-0.38240165,41.149574,-45.939613,12.280348,CSI
56982604650000,1.854997,0.700087450811449,9.29411503599882,9.39020521982886,-3.2381966,0.7715228,-0.2602286,41.13986,-45.071754,11.970559,CSI
56982609710000,1.860057,0.599995853093341,8.86991712511065,9.35207480771122,-3.299894,0.66614854,-0.12980886,41.132984,-44.198395,11.711609,CSI
56982614752000,1.865099,0.495099444946871,8.53130328276269,9.28145799016135,-3.333797,0.5897904,-0.024740042,41.14715,-43.24497,11.522733,CSI
56982619917000,1.870264,0.378300836357733,8.33663857939788,9.15005945513577,-3.35701,0.5519168,0.057726767,41.160378,-42.29016,11.368845,CSI
56982624662000,1.875009,0.276632312582994,8.13452484638229,9.08201832176298,-3.3313537,0.56596667,0.1337795,41.163654,-41.302135,11.238067,CSI
56982629730000,1.880077,0.180232011824459,7.86827658201078,9.1233326117469,-3.3206635,0.5849035,0.19058995,41.166344,-40.320934,11.123805,CSI
56982634675000,1.885022,0.140113358021999,7.6074134884065,9.15354763389468,-3.3078353,0.6423248,0.20677789,41.155247,-39.355564,10.99243,CSI
56982639724000,1.890071,0.314266180971479,7.33677050087122,9.14413402331354,-3.2943962,0.7089091,0.2275473,41.131645,-38.40926,10.863996,CSI
56982644688000,1.895035,0.485487138214738,7.07068379258737,9.13487889102502,-3.2666018,0.76144356,0.24465153,41.103706,-37.448627,10.718653,CSI
56982649731000,1.900078,0.659433005937895,6.80036242476394,9.12547646714689,-3.2494977,0.7816021,0.24862215,41.074593,-36.50787,10.565238,CSI
56982654693000,1.90504,0.846689177952567,6.5315919644251,9.13230030621435,-3.2226195,0.81489426,0.26236662,41.032703,-35.590416,10.402779,CSI
56982659717000,1.910064,1.18853697918943,6.23307702540779,9.29118751125788,-3.1829133,0.82527894,0.27488935,40.99744,-34.699715,10.240217,CSI
56982664833000,1.91518,1.54695333106875,5.93590717511661,9.44715893246806,-3.134655,0.806953,0.3036,41.012207,-33.746304,10.183443,CSI
56982669790000,1.920137,1.96574101768404,5.69522446834314,9.55787263780166,-3.0775392,0.7632761,0.34697145,41.027725,-32.825623,10.12916,CSI
56982674682000,1.925029,2.36194069975357,5.4712809117792,9.66965014874322,-3.0363057,0.72143185,0.41630468,41.104095,-31.855808,10.186908,CSI
56982679739000,1.930086,2.64836703632331,5.33761560374569,9.80331595524889,-2.980106,0.68569624,0.49968776,41.172455,-30.926737,10.250438,CSI
56982684713000,1.93506,2.89210210586319,5.20251480456026,9.92235186970684,-2.9309313,0.63163465,0.5867361,41.3242,-29.948633,10.469095,CSI
56982689733000,1.94008,2.79501134872964,5.03338904234528,9.93018176156352,-2.8866436,0.57940567,0.68783426,41.447838,-29.008047,10.686937,CSI
56982694754000,1.945101,2.69790125080782,4.86422958973941,9.93801321315961,-2.8542678,0.54428095,0.7742717,41.61574,-28.036455,11.006702,CSI
56982699706000,1.950053,2.60212566727687,4.69739477410423,9.94573704273616,-2.809064,0.5207626,0.8775079,41.744705,-27.105686,11.321047,CSI
56982704882000,1.955229,2.50201774717264,4.52301331091205,9.95381025394137,-2.7531698,0.5103779,0.9639453,41.80897,-26.19586,11.612118,CSI
56982709734000,1.960081,2.40817624246906,4.35954753436482,9.96137810957655,-2.7058277,0.5002986,1.0451905,41.843964,-25.317543,11.897317,CSI
56982715228000,1.965575,2.29098102862299,4.17278157412549,9.96610596946141,-2.6838365,0.48747048,1.1068878,41.825905,-24.448713,12.169365,CSI
56982719753000,1.9701,2.04635419376272,3.99632918656302,9.91798251489913,-2.6691756,0.46914452,1.1603385,41.788105,-23.6105,12.434654,CSI
56982724661000,1.975008,1.78102192735517,3.80494171293726,9.86578584860263,-2.6441302,0.47647488,1.2000448,41.751846,-22.728859,12.654159,CSI
56982729728000,1.980075,1.54051449381432,3.5925950444244,9.75269476604775,-2.629164,0.4783075,1.2296717,41.70534,-21.870407,12.865518,CSI
56982734659000,1.985006,1.31504552594164,3.3821573864191,9.62743428647215,-2.6285532,0.4804455,1.2428054,41.6511,-21.037212,13.059342,CSI
56982739706000,1.990053,1.151090034379,3.22827290108172,9.49911340741469,-2.6108382,0.52503866,1.2620476,41.490715,-20.1679,13.169208,CSI
56982744666000,1.995013,0.9969419262071,3.08346699607631,9.37299264037762,-2.5729644,0.5549711,1.2803736,41.332928,-19.323986,13.27232,CSI
56982749739000,2.000086,0.934679192033814,3.02242293605172,9.28066118060666,-2.5350907,0.593761,1.2916746,41.132698,-18.4674,13.315708,CSI
56982754654000,2.005001,0.887866639920438,2.97561043281949,9.1963978926902,-2.4969118,0.6188065,1.320996,40.926933,-17.637375,13.34969,CSI
56982759750000,2.010097,0.857663151307742,2.97271054612882,9.11784865256994,-2.4672847,0.6267477,1.3420709,40.693783,-16.806751,13.343896,CSI
56982764778000,2.015125,0.830809995482852,2.97718611571707,9.04176504442792,-2.4309382,0.6426302,1.35551,40.458477,-16.003794,13.324483,CSI
56982769737000,2.020084,0.845435883300358,2.98930215405178,8.95586024773732,-2.3942864,0.64721173,1.3683381,40.19845,-15.208307,13.292239,CSI
56982774671000,2.025018,0.875272947556304,3.00422067579457,8.86634880572511,-2.3493876,0.6462954,1.3918564,39.937763,-14.439252,13.253414,CSI
56982779739000,2.030086,0.915782609545276,2.99940255127401,8.75253484231674,-2.3057108,0.65484756,1.4187346,39.674435,-13.698858,13.202645,CSI
56982784695000,2.035042,0.957645024558996,2.99009980317523,8.63625073392787,-2.270586,0.66767573,1.4437801,39.41193,-12.981976,13.14757,CSI
56982789716000,2.040063,0.959923917603412,2.92379489949712,8.56738143711483,-2.223244,0.6585127,1.4752395,39.111027,-12.276655,13.095718,CSI
56982794679000,2.045026,0.950550605876843,2.84177848000296,8.51348494056599,-2.1917844,0.6432411,1.4932601,38.813282,-11.589761,13.038476,CSI
56982799707000,2.050054,0.941054532662821,2.7586878982547,8.45888256606518,-2.1453588,0.6206391,1.5045611,38.500805,-10.925349,12.991511,CSI
56982804723000,2.05507,0.931581123108021,2.67579562338411,8.40441050749396,-2.1276436,0.61483586,1.5173893,38.189384,-10.273379,12.941277,CSI
56982809713000,2.06006,0.982461369723301,2.55578665552427,8.25216064548544,-2.1044307,0.6114761,1.5482379,37.87736,-9.646654,12.894485,CSI
56982814828000,2.065175,1.05855516382524,2.41786673906796,8.05717014135922,-2.07572,0.63591075,1.5806139,37.566822,-9.038068,12.838514,CSI
56982819835000,2.070182,1.18482211398309,2.13554791580697,7.92509448950318,-2.0186043,0.6585127,1.5946637,37.229134,-8.412732,12.77632,CSI
56982824735000,2.075082,1.33192661194072,1.79230387001995,7.82256709803363,-1.933083,0.68203104,1.5958854,36.89148,-7.8143067,12.704383,CSI
56982829710000,2.080057,1.48766634302025,1.45346675357427,7.75268843596108,-1.8597792,0.68875057,1.5952746,36.551937,-7.2115617,12.649619,CSI
56982834729000,2.085076,1.64992251046465,1.11941004670373,7.70973841322478,-1.8286251,0.7165449,1.6059648,36.21392,-6.631595,12.5795,CSI
56982839703000,2.09005,1.79114605455643,0.814490954580567,7.74972901581171,-1.7574593,0.75136423,1.6184875,35.898205,-6.0142593,12.551252,CSI
56982844721000,2.095068,1.91682166771273,0.529304003347415,7.86090350738282,-1.6814066,0.77488256,1.6279559,35.586838,-5.4185753,12.514291,CSI
56982849741000,2.100088,2.04855861704378,0.339547467399353,7.98617873523362,-1.6148223,0.7779369,1.6282613,35.303173,-4.766795,12.524905,CSI
56982854721000,2.105068,2.18403539753159,0.227428755204232,8.12165536937996,-1.5668694,0.7993172,1.6264287,35.023033,-4.1438828,12.517994,CSI
56982859743000,2.11009,2.27723272020837,0.177233989723806,8.20029804133084,-1.5079209,0.8558222,1.6157386,34.773155,-3.4796255,12.536722,CSI
56982864823000,2.11517,2.32983273986633,0.186797616497936,8.22420684612738,-1.4391985,0.9257663,1.6120734,34.527386,-2.8463979,12.537799,CSI
56982869786000,2.120133,2.36741011115918,0.228385792163012,8.26369056346475,-1.3854424,0.9972375,1.6087136,34.2847,-2.1943853,12.54308,CSI
56982874699000,2.125046,2.39053999927244,0.302401487259856,8.31920297119261,-1.3115277,1.054048,1.6108516,34.04721,-1.5828332,12.525015,CSI
56982879704000,2.130051,2.44685547041768,0.272317560000839,8.51153504540369,-1.2241739,1.1160508,1.598329,33.794632,-0.997821,12.476522,CSI
56982884727000,2.135074,2.5455217358568,0.106378803942569,8.8792906701473,-1.1542299,1.1746938,1.597718,33.545033,-0.4418098,12.40771,CSI
56982889727000,2.140074,2.61294443925673,-0.08119831332956,9.20484689256728,-1.0818423,1.2125676,1.5885551,33.274845,0.06406099,12.307608,CSI
56982894719000,2.145066,2.6078389944041,-0.321154393596113,9.43459244404101,-1.0253373,1.2061534,1.5586227,33.018616,0.5418069,12.201338,CSI
56982899698000,2.150045,2.5969473912678,-0.523239137406052,9.6129083919106,-0.98532563,1.178359,1.5338826,32.7628,1.0405546,12.093553,CSI
56982904721000,2.155068,2.57791865585443,-0.675467912990506,9.72232306170886,-0.9505063,1.1597277,1.5039502,32.524696,1.5105773,11.983038,CSI
56982909665000,2.160012,2.54981485497857,-0.781050460729592,9.76513801026612,-0.9034697,1.135904,1.4605788,32.29376,2.0067284,11.869215,CSI
56982914780000,2.165127,2.50587316605203,-0.820109881391408,9.706548751819,-0.8552113,1.1279627,1.4266758,32.075943,2.4785936,11.754108,CSI
56982919669000,2.170016,2.42217720966611,-0.827295433809147,9.68167120981922,-0.8017606,1.1139128,1.3820826,31.870481,2.9600286,11.636848,CSI
56982924718000,2.175065,2.26932670243999,-0.786694526010076,9.70555408209029,-0.73884153,1.1050552,1.351234,31.677423,3.411223,11.518712,CSI
56982929667000,2.180014,2.11950353740492,-0.746897755818433,9.72896393252988,-0.6762278,1.0842859,1.3341297,31.477448,3.848363,11.391452,CSI
56982934736000,2.185083,1.96604756174059,-0.706136020497876,9.75294140916724,-0.63071835,1.03786,1.3069462,31.294788,4.2591047,11.274053,CSI
56982939636000,2.189983,1.82354966428709,-0.708733470213585,9.71835647931499,-0.5543602,0.9828822,1.271516,31.110165,4.6371346,11.159362,CSI
56982944719000,2.195066,1.68773204121609,-0.797717414979796,9.56380569790264,-0.48166725,0.94897914,1.2516629,30.93378,4.99294,11.051901,CSI
56982949661000,2.200008,1.5342321826087,-0.895454556521739,9.41992349275362,-0.42394048,0.9492846,1.2021828,30.741947,5.296511,10.87294,CSI
56982954705000,2.205052,1.31459973827792,-1.02814916726343,9.29180388604717,-0.35735616,1.0118983,1.1688906,30.557201,5.5698094,10.688144,CSI
56982959727000,2.210074,1.08524022125661,-1.16388849543942,9.19223984204345,-0.2941316,1.0705414,1.1349876,30.380375,5.844211,10.482754,CSI
56982964766000,2.215113,0.797149672930123,-1.31974075120376,9.24419065971814,-0.22143865,1.0726794,1.1108584,30.215307,6.089642,10.279265,CSI
56982969683000,2.22003,0.500481583706217,-1.48710288595949,9.28351569504041,-0.19486602,1.0601566,1.0714576,30.060097,6.3568935,10.025253,CSI
56982974694000,2.225041,0.0646933805488475,-1.78880238968167,9.22604946103183,-0.19456059,1.0577132,1.0277808,29.918148,6.603957,9.772531,CSI
56982979706000,2.230053,-0.374167044612469,-2.09305238250374,9.19460391551122,-0.2275473,1.0705414,0.9837985,29.775452,6.8782606,9.458934,CSI
56982984746000,2.235093,-0.841190417220948,-2.42045022948628,9.38719073645885,-0.25137106,1.1071932,0.93279123,29.65277,7.1415844,9.14556,CSI
56982989692000,2.240039,-1.28671314296578,-2.71748169972702,9.5716909531052,-0.25411993,1.1148291,0.88514376,29.540455,7.4644446,8.757844,CSI
56982994725000,2.245072,-1.6203589418251,-2.79266952823438,9.71736727883397,-0.23426682,1.0873401,0.8371908,29.447937,7.778325,8.377048,CSI
56982999832000,2.250179,-1.94651309704616,-2.85076142560328,9.8686493996195,-0.20616703,1.0690142,0.77182823,29.37877,8.139332,7.902973,CSI
56983004737000,2.255084,-2.10643338512066,-2.6814339693101,10.0567907994393,-0.18906279,1.0574077,0.71959925,29.323769,8.488097,7.443261,CSI
56983009851000,2.260198,-2.25860664993801,-2.50616215405405,10.2448248246963,-0.2012801,1.0326678,0.66798115,29.277355,8.841482,6.929267,CSI
56983014984000,2.265331,-2.23910445726754,-2.3452689627027,10.337460392611,-0.22235495,1.0103711,0.6337727,29.24476,9.182748,6.4277534,CSI
56983020079000,2.270426,-2.21974664085296,-2.18556687621622,10.4294101721795,-0.22540927,0.96852684,0.6041457,29.21469,9.474228,5.912994,CSI
56983024718000,2.275065,-2.20212133950905,-2.04015804810811,10.5131304915943,-0.25534168,0.94989544,0.56596667,29.200031,9.770165,5.4089737,CSI
56983030078000,2.280425,-2.17825197684499,-1.87125545972565,10.5942419196159,-0.2648101,0.8588765,0.5458081,29.182503,10.0561695,4.945604,CSI
56983034736000,2.285083,-2.12521910269776,-1.71623641037952,10.5208120745313,-0.2874121,0.8185594,0.5317582,29.17843,10.345998,4.4831443,CSI
56983039704000,2.290051,-2.06865677578418,-1.55090050716964,10.4424953140375,-0.28924468,0.77518797,0.52015173,29.166225,10.555258,4.060752,CSI
56983044701000,2.295048,-2.0167205761633,-1.39967849050982,10.402229224243,-0.28038713,0.7519751,0.52198434,29.154875,10.76192,3.651699,CSI
56983049679000,2.300026,-1.96598956964303,-1.25209733247557,10.369945663829,-0.2764165,0.7180721,0.5183192,29.147127,10.964414,3.2660468,CSI
56983054730000,2.305077,-1.98548361565067,-1.14069375477735,10.3223358151751,-0.26206118,0.68600166,0.5213735,29.126125,11.1252,2.90224,CSI
56983059664000,2.310011,-2.02634131664505,-1.04365660825767,10.271263155642,-0.25900686,0.65209866,0.51159966,29.109205,11.28339,2.5557024,CSI
56983064838000,2.315185,-2.03927686434783,-0.989325754782609,10.2078760695652,-0.24373524,0.6084218,0.49296826,29.08584,11.401865,2.2360358,CSI
56983069661000,2.320008,-2.04851002904548,-0.943159907191404,10.1478606918541,-0.23976462,0.56505036,0.4636467,29.06748,11.519129,1.932525,CSI
56983074698000,2.325045,-1.95862364416344,-0.856362920222156,9.83480378310027,-0.23701571,0.51893,0.4392121,29.047878,11.613392,1.64074,CSI
56983079679000,2.330026,-1.85927391145492,-0.76647503741446,9.49890713597144,-0.24098633,0.5006041,0.43066,29.032085,11.705679,1.3590575,CSI
56983084732000,2.335079,-1.92760634362968,-0.83167759699139,9.25324657879462,-0.19914207,0.4981606,0.4364632,29.013086,11.775414,1.0874445,CSI
56983089657000,2.340004,-2.01429973170165,-0.913808201494631,9.02510620924833,-0.14477506,0.5002986,0.4089743,29.005867,11.840178,0.82657737,CSI
56983094703000,2.34505,-1.64199583408551,-0.626949099113223,8.9124471324228,-0.1282817,0.42241332,0.4352415,28.975979,11.895202,0.60670686,CSI
56983099686000,2.350033,-1.17441851466746,-0.263277824374505,8.82743283224466,-0.12797627,0.37904188,0.50854534,28.94351,11.937933,0.37906075,CSI
56983104733000,2.35508,-0.867150775931692,-0.00778458468608738,8.68946457960824,-0.1255328,0.35002577,0.57635134,28.901173,12.0014105,0.15177186,CSI
56983109670000,2.360017,-0.605931452697137,0.21543917988448,8.54223237870417,-0.0870483,0.310625,0.6392705,28.837566,12.052905,-0.061357304,CSI
56983114823000,2.36517,-0.502893677350387,0.374959116370087,8.4049047643544,-0.034208454,0.2764165,0.6954701,28.747377,12.027553,-0.17997853,CSI
56983119685000,2.370032,-0.442033430071889,0.509721096377556,8.27883638623845,-0.009468411,0.26236662,0.7254025,28.64693,11.999128,-0.2932019,CSI
56983124714000,2.375061,-0.460971712918026,0.568652206602773,8.13707272609095,0.023823744,0.23487769,0.7309003,28.529282,11.912661,-0.3448434,CSI
56983129719000,2.380066,-0.519615993964111,0.588200303686786,7.99046240619902,0.04428773,0.20189096,0.73639804,28.403343,11.823734,-0.39094323,CSI
56983134728000,2.385075,-0.60306244147989,0.583220782462389,7.88198833190052,0.094989546,0.15668693,0.72234815,28.27419,11.690311,-0.41371566,CSI
56983139706000,2.390053,-0.695764661866748,0.568583577435268,7.78928621340702,0.1142318,0.106901415,0.7119634,28.141554,11.561597,-0.42485684,CSI
56983144707000,2.395054,-0.772491835047121,0.476905674354763,7.74984311885789,0.15577064,0.048563786,0.6939429,28.009304,11.413996,-0.43281657,CSI
56983149742000,2.400089,-0.84448096554073,0.3599233290809,7.72734653026033,0.16707164,-0.008552114,0.6759224,27.878506,11.271373,-0.42519957,CSI
56983154730000,2.405077,-0.899514459143846,0.272440104869374,7.75004531847655,0.19394971,-0.0580322,0.65393126,27.74871,11.120107,-0.42217886,CSI
56983159770000,2.410117,-0.94509248369531,0.201540990232924,7.80068750922254,0.20158553,-0.12736541,0.63224554,27.62096,10.973092,-0.3955789,CSI
56983164765000,2.415112,-0.961103496389247,0.171690933684158,7.77360091481004,0.19486602,-0.1704314,0.61361414,27.50249,10.852568,-0.37542847,CSI
56983169729000,2.420076,-0.965819222527527,0.157543745421089,7.71701229963297,0.1863139,-0.17562376,0.6084218,27.385885,10.732195,-0.34556553,CSI
56983174693000,2.42504,-0.898905628263225,0.159738608995173,7.66069462250025,0.19333886,-0.1731803,0.6081163,27.270103,10.626191,-0.3147693,CSI
56983179719000,2.430066,-0.799329829031623,0.169222013966112,7.60379392530785,0.2321288,-0.18661933,0.6197228,27.152523,10.515111,-0.27822673,CSI
56983184747000,2.435094,-0.724682097288439,0.130920121284863,7.68051325754867,0.28221974,-0.21594086,0.6273586,27.032278,10.40627,-0.24150144,CSI
56983189704000,2.440051,-0.66338501102503,0.0696230409296782,7.8219680568534,0.30818152,-0.25534168,0.63194007,26.90965,10.294919,-0.1984174,CSI
56983194724000,2.445071,-0.629317867016575,-0.0384130475662983,7.99541645856354,0.32650748,-0.29016098,0.6252206,26.788767,10.173562,-0.12687492,CSI
56983199715000,2.450062,-0.610455294447514,-0.170451283040055,8.18404238121547,0.32895094,-0.32284227,0.6218608,26.665003,10.051429,-0.04547519,CSI
56983204720000,2.455067,-0.609272309734074,-0.297401749478071,8.37387676642191,0.3277292,-0.33353242,0.6020077,26.551624,9.940291,0.056834016,CSI
56983209715000,2.460062,-0.618765481201627,-0.420813127246478,8.56374079053384,0.32498032,-0.3182608,0.5888741,26.438072,9.830992,0.1599579,CSI
56983214767000,2.465114,-0.634383148173328,-0.534662406320546,8.75421422825869,0.3191771,-0.2874121,0.56077427,26.342262,9.752995,0.27129933,CSI
56983219741000,2.470088,-0.653517548753766,-0.639901507115887,8.94077419311107,0.3145956,-0.26725355,0.5170974,26.255579,9.676949,0.38133729,CSI
56983224723000,2.47507,-0.672110246817052,-0.708229696568534,9.08529361336265,0.2968805,-0.21777347,0.5006041,26.174366,9.635568,0.47344568,CSI
56983229702000,2.480049,-0.690341134677882,-0.753806963811891,9.2037944796406,0.29901853,-0.1600467,0.46975538,26.111332,9.590512,0.5587657,CSI
56983234721000,2.485068,-0.685172394708995,-0.749119151322751,9.33044461904762,0.2846632,-0.13622294,0.4465425,26.0501,9.577084,0.63400114,CSI
56983239726000,2.490073,-0.658603937954145,-0.698397530511464,9.46328707936508,0.27885997,-0.11789699,0.40653083,26.005135,9.560562,0.69558674,CSI
56983244694000,2.495041,-0.632231891369111,-0.648050874729151,9.59514748752834,0.2837469,-0.10293079,0.37018433,25.965057,9.553334,0.74624217,CSI
56983249727000,2.500074,-0.605514799891157,-0.597045496598639,9.72873312244898,0.28252518,-0.08155051,0.3839288,25.923483,9.549319,0.7884264,CSI
56983254715000,2.505062,-0.492225731762054,-0.465261615295962,9.89423999803998,0.27550024,-0.04886922,0.40530908,25.887823,9.547213,0.82220876,CSI
56983259724000,2.510071,-0.308882051890435,-0.26781459129361,10.086985375539,0.26847526,-0.013133603,0.4288274,25.848995,9.545291,0.8475786,CSI
56983264770000,2.515117,-0.177944804233512,-0.110144656437909,10.2423830793226,0.267559,0.008552114,0.46700647,25.797585,9.511025,0.87542105,CSI
56983269956000,2.520303,-0.0943331571687463,0.0128136522984749,10.3653418143197,0.25870144,0.026267206,0.5183192,25.737745,9.481701,0.8921346,CSI
56983274685000,2.525032,-0.03267600006712,0.102149505852689,10.4588085927758,0.23365596,0.053450707,0.5714644,25.658432,9.408273,0.9344448,CSI
56983279710000,2.530057,0.0183247454950102,0.174400560586417,10.5395596282787,0.21777347,0.071776666,0.63041294,25.564062,9.336902,0.97085583,CSI
56983284706000,2.535053,0.0610955840683609,0.239536011692376,10.6112177200089,0.20891592,0.09712757,0.6844745,25.455355,9.24171,1.0112281,CSI
56983289725000,2.540072,0.0770980230851182,0.282209186116968,10.6538911952059,0.19181168,0.12064589,0.7443393,25.330118,9.15615,1.0433592,CSI
56983294693000,2.54504,0.084185268959018,0.328523720194021,10.6420320582063,0.18967366,0.14477506,0.79076505,25.193727,9.050514,1.077545,CSI
56983299697000,2.550044,0.0794414224707979,0.380706028592358,10.5566425777074,0.21471913,0.17195857,0.840856,25.0419,8.944993,1.1010101,CSI
56983304651000,2.554998,0.0990526267794059,0.432371003160396,10.4608805279208,0.2171626,0.2012801,0.88606006,24.875786,8.842796,1.1164746,CSI
56983309693000,2.56004,0.156422437709307,0.484959991687129,10.3461405825743,0.23793201,0.2415972,0.9211848,24.70163,8.731171,1.1195661,CSI
56983314703000,2.56505,0.19698969433307,0.513511834873717,10.2722774068666,0.24007004,0.26816985,0.9599747,24.512136,8.617572,1.1136159,CSI
56983319731000,2.570078,0.211241524617206,0.504010626258879,10.2627764909234,0.23335053,0.2742785,0.9987647,24.315325,8.503567,1.1014655,CSI
56983324651000,2.574998,0.200904746902174,0.46895124451087,10.2809624076087,0.2312125,0.2666427,1.0103711,24.115797,8.383106,1.0979304,CSI
56983329717000,2.580064,0.144403079567158,0.384198741050078,10.3515899404115,0.19700404,0.23487769,1.0247264,23.905739,8.276733,1.0987812,CSI
56983334657000,2.585004,0.0736990299370566,0.282958337116595,10.4031647248476,0.16310102,0.18936823,1.03786,23.691854,8.176731,1.1082177,CSI
56983339719000,2.590066,-0.0376996439284644,0.132812296229394,10.41285125557,0.1301143,0.13836098,1.0296134,23.480581,8.088554,1.12922,CSI
56983344684000,2.595031,-0.182309760023671,0.00260034953151199,10.427817624026,0.11056661,0.087964594,1.0225884,23.26807,8.0259905,1.1520029,CSI
56983349716000,2.600063,-0.415205926698886,-0.0877063225821087,10.4563355993688,0.09743301,0.07086037,0.9624182,23.074486,7.972066,1.1823997,CSI
56983354674000,2.605021,-0.629580725754754,-0.181447727962164,10.4586234356009,0.07941248,0.06566802,0.9053023,22.882816,7.963244,1.202057,CSI
56983359743000,2.61009,-0.805640188104293,-0.290890106118408,10.3872480201921,0.07544186,0.047647487,0.88178396,22.699594,7.95413,1.2311661,CSI
56983364731000,2.615078,-0.956910130507239,-0.382146321348751,10.3312122414731,0.073303826,0.027183503,0.84604836,22.532831,7.967501,1.2142185,CSI
56983369728000,2.620075,-1.03596370477116,-0.419348003069673,10.3219116353124,0.07727446,-0.004276057,0.8176431,22.371473,7.9795365,1.2068237,CSI
56983375102000,2.625449,-1.09667199059561,-0.434962288485502,10.3107253199451,0.08124508,-0.039095376,0.79473567,22.22121,8.015851,1.1723412,CSI
56983379711000,2.630058,-1.07937595956113,-0.378750146987657,10.2977530257641,0.0870483,-0.06078109,0.7693848,22.08074,8.049091,1.1452197,CSI
56983384703000,2.63505,-1.05881502397379,-0.321701620637982,10.284286985905,0.10995574,-0.073303826,0.7443393,21.947563,8.082877,1.1104527,CSI
56983389708000,2.640055,-1.02562772789318,-0.290884855430267,10.2748049614243,0.12858713,-0.08002335,0.7535023,21.812809,8.114998,1.0806679,CSI
56983394719000,2.645066,-0.992400646842235,-0.260031147047478,10.2653115698813,0.15515977,-0.11362094,0.77182823,21.680155,8.123647,1.0662564,CSI
56983399760000,2.650107,-0.958974640939664,-0.228992722789317,10.2557613430267,0.17837265,-0.17531833,0.7852673,21.54633,8.1274,1.0622658,CSI
56983404709000,2.655056,-0.93353508988366,-0.202523659737579,10.241892806508,0.18936823,-0.2489276,0.7837401,21.4112,8.126727,1.0716162,CSI
56983409738000,2.660085,-0.98830269029916,-0.219375226389083,10.1786994975507,0.2049453,-0.31642818,0.77640975,21.256964,8.126127,1.0902158,CSI
56983414975000,2.665322,-1.04533548476645,-0.236923775713786,10.1128925062981,0.1872302,-0.38881573,0.74220127,21.107803,8.118537,1.1450113,CSI
56983419734000,2.670081,-1.14347524649221,-0.302047285651156,10.0135047578658,0.17715092,-0.43310347,0.71868294,20.957647,8.104547,1.210296,CSI
56983424622000,2.674969,-1.25310386394461,-0.378310686852663,9.90387638926789,0.15790866,-0.49754974,0.65026605,20.827574,8.097965,1.3040026,CSI
56983429724000,2.680071,-1.38460747776569,-0.467897308923381,9.71692675402867,0.121256754,-0.54458636,0.56291234,20.702879,8.108214,1.3907151,CSI
56983434630000,2.684977,-1.5146665320613,-0.556151626661394,9.52183819683638,0.099265605,-0.5729916,0.4636467,20.60026,8.118933,1.4922388,CSI
56983439718000,2.690065,-1.61241948132875,-0.667441990103093,9.26566498224513,0.10445796,-0.57940567,0.35246924,20.524803,8.151134,1.5811177,CSI
56983444662000,2.695009,-1.69829255166094,-0.780432947628866,9.00352585280642,0.118202426,-0.5681047,0.24709499,20.475883,8.185317,1.6751062,CSI
56983449715000,2.700062,-1.80895250318197,-0.895454656259303,8.79234130827311,0.15851954,-0.5479461,0.160963,20.448374,8.234701,1.7418089,CSI
56983454655000,2.705002,-1.92632031722576,-1.00771949452918,8.60863522478697,0.19730948,-0.53969944,0.06688975,20.452776,8.278235,1.8118769,CSI
56983459712000,2.710059,-2.0230404785728,-1.11945669779989,8.47423823034245,0.24648413,-0.56199604,-0.021991149,20.481655,8.338564,1.8707701,CSI
56983464737000,2.715084,-2.11510757298642,-1.22993719186914,8.34994759039602,0.29840767,-0.61941737,-0.105374254,20.533722,8.384872,1.9395655,CSI
56983469791000,2.720138,-2.1614429880971,-1.269313160278,8.3001177903289,0.355829,-0.7131852,-0.18478674,20.596731,8.447176,2.0020115,CSI
56983474669000,2.725016,-2.19345252341425,-1.287604371065,8.27268095027408,0.4251622,-0.8381071,-0.2452624,20.672953,8.489277,2.0905776,CSI
56983479684000,2.730031,-2.1563269448124,-1.24984027837864,8.3276723575804,0.50823987,-0.95569867,-0.31337386,20.766668,8.543936,2.1874187,CSI
56983484707000,2.735054,-2.09186860501531,-1.18998614691807,8.4151517871363,0.5742133,-1.1038336,-0.37507126,20.866957,8.58169,2.3278713,CSI
56983489698000,2.740045,-2.00129066482003,-1.10107093287754,8.48345294771767,0.6533204,-1.2238685,-0.4364632,20.980473,8.595054,2.4866033,CSI
56983494670000,2.745017,-1.89596699818017,-0.995747216247738,8.54090239312286,0.68233645,-1.3100005,-0.49541172,21.103107,8.602468,2.676252,CSI
56983499642000,2.749989,-1.75737860684232,-0.851066518748748,8.59517303265879,0.67347896,-1.368949,-0.5543602,21.225042,8.585145,2.8984678,CSI
56983504647000,2.754994,-1.59891811069926,-0.683002273973152,8.64799278020437,0.6301075,-1.3536774,-0.6230826,21.362915,8.56834,3.1219218,CSI
56983509690000,2.760037,-1.4746579364903,-0.566972736107136,8.48291833185841,0.5326745,-1.1643091,-0.70371675,21.519735,8.541996,3.329141,CSI
56983514673000,2.76502,-1.37132631647524,-0.481611849137639,8.19987952212389,0.3109304,-1.0137309,-0.75900006,21.684448,8.562934,3.5393438,CSI
56983519642000,2.769989,-1.29840515337032,-0.309099098914381,8.17706517835462,0.1685988,-0.6609562,-0.87598073,21.902994,8.545176,3.6704166,CSI
56983524640000,2.774987,-1.25331575443793,-0.0535926277257693,8.3975024025539,-0.12950343,-0.43768495,-0.96761054,22.127506,8.634057,3.7927437,CSI
56983529648000,2.779995,-1.22680463301634,0.501000279623972,8.77183353224368,-0.3680463,-0.4718934,-1.0418307,22.379879,8.728989,3.9144,CSI
56983534687000,2.785034,-1.2124636240416,1.25629395206102,9.24986766389302,-0.46211955,-0.6918049,-1.1478158,22.665125,8.863479,4.0290685,CSI
56983539703000,2.79005,-0.825850850058812,2.30447194381004,9.40632928317977,-0.38545597,-0.88514376,-1.271516,22.975622,8.947542,4.151928,CSI
56983544730000,2.795077,-0.184075263516957,3.55735006484023,9.34498283415017,-0.27305678,-0.9819659,-1.3967434,23.30707,9.042807,4.311637,CSI
56983554699000,2.805046,1.08862432316212,6.04192177531366,9.22332722436777,-0.050396383,-1.0167851,-1.4306464,24.02854,8.800408,4.718189,CSI
56983559740000,2.810087,2.23752816276947,7.05744632666537,9.22049478073412,0.10415252,-0.9282097,-1.3093897,24.4059,8.373817,5.014059,CSI
56983564783000,2.81513,3.85551854340649,7.85002688988153,9.27208293717227,0.24862215,-0.71959925,-1.1200215,24.76618,7.923973,5.26163,CSI
56983569735000,2.820082,4.79202931389762,8.09413149305626,9.71897419706032,0.3539964,-0.48930305,-0.9798279,25.138052,7.1992826,5.6615853,CSI
56983574697000,2.825044,4.98471069001521,7.72803649113026,10.6197610400405,0.38087448,-0.3371976,-0.8897252,25.480715,6.4706645,6.005781,CSI
56983579702000,2.830049,4.94715157714513,7.21924228319729,11.1912393024089,0.34422258,-0.3191771,-0.7959574,25.806963,5.5770183,6.6503186,CSI
56983584749000,2.835096,4.65847483257018,6.55528546924149,11.4029359836751,0.2678644,-0.40042216,-0.6737844,26.109531,4.7121935,7.2539783,CSI
56983589729000,2.840076,4.16968093967129,5.62368766885149,11.2651732634583,0.14385876,-0.49388456,-0.5332854,26.371721,3.9587321,7.845419,CSI
56983594722000,2.845069,3.45908480602303,4.39073273002657,10.7522264180691,-0.009773844,-0.5888741,-0.41905355,26.609947,3.2626812,8.434428,CSI
56983599677000,2.850024,2.76337463863719,3.18148618820225,10.2306548311888,-0.1441642,-0.6221663,-0.33964106,26.793732,2.7452786,8.94092,CSI
56983604722000,2.855069,2.06728166654585,1.96879573033708,9.68341175897064,-0.22602014,-0.5833763,-0.3118467,26.96164,2.2744489,9.434747,CSI
56983609723000,2.86007,1.3781320291653,0.785975002483317,9.22285360923313,-0.23945917,-0.5320636,-0.32284227,27.072025,2.0713468,9.793939,CSI
56983614768000,2.865115,0.685728103883601,-0.34512751928673,9.02200344459031,-0.23304509,-0.4147775,-0.35460728,27.180954,1.8895805,10.114331,CSI
56983619676000,2.870023,0.109760026685226,-1.26134961013124,8.95033886209982,-0.2275473,-0.27305678,-0.3735441,27.213326,1.9973092,10.285817,CSI
56983624726000,2.875073,-0.337421058222311,-1.92971700971366,9.06093225541857,-0.22602014,-0.1423316,-0.41996986,27.262833,2.098181,10.423601,CSI
56983629668000,2.880015,-0.608821393509497,-2.2558907414034,9.15959225617557,-0.23945917,-0.034208454,-0.46273044,27.231203,2.4802856,10.439415,CSI
56983634744000,2.885091,-0.623173864687531,-2.06930845123511,9.24570691339435,-0.29657507,0.044593163,-0.5006041,27.217289,2.8598132,10.423917,CSI
56983639657000,2.890004,-0.551907916951856,-1.85387594257541,9.25327263399072,-0.36651915,0.06078109,-0.47861293,27.13275,3.4449868,10.328158,CSI
56983644727000,2.895074,-0.321903470345128,-1.56754386948956,9.12184180452436,-0.4083634,0.09101892,-0.46700647,27.07711,4.011721,10.203915,CSI
56983649678000,2.900025,-0.0469533674653262,-1.29739748984455,9.00003495401657,-0.43157628,0.124005646,-0.45906523,27.085154,4.4769807,10.06037,CSI
56983654730000,2.905077,0.358369406083962,-1.0451966462813,8.89194858261193,-0.41905355,0.13958271,-0.43799037,27.093298,4.9308805,9.912729,CSI
56983659699000,2.910046,0.750835992588529,-0.795247536422943,8.80798220658354,-0.37934732,0.14019357,-0.3921755,27.129826,5.2960787,9.811712,CSI
56983664834000,2.915181,1.11874304306234,-0.525449063475312,8.85703643900249,-0.32406402,0.116675265,-0.32803464,27.15808,5.6457877,9.711875,CSI
56983669671000,2.920018,1.44736884065956,-0.271349859102321,8.90642789170071,-0.27214047,0.061086524,-0.25473082,27.182627,5.9256806,9.710939,CSI
56983674694000,2.925041,1.67262554339942,-0.00775152189897381,8.97831829680183,-0.23793201,-0.004886922,-0.17959438,27.188534,6.190888,9.716018,CSI
56983679698000,2.930045,1.8867811623483,0.250779098539714,9.05109100434139,-0.21410827,-0.08552113,-0.10445796,27.184992,6.376316,9.804113,CSI
56983684734000,2.935081,2.03429899358658,0.483952382979773,9.13198799654662,-0.20952678,-0.15118915,-0.043982297,27.162647,6.555471,9.902009,CSI
56983689665000,2.940012,2.17212083441445,0.707794665867159,9.2165528380268,-0.18967366,-0.21624629,0.013439035,27.132864,6.6582665,10.058822,CSI
56983694700000,2.945047,2.25172135839969,0.895090163099631,9.35234235832201,-0.19394971,-0.27275133,0.064751714,27.085361,6.766247,10.2264385,CSI
56983699684000,2.950031,2.32921562057397,1.08019339462409,9.48760418755053,-0.19120082,-0.32528573,0.11026118,27.03054,6.811004,10.42967,CSI
56983704727000,2.955074,2.37801902885004,1.26076596957357,9.64377513480194,-0.17745635,-0.35033122,0.14721853,26.962423,6.8545213,10.63553,CSI
56983709916000,2.960263,2.42448524779521,1.44299349928973,9.79888671806254,-0.16737708,-0.36041048,0.17592919,26.89926,6.8517537,10.860614,CSI
56983714746000,2.965093,2.43817448839893,1.5844490331755,9.89927419660649,-0.15974127,-0.36346483,0.1863139,26.83042,6.846456,11.085626,CSI
56983719911000,2.970258,2.45128726541208,1.74258694506852,9.99518413896931,-0.16554448,-0.3359759,0.22113322,26.75685,6.8057084,11.30353,CSI
56983724731000,2.975078,2.44683250995947,1.96532490376375,9.95954628141286,-0.14355333,-0.28130344,0.24220806,26.685652,6.755547,11.510155,CSI
56983730096000,2.980443,2.43612202014301,2.20045683053681,9.92046761526841,-0.12461651,-0.17806722,0.27183503,26.611359,6.679686,11.68832,CSI
56983734724000,2.985071,2.31559839403767,2.1558184677611,9.89814843388055,-0.09040806,-0.0290161,0.27977628,26.541395,6.594793,11.834115,CSI
56983740059000,2.990406,2.17016849993606,2.09493446076909,9.87069720378151,-0.048563786,0.092240654,0.2742785,26.483013,6.457913,11.958058,CSI
56983744693000,2.99504,1.93505907295396,1.88414667675374,9.81800005672269,-0.016798794,0.20280726,0.26419923,26.428804,6.3168645,12.040417,CSI
56983749668000,3.000015,1.68264875805627,1.65784775023749,9.7614251092437,-0.0030543262,0.26542094,0.23915374,26.38306,6.1799703,12.076572,CSI
56983754723000,3.00507,1.35693434403748,1.35687390316665,9.6689981343822,0.022602014,0.31306845,0.22082779,26.341427,6.0330887,12.085463,CSI
56983759685000,3.010032,1.01883152546848,1.04258115134783,9.56899635624812,0.036957346,0.34025195,0.18600847,26.313118,5.8855577,12.083788,CSI
56983764722000,3.015069,0.734715189,0.774676613545455,9.53310205454546,0.06291912,0.3622431,0.15851954,26.284908,5.778061,12.019199,CSI
56983769641000,3.019988,0.472234863053763,0.526011032232649,9.51468201036168,0.08307768,0.3622431,0.12644911,26.268194,5.667589,11.9558525,CSI
56983774686000,3.025033,0.258178766051426,0.406616741921323,9.57421124345245,0.0888809,0.3399465,0.09132435,26.252203,5.6176186,11.832204,CSI
56983779643000,3.02999,0.0669005598250451,0.336145825525395,9.65978322330612,0.0693332,0.28802297,0.07666359,26.238894,5.569485,11.720029,CSI
56983784701000,3.035048,-0.0204187299041193,0.367558549884334,9.66838020403815,0.061086524,0.2312125,0.06352998,26.232513,5.5673027,11.56871,CSI
56983789624000,3.039971,-0.0873883583125,0.41539399625,9.6635965625,0.03726278,0.18997909,0.06383542,26.22595,5.5751195,11.430706,CSI
56983794688000,3.045035,-0.0996307478563656,0.456143612760247,9.65527288719623,0.0106901415,0.13133603,0.053145275,26.224554,5.596405,11.277668,CSI
56983799717000,3.050064,-0.103997977423286,0.495448631436344,9.64653871626768,-0.014049901,0.06627888,0.05497787,26.21865,5.624426,11.14086,CSI
56983804689000,3.055036,-0.0770099537664865,0.496945154682162,9.63676112605405,-0.03756821,-0.008246681,0.05955936,26.21415,5.6483116,11.011464,CSI
56983809650000,3.059997,-0.0359197552735135,0.481536347677838,9.62648836994595,-0.05100725,-0.035124753,0.0571159,26.211102,5.6757245,10.889622,CSI
56983814705000,3.065052,0.0553830431685146,0.470829541195685,9.60466399890121,-0.0571159,-0.09010262,0.05497787,26.208363,5.697032,10.798978,CSI
56983819642000,3.069989,0.154563403250425,0.461383789328738,9.58104964389172,-0.06688975,-0.1386664,0.052839845,26.20606,5.722654,10.716036,CSI
56983824680000,3.075027,0.258905384141274,0.471485302756233,9.54534432548476,-0.06872234,-0.17684549,0.04734206,26.203577,5.7505274,10.655713,CSI
56983829657000,3.080004,0.362645276897507,0.485631652216066,9.5076209501385,-0.06566802,-0.1994475,0.036957346,26.20244,5.778864,10.6060095,CSI
56983834697000,3.085044,0.4787272383704,0.492243346418028,9.48871417102933,-0.050396383,-0.20677789,0.028710667,26.201849,5.8060803,10.585624,CSI
56983839663000,3.09001,0.595727884327888,0.496923368933281,9.47467381027357,-0.032375857,-0.19425514,0.016493361,26.205503,5.830328,10.56666,CSI
56983844681000,3.095028,0.720250847741527,0.494373270451889,9.47870332128944,-0.008246681,-0.17745635,0.0009162979,26.211992,5.845875,10.5719795,CSI
56983849689000,3.100036,0.846364746775419,0.489702388644332,9.48804503613167,0.017715093,-0.15118915,-0.017715093,26.223568,5.854697,10.571281,CSI
56983854694000,3.105041,0.972403098345832,0.485034304888975,9.49738115489872,0.043982297,-0.10354166,-0.038179077,26.24037,5.8563232,10.58561,CSI
56983859737000,3.110084,1.09939838445364,0.480330779139073,9.50678815728477,0.05009095,-0.069027774,-0.0580322,26.26258,5.8553433,10.596259,CSI
56983864707000,3.115054,1.22174358763348,0.465703764319129,9.55246305349334,0.07269296,-0.011911872,-0.06780604,26.289179,5.842035,10.586719,CSI
56983869712000,3.120059,1.34360849157938,0.446205362381776,9.61583308247737,0.087659165,0.03573562,-0.07788532,26.32203,5.82837,10.570601,CSI
56983874701000,3.125048,1.44941615514178,0.379771066645558,9.65345606361059,0.07574729,0.070554934,-0.0852157,26.355011,5.8218303,10.596258,CSI
56983879721000,3.130068,1.54938428330813,0.293434976229679,9.68072016758034,0.09437868,0.09712757,-0.090713486,26.390976,5.802364,10.610356,CSI
56983884720000,3.135067,1.62566444178759,0.228644995594111,9.71267894363828,0.105068825,0.11942416,-0.096516706,26.42411,5.7941165,10.63679,CSI
56983889731000,3.140078,1.68621887277603,0.178182987334385,9.7480020148265,0.111177474,0.13530666,-0.095294975,26.456795,5.782185,10.656743,CSI
56983894707000,3.145054,1.74942825018389,0.124442876222222,9.74917542992644,0.13439035,0.15577064,-0.08155051,26.48242,5.7871885,10.691329,CSI
56983899717000,3.150064,1.81444153444638,0.0687172028888889,9.73524421622145,0.1441642,0.16707164,-0.06963864,26.507864,5.7937584,10.7229185,CSI
56983904708000,3.155055,1.88720204302231,0.0115426725196755,9.68158082535497,0.16126843,0.17837265,-0.04886922,26.5243,5.805246,10.759209,CSI
56983909749000,3.160096,1.96554148368154,-0.0472119115535497,9.60324133356998,0.19120082,0.1908954,-0.03756821,26.539988,5.8098245,10.790691,CSI
56983914742000,3.165089,2.02841954969656,-0.0548897450621327,9.51606752287833,0.19730948,0.204029,-0.014966198,26.541094,5.8338094,10.831809,CSI
56983919739000,3.170086,2.08373832771409,-0.0364501700394952,9.42386971996917,0.22235495,0.21563543,0.0076358155,26.539053,5.8436823,10.86813,CSI
56983924704000,3.175051,2.09407641578751,-0.0107808244891892,9.35962847092265,0.24617869,0.23304509,0.036651913,26.524788,5.871497,10.917958,CSI
56983929701000,3.180048,2.07177656980429,0.0204388513783784,9.31502849953402,0.27305678,0.23793201,0.06536258,26.504063,5.8912497,10.96583,CSI
56983934731000,3.185078,2.04096201585233,0.058615049009772,9.29175847014115,0.301462,0.23579398,0.09132435,26.47517,5.902972,11.024136,CSI
56983939722000,3.190069,1.9994438323127,0.105323039632248,9.2969483514658,0.3213151,0.22143865,0.108123146,26.440573,5.9096584,11.082519,CSI
56983944697000,3.195044,1.93371259121622,0.181299309662162,9.34235612162162,0.34880406,0.20525073,0.129198,26.397089,5.8994303,11.134886,CSI
56983949713000,3.20006,1.8502501761583,0.278672143368726,9.41654547297297,0.37995818,0.20311269,0.13347405,26.353916,5.882246,11.186266,CSI
56983954699000,3.205046,1.78252684415202,0.378091684007723,9.50728810293669,0.38637227,0.18753563,0.14172074,26.30556,5.853271,11.234804,CSI
56983959783000,3.21013,1.72810417657758,0.481989487954476,9.61613302479423,0.41355577,0.18753563,0.14172074,26.259062,5.809973,11.27894,CSI
56983964748000,3.215095,1.6736563716119,0.573247229088081,9.71469000233327,0.4175264,0.18845193,0.14202617,26.21602,5.7442813,11.303132,CSI
56983969748000,3.220095,1.61779320808866,0.657041950068054,9.80779519385572,0.42149702,0.16462818,0.13744467,26.173843,5.6722054,11.334406,CSI
56983974691000,3.225038,1.55735935239797,0.738438274054215,9.86610204408698,0.43463063,0.15271631,0.13164146,26.136719,5.5726004,11.345556,CSI
56983979719000,3.230066,1.49042154995532,0.819719880607685,9.89000838427167,0.45020768,0.1518,0.12370021,26.10125,5.4729314,11.360653,CSI
56983984739000,3.235086,1.44873533130888,0.90586150298657,9.92554897614752,0.46914452,0.15607607,0.124311075,26.069242,5.3494754,11.361464,CSI
56983989808000,3.240155,1.43413983214071,0.998300087733012,9.97420080938064,0.49296826,0.15607607,0.116980694,26.04162,5.2220883,11.36453,CSI
56983994712000,3.245059,1.4248158272156,1.07579911399131,10.008828363922,0.49449542,0.13836098,0.11789699,26.011984,5.079556,11.354314,CSI
56983999682000,3.250029,1.42041727846779,1.1417773911376,10.030821107661,0.50640726,0.13164146,0.11178834,25.986645,4.929854,11.342052,CSI
56984004684000,3.255031,1.42826266920827,1.19374992026321,10.061634550658,0.51068336,0.13255776,0.1133155,25.96389,4.765714,11.329634,CSI
56984009732000,3.260079,1.46360895080426,1.21394782559014,10.1121293139754,0.5128214,0.13408493,0.11575896,25.94219,4.602149,11.319678,CSI
56984014721000,3.265068,1.51320674676266,1.2335117604568,10.1725598819265,0.5198463,0.13225232,0.11178834,25.923868,4.423695,11.308944,CSI
56984019728000,3.270075,1.58463336689176,1.25255884589871,10.248748323138,0.5222898,0.12767084,0.11362094,25.902811,4.2501855,11.298973,CSI
56984024651000,3.274998,1.65891419301705,1.27099564172621,10.3619241005049,0.5152648,0.12980886,0.13683382,25.87454,4.0785275,11.291802,CSI
56984029728000,3.280075,1.74228910586834,1.28952342700772,10.5425699223588,0.49235737,0.113926366,0.15821409,25.845476,3.9145067,11.291603,CSI
56984034654000,3.285001,1.75979865664386,1.32141160042897,10.6631442281687,0.46273044,0.07544186,0.18845193,25.807325,3.755674,11.309346,CSI
56984039721000,3.290068,1.61111405975896,1.39079767318966,10.6433197394546,0.42485678,0.01740966,0.2302962,25.75881,3.6110773,11.336781,CSI
56984044676000,3.295023,1.43043274190995,1.48093539667491,10.5873730691737,0.40622538,-0.014966198,0.27580565,25.700012,3.4709153,11.378045,CSI
56984049833000,3.30018,1.16651095492331,1.62267119101435,10.4505245083622,0.3827071,-0.04795292,0.31612277,25.629705,3.3479924,11.434769,CSI
56984054735000,3.305082,0.913455765428347,1.74667174699079,10.3193650509704,0.39064834,-0.04550946,0.355829,25.554398,3.2092907,11.4617195,CSI
56984059775000,3.310122,0.648511842981768,1.85075688637522,10.1821616477161,0.40011674,-0.038179077,0.38820487,25.469486,3.0815754,11.495929,CSI
56984064727000,3.315074,0.373087944589666,1.94720646899696,10.0955110957447,0.4129449,-0.03481932,0.4129449,25.382263,2.9255042,11.483009,CSI
56984069797000,3.320144,0.0502527666261398,2.03022126591945,10.137018349734,0.45020768,-0.05131268,0.4465425,25.283455,2.7653375,11.474025,CSI
56984074691000,3.325038,-0.256776116216056,2.10034285462834,10.1962556063429,0.4822781,-0.06566802,0.49021935,25.178637,2.5861938,11.4151,CSI
56984079726000,3.330073,-0.548289751766105,2.11945848911794,10.3587393977205,0.50671273,-0.062308256,0.52748215,25.066525,2.4033842,11.357276,CSI
56984084693000,3.33504,-0.824507690077244,2.12666926346173,10.5168549022258,0.4978552,-0.07727446,0.550695,24.951939,2.2086487,11.244164,CSI
56984089719000,3.340066,-1.03486651932615,2.06307235690619,10.6636162476878,0.45753807,-0.093462385,0.5665775,24.829243,2.02064,11.132987,CSI
56984094654000,3.345001,-1.23117306700693,1.9912269048151,10.7582231929892,0.37018433,-0.07880162,0.5720753,24.703499,1.8499783,10.957118,CSI
56984099694000,3.350041,-1.37991601847072,1.87037319911402,10.60483226849,0.27152961,-0.020158553,0.57604593,24.574339,1.6972145,10.777136,CSI
56984104697000,3.355044,-1.51907257246928,1.75208488066121,10.4423311658865,0.17654006,0.018936822,0.5635232,24.446638,1.583147,10.557642,CSI
56984109730000,3.360077,-1.580180525512,1.64867145564658,10.1837972352253,0.13469578,0.090713486,0.5497787,24.319569,1.483212,10.317246,CSI
56984114927000,3.365274,-1.64080345063549,1.54374522663955,9.91084070055923,0.069027774,0.12492194,0.52931476,24.194048,1.4381316,10.0542,CSI
56984119774000,3.370121,-1.67384175586172,1.46350941292323,9.59933704595831,0.029932396,0.13103059,0.5174029,24.071417,1.3970473,9.78441,CSI
56984124666000,3.375013,-1.70820226529124,1.38192873926466,9.28323522170047,0.00580322,0.089186326,0.5018258,23.953527,1.3853518,9.517367,CSI
56984129660000,3.380007,-1.75598584920572,1.29113997473274,8.93919357718054,-0.019242255,0.040011674,0.49938235,23.836666,1.3842361,9.255801,CSI
56984134707000,3.385054,-1.79716174938354,1.20631348368741,8.60747106278452,-0.03604105,0.0106901415,0.5122105,23.718657,1.3976299,9.004482,CSI
56984139684000,3.390031,-1.75647755931335,1.20179302336874,8.46281614377845,-0.064446285,-0.03604105,0.52412236,23.602741,1.4202269,8.776085,CSI
56984145081000,3.395428,-1.70899637846821,1.19847099132948,8.31084119725434,-0.08032878,-0.12064589,0.5525276,23.474337,1.4577076,8.565752,CSI
56984149710000,3.400057,-1.60375132361685,1.22592619810074,8.27423396820809,-0.08307768,-0.26358834,0.6102544,23.335032,1.4999018,8.387939,CSI
56984154949000,3.405296,-1.48577239734944,1.25421964170505,8.21655569861823,-0.12034045,-0.35918877,0.64660084,23.194736,1.5548227,8.234595,CSI
56984159692000,3.410039,-1.39103469230903,1.2502722390458,7.99155399435126,-0.14508049,-0.410196,0.6762278,23.040798,1.6077347,8.110376,CSI
56984164703000,3.41505,-1.29094389746241,1.246101791075,7.75383872130008,-0.14752395,-0.47861293,0.70005155,22.875082,1.6596624,8.039933,CSI
56984169706000,3.420053,-1.13546152261982,1.19956949156952,7.56149896334197,-0.124005646,-0.5671884,0.7079928,22.706766,1.7102705,7.990235,CSI
56984174650000,3.424997,-0.961689608889249,1.13823822162133,7.38772696955959,-0.11178834,-0.6554584,0.70738196,22.535404,1.7638826,7.9601226,CSI
56984179685000,3.430032,-0.754072359071987,1.14236019229264,7.41375228356807,-0.10873401,-0.73975784,0.6908886,22.363964,1.8099824,7.980807,CSI
56984184695000,3.435042,-0.542893656706964,1.15643878721635,7.47006656525822,-0.09132435,-0.8170323,0.6536258,22.199812,1.8466493,8.023938,CSI
56984189694000,3.440041,-0.332178620155516,1.1704864710534,7.5262572028169,-0.1151481,-0.88361657,0.60903263,22.038876,1.9060847,8.123371,CSI
56984194681000,3.445028,-0.121969400855243,1.18450043370501,7.58231295586854,-0.15974127,-0.91751957,0.5626069,21.890379,1.9639628,8.233813,CSI
56984199773000,3.45012,0.142575073969605,1.29346566884498,7.73322765121581,-0.2312125,-0.93554014,0.5332854,21.74586,2.035254,8.354143,CSI
56984204697000,3.455044,0.411322393621581,1.42336016212006,7.90343430763678,-0.30940324,-0.93859446,0.5161811,21.61227,2.1184604,8.477615,CSI
56984209701000,3.460048,0.737888409186338,1.61970401275741,8.08648882086389,-0.34697145,-0.958753,0.4868596,21.491257,2.2069535,8.699326,CSI
56984214766000,3.465113,1.09358672176796,1.84871527845304,8.27651902232044,-0.41416663,-0.9819659,0.45998153,21.37504,2.323173,8.919026,CSI
56984219712000,3.470059,1.43607220381618,2.05672465846746,8.52030571950602,-0.46700647,-0.96883225,0.44501534,21.257599,2.4153724,9.181066,CSI
56984224697000,3.475044,1.77918048420893,2.25969005116915,8.79092678135439,-0.50335294,-1.03786,0.43493605,21.14564,2.518777,9.46868,CSI
56984229682000,3.480029,2.08587593456717,2.39842137442503,8.74350381304906,-0.5467244,-1.0690142,0.39706242,21.046225,2.5869296,9.803,CSI
56984234713000,3.48506,2.38073494374692,2.51256036814727,8.56753998213405,-0.5888741,-1.0250319,0.36102137,20.949604,2.6629899,10.129456,CSI
56984239692000,3.490039,2.81732168882012,2.5506688677768,8.5396888069555,-0.59589905,-0.9642508,0.32528573,20.865395,2.694173,10.5152025,CSI
56984244670000,3.495017,3.31845615167502,2.55535236423028,8.57715658296493,-0.6151413,-0.89919364,0.2666427,20.799139,2.7368793,10.880197,CSI
56984249700000,3.500047,3.66201022799559,2.52559677879274,8.57783185711421,-0.6374379,-0.84757555,0.23243423,20.734846,2.7568898,11.29166,CSI
56984254695000,3.505042,3.91622813103379,2.47763115561015,8.55864570801163,-0.6603453,-0.79809546,0.17256944,20.695932,2.7775002,11.678392,CSI
56984259713000,3.51006,4.11002305921002,2.38486936251445,8.4879382155106,-0.6789767,-0.74281216,0.129198,20.653675,2.8027673,12.144815,CSI
56984264728000,3.515075,4.27196629899807,2.26919577855491,8.39077234894027,-0.68539083,-0.68203104,0.0888809,20.627926,2.8272004,12.586332,CSI
56984269694000,3.520041,4.3940741679017,2.14744501701114,8.32441353424136,-0.6621779,-0.6047566,0.046731193,20.609154,2.8572059,13.051539,CSI
56984274693000,3.52504,4.48983208649395,2.01976763350795,8.27881402657396,-0.6392705,-0.5290093,0.0061086523,20.601097,2.8855832,13.489787,CSI
56984279679000,3.530026,4.55146150545932,1.88374835798425,8.26485111401575,-0.57848936,-0.45234573,-0.03726278,20.588732,2.9290507,13.934855,CSI
56984284702000,3.535049,4.57671308887139,1.73728906872441,8.28505227527559,-0.5183192,-0.3643811,-0.08735373,20.589737,2.9611876,14.345657,CSI
56984289689000,3.540036,4.55960008397352,1.59287049409287,8.26859286340387,-0.4615087,-0.29229903,-0.13072516,20.581919,3.0097399,14.750424,CSI
56984294673000,3.54502,4.51173049095377,1.44926161506368,8.225510329656,-0.4025602,-0.22449298,-0.16462818,20.585236,3.0360105,15.122677,CSI
56984299710000,3.550057,4.42900623091736,1.32340275457712,8.19916883994581,-0.32834008,-0.19883664,-0.19761491,20.583933,3.0747418,15.481355,CSI
56984304699000,3.555046,4.3226671007935,1.21244003708148,8.18529870543836,-0.2947425,-0.16371189,-0.22204952,20.58929,3.1042478,15.810228,CSI
56984309721000,3.560068,4.150540644589,1.12676707871082,8.18598362684802,-0.23884831,-0.14477506,-0.22937989,20.580585,3.1440964,16.120758,CSI
56984314920000,3.565267,3.91008120674157,1.06297172078652,8.20070541573034,-0.16462818,-0.12950343,-0.23640485,20.577658,3.165154,16.41564,CSI
56984319695000,3.570042,3.6738126727831,1.0256049582302,8.26380919372848,-0.09987647,-0.106901415,-0.24251351,20.562134,3.2028704,16.674248,CSI
56984324691000,3.575038,3.41114412595143,1.007796940067,8.37956186963804,-0.042455133,-0.06872234,-0.24373524,20.546402,3.2195828,16.918316,CSI
56984329671000,3.580018,3.1312465033109,1.02156389601623,8.50747295642422,0.025350908,-0.022602014,-0.22937989,20.52782,3.2291477,17.101309,CSI
56984334701000,3.585048,2.81226515577272,1.09873681740895,8.66181869176546,0.09162979,0.023823744,-0.22724187,20.513103,3.2208598,17.26974,CSI
56984339693000,3.59004,2.50595016392176,1.21806771540342,8.7697674201467,0.13805555,0.09590584,-0.21930063,20.504019,3.2002628,17.352003,CSI
56984344673000,3.59502,2.21209904196577,1.385982600489,8.82573872381418,0.17867808,0.14721853,-0.22571471,20.498669,3.162249,17.425552,CSI
56984349705000,3.600052,1.8907779530748,1.57965176676558,8.83162854640336,0.21013765,0.21410827,-0.23976462,20.514875,3.0927832,17.407597,CSI
56984354697000,3.605044,1.53856944391691,1.80467394362018,8.76803558456973,0.21868975,0.2706133,-0.24678956,20.531101,3.0203207,17.378422,CSI
56984359724000,3.610071,1.2436258465412,1.93642938575788,8.70942403051882,0.21655174,0.31490102,-0.25992316,20.581692,2.9026098,17.276608,CSI
56984364697000,3.615044,1.01868359959308,1.96065391597152,8.65751432291818,0.21197024,0.33108896,-0.26053402,20.629957,2.786612,17.168516,CSI
56984369718000,3.620065,0.791570182756867,1.98511226429298,8.60510357651504,0.19242255,0.31581733,-0.25870144,20.70769,2.6283674,16.997551,CSI
56984374682000,3.625029,0.614200627411549,1.90958920896195,8.58187337399866,0.17623462,0.28344148,-0.24251351,20.779562,2.4748669,16.82937,CSI
56984379719000,3.630066,0.453191367263017,1.79285749052069,8.56979785580774,0.15974127,0.24465153,-0.22235495,20.847778,2.3303833,16.669968,CSI
56984384700000,3.635047,0.334754594351497,1.64918051373753,8.60838131082118,0.15577064,0.21563543,-0.19486602,20.918232,2.183593,16.46232,CSI
56984389677000,3.640024,0.303400291020721,1.44537757482732,8.75470107290867,0.13927728,0.16737708,-0.15607607,20.97709,2.0499387,16.273819,CSI
56984394694000,3.645041,0.340785089692308,1.2616942709073,8.91119991084813,0.10262536,0.15241088,-0.122478485,21.0271,1.9553281,16.049799,CSI
56984399804000,3.650151,0.451787261230769,1.09760405739645,9.08011615147929,0.04520403,0.13561209,-0.087964594,21.06378,1.8760768,15.842851,CSI
56984404706000,3.655053,0.591726704771624,0.975278153621322,9.23144310333895,0.015577064,0.11178834,-0.070554934,21.08219,1.8444374,15.631099,CSI
56984409763000,3.66011,0.774064628443476,0.888907569800852,9.37539449390667,-0.034513887,0.0852157,-0.018020526,21.079702,1.8403808,15.4279,CSI
56984414719000,3.665066,0.958924753322403,0.809450297077828,9.48561750728132,-0.08674286,0.06688975,0.026572637,21.062227,1.8871131,15.248163,CSI
56984419684000,3.670031,1.15152303604012,0.736079529549619,9.55898784386151,-0.12003502,0.04153884,0.071776666,21.029581,1.9456606,15.08095,CSI
56984424642000,3.674989,1.33465928904967,0.681065644309738,9.63770200586625,-0.14996742,0.004886922,0.11575896,20.973063,2.0441527,14.955324,CSI
56984429679000,3.680026,1.50444627624169,0.657484082743449,9.72731214665624,-0.15302174,-0.040927973,0.16646078,20.902548,2.1458757,14.841738,CSI
56984434646000,3.684993,1.68844134295162,0.639005967379046,9.80465718378002,-0.15241088,-0.09285152,0.21227567,20.81451,2.2782497,14.783389,CSI
56984439692000,3.690039,1.91130966538462,0.630595863461539,9.85932276923077,-0.16218472,-0.1328632,0.26236662,20.712141,2.4146729,14.735346,CSI
56984445052000,3.695399,2.12865450043668,0.617285827495633,9.90991237052402,-0.18845193,-0.16371189,0.30482176,20.59466,2.5635927,14.731767,CSI
56984449717000,3.700064,2.15304083886463,0.568513135361354,9.89040340163755,-0.1957823,-0.19456059,0.32834008,20.47014,2.7078204,14.739184,CSI
56984454692000,3.705039,2.17302480824261,0.522172436459953,9.86640480890358,-0.20586158,-0.20861048,0.34269542,20.329906,2.8652744,14.79909,CSI
56984459743000,3.71009,2.16832297923795,0.498663266888608,9.82878988229005,-0.24220806,-0.22693644,0.3463606,20.188255,3.027873,14.867173,CSI
56984464705000,3.715052,2.17104608292441,0.495559567785835,9.78904782238999,-0.2764165,-0.22907446,0.33078352,20.048231,3.2034068,14.942137,CSI
56984469702000,3.720049,2.21858285614384,0.614401575290553,9.73200399235125,-0.31490102,-0.23151793,0.31306845,19.910439,3.3844984,15.020243,CSI
56984474681000,3.725028,2.26186418845622,0.729266541541807,9.6804141692034,-0.33505958,-0.2125811,0.31306845,19.777185,3.5709023,15.09431,CSI
56984479689000,3.730036,2.27608452275153,0.819329051413323,9.66619348843645,-0.3494149,-0.17989981,0.30818152,19.653582,3.7585928,15.163197,CSI
56984484677000,3.735024,2.28928505527157,0.90793026115016,9.65984632907348,-0.3576616,-0.122783914,0.30085114,19.542572,3.9157872,15.230543,CSI
56984489660000,3.740007,2.29364116612506,0.986340320193519,9.72518799187586,-0.36285394,-0.07391469,0.29840767,19.434296,4.071364,15.288883,CSI
56984494684000,3.745031,2.29803311895025,1.06539553525148,9.79106728425377,-0.36713,-0.03970624,0.28863382,19.338465,4.2018385,15.336692,CSI
56984499741000,3.750088,2.27407579000111,1.00927214544298,9.94809121911293,-0.36346483,0.009773844,0.29229903,19.242733,4.3287773,15.364784,CSI
56984504677000,3.755024,2.25101703792115,0.943429468347989,10.1014330165003,-0.36163223,0.049480084,0.2938262,19.153008,4.4529977,15.385226,CSI
56984509750000,3.760097,2.25581726580377,0.895427164460034,10.1782367628693,-0.35094208,0.07147124,0.26939157,19.077656,4.5488095,15.393549,CSI
56984514729000,3.765076,2.2609326056799,0.85495597740418,10.2445628225958,-0.35155296,0.099265605,0.2321288,19.006824,4.6567473,15.377239,CSI
56984519657000,3.770004,2.27028079765772,0.885337705046053,10.2141810949539,-0.33658674,0.1414153,0.19058995,18.947113,4.75248,15.351481,CSI
56984524937000,3.775284,2.28029671763395,0.917889556090918,10.1816292439091,-0.33475417,0.17867808,0.14630222,18.899364,4.8565617,15.317916,CSI
56984529668000,3.780015,2.2892712095672,0.947056754441914,10.1524620455581,-0.3454443,0.20769419,0.08979719,18.869814,4.9532766,15.276641,CSI
56984534909000,3.785256,2.29769106026596,0.979804078317457,10.1141463946053,-0.35216382,0.23548855,0.02321288,18.868305,5.03751,15.23076,CSI
56984539682000,3.790029,2.28906900466849,1.01429252578516,10.0149921925398,-0.36285394,0.2910773,-0.023823744,18.879925,5.1209655,15.17039,CSI
56984544665000,3.795012,2.2800676003018,1.05029837823258,9.91147545487126,-0.3811799,0.35888332,-0.07422013,18.913998,5.1861153,15.105602,CSI
56984549671000,3.800018,2.23897983793738,0.990759588878658,9.83972895252711,-0.41722095,0.41447207,-0.11728613,18.961048,5.254845,15.030508,CSI
56984554577000,3.804924,2.19571668802947,0.923461280396972,9.7724308197258,-0.4361578,0.45081854,-0.16493362,19.025545,5.318597,14.944351,CSI
56984559606000,3.809953,2.10761070235329,0.860888462523086,9.75934512749479,-0.44318274,0.47036624,-0.21135938,19.104153,5.3774185,14.852953,CSI
56984564601000,3.814948,2.01736274256777,0.799139886651772,9.74984515430444,-0.44593164,0.4746423,-0.26328292,19.198505,5.4353094,14.75857,CSI
56984569608000,3.819955,1.92182633987399,0.727897677236724,9.70007271557156,-0.4428773,0.4605924,-0.29810223,19.299023,5.5035152,14.660847,CSI
56984574566000,3.824913,1.82685324418442,0.656667857948795,9.64783793689369,-0.4373795,0.44073927,-0.31612277,19.409004,5.5680737,14.566111,CSI
56984579637000,3.829984,1.68758862162162,0.576420258108108,9.62624402702703,-0.4260785,0.4025602,-0.30787608,19.518957,5.6412916,14.465457,CSI
56984584595000,3.834942,1.5481003020564,0.497376886731297,9.60764521543283,-0.42271876,0.34972036,-0.30787608,19.63461,5.7120395,14.376955,CSI
56984589604000,3.839951,1.40070030645869,0.44172436361208,9.59704767567029,-0.41325033,0.32436943,-0.28863382,19.741753,5.793629,14.277237,CSI
56984594589000,3.844936,1.25319195536729,0.389382663557261,9.58753130917971,-0.4007276,0.25870144,-0.2883284,19.850697,5.8705883,14.205901,CSI
56984599610000,3.849957,1.15875628637693,0.424346317278173,9.56672970460138,-0.39614612,0.19547687,-0.27366763,19.943817,5.9665575,14.113272,CSI
56984604668000,3.855015,1.07104025169244,0.471578032597855,9.54423843172215,-0.36651915,0.12736541,-0.267559,20.036457,6.0497932,14.042296,CSI
56984609764000,3.860111,0.982665219515253,0.519164592753866,9.52157818526257,-0.33475417,0.0571159,-0.2510656,20.123503,6.141187,13.963782,CSI
56984614739000,3.865086,0.896388574091099,0.565621252246831,9.49945598625621,-0.3136793,0.006414085,-0.23243423,20.205896,6.226204,13.899901,CSI
56984619693000,3.87004,0.827976141501032,0.655143260888454,9.49987126012816,-0.3005457,-0.04642576,-0.22571471,20.283903,6.3033566,13.857181,CSI
56984624695000,3.875042,0.770744123492994,0.77481015923102,9.51547976018247,-0.27855456,-0.09132435,-0.22052236,20.354832,6.371883,13.826521,CSI
56984629678000,3.880025,0.742575294458537,0.919889193381463,9.48086681170732,-0.25686884,-0.13347405,-0.21044308,20.429869,6.414531,13.776595,CSI
56984634701000,3.885048,0.723802897814634,1.07476158330537,9.42924262292683,-0.24923302,-0.14202617,-0.20341812,20.503176,6.454358,13.730318,CSI
56984639691000,3.890038,0.738311781223881,1.24079394776119,9.5376504919403,-0.24404067,-0.15363261,-0.19914207,20.577774,6.4663086,13.686531,CSI
56984644674000,3.895021,0.766802096119403,1.41173563880597,9.71334065970149,-0.25411993,-0.19272798,-0.19547687,20.648518,6.4805818,13.653216,CSI
56984649751000,3.900098,0.755706545558086,1.50861687732,9.72164182390809,-0.26328292,-0.19333886,-0.19914207,20.725224,6.4637117,13.611914,CSI
56984654697000,3.905044,0.727559411617312,1.56960227704269,9.65596539031396,-0.2959642,-0.19272798,-0.20372356,20.799078,6.4564896,13.581398,CSI
56984659769000,3.910116,0.69637301008547,1.59913025282051,9.59674645811966,-0.29016098,-0.17195857,-0.21533,20.883286,6.4058657,13.545421,CSI
56984664709000,3.915056,0.664923271813865,1.61260871207977,9.5428324334283,-0.3032946,-0.14966199,-0.23243423,20.96966,6.3693714,13.509281,CSI
56984669692000,3.920039,0.665809657962697,1.60875579469154,9.50232826802367,-0.30634892,-0.12492194,-0.24373524,21.06175,6.318518,13.466073,CSI
56984674695000,3.925042,0.691587669296987,1.59157045380201,9.47225419063845,-0.30757064,-0.10873401,-0.26511553,21.161283,6.2695627,13.420076,CSI
56984679668000,3.930015,0.732224398228305,1.56840274210694,9.43549422809251,-0.30787608,-0.108123146,-0.27855456,21.262003,6.2193146,13.367872,CSI
56984684704000,3.935051,0.803856395979206,1.53258671651814,9.38432855357522,-0.31337386,-0.101098195,-0.2959642,21.369783,6.1698356,13.310483,CSI
56984689690000,3.940037,0.889378741202202,1.48876600717586,9.36077913314656,-0.32650748,-0.09896017,-0.3109304,21.478058,6.126354,13.261807,CSI
56984694670000,3.945017,0.992517928757495,1.43485237933746,9.37015536729578,-0.32253686,-0.09773844,-0.31031954,21.585903,6.080184,13.211786,CSI
56984699704000,3.950051,1.09677549304532,1.380354145896,9.37963327145385,-0.31490102,-0.11026118,-0.3118467,21.697214,6.0451403,13.183527,CSI
56984704691000,3.955038,1.20005965536223,1.3263647358498,9.38902268504866,-0.32650748,-0.124311075,-0.2959642,21.80209,6.0160336,13.154883,CSI
56984709657000,3.960004,1.29427520103827,1.29464174494215,9.40016616078315,-0.3417791,-0.13041973,-0.25381452,21.898806,5.9887,13.12744,CSI
56984714724000,3.965071,1.37584713702166,1.29944008822308,9.41456099021062,-0.32803464,-0.13927728,-0.20097467,21.986137,5.9586754,13.103958,CSI
56984719652000,3.969999,1.44604347204851,1.21809112539132,9.44108559238203,-0.33628133,-0.15332718,-0.18417588,22.061693,5.962768,13.124008,CSI
56984724700000,3.975047,1.50101075853705,0.975318948980481,9.49147232347925,-0.32986724,-0.1826487,-0.18417588,22.125225,5.9611897,13.149241,CSI
56984729675000,3.980022,1.55398563386796,0.748820279042839,9.53983065656043,-0.3417791,-0.20708331,-0.19028452,22.187263,5.9699693,13.195733,CSI
56984734706000,3.985053,1.60384162568295,0.559367171761175,9.58470099192881,-0.35094208,-0.24556783,-0.18845193,22.244936,5.976485,13.25321,CSI
56984739681000,3.990028,1.64475395857482,0.376843930665083,9.59802598432304,-0.3567453,-0.2779437,-0.18997909,22.29309,6.0405517,13.326872,CSI
56984745213000,3.99556,1.66992211450831,0.185566213629454,9.53762285159145,-0.35735616,-0.29138273,-0.1853976,22.33766,6.104643,13.404092,CSI
56984749731000,4.000078,1.68654745877712,0.0577725141262327,9.48886893195266,-0.36560285,-0.30115658,-0.1863139,22.371595,6.213018,13.497073,CSI
56984754705000,4.005052,1.69124519084813,0.0154928940930967,9.43719378106509,-0.36926803,-0.30695978,-0.18509217,22.402727,6.317915,13.590228,CSI
56984759711000,4.010058,1.69158833385827,-0.0349327222559055,9.39309473031496,-0.36743546,-0.30024028,-0.19120082,22.42466,6.4712934,13.693832,CSI
56984764730000,4.015077,1.67266472787402,-0.120089006488583,9.38363272972441,-0.37507126,-0.28619036,-0.18509217,22.44238,6.6248126,13.7936945,CSI
56984769690000,4.020037,1.65607272077935,-0.202259214551525,9.37211964121985,-0.36926803,-0.27122417,-0.18417588,22.459837,6.7812743,13.893106,CSI
56984774706000,4.025053,1.65128522522424,-0.274070953016743,9.34818241339446,-0.3726278,-0.24740042,-0.20586158,22.482738,6.9366956,13.983865,CSI
56984779703000,4.03005,1.6492268754386,-0.344597031578947,9.33251442105263,-0.36102137,-0.2312125,-0.21899518,22.494349,7.109574,14.068676,CSI
56984784708000,4.035055,1.66308808157895,-0.409282473684211,9.36485731578947,-0.35124752,-0.21594086,-0.23182335,22.513117,7.2772927,14.145256,CSI
56984789766000,4.040113,1.67977596627617,-0.468496567145189,9.39714886777415,-0.35613444,-0.20922135,-0.25625798,22.533766,7.4588284,14.2196245,CSI
56984794678000,4.045025,1.72494712202804,-0.459462340711542,9.42425165555982,-0.33383787,-0.21074851,-0.26847526,22.554993,7.624801,14.289705,CSI
56984799887000,4.050234,1.77434312606675,-0.450360779721166,9.45281069708492,-0.3304781,-0.21074851,-0.28710666,22.586657,7.812362,14.365633,CSI
56984804700000,4.055047,1.87657769186734,-0.460097390269328,9.47228382667934,-0.31978795,-0.21655174,-0.29871312,22.619415,7.9858274,14.441302,CSI
56984809645000,4.059992,1.98051859782588,-0.469648340694943,9.49177044239542,-0.3182608,-0.20677789,-0.29718593,22.662045,8.147342,14.520015,CSI
56984814695000,4.065042,2.07439977903523,-0.474342409558381,9.50585240881297,-0.3109304,-0.19883664,-0.30268374,22.709244,8.298293,14.599049,CSI
56984820069000,4.070416,2.17232277914116,-0.480831445564947,9.51884821558341,-0.29718593,-0.20219639,-0.2959642,22.751678,8.446882,14.696826,CSI
56984824696000,4.075043,2.24120349369474,-0.498051630946274,9.51454307820849,-0.30268374,-0.20891592,-0.2941316,22.796663,8.593514,14.790881,CSI
56984830075000,4.080422,2.32068147290038,-0.519765853561836,9.5104830998196,-0.29840767,-0.22113322,-0.29901853,22.841084,8.735544,14.907901,CSI
56984834708000,4.085055,2.37848885051112,-0.568679751674684,9.5238235210463,-0.2947425,-0.22204952,-0.28924468,22.880136,8.875977,15.01956,CSI
56984840077000,4.090424,2.44503964776035,-0.624954054932905,9.5377614976375,-0.2947425,-0.22999077,-0.2837469,22.916159,9.01784,15.149871,CSI
56984844672000,4.095019,2.49494181672652,-0.666539226134001,9.5252856948592,-0.30634892,-0.2312125,-0.27885997,22.949062,9.157998,15.274476,CSI
56984849727000,4.100074,2.54983963264033,-0.712287439501039,9.51156095426195,-0.31031954,-0.23609942,-0.26908615,22.972412,9.312952,15.415289,CSI
56984854691000,4.105038,2.6207576737071,-0.734198072624456,9.46195653175447,-0.30757064,-0.22143865,-0.28221974,23.001444,9.462566,15.547739,CSI
56984859660000,4.110007,2.69435795413243,-0.752598118714355,9.40675668168197,-0.310625,-0.19914207,-0.28588495,23.024557,9.611213,15.674575,CSI
56984864773000,4.11512,2.72256501895508,-0.777115590672188,9.41950552373367,-0.3173445,-0.18845193,-0.29138273,23.050116,9.767662,15.813097,CSI
56984869665000,4.120012,2.73749006056069,-0.801990691184029,9.44935571084209,-0.30757064,-0.18967366,-0.28527406,23.0734,9.915695,15.94426,CSI
56984874697000,4.125044,2.78659185506958,-0.800122213188867,9.41767231809145,-0.30665436,-0.17287487,-0.27947086,23.100065,10.0713625,16.086578,CSI
56984879681000,4.130028,2.8387826582505,-0.79537760867992,9.37971514512922,-0.2846632,-0.15851954,-0.28160888,23.126513,10.213093,16.225718,CSI
56984884715000,4.135062,2.86998022035293,-0.811987330303361,9.35002561366115,-0.2660318,-0.12675454,-0.2843578,23.155922,10.354603,16.35454,CSI
56984889655000,4.140002,2.89812103050461,-0.830747885096659,9.32188495043125,-0.26328292,-0.11759156,-0.28527406,23.184443,10.489585,16.48176,CSI
56984894677000,4.145024,2.91375425349833,-0.829188279386959,9.29826377182294,-0.25809056,-0.093767814,-0.28130344,23.216679,10.616512,16.608147,CSI
56984899722000,4.150069,2.92755200433127,-0.824589025907663,9.27526736035221,-0.24312437,-0.070554934,-0.26939157,23.24673,10.7361965,16.727892,CSI
56984904685000,4.155032,2.93401834853038,-0.834151530395993,9.24222569785464,-0.2302962,-0.04734206,-0.25961772,23.27556,10.856993,16.845629,CSI
56984909656000,4.160003,2.93851752400529,-0.847649216554201,9.20623163632927,-0.22449298,-0.031154128,-0.2510656,23.301718,10.972362,16.954697,CSI
