timestamp,rel_time,acc_x,acc_y,acc_z,gyro_x,gyro_y,gyro_z,azimuth,pitch,roll,label
2448607836000,0,-2.54816067841823,9.62746136006963,-1.5484360519527,-0.03481932,-0.24404067,-0.0067195175,338.48843,125.484375,-35.377388,STD
2448612862000,0.005026,-2.55201270991957,9.62312784034252,-1.58310431535353,0.0015271631,-0.16401732,-0.020158553,338.4736,126.0772,-35.98687,STD
2448617867000,0.010031,-2.55584864658177,9.61881242724381,-1.6176277252861,0.024740042,0.009468411,-0.028710667,338.55054,126.67224,-36.594337,STD
2448622853000,0.015017,-2.55967002124665,9.61451339633268,-1.65202007731883,0.07696902,0.16798794,-0.028099801,338.6509,127.27214,-37.205975,STD
2448627835000,0.019999,-2.56348833022788,9.61021781430315,-1.68638483821476,0.13958271,0.29932398,-0.031154128,338.8034,127.8752,-37.818626,STD
2448632855000,0.025019,-2.56733576320375,9.60588946789844,-1.72101171491037,0.1863139,0.3735441,-0.03268129,338.9921,128.4855,-38.43719,STD
2448637851000,0.030015,-2.57116480207775,9.60158181478332,-1.75547304478512,0.22327125,0.42332962,-0.04184427,339.2187,129.09933,-39.058186,STD
2448642854000,0.035018,-2.57499920589812,9.5972681261254,-1.78998265914929,0.25778514,0.46181414,-0.036651913,339.4676,129.7237,-39.689007,STD
2448647885000,0.040049,-2.57078630709321,9.59243379325107,-1.79724841736929,0.26419923,0.48563787,-0.024740042,339.72836,130.35466,-40.32566,STD
2448652860000,0.045024,-2.56317902552528,9.58744151627357,-1.7927315948692,0.24770586,0.48991394,-0.019242255,339.9949,130.99265,-40.968735,STD
2448657855000,0.050019,-2.5555411619209,9.58242916984088,-1.78819661428871,0.23640485,0.48991394,-0.009468411,340.39175,131.64252,-41.6183,STD
2448662829000,0.054993,-2.54793540945479,9.57743789633614,-1.78368069969264,0.21655174,0.47433686,0.01863139,340.78378,132.30547,-42.28084,STD
2448667987000,0.060151,-2.5400483022533,9.57226198384369,-1.77899773075687,0.20219639,0.41996986,0.031154128,341.15997,132.97284,-42.948105,STD
2448672912000,0.065076,-2.53251747577651,9.56731988050415,-1.77452630345779,0.20250183,0.35094208,0.025350908,341.52386,133.64911,-43.624477,STD
2448677906000,0.07007,-2.52488114127394,9.56230853754422,-1.76999223078132,0.21013765,0.26083946,0.011911872,341.8575,134.33289,-44.308952,STD
2448682918000,0.075082,-2.51721728293857,9.55727913207462,-1.76544181583249,0.204029,0.1908954,0.01160644,342.1712,135.02493,-45.002003,STD
2448687950000,0.080114,-2.50952284256675,9.55222965714984,-1.76087324280326,0.18845193,0.13713925,0.008857546,342.4543,135.71863,-45.69725,STD
2448692946000,0.08511,-2.50188344986054,9.5472163072444,-1.75633735431875,0.15485434,0.09285152,0.0012217305,342.7121,136.41716,-46.397606,STD
2448698844000,0.091008,-2.49286480731026,9.54129782491006,-1.75098253640809,0.12614368,0.06719518,-0.0076358155,342.9547,137.12077,-47.10316,STD
2448702951000,0.095115,-2.48658478612443,9.53717656228763,-1.74725377459746,0.07452556,0.03756821,-0.018936822,343.17648,137.82788,-47.812103,STD
2448707947000,0.100111,-2.47894539341822,9.53216321238218,-1.74271788611295,0.025350908,0.016798794,-0.031154128,343.39038,138.53821,-48.52414,STD
2448712939000,0.105103,-2.47131211711931,9.52715387636777,-1.73818562924453,-0.014966198,0.007941248,-0.019242255,343.59644,139.25813,-49.24556,STD
2448717952000,0.110116,-2.46364672968211,9.52212346742542,-1.73363430639167,-0.029321533,-0.014966198,-0.010079277,343.78668,139.97934,-49.9683,STD
2448722928000,0.115092,-2.45603791901236,9.51713018697516,-1.72911657598757,-0.08002335,-0.008857546,0.004581489,343.98587,140.71118,-50.701126,STD
2448727937000,0.120101,-2.44837864798246,9.51210379192384,-1.72456888475079,-0.122783914,-0.0143553335,0.019547688,344.16953,141.45097,-51.44202,STD
2448732933000,0.125097,-2.44073925527625,9.50709044201839,-1.72003299626628,-0.14355333,-0.0021380284,0.027794369,344.3643,142.19815,-52.190018,STD
2448737948000,0.130112,-2.43307080963541,9.50205802613052,-1.71547985760539,-0.16890424,0.03848451,0.030543262,344.5706,142.95305,-52.945404,STD
2448742947000,0.135111,-2.42542682962373,9.49704166580679,-1.71094124540882,-0.20525073,0.07941248,0.02321288,344.78394,143.71223,-53.70489,STD
2448747967000,0.140131,-2.41775073847378,9.49200423255512,-1.70638356722783,-0.22357668,0.10140363,-0.007330383,345.00885,144.47006,-54.462883,STD
2448752952000,0.145116,-2.41012816588762,9.48700192085003,-1.70185766568754,-0.22510384,0.11026118,-0.01740966,345.2491,145.236,-55.228786,STD
2448757948000,0.150112,-2.40248877318142,9.48198857094458,-1.69732177720303,-0.24251351,0.10598512,-0.024740042,345.49542,145.99817,-55.99076,STD
2448762941000,0.155105,-2.39485396778068,9.47697823145741,-1.69278861243058,-0.23823744,0.11178834,-0.019547688,345.75366,146.76492,-56.7573,STD
2448768723000,0.160887,-2.38601270104183,9.47117615196316,-1.68753911138626,-0.22693644,0.10598512,-0.015271631,346.00598,147.53316,-57.525387,STD
2448772949000,0.165113,-2.3795507167391,9.46693547608237,-1.68370230899724,-0.22632557,0.10048734,-0.022907447,346.26398,148.3032,-58.295242,STD
2448777960000,0.170124,-2.37188838750555,9.46190707408553,-1.67915280195243,-0.22540927,0.100792766,-0.029321533,346.52478,149.07845,-59.070335,STD
2448782969000,0.175133,-2.36422911647565,9.45688067903421,-1.67460511071566,-0.21655174,0.08827003,-0.03634648,346.77808,149.85483,-59.84672,STD
2448787949000,0.180113,-2.3566141893986,9.45188338469292,-1.67008374869547,-0.20463985,0.10629055,-0.040927973,347.05203,150.6335,-60.62522,STD
2448792945000,0.185109,-2.3489747966924,9.44687003478747,-1.66554786021096,-0.19486602,0.103847094,-0.05589417,347.30984,151.41048,-61.402275,STD
2448798002000,0.190166,-2.341242128775,9.4417954730437,-1.66095658958122,-0.18570304,0.087659165,-0.06811147,347.57315,152.19012,-62.182003,STD
2448802950000,0.195114,-2.33367613295629,9.4368302898307,-1.65646428048968,-0.16065755,0.08674286,-0.06719518,347.84766,152.97229,-62.96425,STD
2448807946000,0.20011,-2.32603674025008,9.43181693992526,-1.65192839200517,-0.13530666,0.07849618,-0.064446285,348.11072,153.75449,-63.746693,STD
2448812936000,0.2051,-2.31840652215481,9.42680961085636,-1.64739795094478,-0.12003502,0.06078109,-0.06078109,348.3701,154.54012,-64.5327,STD
2448817950000,0.210114,-2.31073960561579,9.42177819844125,-1.64284572018791,-0.10629055,0.03756821,-0.059864793,348.62308,155.32858,-65.32167,STD
2448822948000,0.215112,-2.30309715470594,9.41676284159028,-1.63830801589536,-0.0852157,0.0033597588,-0.065973446,348.8585,156.11884,-66.112656,STD
2448827954000,0.220118,-2.2954424709815,9.41173945695724,-1.63376304837065,-0.062308256,-0.0143553335,-0.06536258,349.09106,156.914,-66.908585,STD
2448832933000,0.225097,-2.28782907300628,9.40674316608871,-1.62924259425448,-0.055283304,-0.007330383,-0.06261369,349.31842,157.71071,-67.70604,STD
2448837888000,0.230052,-2.28025237347481,9.40177095856639,-1.62474392983479,-0.047647487,0.005497787,-0.062002823,349.53815,158.50955,-68.505684,STD
2448842960000,0.235124,-2.27249676903007,9.39668134473123,-1.62013904064476,-0.039095376,0.020463986,-0.061391957,349.7663,159.31163,-69.30845,STD
2448848013000,0.240177,-2.27032094879734,9.3920676707347,-1.60952148759993,-0.04886922,0.03390302,-0.06169739,350.00525,160.11597,-70.11332,STD
2448852947000,0.245111,-2.27126591654876,9.38781530105242,-1.59581944780391,-0.048258353,0.061086524,-0.058337633,350.2712,160.92365,-70.92137,STD
2448857946000,0.25011,-2.27222333320651,9.38350691109667,-1.58193689876859,-0.044898596,0.09040806,-0.055588737,350.7172,161.74258,-71.7392,STD
2448862950000,0.255114,-2.27318170747244,9.37919421188911,-1.56804046440717,-0.042455133,0.12003502,-0.04642576,351.2125,162.56726,-72.56229,STD
2448867945000,0.260109,-2.27413835804365,9.3748892693348,-1.55416902363273,-0.040011674,0.14844026,-0.038179077,351.76447,163.39516,-73.38793,STD
2448872943000,0.265107,-2.27509558317976,9.37058174122941,-1.54028925166263,-0.033292156,0.17195857,-0.04184427,352.37784,164.22464,-74.214355,STD
2448877950000,0.270114,-2.2760545320106,9.36626645647076,-1.52638448610554,-0.026572637,0.18203785,-0.049785517,353.0517,165.0574,-75.043076,STD
2448882976000,0.27514,-2.27701711975252,9.36193479655526,-1.51242695630928,-0.016798794,0.21074851,-0.054367006,353.82703,165.89189,-75.871956,STD
2448887952000,0.280116,-2.27797013141264,9.35764622915781,-1.49860827977402,-0.027183503,0.22449298,-0.05100725,354.66376,166.72801,-76.70112,STD
2448892936000,0.2851,-2.27892467524586,9.35335076695748,-1.484767386717,-0.020158553,0.25473082,-0.05681047,355.6383,167.56143,-77.52509,STD
2448897907000,0.290071,-2.2798767292978,9.34906650881184,-1.47096259550784,-0.027794369,0.2751948,-0.051923547,356.7238,168.40004,-78.351715,STD
2448902919000,0.295083,-2.28083663573682,9.34474691480139,-1.45704394462465,-0.03359759,0.28160888,-0.038179077,-76.46182,169.2403,-79.17663,STD
2448907943000,0.300107,-2.28179884043547,9.3404169785866,-1.44309196895883,-0.03848451,0.28313604,-0.034208454,-77.264206,170.07968,-79.996315,STD
2448912903000,0.305067,-2.28274878774942,9.33614220079494,-1.42931772546709,-0.051923547,0.27580565,-0.034513887,-78.05839,170.92215,-80.81407,STD
2448917919000,0.310083,-2.28370946027498,9.33181915938304,-1.41538796632303,-0.0571159,0.2593123,-0.03023783,-78.84506,171.76707,-81.62826,STD
2448922900000,0.315064,-2.28466342954328,9.32752628273379,-1.40155540446167,-0.06169739,0.23854288,-0.023518313,-79.61699,172.61247,-82.435165,STD
2448927914000,0.320078,-2.28562371902557,9.32320496502262,-1.38763119944804,-0.06352998,0.2003638,-0.012217305,-80.37394,173.45998,-83.2355,STD
2448932925000,0.325089,-2.28658343394295,9.31888623286254,-1.37371532563008,-0.06505715,0.15424347,-0.0021380284,-81.11007,174.30843,-84.02462,STD
2448937915000,0.330079,-2.28753912690598,9.31458559956003,-1.35985777018174,-0.0571159,0.12492194,0.014660766,-81.82417,175.1611,-84.79975,STD
2448942901000,0.335065,-2.28849405378247,9.31028841365898,-1.34601132299428,-0.041233405,0.09682214,0.034208454,-82.50678,176.01633,-85.55287,STD
2448947918000,0.340082,-2.28945491782966,9.30596451039672,-1.33207878678499,-0.029321533,0.04886922,0.050701816,-83.14641,176.87418,-86.2702,STD
2448952916000,0.34508,-2.29041214296578,9.30165698229133,-1.31819901481489,-0.018020526,0.01740966,0.067500606,-83.73238,177.73611,-86.91897,STD
2448957912000,0.350076,-2.29136898505862,9.29735117788666,-1.30432479697523,-0.006414085,-0.04642576,0.08307768,-84.24397,178.60065,-87.45773,STD
2448962902000,0.355066,-2.29232467802165,9.29305054458416,-1.29046724152689,0.002443461,-0.1301143,0.10934488,-84.657196,179.47112,-87.794365,STD
2448967920000,0.360084,-2.29328573359048,9.28872577947154,-1.27653192825238,0.040317107,-0.19730948,0.1337795,-84.953445,-179.65692,-87.824936,STD
2448972911000,0.365075,-2.29424161807514,9.28442428431868,-1.26267159573882,0.070249505,-0.28252518,0.14446963,-85.09753,-178.78354,-87.549515,STD
2448977936000,0.3701,-2.29520401429543,9.28009348625353,-1.24871684300777,0.10934488,-0.34300083,0.15057829,-85.086044,-177.90724,-87.03734,STD
2448982962000,0.375126,-2.29616660203735,9.27576182633802,-1.23475931321151,0.12950343,-0.38881573,0.15851954,-84.90847,-177.02986,-86.39124,STD
2448987920000,0.380084,-2.29711616630803,9.27148877224708,-1.22099062385021,0.15790866,-0.4111123,0.1731803,-84.586845,-176.1518,-85.66506,STD
2448992910000,0.385074,-2.29807185927105,9.26718813894458,-1.20713306840187,0.18417588,-0.4352415,0.19150625,-84.13708,-175.27322,-84.89358,STD
2448997911000,0.390075,-2.29902965897208,9.2628780252881,-1.19324496523611,0.20830505,-0.44715336,0.20861048,-83.58567,-174.39395,-84.090225,STD
2449002924000,0.395088,-2.29998975693273,9.25855756942729,-1.1793235372877,0.22602014,-0.46273044,0.2302962,-82.951416,-173.51134,-83.26495,STD
2449007910000,0.400074,-2.30094468380921,9.25426038352624,-1.16547709010024,0.25503623,-0.46700647,0.2321288,-82.26119,-172.63313,-82.42925,STD
2449012894000,0.405058,-2.30189922764243,9.2499649213259,-1.15163619704322,0.27152961,-0.45448375,0.2406809,-81.51766,-171.75038,-81.57897,STD
2449017953000,0.410117,-2.30286813559833,9.24560482034847,-1.13758702409469,0.29260445,-0.42730024,0.25717425,-80.73908,-170.86887,-80.72192,STD
2449022942000,0.415106,-2.30382363703972,9.24130504889633,-1.12373224571157,0.31764993,-0.39584067,0.26297748,259.93573,-169.99213,-79.863525,STD
2449027938000,0.420102,-2.30478047913256,9.23699924449166,-1.10985802787191,0.32589662,-0.34025195,0.26145032,259.10983,-169.11713,-79.001015,STD
2449032932000,0.425096,-2.30573693818214,9.23269516378772,-1.09598936416269,0.31978795,-0.28130344,0.25259277,171.53127,-168.24725,-78.13972,STD
2449037946000,0.43011,-2.30669722766442,9.22837384607654,-1.08206515914906,0.32162055,-0.23060162,0.25167647,172.35695,-167.38058,-77.27809,STD
2449042944000,0.435108,-2.30765445280054,9.22406631797115,-1.06818538717896,0.30573806,-0.18509217,0.23518312,173.0389,-166.52594,-76.42556,STD
2449047989000,0.440153,-2.29184711556389,9.23664590966817,-1.09794418278894,0.2929099,-0.160963,0.23243423,173.63681,-165.67319,-75.57312,STD
2449052962000,0.445126,-2.26662605619748,9.25877382425236,-1.15243119634696,0.25595254,-0.10751228,0.21899518,174.11111,-164.83365,-74.7311,STD
2449057947000,0.450111,-2.241344137649,9.28095513416632,-1.20704968872313,0.23671028,-0.03390302,0.2180789,174.45715,-163.99603,-73.889755,STD
2449062944000,0.455108,-2.21600135991847,9.30318983941008,-1.26179965991747,0.20616703,0.00030543262,0.19425514,174.76984,-163.17377,-73.06341,STD
2449067952000,0.460116,-2.19060279460437,9.3254734903728,-1.31667015336178,0.19608775,0.052839845,0.17531833,174.98586,-162.35606,-72.23843,STD
2449072959000,0.465123,-2.16520930088878,9.3477526917247,-1.37152969023791,0.17592919,0.09987647,0.15668693,175.1713,-161.55057,-71.424866,STD
2449077950000,0.470114,-2.13989695274927,9.36996069930356,-1.42621392202316,0.15027285,0.1414153,0.13805555,175.31494,-160.7564,-70.62103,CSI
2449082985000,0.475149,-2.11436145427554,9.3923644897583,-1.48138024280833,0.1133155,0.19547687,0.115453534,175.41113,-159.97458,-69.827705,CSI
2449087950000,0.480114,-2.08918096769716,9.41445680745596,-1.53577960382091,0.06383542,0.24373524,0.0852157,175.48352,-159.2062,-69.04681,CSI
2449093574000,0.485738,-2.06065829770386,9.43948141868087,-1.59739934326396,0.009162978,0.29077184,0.0571159,175.52168,-158.44966,-68.27623,CSI
2449097924000,0.490088,-2.03859684420619,9.45883722572716,-1.64506041484597,-0.055588737,0.30604348,0.033292156,175.55515,-157.70633,-67.5189,CSI
2449102927000,0.495091,-2.01322363688462,9.48109862863581,-1.69987612544939,-0.11911872,0.31215215,0.032070424,175.57034,-156.97041,-66.7683,CSI
2449107913000,0.500077,-1.98793664673764,9.50328438816059,-1.75450557439374,-0.20097467,0.30665436,0.038789943,175.59111,-156.24445,-66.02873,CSI
2449112904000,0.505068,-1.96262429859814,9.52549239573945,-1.80918980617899,-0.2312125,0.2565634,0.041233405,175.64581,-155.52663,-65.298935,CSI
2449117938000,0.510102,-1.9370938717229,9.54789173658337,-1.86434517039598,-0.28160888,0.21685717,0.044593163,175.70314,-154.81177,-64.57375,CSI
2449122916000,0.51508,-1.91184745436397,9.57004189922163,-1.9188869667949,-0.34116822,0.17256944,0.029321533,175.79854,-154.10774,-63.86224,CSI
2449127904000,0.520068,-1.88655032101997,9.59223655796805,-1.97353832887561,-0.40103304,0.13164146,0.03634648,175.92043,-153.40239,-63.15189,CSI
2449132918000,0.525082,-1.86112132611485,9.61454690659566,-2.028474561729,-0.44318274,0.08246681,0.04428773,176.07274,-152.70734,-62.454647,CSI
2449137915000,0.530079,-1.83577854838431,9.63678161183941,-2.08322453292333,-0.49266282,0.04153884,0.058337633,176.243,-152.0143,-61.761963,CSI
2449142917000,0.535081,-1.81041041266124,9.65903856513724,-2.13802928695856,-0.54428095,0.009162978,0.062002823,176.4329,-151.32823,-61.078556,CSI
2449148031000,0.540195,-1.7844742579056,9.68179387484637,-2.19406117662993,-0.5522222,-0.020463986,0.06872234,176.64075,-150.64441,-60.398785,CSI
2449152954000,0.545118,-1.75950677846444,9.7036993088898,-2.24800036177896,-0.56413406,-0.035124753,0.07544186,176.85223,-149.96579,-59.725708,CSI
2449157948000,0.550112,-1.73417921552942,9.72592066530111,-2.30271746326875,-0.5543602,-0.042455133,0.11056661,177.07188,-149.2848,-59.050556,CSI
2449163705000,0.555869,-1.70498202293492,9.75153707476444,-2.36579442627971,-0.54336464,-0.048563786,0.14508049,177.29242,-148.60933,-58.3813,CSI
2449167953000,0.560117,-1.68343787248479,9.77043902150758,-2.41233792790739,-0.516792,-0.049480084,0.18448131,177.51007,-147.93057,-57.70808,CSI
2449172949000,0.565113,-1.65810016635275,9.79266927714052,-2.46707694253355,-0.47678033,-0.038789943,0.21074851,177.71992,-147.25394,-57.03609,CSI
2449177935000,0.570099,-1.63281317620577,9.8148550366653,-2.5217063914779,-0.44501534,0.0070249503,0.22968534,177.90855,-146.57643,-56.361607,CSI
2449182984000,0.575148,-1.60720667535296,9.83732112167145,-2.57702610421758,-0.43676865,0.07544186,0.25595254,178.07797,-145.89767,-55.684433,CSI
2449187957000,0.580121,-1.58198561598655,9.85944903625563,-2.6315131177756,-0.41263947,0.16676621,0.28069258,178.21126,-145.22302,-55.008263,CSI
2449192951000,0.585115,-1.55665805305153,9.88167039266694,-2.68623021926539,-0.40042216,0.24037547,0.28588495,178.31891,-144.55464,-54.33693,CSI
2449197980000,0.590144,-1.53115298416882,9.90404748545678,-2.74133080064148,-0.38973203,0.32986724,0.2996294,178.37706,-143.88559,-53.66134,CSI
2449202948000,0.595112,-1.50595728279494,9.92615315198689,-2.7957630313586,-0.3707952,0.36896262,0.30085114,178.4263,-143.22755,-52.995647,CSI
2449207947000,0.600111,-1.48060436186739,9.94839675645228,-2.85053491568929,-0.35460728,0.42760566,0.3032946,178.4286,-142.57397,-52.33104,CSI
2449212941000,0.605105,-1.45527679893236,9.97061811286358,-2.90525201717908,-0.31398472,0.46609017,0.2837469,178.426,-141.93591,-51.680347,CSI
2449217953000,0.610117,-1.42985794722425,9.99291956226956,-2.96016633689611,-0.25259277,0.50793445,0.27122417,178.40094,-141.3047,-51.03365,CSI
2449222946000,0.61511,-1.40453545588773,10.0151364690701,-3.01487248181773,-0.18203785,0.539394,0.26358834,178.36868,-140.68755,-50.39871,CSI
2449227971000,0.620135,-1.37905067339905,10.0374957634166,-3.06992923692109,-0.1160644,0.5910121,0.27152961,178.31587,-140.07962,-49.769283,CSI
2449233513000,0.625677,-1.35094387448317,10.0621555065547,-3.1306505377734,-0.019547688,0.6462954,0.2864958,178.25528,-139.48328,-49.147095,CSI
2449237947000,0.630111,-1.32845640671106,10.0818850809095,-3.17923196108252,0.08307768,0.7098254,0.30848694,178.17781,-138.89359,-48.52683,CSI
2449242946000,0.63511,-1.30310348578352,10.1041286853748,-3.23400384541322,0.22999077,0.7987063,0.34574974,178.0768,-138.30862,-47.903233,CSI
2449248010000,0.640174,-1.26142630726668,10.1524113317165,-3.07007834779484,0.39706242,0.8561276,0.3885103,177.97409,-137.72934,-47.27871,CSI
2449252949000,0.645113,-1.21044289971257,10.2161405357047,-2.76842664916015,0.54519725,0.88117313,0.41599923,177.86044,-137.1582,-46.653954,CSI
2449257954000,0.650118,-1.15240063140776,10.2658839939462,-2.41375726598605,0.6747007,0.86162543,0.43157628,177.4575,-136.4648,-45.85043,CSI
2449262943000,0.655107,-1.08376717443054,10.2903964364868,-1.97744454229427,0.784351,0.8029824,0.42821655,177.0946,-135.79315,-45.055683,CSI
2449267941000,0.660105,-1.02969549615966,10.3107205508517,-1.50510217613144,0.86009824,0.70524395,0.4269948,176.78412,-135.1035,-44.246513,CSI
2449272944000,0.665108,-0.995889467221046,10.3252086256426,-0.983523868974902,0.8707884,0.5647449,0.4175264,176.53593,-134.4376,-43.45756,CSI
2449277920000,0.670084,-0.978865742424242,10.3536894242424,-0.579832128484849,0.8384125,0.3903429,0.39370266,176.40083,-133.76733,-42.684322,CSI
2449282971000,0.675135,-0.983624933372688,10.4012813337269,-0.322835628427784,0.77091193,0.23640485,0.35246924,176.32059,-133.11873,-41.937317,CSI
2449287950000,0.680114,-0.935637407583703,10.4779638188786,-0.0864578196389673,0.6747007,0.12064589,0.3277292,176.3792,-132.46013,-41.21789,CSI
2449292947000,0.685111,-0.810159593041549,10.5986154667205,0.125889226703308,0.5540548,-0.0027488936,0.30451632,176.49492,-131.81873,-40.529697,CSI
2449297891000,0.690055,-0.663852371798246,10.6437239717836,0.139132048938109,0.4111123,-0.04550946,0.27885997,176.65417,-131.17363,-39.86191,CSI
2449302981000,0.695145,-0.48093630118421,10.5819600960526,-0.134054296057018,0.34483343,-0.10354166,0.24984388,176.85666,-130.54329,-39.21934,CSI
2449307838000,0.700002,-0.306393402368421,10.5230235254386,-0.394735254336257,0.27550024,-0.124005646,0.23671028,177.07787,-129.87494,-38.559406,CSI
2449312951000,0.705115,-0.122650795482456,10.4609805595029,-0.669156036646686,0.22479841,-0.026267206,0.20433442,177.26534,-129.22702,-37.9195,CSI
2449317845000,0.710009,0.0605145923313476,10.4435434877636,-0.934544319256158,0.19700404,0.21502456,0.17501289,177.38306,-128.58578,-37.281845,CSI
2449322946000,0.71511,0.268944663554983,10.5261290144904,-1.21769466140718,0.20372356,0.4654793,0.16218472,177.45482,-127.95767,-36.652653,CSI
2449327965000,0.720129,0.474024163157302,10.6073869558042,-1.4962932827081,0.258396,0.67011917,0.18692477,177.33508,-127.31314,-35.95631,CSI
2449332928000,0.725092,0.48362439982292,10.636643140658,-1.20262594814368,0.35216382,0.7840455,0.24220806,177.1616,-126.67772,-35.25667,CSI
2449337897000,0.730061,0.454896885496529,10.6557947135527,-0.795652549381225,0.42332962,0.7858781,0.30207285,176.95956,-126.04767,-34.55409,CSI
2449342912000,0.735076,0.461127906601942,10.6773492815534,-0.617657533980583,0.44959682,0.63591075,0.3555236,176.69379,-125.38005,-33.783638,CSI
2449347906000,0.74007,0.474269481751237,10.6992518915552,-0.486241782487635,0.44043383,0.40958515,0.41050145,176.46188,-124.71297,-33.012398,CSI
2449352931000,0.745095,0.447193568098493,10.6467412369849,-0.481673910854271,0.42546764,0.18570304,0.48655418,176.33165,-124.02198,-32.250786,CSI
2449357943000,0.750107,0.398953400552764,10.5550851055276,-0.544386120100502,0.40317106,0.0711658,0.5369505,176.24066,-123.33449,-31.499538,CSI
2449362938000,0.755102,0.328597407549265,10.4415961745524,-0.673981318285486,0.32253686,-0.0027488936,0.5476407,176.18935,-122.62461,-30.750761,CSI
2449367954000,0.760118,0.246909557058117,10.3166612972892,-0.837357039337801,0.2321288,-0.0720821,0.56413406,176.17291,-121.908966,-30.004515,CSI
2449372940000,0.765104,0.141050989808516,10.1966975275888,-0.971475266550768,0.1563815,-0.12461651,0.5928447,176.08417,-121.19928,-29.265142,CSI
2449377937000,0.770101,0.0228897497258755,10.0785364184429,-1.09204796390426,0.13591751,-0.025045475,0.6411031,175.9662,-120.488525,-28.52265,CSI
2449382922000,0.775086,-0.0949877331262283,9.96065906621315,-1.21233111305518,0.090713486,-0.003970624,0.66248333,175.84853,-119.81001,-27.816183,CSI
2449387963000,0.780127,-0.214189416387503,9.84145751504157,-1.33396548715142,0.100792766,-0.002443461,0.6768387,175.70436,-119.135254,-27.10486,CSI
2449392925000,0.785089,-0.233547652749376,9.81591977812702,-1.57959411202736,0.086437434,0.010079277,0.68966687,175.503,-118.494644,-26.418324,CSI
2449397924000,0.790088,-0.211418387151706,9.82919760645281,-1.88055212045854,0.08155051,0.02321288,0.68111473,175.29848,-117.86873,-25.744219,CSI
2449402831000,0.794995,-0.257477890256466,9.81390848478592,-1.95360508742665,0.079107046,0.12308934,0.6988298,175.03883,-117.27257,-25.089369,CSI
2449407830000,0.799994,-0.366732789958705,9.77228727363617,-1.82353976685503,0.035124753,0.20219639,0.677755,174.77724,-116.693985,-24.458145,CSI
2449412822000,0.804986,-0.408693635379988,9.70055639743333,-1.68103589498697,0.01282817,0.18112154,0.65179324,174.45657,-116.13824,-23.816765,CSI
2449418281000,0.810445,-0.419176852903549,9.60620775716864,-1.518546028845,0.032986723,0.18081611,0.63132924,174.10518,-115.59821,-23.185064,CSI
2449422851000,0.815015,-0.474650120018282,9.57639555667276,-1.36787552522852,0.014049901,0.16798794,0.6084218,173.77075,-115.07836,-22.59556,CSI
2449427828000,0.819992,-0.552104947897623,9.56187248263254,-1.19844309872029,-0.017104227,0.15607607,0.6032294,173.43536,-114.57005,-22.016514,CSI
2449432860000,0.825024,-0.569696728832952,9.61495583028223,-1.2638225460431,-0.07971791,0.21685717,0.6026186,173.098,-114.06754,-21.460012,CSI
2449437834000,0.829998,-0.562883942334096,9.69443833943555,-1.42278768291381,-0.17348573,0.14294247,0.5992588,172.80244,-113.567406,-20.92252,CSI
2449442832000,0.834996,-0.556038283524027,9.77430435888635,-1.58251984095156,-0.19120082,0.087659165,0.6068946,172.50386,-113.07445,-20.405329,CSI
2449447863000,0.840027,-0.549147425286041,9.85469770499619,-1.74330665309401,-0.1908954,0.06505715,0.6062838,172.21324,-112.582085,-19.901672,CSI
2449452885000,0.845049,-0.550857747015294,9.87541204144055,-1.84200218756783,-0.20311269,0.09712757,0.6206391,171.91507,-112.08739,-19.39849,CSI
2449457886000,0.85005,-0.560308872185496,9.84233339940799,-1.8845323001776,-0.24953845,0.06872234,0.63529986,171.63788,-111.59542,-18.907736,CSI
2449462860000,0.855024,-0.567358804712813,9.7908959293078,-1.88251252857143,-0.2929099,0.0290161,0.6270532,171.29498,-111.12326,-18.402859,CSI
2449467949000,0.860113,-0.572143913716249,9.71911929425626,-1.83466138857143,-0.32986724,0.02687807,0.63529986,170.94913,-110.64662,-17.898258,CSI
2449472884000,0.865048,-0.543577169333867,9.64003826465293,-1.81444952964593,-0.36163223,0.043982297,0.64599,170.59784,-110.18151,-17.407787,CSI
2449477908000,0.870072,-0.476204264032807,9.54860377615523,-1.82407422322465,-0.38056904,0.121256754,0.65240407,170.22768,-109.72049,-16.922455,CSI
2449482936000,0.8751,-0.380213654885233,9.47785247946015,-1.7844890122648,-0.40775254,0.21746802,0.6597345,169.84268,-109.26053,-16.445238,CSI
2449488452000,0.880616,-0.239706028511477,9.42581265205398,-1.68040924877352,-0.41386122,0.33292156,0.69027776,169.42859,-108.80159,-15.963651,CSI
2449492882000,0.885046,-0.140395475817695,9.40640406439901,-1.63961312973438,-0.44135013,0.37293324,0.68936145,168.99326,-108.345,-15.486942,CSI
2449497975000,0.890139,-0.0425292209168737,9.4110639696159,-1.64427342424995,-0.42424592,0.38820487,0.67164636,168.52998,-107.89887,-15.010788,CSI
2449502859000,0.895023,0.0988686286375691,9.4317154961326,-1.64573449712707,-0.4147775,0.4025602,0.6435465,168.07014,-107.434525,-14.525866,CSI
2449507949000,0.900113,0.341251797398158,9.48557856979742,-1.64124592327808,-0.4034765,0.42455134,0.6087272,167.60002,-106.98679,-14.055444,CSI
2449512855000,0.905019,0.539617309009298,9.50985532125681,-1.67991433315165,-0.39400807,0.46731192,0.6096435,167.12793,-106.53334,-13.572222,CSI
2449517951000,0.910115,0.560480138035695,9.38989372758363,-1.94591567554772,-0.39492437,0.4529566,0.55833083,166.65964,-106.108406,-13.123773,CSI
2449522873000,0.915037,0.602301500363672,9.29065540741105,-2.19666861243365,-0.35246924,0.44165558,0.514654,166.18248,-105.65951,-12.628127,CSI
2449527954000,0.920118,0.69795659414193,9.22847932927069,-2.44058912404167,-0.28405234,0.51251596,0.4605924,165.68109,-105.23822,-12.15575,CSI
2449532919000,0.925083,0.748602184804423,9.19230168103658,-2.60068505351454,-0.18692477,0.5708536,0.4202753,165.13655,-104.873085,-11.694186,CSI
2449537984000,0.930148,0.682442969267865,9.22301859053047,-2.5487028171416,-0.10262536,0.5885687,0.38545597,164.58069,-104.53844,-11.253259,CSI
2449542915000,0.935079,0.618034066639875,9.25292285128355,-2.49809582650884,-0.0143553335,0.65576386,0.3304781,163.95795,-104.263176,-10.810859,CSI
2449547974000,0.940138,0.551953223323104,9.28360337352039,-2.44617516830338,0.01985312,0.68294734,0.2910773,163.34181,-104.009125,-10.382782,CSI
2449552919000,0.945083,0.471811227089796,9.31250647811913,-2.36758482937864,0.021991149,0.7476991,0.25473082,162.68304,-103.787445,-9.969785,CSI
2449558054000,0.950218,0.306641347306135,9.33679665642596,-2.13926171864072,-0.00580322,0.72265357,0.22510384,162.0414,-103.58412,-9.576131,CSI
2449562945000,0.955109,0.154621792745921,9.36132268812177,-1.93727407972543,-0.032070424,0.6988298,0.21563543,161.3642,-103.392815,-9.212143,CSI
2449567949000,0.960113,0.030668265299045,9.39469446965778,-1.82285541939912,-0.05009095,0.72204274,0.22082779,160.6797,-103.20906,-8.857978,CSI
2449572928000,0.965092,-0.0772191280999708,9.42841542765273,-1.71535976159018,-0.09621128,0.7098254,0.23671028,160.02087,-103.00671,-8.545789,CSI
2449577948000,0.970112,-0.0819034860966579,9.46589056162915,-1.64977874181039,-0.12492194,0.72295904,0.25778514,159.34715,-102.80825,-8.234388,CSI
2449582937000,0.975101,-0.0872972478339033,9.5024049433317,-1.58495728553981,-0.17134771,0.7309003,0.30543262,158.63925,-102.58781,-7.9344153,CSI
2449587965000,0.980129,-0.101411224556913,9.53063248412311,-1.52379671319003,-0.23396139,0.67103547,0.3182608,157.9442,-102.365036,-7.64719,CSI
2449593175000,0.985339,-0.112320883922994,9.55468067927294,-1.46562294203069,-0.2779437,0.6102544,0.33169982,157.2464,-102.12108,-7.3522615,CSI
2449597922000,0.990086,-0.0812227001004593,9.51914010876576,-1.47006553653865,-0.32528573,0.5882632,0.34605515,156.55292,-101.86503,-7.0610785,CSI
2449603215000,0.995379,-0.0459365599666516,9.47749812569098,-1.47589045674671,-0.35216382,0.5381723,0.38453966,155.87619,-101.5921,-6.7713118,CSI
2449607915000,1.000079,-0.00106833174734934,9.39591915876756,-1.50036401904848,-0.40194935,0.47403142,0.38820487,155.20618,-101.3116,-6.495695,CSI
2449612872000,1.005036,0.0462533293767105,9.30987938450385,-1.52617581656547,-0.41447207,0.39095375,0.40103304,154.56067,-101.0305,-6.211329,CSI
2449617917000,1.010081,0.186940300836244,9.07863583225227,-1.56188432277218,-0.40866885,0.32406402,0.40469822,153.9262,-100.74848,-5.937393,CSI
2449622846000,1.01501,0.351808361405049,8.81013690669594,-1.59956847310648,-0.39920044,0.28344148,0.40378192,153.30597,-100.46852,-5.6702743,CSI
2449628119000,1.020283,0.352930325579231,8.65335517214106,-1.63778988261841,-0.38912117,0.2574797,0.3930918,152.70242,-100.2004,-5.4053116,CSI
2449632901000,1.025065,0.306055921916814,8.54682251744673,-1.67188037661673,-0.39003745,0.21044308,0.37323865,152.11412,-99.93878,-5.1520834,CSI
2449637946000,1.03011,0.237424977766045,8.48394148246116,-1.63719750465104,-0.37110063,0.20372356,0.34605515,151.48695,-99.69315,-4.874655,CSI
2449642922000,1.035086,0.158178806043133,8.45174759252715,-1.56042777768539,-0.3567453,0.19822577,0.3213151,150.87086,-99.45439,-4.610044,CSI
2449647957000,1.040121,0.0779930193419945,8.41917198243517,-1.48274779873201,-0.34972036,0.19456059,0.29565877,150.21693,-99.2392,-4.3675923,CSI
2449652943000,1.045107,-0.00141240915688821,8.38691339416931,-1.40582379176844,-0.32711834,0.18997909,0.26297748,149.56268,-99.04064,-4.1397924,CSI
2449657944000,1.050108,-0.0597278840170432,8.42396896214824,-1.20789706551229,-0.32284227,0.19028452,0.24007004,148.9067,-98.84588,-3.921657,CSI
2449662934000,1.055098,-0.111815768602854,8.48079226575505,-0.975869210329964,-0.3387248,0.17256944,0.20555615,148.2547,-98.661606,-3.7219322,CSI
2449667955000,1.060119,-0.141314011145968,8.57197920834102,-0.80839100622255,-0.35827246,0.15515977,0.17134771,147.65704,-98.48226,-3.564926,CSI
2449672968000,1.065132,-0.163462252739435,8.67386087082487,-0.662212606155195,-0.3885103,0.12797627,0.15149458,147.06522,-98.301094,-3.4183106,CSI
2449677934000,1.070098,-0.160525427537023,8.79492945614956,-0.58258892664216,-0.44776422,0.11178834,0.11636983,146.46825,-98.07295,-3.300328,CSI
2449683041000,1.075205,-0.139977693838882,8.93362680075622,-0.546630389988447,-0.49021935,0.08827003,0.09560041,145.87958,-97.84463,-3.1883452,CSI
2449687958000,1.080122,-0.157226436936937,9.06276498198198,-0.589218087387387,-0.5186246,0.059253927,0.07422013,145.30247,-97.582695,-3.09396,CSI
2449692943000,1.085107,-0.190678152192192,9.19179265015015,-0.665679155105105,-0.56138515,0.050396383,0.06291912,144.72467,-97.310745,-3.0055566,CSI
2449697971000,1.090135,-0.22422180284665,9.2881629564268,-0.781965537598015,-0.5879578,0.017104227,0.04428773,144.14883,-97.03052,-2.9238656,CSI
2449702957000,1.095121,-0.257397958951861,9.36873424198511,-0.914670142223325,-0.61086524,-0.0067195175,0.020463986,143.57135,-96.74664,-2.8496454,CSI
2449707941000,1.100105,-0.286834526348716,9.43844373276694,-1.08535420538714,-0.6395759,-0.044898596,0.011911872,143.01741,-96.47606,-2.7850559,CSI
2449712944000,1.105108,-0.314588589152346,9.50320307095965,-1.27500698075883,-0.66156703,-0.06658431,0.00061086525,142.464,-96.209625,-2.7306907,CSI
2449717952000,1.110116,-0.352046337059898,9.54654631786802,-1.38263910363452,-0.66767573,-0.06047566,-0.011301007,141.9405,-95.97712,-2.6868916,CSI
2449722951000,1.115115,-0.39578948515736,9.57570850456853,-1.43610292649746,-0.66950834,-0.06536258,-0.018325957,141.42534,-95.74593,-2.6479843,CSI
2449727933000,1.120097,-0.432819462956037,9.60740057290631,-1.35059073224587,-0.6747007,-0.07727446,-0.032375857,140.93245,-95.5608,-2.620911,CSI
2449733015000,1.125179,-0.466705024815994,9.64128579610106,-1.18116299876666,-0.6536258,-0.100792766,-0.04917465,140.44322,-95.38748,-2.5989583,CSI
2449737951000,1.130115,-0.481758815408313,9.69136123315403,-1.08546478462592,-0.66889745,-0.12675454,-0.06627888,139.97641,-95.22632,-2.5909388,CSI
2449743781000,1.135945,-0.487219230469438,9.76234697105135,-1.01993974687531,-0.6575964,-0.1469131,-0.08277224,139.51347,-95.083534,-2.589354,CSI
2449747923000,1.140087,-0.447498237361457,9.79428760949159,-0.986469207815143,-0.6579019,-0.183565,-0.093462385,139.05963,-94.9134,-2.5999274,CSI
2449752958000,1.145122,-0.375536405319869,9.82307242045568,-0.952887020196995,-0.6722572,-0.22113322,-0.10415252,138.61052,-94.75123,-2.616482,CSI
2449757939000,1.150103,-0.29952879045392,9.85134650206327,-0.906595576299862,-0.6780604,-0.27122417,-0.11453723,138.1704,-94.58871,-2.6374803,CSI
2449762942000,1.155106,-0.219501578120456,9.87959098820986,-0.8501057732865,-0.69974613,-0.310625,-0.119729586,137.73726,-94.42756,-2.6610606,CSI
2449767908000,1.160072,-0.127121053141295,9.91340541090462,-0.816750582610003,-0.7281514,-0.3567453,-0.12583824,137.30418,-94.25756,-2.674505,CSI
2449772950000,1.165114,-0.0215484712697458,9.95299523899973,-0.803554023770611,-0.7626653,-0.3915646,-0.13439035,136.87866,-94.091805,-2.691235,CSI
2449777897000,1.170061,0.100779673341434,9.97592101010956,-0.829101558608566,-0.79534656,-0.44593164,-0.13683382,136.46535,-93.91035,-2.6906202,CSI
2449782941000,1.175105,0.26436374135259,9.9662984748506,-0.93495006439741,-0.82344633,-0.50701815,-0.13713925,136.06374,-93.73504,-2.6931906,CSI
2449787978000,1.180142,0.41812403084863,9.95064547842384,-1.04403760479577,-0.8374963,-0.54825157,-0.15118915,135.65637,-93.55129,-2.6768587,CSI
2449792919000,1.185083,0.550007863721288,9.92335909678039,-1.1577305608938,-0.8481864,-0.57818395,-0.15027285,135.26369,-93.37296,-2.6581342,CSI
2449797920000,1.190084,0.668406569994064,9.88065205253785,-1.2656053178688,-0.84940815,-0.602924,-0.15760323,134.87323,-93.198685,-2.6120317,CSI
2449802953000,1.195117,0.739941235899871,9.79004161947165,-1.35144697472049,-0.8344419,-0.63194007,-0.15332718,134.49329,-93.03423,-2.5645323,CSI
2449807956000,1.20012,0.800072111262756,9.70486758597997,-1.44335320088698,-0.8228355,-0.63407815,-0.16157386,134.09776,-92.87395,-2.496305,CSI
2449813703000,1.205867,0.826318131330472,9.6261295751073,-1.57458327381974,-0.8179486,-0.6261369,-0.17531833,133.7086,-92.725555,-2.4310746,CSI
2449817915000,1.210079,0.840955982231337,9.56839294134537,-1.66520167748154,-0.8378017,-0.6239988,-0.1826487,133.3278,-92.581024,-2.352508,CSI
2449822947000,1.215111,0.826131169466776,9.49921068129614,-1.73438409232978,-0.8313876,-0.6224717,-0.20372356,132.94579,-92.45641,-2.2842736,CSI
2449827919000,1.220083,0.817757429811627,9.43452847769266,-1.7998121878594,-0.8197812,-0.6392705,-0.20616703,132.57796,-92.340294,-2.209846,CSI
2449832938000,1.225102,0.839418538127084,9.38687398873366,-1.85179884962596,-0.8017606,-0.61727935,-0.2312125,132.19948,-92.24453,-2.150108,CSI
2449838351000,1.230515,0.861333032517061,9.3379665695002,-1.90481865217784,-0.7901542,-0.6081163,-0.25442538,131.8371,-92.16217,-2.094194,CSI
2449842946000,1.23511,0.848083716178242,9.35121593195504,-1.88273641216379,-0.7690793,-0.61208695,-0.2706133,131.47318,-92.09254,-2.0453963,CSI
2449848322000,1.240486,0.831688403974503,9.37003870359955,-1.85621997971504,-0.72051555,-0.5821546,-0.2855795,131.10188,-92.03317,-1.99871,CSI
2449852948000,1.245112,0.798465805830521,9.45724777980877,-1.81884456222347,-0.6979135,-0.5647449,-0.29840767,130.73637,-91.981285,-1.9578227,CSI
2449857845000,1.250009,0.763296963826397,9.54956573186164,-1.77927962070679,-0.68325275,-0.559858,-0.31978795,130.3672,-91.94341,-1.9280992,CSI
2449862948000,1.255112,0.749283247051305,9.71656136151178,-1.8227004467044,-0.6771441,-0.5500842,-0.3390302,129.9926,-91.9121,-1.9027759,CSI
2449867973000,1.260137,0.740496790962206,9.89668380308563,-1.88420573107541,-0.6969972,-0.52442783,-0.35002577,129.61296,-91.88701,-1.8823818,CSI
2449872943000,1.265107,0.721880619522557,10.0872539291928,-1.89646447927372,-0.70157874,-0.5225952,-0.3652974,129.24069,-91.8785,-1.8770515,CSI
2449877935000,1.270099,0.697701282277969,10.2855251005462,-1.88195682643132,-0.68691796,-0.516792,-0.37690386,128.86075,-91.87479,-1.8747108,CSI
2449883738000,1.275902,0.6145756638751,10.4629879071257,-1.80998962229784,-0.68019843,-0.5311473,-0.3820962,128.4926,-88.12366,-1.8761358,CSI
2449887957000,1.280121,0.537745545796637,10.5762109705765,-1.74124690329263,-0.6908886,-0.5500842,-0.37201694,128.12503,-88.1212,-1.8774065,CSI
2449892940000,1.285104,0.390170798521823,10.6361263505335,-1.71115892989331,-0.6976081,-0.56199604,-0.36713,127.796486,-88.1178,-1.8791153,CSI
2449897921000,1.290085,0.214353267402522,10.6592602209505,-1.70653215580989,-0.6942484,-0.5439755,-0.3585779,127.46537,-88.11668,-1.8779073,CSI
2449902830000,1.294994,0.163773088525098,10.6541908760587,-1.69317390084693,-0.72784597,-0.53023106,-0.35369098,127.14574,-88.09476,-1.8940862,CSI
2449907838000,1.300002,0.198448212590374,10.6294229487709,-1.67335955901673,-0.752586,-0.5158757,-0.34697145,126.82125,-88.07379,-1.907932,CSI
2449912827000,1.304991,0.260928992580415,10.5892794959283,-1.59100552465391,-0.77274454,-0.50488013,-0.34483343,126.51607,-88.01549,-1.9568607,CSI
2449917834000,1.309998,0.339025201087134,10.5404694006515,-1.47386119405537,-0.77457714,-0.50426924,-0.3399465,126.210144,-87.958244,-2.002872,CSI
2449922828000,1.314992,0.403998799177641,10.5064124232117,-1.39644088979631,-0.7632761,-0.51251596,-0.34208453,125.91074,-87.905525,-2.0419707,CSI
2449927819000,1.319983,0.462868715197537,10.4792416178115,-1.33757101633349,-0.75808376,-0.5140431,-0.35705075,125.60971,-87.84867,-2.0833066,CSI
2449932852000,1.325016,0.519855039000729,10.507461764859,-1.37775631175185,-0.7528914,-0.50640726,-0.36896262,125.30389,-87.79905,-2.1099315,CSI
2449937831000,1.329995,0.574451917038618,10.5769485375247,-1.49191332284792,-0.7495316,-0.48716503,-0.39095375,124.99571,-87.74061,-2.1437638,CSI
2449942828000,1.334992,0.664195089280633,10.6780826205534,-1.63334515505929,-0.74464476,-0.4615087,-0.4202753,124.67538,-87.68377,-2.1702595,CSI
2449947857000,1.340021,0.773653619822134,10.7970592193676,-1.7903944145751,-0.76083267,-0.45356745,-0.44806966,124.35537,-87.61747,-2.202592,CSI
2449953119000,1.345283,0.899204817020536,10.8664977964671,-1.89091182258093,-0.7693848,-0.44257188,-0.46700647,124.02864,-87.56622,-2.2284074,CSI
2449957907000,1.350071,1.01890658356422,10.9024082131048,-1.95076269752001,-0.7858781,-0.44501534,-0.46914452,123.704414,-87.5085,-2.257413,CSI
2449962892000,1.355056,1.10309165522794,10.9201006158198,-2.02187637560657,-0.7733554,-0.41355577,-0.46822822,123.361496,-87.483284,-2.2681415,CSI
2449967923000,1.360087,1.10833383570885,10.8991320033729,-2.11099355325862,-0.7715228,-0.40439278,-0.4578435,123.026764,-87.455826,-2.277392,CSI
2449972905000,1.365069,1.06816731011558,10.8650833040601,-2.23789156058481,-0.7641924,-0.3652974,-0.45753807,122.66191,-87.45847,-2.2625742,CSI
2449977893000,1.370057,0.98322765197076,10.8178946461523,-2.40305191253581,-0.766025,-0.3109304,-0.44868052,122.29144,-87.46345,-2.2439916,CSI
2449983012000,1.375176,0.907680712422015,10.7835698756209,-2.52556167657461,-0.768163,-0.24953845,-0.44073927,121.92591,-87.478836,-2.2243793,CSI
2449987925000,1.380089,0.84691565367276,10.764873045599,-2.59567530163918,-0.7360926,-0.204029,-0.4343252,121.550766,-87.499016,-2.2043862,CSI
2449992907000,1.385071,0.824629401029258,10.7823160750977,-2.54457492118555,-0.7324274,-0.11056661,-0.42119157,121.16156,-87.520256,-2.1972346,CSI
2449997947000,1.390111,0.847629073344134,10.842114981035,-2.3513776430001,-0.72265357,-0.015271631,-0.39584067,120.760185,-87.54956,-2.1860287,CSI
2450002904000,1.395068,0.845794757379734,10.9293965114637,-2.11678013675537,-0.6939429,0.025350908,-0.34422258,120.36558,-87.58798,-2.1746702,CSI
2450007913000,1.400077,0.801605226079836,11.0668753609007,-1.80254321338792,-0.67164636,0.07452556,-0.3145956,119.94292,-87.62517,-2.1636643,CSI
2450012879000,1.405043,0.684635730866894,11.1872529869332,-1.44959230920527,-0.6762278,0.09040806,-0.29535335,119.513695,-87.660484,-2.1360986,CSI
2450017920000,1.410084,0.458669757392491,11.2861131169186,-1.03061378479766,-0.68569624,0.11026118,-0.26206118,119.070885,-87.70772,-2.0974233,CSI
2450022853000,1.415017,0.260416084376451,11.3828686351575,-0.749786118573798,-0.7351763,0.027794369,-0.18906279,118.65478,-87.733475,-2.0491776,CSI
2450027900000,1.420064,0.100103834637987,11.4818850541411,-0.702635489757097,-0.7812967,-0.03176499,-0.0983493,118.22791,-87.76886,-1.9877307,CSI
2450032926000,1.42509,-0.0956162348078779,11.5985825258493,-0.621423029914328,-0.8344419,-0.062002823,-0.050396383,117.82855,-87.723015,-1.9618483,CSI
2450037915000,1.430079,-0.368502887912457,11.7538458064993,-0.466159926127031,-0.8558222,-0.08277224,0.02076942,117.44414,-87.693954,-1.9041666,CSI
2450042899000,1.435063,-0.626027898740818,11.8853606555375,-0.328926733534294,-0.8741482,-0.11575896,0.112704635,117.086655,-87.63429,-1.8566556,CSI
2450047924000,1.440088,-0.846377576075551,11.9565150006677,-0.237114360787942,-0.88300574,-0.22449298,0.18570304,116.75731,-87.57335,-1.794596,CSI
2450052908000,1.445072,-1.06492937544596,12.027088782982,-0.146051103918726,-0.8744536,-0.28771752,0.24740042,116.45164,-87.46408,-1.7598702,CSI
2450057911000,1.450075,-1.28431433777545,12.0979316066012,-0.0546406957893733,-0.86529064,-0.33108896,0.27885997,116.17125,-87.35247,-1.7129251,CSI
2450062909000,1.455073,-1.4984230579688,12.1345079461609,0.0283056305016825,-0.86132,-0.45356745,0.3200934,115.93135,-87.24626,-1.6443546,CSI
2450068754000,1.460918,-1.68678064148058,11.7577936135413,0.0225978267829102,-0.86926126,-0.57910025,0.32650748,115.70479,-87.12998,-1.5773498,CSI
2450072911000,1.465075,-1.81872096853518,11.4910570055866,0.0505745365622574,-0.86926126,-0.70921457,0.31978795,115.540985,-86.94441,-1.5826362,CSI
2450077893000,1.470057,-1.96328807939589,11.1793341005587,0.299049197205378,-0.89888823,-0.86620694,0.32925636,115.420235,-86.75175,-1.5784532,CSI
2450083257000,1.475421,-2.11288249910652,10.8493273347054,0.561837741366329,-0.9245446,-1.0100657,0.3145956,115.346535,-86.54173,-1.6087976,CSI
2450087913000,1.480077,-2.18002874064853,10.6210300199779,0.740894502334103,-0.9428705,-1.0699304,0.30543262,115.29292,-86.32928,-1.6323373,CSI
2450093197000,1.485361,-2.25155455184659,10.3681945980114,0.941009680903764,-0.95478237,-1.176221,0.3463606,115.30273,-86.06019,-1.6695361,CSI
2450097938000,1.490102,-2.26364713231534,10.2109907151989,1.08612075175337,-0.97219205,-1.3154984,0.32253686,115.33929,-85.77848,-1.7238274,CSI
2450102854000,1.495018,-2.27618607464489,10.047984115767,1.23658816881658,-0.97524637,-1.4269812,0.30848694,115.405365,-85.46731,-1.7731217,CSI
2450107906000,1.50007,-2.23686724309167,9.90009998411572,1.3879035598101,-0.96577793,-1.5204436,0.30543262,115.504776,-85.15658,-1.8210832,CSI
2450112873000,1.505037,-2.18199249353093,9.76080271922975,1.53564335831928,-0.977079,-1.6303993,0.30970868,115.639175,-84.84217,-1.8654255,CSI
2450117968000,1.510132,-2.0509758813094,9.77690268785639,1.55034641936642,-0.96974856,-1.7146988,0.28160888,115.799995,-84.503204,-1.9179507,CSI
2450122913000,1.515077,-1.85594576013728,9.93692696082366,1.44032941186906,-0.97097033,-1.7314975,0.2742785,115.97023,-84.165306,-1.959442,CSI
2450127895000,1.520059,-1.74901612815351,10.0245886179096,1.38941283757438,-0.99173975,-1.7137824,0.3042109,116.15538,-83.80182,-1.981949,CSI
2450132928000,1.525092,-1.69643769879016,10.0676071921856,1.3750733294526,-1.0024298,-1.7183639,0.27275133,116.35128,-83.43812,-2.0200796,CSI
2450138732000,1.530896,-1.56028197921415,10.203651097446,1.3586403551277,-1.0430524,-1.7015651,0.26908615,116.52995,-83.10399,-2.0015347,CSI
2450142909000,1.535073,-1.43453794870334,10.3333252007859,1.34685185996071,-1.0977248,-1.6380352,0.31948254,116.69322,-82.76785,-1.9759915,CSI
2450147921000,1.540085,-1.48540455893562,10.4489379883491,1.40275733788013,-1.1322387,-1.63437,0.26847526,116.87481,-82.430466,-1.963256,CSI
2450152951000,1.545115,-1.68992347491114,10.5345502968009,1.51215117146031,-1.1652255,-1.6362026,0.19028452,117.0367,-82.084076,-1.9443576,CSI
2450157937000,1.550101,-1.89265335861967,10.6194137103081,1.62058808085012,-1.1844677,-1.5671748,0.23396139,117.17051,-81.75593,-1.8739401,CSI
2450162952000,1.555116,-2.09656237723144,10.7047707136651,1.72965569027449,-1.201572,-1.5445728,0.30665436,117.31726,-81.4191,-1.8142511,CSI
2450167950000,1.560114,-2.42888207386704,10.5570440840487,1.94684308175284,-1.20371,-1.5775595,0.19486602,117.47161,-81.07932,-1.7909417,CSI
2450172952000,1.565116,-2.87836300217608,10.1984157130166,2.26243607821921,-1.1499538,-1.5787812,0.11178834,117.60419,-80.76089,-1.7405093,CSI
2450177946000,1.57011,-3.23034432911722,9.71918726092619,2.6970431883261,-1.0818423,-1.5833627,0.08124508,117.75899,-80.40007,-1.7795194,CSI
2450182966000,1.57513,-3.4947251354848,9.12548980506512,3.24435782990835,-1.0125091,-1.6001616,0.05955936,117.919464,-80.05656,-1.8352917,CSI
2450187964000,1.580128,-3.55802446592179,8.73527816759777,3.50832130055866,-0.9822713,-1.575116,0.040927973,118.081436,-79.64222,-1.9839344,CSI
2450192946000,1.58511,-3.37871193732859,8.58989030106653,3.43078083518537,-0.9447031,-1.5610662,-0.0018325958,118.25316,-79.25196,-2.1387331,CSI
2450197953000,1.590117,-3.22170234544562,8.37171175064782,3.40823023070279,-0.9285152,-1.5393804,-0.053450707,118.42171,-78.73474,-2.3529532,CSI
2450202947000,1.595111,-3.09025906939537,8.07596401189635,3.44578542442089,-0.94134337,-1.4184291,-0.071776666,118.55989,-78.224556,-2.5695124,CSI
2450207874000,1.600038,-2.89330560887656,7.80728152256786,3.47894055890628,-0.95111716,-1.294118,-0.08674286,118.70053,-77.73974,-2.75995,CSI
2450212947000,1.605111,-2.59970837239945,7.56181476308698,3.50781896572221,-0.9431759,-1.2021828,-0.11026118,118.81851,-77.25976,-2.9576652,CSI
2450217915000,1.610079,-2.27761230251346,7.33663325798923,3.50837797199282,-0.92149025,-1.1016954,-0.09743301,118.905136,-76.77602,-3.12732,CSI
2450222945000,1.615109,-1.90285021095153,7.13003370901656,3.4699408652703,-0.90469146,-1.0228939,-0.10445796,118.97545,-76.29535,-3.3090491,CSI
2450227883000,1.620047,-1.5669735984056,6.92742950019444,3.43259715263465,-0.8979719,-0.9257663,-0.118202426,119.01656,-75.82349,-3.4343503,CSI
2450232985000,1.625149,-1.26770910709703,6.7184194186467,3.39459533766284,-0.89949906,-0.8524625,-0.10170906,119.041084,-75.36064,-3.5537045,CSI
2450237910000,1.630074,-1.01449233752507,6.50592657005616,3.3845733618933,-0.88147855,-0.79259765,-0.06566802,119.03662,-74.92779,-3.596716,CSI
2450242945000,1.635109,-0.821073862745688,6.26898887155034,3.42325702655435,-0.86162543,-0.7516697,-0.027794369,119.01563,-74.50064,-3.6363983,CSI
2450247912000,1.640076,-0.569794235787846,6.07087714503376,3.4963525725022,-0.84574294,-0.74372846,-0.027794369,119.000384359128,-74.3012995210958,-3.61704731096781,CSI
2450252947000,1.645111,-0.206463173115863,5.93403822190038,3.63319154490655,-0.8402451,-0.7703011,0.015882496,118.98493,-74.09923,-3.5974314,CSI
2450257850000,1.650014,0.213139956470617,5.87262255255171,3.77153363612991,-0.83199847,-0.83016586,0.047647487,118.95174,-73.70426,-3.5499558,CSI
2450262939000,1.655103,0.801971035409047,5.97625679605645,3.92698502598105,-0.80756384,-0.91782504,0.08246681,118.91505,-73.31593,-3.4412005,CSI
2450267898000,1.660062,1.31327728284147,6.06568848903978,4.04545753905284,-0.7809912,-0.977079,0.12950343,118.84383,-72.91887,-3.2263408,CSI
2450272947000,1.665111,1.63740053442152,6.12041077911552,4.06229505519283,-0.7684685,-1.0790935,0.14935656,118.806274,-72.52344,-2.998859,CSI
2450278375000,1.670539,1.96767909986772,6.18236737638889,4.08027054794974,-0.81092364,-1.1172725,0.1994475,118.66156,-72.12384,-2.5893557,CSI
2450282949000,1.675113,1.85179466634543,6.30239040694444,4.09268677121126,-0.89736104,-1.0995574,0.25473082,118.52617,-71.707596,-2.1726553,CSI
2450287935000,1.680099,1.72547201974679,6.43322443194444,4.10622137750378,-0.9462303,-1.10139,0.3213151,118.32475,-71.29845,-1.6278598,CSI
2450292935000,1.685099,1.71254751207321,6.93126083274624,3.82097904484896,-1.0537425,-1.103528,0.32589662,118.11994,-70.83472,-1.0933149,CSI
2450297929000,1.690093,1.72195940604152,7.50068095835875,3.47744471844928,-1.1236867,-0.95814216,0.37140608,117.86637,-70.357834,-0.5509589,CSI
2450302955000,1.695119,1.6012664131193,7.53696214324217,3.22550495969084,-1.1704178,-0.8063421,0.44226643,117.677345,-69.860825,-0.046768013,CSI
2450307839000,1.700003,1.45295691977804,7.444268449782,3.0030406470868,-1.1878275,-0.6731735,0.48655418,117.45144,-69.34597,0.4428773,CSI
2450312953000,1.705117,1.28464640388672,7.42571177089844,3.20035187810547,-1.1517864,-0.6010914,0.48502702,117.24974,-68.95019,0.9214049,CSI
2450317853000,1.710017,1.11967091658203,7.43029451503906,3.51197221111328,-1.0641272,-0.51893,0.4550946,117.00826,-68.560524,1.3806157,CSI
2450322944000,1.715108,1.02362225680582,7.55405236711841,3.93674304594915,-1.0015136,-0.46303585,0.44959682,116.78975,-68.21753,1.7995844,CSI
2450327928000,1.720092,0.957519621095064,7.71930896872094,4.39001800165199,-0.9654725,-0.41691554,0.47678033,116.552025,-67.88971,2.204516,CSI
2450332904000,1.725068,1.08073462849162,7.84466587557861,4.75387951564246,-0.9443977,-0.43249258,0.44409904,116.34052,-67.51604,2.5408006,CSI
2450337922000,1.730086,1.28208836124302,7.95493086893456,5.08467504636871,-0.9034697,-0.48197266,0.42058071,116.12181,-67.1584,2.8796604,CSI
2450342917000,1.735081,1.40595792272114,7.99031694613606,5.30168170490461,-0.86590147,-0.4896085,0.44012842,115.902016,-66.73288,3.1916554,CSI
2450348002000,1.740166,1.49980650240894,7.99500937512045,5.4753014303334,-0.8585711,-0.50946164,0.4456262,115.70193,-66.31585,3.4951563,CSI
2450352933000,1.745097,1.67362153512748,8.15332834950425,5.5691910723796,-0.8585711,-0.5693264,0.45204028,115.48811,-65.84971,3.854045,CSI
2450357955000,1.750119,1.89745376199919,8.40149029659045,5.62271642636584,-0.86559606,-0.63132924,0.46853364,115.27741,-65.38787,4.212651,CSI
2450362939000,1.755103,2.03287956235341,8.42183246326551,5.53326838264007,-0.86132,-0.6065892,0.52626044,115.04572,-64.895584,4.5969343,CSI
2450367947000,1.760111,2.12421490115265,8.32568960509171,5.36982627667636,-0.84849185,-0.636827,0.552833,114.84508,-64.41002,4.983329,CSI
2450372930000,1.765094,2.15948048391691,8.2214645120277,5.18825798704748,-0.81397796,-0.64812803,0.54550266,114.62608,-63.944283,5.416037,CSI
2450377941000,1.770105,2.16660056474777,8.11229003841741,4.9960155815727,-0.784351,-0.6918049,0.535118,114.419395,-63.484444,5.852112,CSI
2450382919000,1.775083,2.17367375620178,8.00383453459941,4.80503919074184,-0.77824235,-0.6914995,0.5571091,114.19289,-63.049244,6.314391,CSI
2450387939000,1.780103,2.18080662504451,7.8944639783185,4.61245150854599,-0.77396625,-0.68539083,0.5522222,113.98036,-62.62759,6.7610116,CSI
2450392948000,1.785112,2.0653748434593,7.80399793837209,4.52788070247093,-0.79045963,-0.6765333,0.54367006,113.76483,-62.24387,7.242952,CSI
2450397937000,1.790101,1.87555639773256,7.72529278930233,4.50936179552326,-0.8390234,-0.6792821,0.50488013,113.555664,-61.8572,7.704835,CSI
2450402944000,1.795108,1.6086492980292,7.74728768148678,4.58540686227918,-0.88086766,-0.6765333,0.47678033,113.34919,-61.4817,8.142469,CSI
2450407945000,1.800109,1.28097931476565,7.84999013352395,4.7370154991933,-0.9477574,-0.6969972,0.47861293,113.15121,-61.08929,8.571852,CSI
2450412939000,1.805103,0.847733939882632,7.65742819031463,4.69372917207811,-0.99387777,-0.68844515,0.46517387,112.97627,-60.707134,8.932887,CSI
2450417957000,1.810121,0.340579735367393,7.26402807653615,4.5183580155538,-1.0195341,-0.6420194,0.4465425,112.79762,-60.31685,9.283444,CSI
2450422942000,1.815106,0.0404972739922481,7.16957601085271,4.30273304922481,-1.0115929,-0.54336464,0.4437936,112.63325,-59.933575,9.534726,CSI
2450427942000,1.820106,-0.107028570770225,7.29806637062214,4.05527036784933,-1.0167851,-0.41813725,0.43127087,112.45421,-59.54827,9.764077,CSI
2450432969000,1.825133,-0.0828315046222058,7.27538664895622,3.94066934705339,-1.0167851,-0.38973203,0.41263947,112.320206,-59.196632,9.888355,CSI
2450438032000,1.830196,0.0784049074893774,7.13206530644744,3.93171177483835,-1.0375546,-0.3643811,0.36865717,112.160645,-58.846573,9.98451,CSI
2450442942000,1.835106,0.265162889347826,7.1877002216361,4.01927116732949,-1.0891727,-0.37293324,0.3848451,112.02217,-58.55798,10.06147,CSI
2450447964000,1.840128,0.503010268043478,7.54447146301257,4.25711854085102,-1.1682798,-0.41263947,0.42577308,111.88813,-58.262253,10.133523,CSI
2450452930000,1.845094,0.752051880251067,7.78605300360846,4.43198902518805,-1.2321151,-0.47525316,0.44532076,111.75453,-57.93616,10.253766,CSI
2450457945000,1.850109,1.02055388427119,7.8934536787965,4.53450790016263,-1.2754866,-0.56291234,0.46761733,111.63095,-57.594852,10.392333,CSI
2450462974000,1.855138,1.31553034007082,8.08935163617586,4.5803754731976,-1.31672,-0.6771441,0.43035457,111.52182,-57.231434,10.572704,CSI
2450467939000,1.860103,1.63355155562113,8.37463549645913,4.56634518505951,-1.3423764,-0.7162395,0.4972443,111.396935,-56.854046,10.782725,CSI
2450472930000,1.865094,1.8312983,8.64147211111111,4.60325177777778,-1.3946054,-0.7556403,0.548557,111.29387,-56.448414,11.053874,CSI
2450477958000,1.870122,1.87915379660107,8.88553498886901,4.70374831564301,-1.4208726,-0.82558435,0.5644395,111.20322,-56.045956,11.338062,CSI
2450482987000,1.875151,1.79357783445303,9.00441501377329,4.59453854488704,-1.4062119,-0.84391034,0.59498274,111.097694,-55.659218,11.704346,CSI
2450487977000,1.880141,1.54260886982759,8.96653264655172,4.22518806034483,-1.3839152,-0.8323039,0.6243043,110.99993,-55.27153,12.072004,CSI
2450492884000,1.885048,1.39632890916385,8.93531294741421,3.92032620593523,-1.3891076,-0.9059132,0.6041457,110.93446,-54.898792,12.441758,CSI
2450498680000,1.890844,1.39096336511358,8.90848494702755,3.6574115780377,-1.3509285,-0.88789266,0.61727935,110.83402,-54.542225,12.802009,CSI
2450502839000,1.895003,1.3839084490151,8.90000543315668,3.51819946141386,-1.3329079,-0.84757555,0.6533204,110.79063,-54.261047,13.122086,CSI
2450507946000,1.90011,1.36923730084991,8.90978640285971,3.43995333786621,-1.3451253,-0.8170323,0.68111473,110.74474,-53.98475,13.435302,CSI
2450512867000,1.905031,1.44671878356139,8.91159288575627,3.42256025253008,-1.3341297,-0.8145888,0.6976081,110.710365,-53.756603,13.756677,CSI
2450517938000,1.910102,1.70985362088346,8.8982133440169,3.52067835114336,-1.3298537,-0.8081747,0.73456544,110.660515,-53.520405,14.077464,CSI
2450522844000,1.915008,1.9439585161592,8.87301172564158,3.67299807739234,-1.3475688,-0.7788532,0.77671516,110.610916,-53.29662,14.395115,CSI
2450527941000,1.920105,2.07135214488908,8.77746625467595,4.15603210980861,-1.3732251,-0.75319684,0.81306165,110.556496,-53.07029,14.7131,CSI
2450533128000,1.925292,2.22895746498217,8.71647224180036,4.60020374798574,-1.3677273,-0.8216137,0.8332202,110.496414,-52.807384,15.107066,CSI
2450537992000,1.930156,2.42408532180927,8.72062398226382,4.93648804944742,-1.3603969,-1.0115929,0.782213,110.467026,-52.54536,15.500051,CSI
2450542918000,1.935082,2.59542762966571,8.77179037315423,5.23451169241181,-1.3151928,-1.0830641,0.754724,110.376945,-52.20318,15.899366,CSI
2450547973000,1.940137,2.48125134198113,9.34267207075472,5.07069340754717,-1.2672399,-1.1527027,0.8167268,110.3265,-51.86289,16.329264,CSI
2450552930000,1.945094,2.39752836460958,9.78128736144459,4.9352813394682,-1.2907583,-1.1756102,0.890947,110.24207,-51.44459,16.785267,CSI
2450557950000,1.950114,2.49292584670106,9.45216582160929,4.95913069753944,-1.2852604,-1.1881329,0.8793405,110.17578,-51.05472,17.234829,CSI
2450562906000,1.95507,2.61279953844501,9.09442112428209,4.97239629671811,-1.2498302,-1.212873,0.9083566,110.18137,-50.77043,17.672108,CSI
2450568495000,1.960659,2.96830688648173,8.4095466583317,4.89920365237351,-1.1826351,-1.1661417,0.88361657,110.18348,-50.5071,18.074402,CSI
2450572944000,1.965108,3.23048306480826,7.89735705345701,4.86342620394951,-1.1829406,-1.1282681,0.8368854,110.171814,-50.182953,18.51435,CSI
2450577934000,1.970098,3.27161293819451,7.72369780013388,5.09649508881132,-1.1801916,-1.0635164,0.8200866,110.140785,-49.879242,18.933214,CSI
2450583237000,1.975401,3.30562734639951,7.54736022577521,5.34599416958896,-1.1817188,-0.95325524,0.78893244,110.03348,-49.480083,19.426281,CSI
2450587981000,1.980145,3.12777313941486,7.56608170066962,5.60809501359843,-1.2275337,-0.8857546,0.7858781,109.91873,-49.074192,19.907057,CSI
2450593131000,1.985295,2.9331027966426,7.58965897368231,5.89058498495487,-1.3069462,-0.84116143,0.7742717,109.77088,-48.611256,20.370378,CSI
2450597938000,1.990102,2.73367008476534,7.64782697090253,6.13156609893502,-1.3710871,-0.7309003,0.77824235,109.58819,-48.145855,20.803713,CSI
2450602906000,1.99507,2.52755780837545,7.70794317855596,6.38061835070397,-1.427592,-0.59712076,0.78954333,109.384575,-47.65509,21.156693,CSI
2450607960000,2.000124,2.33789935156474,7.58204288395062,6.69976417330845,-1.452943,-0.47036624,0.7965683,109.15657,-47.164753,21.483995,CSI
2450612929000,2.005093,2.15573021912145,7.41809042222222,7.02766890654608,-1.4352279,-0.3827071,0.76144356,108.91288,-46.684563,21.780645,CSI
2450617930000,2.010094,2.40766838748001,7.53278944351425,7.50227267278713,-1.3622295,-0.30573806,0.75900006,108.64794,-46.21084,21.99785,CSI
2450622926000,2.01509,2.81722163202897,7.74881768657699,8.02884068697206,-1.2293663,-0.36957347,0.8503244,108.386375,-45.755264,22.233192,CSI
2450627913000,2.020077,3.03645901542553,7.871574825,8.2505710212766,-1.1801916,-0.48655418,0.8671232,108.105316,-45.26407,22.397615,CSI
2450632891000,2.025055,3.13215017417704,7.93377399575472,8.27449379847451,-1.142318,-0.63804877,0.8857546,107.83163,-44.79622,22.59731,CSI
2450637862000,2.030026,3.35566867035721,7.79680838810548,8.41315171180101,-1.1148291,-0.73456544,0.90285885,107.530174,-44.27338,22.856508,CSI
2450642915000,2.035079,3.66790182814662,7.52530139914906,8.63035794557696,-1.105666,-0.87689704,0.852157,107.28717,-43.773533,23.136194,CSI
2450647882000,2.040046,3.79496691032127,7.36226454584267,8.58629900576369,-1.1545353,-0.82833326,0.9450085,106.996445,-43.251785,23.442913,CSI
2450652899000,2.045063,3.71804268282634,7.31611018070232,8.24783223342939,-1.2247849,-0.7089091,0.9837985,106.74468,-42.75312,23.733444,CSI
2450657913000,2.050077,3.68149057874866,7.30310696298531,7.98042455885959,-1.2284501,-0.5332854,1.0180069,106.40348,-42.161594,24.08717,CSI
2450662900000,2.055064,3.67219613453342,7.31240131014888,7.76200521685317,-1.2360858,-0.28038713,1.0598512,106.00865,-41.557724,24.402885,CSI
2450667950000,2.060114,3.57767512416222,7.21316763642951,7.59774536105464,-1.2406673,-0.16340645,1.0134255,105.65677,-41.01139,24.70161,CSI
2450672913000,2.065077,3.41504969577337,7.02662666126598,7.4829507764919,-1.2348641,0.07422013,0.9779953,105.21159,-40.468273,24.929737,CSI
2450677890000,2.070054,3.66207675852432,6.87185146486864,7.88666085159307,-1.2281445,0.24984388,0.9502009,104.795784,-39.96947,25.145006,CSI
2450682923000,2.075087,4.24583001842743,6.74162959968325,8.7173867130613,-1.1899655,0.30451632,1.0329732,104.34134,-39.476997,25.345991,CSI
2450687910000,2.080074,4.79107672950771,6.6212398688022,9.3763372610789,-1.237613,0.3145956,1.0613784,103.883606,-38.98406,25.487331,CSI
2450692909000,2.085073,5.28972007806819,6.51304361909207,9.79971380495234,-1.2483032,0.2706133,1.0842859,103.413506,-38.5054,25.63923,CSI
2450697889000,2.090053,5.7442242771774,6.26936858024824,10.1881106533811,-1.2421945,0.14752395,1.1129965,102.85272,-37.86631,25.88033,CSI
2450702917000,2.095081,6.13063705205435,5.7902167501605,10.5230017608068,-1.2195925,0.01985312,1.1178834,102.30984,-37.242817,26.12299,CSI
2450707844000,2.100008,6.50269411161639,5.6772931907249,10.8210433917605,-1.2027937,-0.08155051,1.14018,101.72526,-36.53228,26.465252,CSI
2450712896000,2.10506,6.87737713601981,5.92998622395317,11.095520758172,-1.1704178,-0.19150625,1.2403619,101.15628,-35.83462,26.839197,CSI
2450717850000,2.110014,7.29163941423358,6.17972659103812,11.3305224355231,-1.1945469,-0.3277292,1.3582588,100.529495,-35.014946,27.314032,CSI
2450722912000,2.115076,7.84207649087591,6.44020138722628,11.4779608832117,-1.276403,-0.4541783,1.4822645,99.90217,-34.191864,27.812363,CSI
2450727921000,2.120085,8.17338860515014,6.77498234332278,11.4772598874155,-1.3426818,-0.5549711,1.5790867,99.27693,-33.363758,28.376032,CSI
2450732908000,2.125072,8.03446970238686,7.27754245795192,11.1544773896826,-1.3918564,-0.6230826,1.668273,98.644646,-32.522823,28.958467,CSI
2450738260000,2.130424,7.89091403252423,7.78877524413475,10.8169200697739,-1.4388931,-0.64996064,1.751656,98.00924,-31.669529,29.624413,CSI
2450742912000,2.135076,7.88269036131057,7.64075045033687,10.7100133744347,-1.498147,-0.63224554,1.815186,97.36278,-30.812517,30.27905,CSI
2450748200000,2.140364,7.87334238766959,7.47248838894324,10.5884908884172,-1.4703526,-0.6230826,1.8435913,96.819145,-30.10548,30.894869,CSI
2450752916000,2.14508,7.79855226190715,6.92018450478291,10.3055728602226,-1.4602734,-0.602924,1.9624046,96.22963,-29.37002,31.506254,CSI
2450757851000,2.150015,7.70851238774692,6.27094861217287,9.97858519352251,-1.4709635,-0.5488624,2.0625865,95.63041,-28.649256,32.086357,CSI
2450762903000,2.155067,7.55069325765976,6.16135211882113,9.64433875663846,-1.4483615,-0.4981606,2.0882428,95.00758,-27.927006,32.669353,CSI
2450767855000,2.160019,7.38001904464546,6.18902889065266,9.31682857202607,-1.3720033,-0.47891834,2.1230621,94.35202,-27.210033,33.24252,CSI
2450772911000,2.165075,7.03991173855601,6.17601756676591,8.99664881075549,-1.3536774,-0.47983465,2.1679606,93.61602,-26.41495,33.84365,CSI
2450777891000,2.170055,6.64942608355043,6.14939365645701,8.68603590602903,-1.323745,-0.49693888,2.1713204,92.88433,-25.655449,34.420834,CSI
2450782916000,2.17508,6.61571711861088,6.1327507045033,8.71122917075433,-1.2654073,-0.4886922,2.1337523,92.17994,-24.951105,34.97278,CSI
2450787943000,2.180107,6.8191225723413,6.12282823328524,8.95928395774938,-1.210735,-0.41874814,2.1832323,91.44356,-24.248623,35.50715,CSI
2450792909000,2.185073,6.84297732616295,5.97994013570852,9.00345800170297,-1.1798862,-0.7290677,2.121535,90.843,-23.62103,36.072834,CSI
2450797900000,2.190064,6.77871568486152,5.77001872938962,8.94776475817872,-1.273654,-1.1404854,2.0766363,90.22952,-22.976484,36.641117,CSI
2450802911000,2.195075,6.64538025463699,5.81073641918389,8.75119141282459,-1.3588698,-1.5567901,2.055867,89.660385,-22.333094,37.27986,CSI
2450807907000,2.200071,6.42225232861685,6.18092598696343,8.37085946200318,-1.4358387,-1.9620992,2.1035144,89.150566,-21.676601,38.004063,CSI
2450812893000,2.205057,6.26217334231975,6.40285341167712,8.02982171238245,-1.493871,-2.2821925,2.1465805,88.66379,-20.986403,38.80106,CSI
2450817920000,2.210084,6.15370143757837,6.50189274777625,7.71855497423589,-1.5598444,-2.5448647,2.1817052,88.21584,-20.280933,39.669468,CSI
2450823380000,2.215544,6.11458086320419,6.52788758076695,7.29106852473809,-1.6517797,-2.730873,2.234545,87.867615,-19.635561,40.578472,CSI
2450827884000,2.220048,6.13589642825657,6.49378289035382,6.87754910896422,-1.7244726,-2.8756483,2.3157902,87.52743,-18.977081,41.529816,CSI
2450832908000,2.225072,6.2019288247365,6.31091996082455,6.3750671889376,-1.7696766,-2.8964176,2.4055874,87.205536,-18.33281,42.501556,CSI
2450837918000,2.230082,6.31381150359108,5.97079638345304,5.82907920208936,-1.7458528,-2.8032606,2.5076017,86.84765,-17.678026,43.469078,CSI
2450842908000,2.235072,6.44169267913406,5.53350398170546,5.35552568954162,-1.670411,-2.6050348,2.5894578,86.45989,-17.02519,44.46209,CSI
2450847911000,2.240075,6.60239225276959,4.90044574865332,5.01951792464681,-1.5164729,-2.349693,2.6395488,86.01383,-16.387426,45.39948,CSI
2450852890000,2.245054,6.7914030984651,4.33593495362487,4.79238891495318,-1.3368785,-2.0958786,2.6648996,85.44139,-15.712855,46.368343,CSI
2450857941000,2.250105,7.03422264610484,3.87831367099141,4.75036258606043,-1.1255192,-1.8536706,2.638327,84.82451,-15.085123,47.24655,CSI
2450862880000,2.255044,7.31046826896482,3.46374553154213,4.77501466389537,-0.91721416,-1.7574593,2.617863,83.95897,-14.354418,48.20595,CSI
2450867922000,2.260086,7.68743672434351,3.12104672661462,4.96105081476224,-0.8188649,-1.6517797,2.6111436,83.06102,-13.6609335,49.064587,CSI
2450872888000,2.265052,7.99820537468012,2.82437099096949,5.09784421582185,-0.6273586,-1.6181821,2.6203065,81.88513,-12.891444,49.99201,CSI
2450877902000,2.270066,8.18331471229495,2.61169238491634,5.13722940789862,-0.4529566,-1.6667458,2.649017,80.72494,-12.15807,50.870453,CSI
2450883059000,2.275223,8.37370339479987,2.39294815447835,5.17773787130906,-0.30268374,-1.7253889,2.6612344,79.33736,-11.351776,51.782673,CSI
2450887978000,2.280142,8.42865333285932,2.30505624337227,4.93608076044693,-0.17531833,-1.7223345,2.6902506,77.97654,-10.595842,52.640747,CSI
2450893554000,2.285718,8.46900093238979,2.21722540881706,4.6330577200918,-0.06352998,-1.6963727,2.7256808,61.449036,-9.889585,53.460026,CSI
2450897920000,2.290084,8.34504736578369,2.12925833730515,4.40914166711294,0.03023783,-1.6316211,2.7559185,60.98266,-9.163985,54.272346,CSI
2450902858000,2.295022,8.20485434885723,2.02976649142201,4.15588984173281,0.093462385,-1.529912,2.7889054,60.49607,-8.45343,55.090313,CSI
2450907909000,2.300073,8.12475449041693,2.0470218146789,3.68133085748024,0.14385876,-1.3884968,2.8255572,59.998787,-7.7749767,55.83372,CSI
2450912900000,2.305064,8.05962894477246,2.09043893577982,3.16466783268235,0.19547687,-1.2180653,2.8866436,59.49254,-7.118247,56.50099,CSI
2450917897000,2.310061,8.05903694796151,2.19575162924791,2.99441204201064,0.22327125,-1.042747,2.9449813,58.979206,-6.454701,57.143726,CSI
2450922932000,2.315096,8.09811040947075,2.33983537715877,3.03592775264624,0.25350907,-0.9086621,2.9321532,58.46682,-5.825198,57.710476,CSI
2450927892000,2.320056,8.13660184325146,2.48177289247911,3.07682505646999,0.2846632,-0.80878556,2.8970284,57.939312,-5.225492,58.29441,CSI
2450932998000,2.325162,8.17622629101038,2.62788840724234,3.11892619222082,0.321926,-0.7443393,2.8747318,57.41725,-4.6518545,58.81569,CSI
2450937999000,2.330163,8.17518403392735,2.61674123359444,3.28744037423871,0.38545597,-0.68508536,2.8921416,56.888733,-4.079472,59.321075,CSI
2450942923000,2.335087,8.15671481528444,2.5382475726525,3.50906940692255,0.47219884,-0.65179324,2.9739974,56.353893,-3.523761,59.784985,CSI
2450947910000,2.340074,7.91821055028705,2.17129803399957,3.77791071226876,0.5699373,-0.657291,3.0558534,55.80179,-3.019328,60.240906,CSI
2450952939000,2.345103,7.5495475311078,1.63366409010206,4.07488925549649,0.6621779,-0.62980205,3.1514537,55.22898,-2.5157177,60.6559,CSI
2450957907000,2.350071,7.31837383722585,1.19834782344398,4.14320807669433,0.74464476,-0.6597345,3.082426,54.6552,-2.0254087,61.04517,CSI
2450963150000,2.355314,7.11994975174867,0.771736226141079,4.13824753153527,0.82924956,-0.72601336,2.9119947,54.06762,-1.5605922,61.416477,CSI
2450967903000,2.360067,7.31298131470183,0.399820855353277,4.01761169760874,0.926988,-0.73731434,2.8399124,53.46872,-1.0032165,61.700813,CSI
2450972911000,2.365075,7.63863437512301,0.0128130532040936,3.85242561187758,0.9755518,-0.72204274,2.7672195,52.889248,-0.50318307,61.97445,CSI
2450977889000,2.370053,7.76383729641986,-0.498448926295971,3.77621503628914,1.0491611,-0.6612616,2.7601945,52.29298,0.05308082,62.205235,CSI
2450983045000,2.375209,7.80237244873671,-1.08611041156765,3.73767978337723,1.108415,-0.5687156,2.8060095,51.696766,0.59022576,62.40166,CSI
2450987926000,2.38009,7.70591054915834,-1.44662195856513,3.59988099974795,1.1386528,-0.48288897,2.850908,51.115868,1.1837506,62.612293,CSI
2450992911000,2.385075,7.53830999384283,-1.71306390383473,3.40649566767486,1.1572843,-0.42149702,2.7821858,50.542248,1.740424,62.78003,CSI
2450997901000,2.390065,7.31830342406761,-1.90916721159215,3.1430212321265,1.1194105,-0.36193767,2.685058,49.97949,2.3969088,62.88133,CSI
2451002930000,2.395094,7.02418573184297,-2.0089571046892,2.78062644667394,1.0867293,-0.26542094,2.6019804,49.425846,3.0221782,62.93099,CSI
2451007910000,2.400074,6.76319951536675,-2.03581370857364,2.64724489142636,1.0574077,-0.11942416,2.5402832,48.868862,3.6759589,62.921734,CSI
2451012900000,2.405064,6.52273212035998,-2.01269186224115,2.67036673775885,1.044885,0.043676864,2.4578164,48.335686,4.2933874,62.8634,CSI
2451017918000,2.410082,6.23335708044852,-1.93265230303772,2.80654726289501,1.0592403,0.22479841,2.3961189,47.786068,4.909907,62.75552,CSI
2451022914000,2.415078,5.90170482670744,-1.80096680815494,3.04553201783894,1.1047498,0.37720928,2.298686,47.25369,5.4839225,62.600666,CSI
2451027890000,2.420054,5.76873911727666,-1.61481316875246,3.32601635344353,1.1438452,0.49449542,2.205529,46.72956,6.046845,62.38251,CSI
2451033045000,2.425209,5.79302503030303,-1.37681106893939,3.65144774015152,1.1890492,0.5873469,2.1297817,46.210262,6.5728383,62.12386,CSI
2451038016000,2.43018,5.74480766783648,-1.21742542908344,3.97352196120963,1.2544118,0.6747007,2.1343632,45.714375,7.0951385,61.80431,CSI
2451042908000,2.435072,5.63986134608923,-1.116852000112,4.29710607276461,1.2776246,0.67011917,2.154827,45.23366,7.59136,61.482132,CSI
2451047892000,2.440056,5.54666972722591,-1.11472061043874,4.57498566633654,1.3121386,0.5842926,2.1508565,44.67497,8.028587,61.120434,CSI
2451052917000,2.445081,5.47517806633654,-1.27676842488858,4.77039645493711,1.351234,0.47555858,2.1908681,44.10453,8.469033,60.759087,CSI
2451057911000,2.450075,5.46278772500419,-1.41004458747278,4.89842520008376,1.4019357,0.41233405,2.2000313,43.48979,8.87929,60.35571,CSI
2451062905000,2.455069,5.55252164106945,-1.49497133304855,4.91124432138908,1.4935656,0.25717425,2.189341,42.85779,9.274499,60.0043,CSI
2451067881000,2.460045,5.64193212692063,-1.57959197501591,4.92401723841257,1.534188,0.1328632,2.1655173,42.212982,9.698979,59.611534,CSI
2451072913000,2.465077,5.73234884010453,-1.66516493932053,4.93693390209066,1.6074919,0.09896017,2.1621575,41.542812,10.099031,59.23438,CSI
2451077894000,2.470058,5.82184916768184,-1.74987061006801,4.94971965363688,1.6743816,0.12217305,2.1734586,40.871754,10.482726,58.875164,CSI
2451082919000,2.475083,5.91214010244916,-1.83532453408048,4.96261834898315,1.6963727,0.18081611,2.1878138,40.20005,10.853211,58.5151,CSI
2451087989000,2.480153,5.9912988884529,-1.81754331193753,5.03945036821864,1.6887369,0.29168814,2.1749856,39.52907,11.205236,58.13699,CSI
2451092915000,2.485079,6.051160198204,-1.65177348300634,5.20522038947779,1.6465873,0.41905355,2.1774292,20.902542,11.557036,57.736965,CSI
2451097908000,2.490072,6.09417510301659,-1.46037598117647,5.30847574187029,1.5968018,0.5946773,2.1743748,19.949442,11.942523,57.293087,CSI
2451102926000,2.49509,6.10383948340875,-1.22359722352941,5.28914682971342,1.5399913,0.7367035,2.104736,19.079725,12.308484,56.834454,CSI
2451107897000,2.500061,6.07158323335536,-1.02297745889571,5.38727615637565,1.4844025,0.89644474,2.0635028,18.29763,12.642127,56.322636,CSI
2451112982000,2.505146,5.96127156148183,-0.880491391411043,5.70442239899009,1.4498887,1.0204504,1.9752327,17.61857,12.941579,55.802258,CSI
2451117856000,2.51002,5.96389249783279,-0.781303599527527,5.98339413265201,1.3646729,1.1249083,1.8891008,17.041702,13.192226,55.28025,CSI
2451122913000,2.515077,6.33696586852917,-0.806175126409203,6.1873410831553,1.244027,1.3075571,1.8826867,16.527094,13.4418335,54.71397,CSI
2451127899000,2.520063,6.63985386230145,-0.986904637274973,6.38145266498412,1.0821478,1.3680327,1.9303342,16.070154,13.672398,54.118534,CSI
2451132932000,2.525096,6.78447115693611,-1.55686667786092,6.56009751655489,0.9230174,1.3570372,1.951409,15.662791,13.903459,53.50711,CSI
2451138145000,2.530309,6.90618996204009,-2.13846304893326,6.74621941097335,0.8176431,1.271516,1.9364429,15.2671795,14.130789,52.92124,CSI
2451142905000,2.535069,6.66763724100314,-2.56051792792851,6.92972156893165,0.729984,1.1398746,1.9300288,14.860778,14.377894,52.3568,CSI
2451148468000,2.540632,6.38884127732067,-3.05377240100636,7.14418007832703,0.6588182,1.0164797,1.9028453,14.364565,14.741824,51.75933,CSI
2451152916000,2.54508,5.87615861602832,-3.35558426569038,7.32532658142903,0.63163465,0.9804387,1.8765781,13.883677,15.099262,51.184105,CSI
2451157910000,2.550074,5.09110701308872,-3.62753020237099,7.53569999674928,0.61666846,0.93126404,1.756543,13.446953,15.426977,50.66813,CSI
2451162903000,2.555067,4.5448724463578,-3.47245443533352,7.6460448102149,0.61178154,0.8854492,1.7076738,12.913636,15.882099,50.041077,CSI
2451167922000,2.560086,4.11112032469997,-3.11024909486464,7.70864806865755,0.63804877,0.8949176,1.6484199,12.458858,16.289999,49.438595,CSI
2451172909000,2.565073,3.92434075527255,-2.73603690990835,7.74534723797395,0.6420194,0.9080512,1.5800029,11.984394,16.766605,48.716164,CSI
2451177888000,2.570052,3.95654338049204,-2.34960516709117,7.75914836306802,0.6261369,0.91690874,1.5039502,11.561016,17.211685,48.011982,CSI
2451183153000,2.575317,4.07852185623434,-2.17034366930044,7.58626867797263,0.5488624,0.8924741,1.42973,11.21586,17.591139,47.292625,CSI
2451187993000,2.580157,4.27950740335325,-2.237338820582,7.23789342493737,0.42424592,0.84940815,1.3616186,10.9095745,17.954584,46.595013,CSI
2451192838000,2.585002,4.43378750476695,-2.2692365338983,6.9277338940678,0.2657264,0.84421575,1.3100005,10.691107,18.234617,45.94869,CSI
2451197902000,2.590066,4.51318350484399,-2.24121443343606,6.67086463983051,0.13652839,0.8866709,1.2647965,10.503983,18.5098,45.31804,CSI
2451202846000,2.59501,4.52719791144634,-2.18471840826216,6.48923697646677,0.028099801,0.91599244,1.2253957,10.315339,18.799057,44.77363,CSI
2451207912000,2.600076,4.38307289211846,-2.05410505805793,6.47572521328444,-0.05375614,0.9447031,1.1899655,10.157605,19.091272,44.231564,CSI
2451212882000,2.605046,4.22540630914853,-1.93840196337418,6.47999156000423,-0.118507855,0.96486163,1.1484267,10.018595,19.37991,43.741673,CSI
2451218589000,2.610753,3.93094223135432,-1.89221149733784,6.60701541696598,-0.1777618,0.9401216,1.1108584,9.895248,19.670002,43.266888,CSI
2451222882000,2.615046,3.73523845422449,-1.90214565841594,6.70858447869348,-0.22693644,0.86376345,1.0629056,9.797526,19.936382,42.801434,CSI
2451227883000,2.620047,3.58151593828,-2.04230447849523,6.84422186223921,-0.28130344,0.806953,1.0204504,9.715648,20.20289,42.347973,CSI
2451232968000,2.625132,3.44562752268519,-2.19537587328318,6.97042990925926,-0.312763,0.74067414,0.99173975,9.634181,20.467432,41.87802,CSI
2451237957000,2.630121,3.43180268032407,-2.40735693384452,7.0257292787037,-0.35827246,0.63438356,0.9456194,9.560683,20.727676,41.44653,CSI
2451242982000,2.635146,3.42046067978778,-2.62183899053568,7.06924846832107,-0.39614612,0.56016344,0.8949176,9.481154,21.014988,40.977932,CSI
2451247913000,2.640077,3.44066571179189,-2.84409451136403,6.9641823440955,-0.4297437,0.49693888,0.86742866,9.397755,21.299883,40.542316,CSI
2451252854000,2.645018,3.46091171932227,-3.06680076332364,6.85890314721889,-0.4334089,0.45265114,0.8127562,9.313065,21.606228,40.108982,CSI
2451257909000,2.650073,3.48305894396997,-3.36893825169404,6.72423152280619,-0.4266894,0.4025602,0.7901542,9.220793,21.911512,39.69811,CSI
2451262872000,2.655036,3.50536286625997,-3.69457575002346,6.58148623383388,-0.43279803,0.36987892,0.7519751,9.152323,22.199993,39.30915,CSI
2451267917000,2.660081,3.56168202416357,-4.03044723401487,6.43662871171004,-0.4175264,0.34116822,0.68019843,9.06715,22.520212,38.940437,CSI
2451272911000,2.665075,3.6407016055349,-4.36628017121024,6.29340585584469,-0.38545597,0.32589662,0.57360244,9.008327,22.817,38.59187,CSI
2451277891000,2.670055,3.73930509870427,-4.71990587042683,6.16971536871189,-0.3304781,0.3210097,0.5158757,8.925422,23.16778,38.249912,CSI
2451282953000,2.675117,3.85015373540396,-5.08940139039634,6.05424799460747,-0.28588495,0.31856623,0.40439278,8.8975725,23.475,37.93829,CSI
2451288341000,2.680505,3.96934138094961,-5.37633970676357,5.96588468292636,-0.24037547,0.27977628,0.29718593,8.861523,23.817574,37.654636,CSI
2451292906000,2.68507,4.07101131811047,-5.55849855613372,5.91081348723837,-0.21410827,0.21868975,0.20647246,8.85638,24.127161,37.393936,CSI
2451297899000,2.690063,4.19233432425785,-5.71217555682782,5.86771118456319,-0.17012598,0.15821409,0.11026118,8.853045,24.458721,37.1637,CSI
2451302920000,2.695084,4.32488467849873,-5.8192353928117,5.84222077277354,-0.119729586,0.09162979,0.022296581,8.867963,24.756248,36.96371,CSI
2451307908000,2.700072,4.36932102056314,-5.87410941994579,5.82353976643244,-0.090713486,0.023823744,-0.064446285,8.865674,25.03733,36.79158,CSI
2451312900000,2.705064,4.35732360895904,-5.89570475582212,5.80914284244128,-0.054367006,-0.05100725,-0.15699236,8.882552,25.279554,36.65324,CSI
2451317928000,2.710092,4.34523967755973,-5.91745582729372,5.79464209447902,-0.014966198,-0.1441642,-0.24281894,8.891522,25.494404,36.559097,CSI
2451322913000,2.715077,4.33325908924915,-5.93902088124875,5.78026535848223,0.032070424,-0.23304509,-0.3222314,8.915982,25.676716,36.49615,CSI
2451327899000,2.720063,4.28317169422608,-5.94451782840878,5.79356835353754,0.089491755,-0.30482176,-0.3827071,8.948161,25.829727,36.462185,CSI
2451332913000,2.725077,4.20941098351857,-5.94017888578657,5.82394022699919,0.14172074,-0.4083634,-0.44318274,8.982329,25.953592,36.469322,CSI
2451337871000,2.730035,4.14530313868413,-5.90951875334832,5.84559891113501,0.19058995,-0.48258355,-0.50488013,9.020838,26.05836,36.489212,CSI
2451342869000,2.735033,4.09383057923551,-5.83932883292599,5.85495776263564,0.24373524,-0.56230146,-0.56505036,9.056588,26.135967,36.543427,CSI
2451347898000,2.740062,4.05679605181619,-5.74684364770241,5.86854585700219,0.3032946,-0.6273586,-0.62796944,9.104712,26.192184,36.60465,CSI
2451352882000,2.745046,4.04635168175055,-5.61628902188184,5.8894344880744,0.34880406,-0.6606508,-0.68233645,9.158985,26.227455,36.68379,CSI
2451357900000,2.750064,4.05403814890012,-5.52929644946492,5.87658665725327,0.3640757,-0.72387534,-0.7058548,9.20414,26.246092,36.78488,CSI
2451362891000,2.755055,4.07771913828775,-5.48193437177963,5.83396088624653,0.39675698,-0.75228053,-0.74189585,9.268996,26.23697,36.89391,CSI
2451367879000,2.760043,4.16628091835749,-5.42991075555556,5.77944122318841,0.41813725,-0.77946407,-0.77213365,9.339823,26.2067,37.027298,CSI
2451372893000,2.765057,4.31777262810806,-5.37310133968254,5.71316358781426,0.4428773,-0.80756384,-0.79381937,9.411831,26.162916,37.169025,CSI
2451377883000,2.770047,4.48265756608842,-5.26152876237113,5.64474256417526,0.4972443,-0.8384125,-0.81122905,9.485052,26.094952,37.33141,CSI
2451382876000,2.77504,4.66277712091594,-5.09088912680412,5.57364250154639,0.5842926,-0.8897252,-0.84940815,9.559944,26.006887,37.50867,CSI
2451387886000,2.78005,4.86314350878661,-4.85009553649465,5.49607529093445,0.6606508,-0.9486737,-0.8756753,9.624716,25.888988,37.729828,CSI
2451392921000,2.785085,5.08731477029289,-4.52728906973501,5.41089039414226,0.7620544,-1.0097603,-0.8872818,9.684478,25.744595,37.963158,CSI
2451397881000,2.790045,5.31504882111328,-4.15323553776908,5.3664622800174,0.86620694,-1.0729848,-0.895223,9.745056,25.543362,38.264885,CSI
2451402832000,2.794996,5.55732911192651,-3.65836516340509,5.4077014509676,0.9642508,-1.1890492,-0.8753699,9.776333,25.328846,38.585773,CSI
2451407819000,2.799983,5.76420305566647,-3.23471129207281,5.49267265214328,1.0555751,-1.3451253,-0.84665924,9.803102,25.037956,39.01103,CSI
2451412825000,2.804989,5.92841822765708,-2.89689687823449,5.62873688835388,1.1184943,-1.5103643,-0.82650065,9.799849,24.740261,39.457455,CSI
2451417803000,2.809967,6.11830700993915,-2.60817435628803,5.71581913894523,1.14018,-1.6209309,-0.8426886,9.808941,24.34933,39.998318,CSI
2451422829000,2.814993,6.34774441967546,-2.38361864020284,5.73534560770791,1.142318,-1.6600263,-0.8530733,9.791636,23.96221,40.54884,CSI
2451427869000,2.820033,6.58794278707058,-2.14270134400375,5.70013502873204,1.1032226,-1.6856827,-0.8481864,9.786158,23.515759,41.156662,CSI
2451432853000,2.825017,6.83762780093691,-1.88556317217364,5.59951566458463,1.0711522,-1.6526959,-0.86437434,9.797061,23.069828,41.754288,CSI
2451437843000,2.830007,7.08761339868832,-1.6281154439569,5.49877516958151,1.031446,-1.5641204,-0.90194255,9.838927,22.586067,42.391697,CSI
2451442814000,2.834978,7.1203566425949,-1.76215089824363,5.55455529633994,0.9954049,-1.3799446,-0.9104946,9.905718,22.119757,42.9842,CSI
2451447856000,2.84002,7.12278122884841,-1.96924921792009,5.62690274312573,0.9431759,-1.2776246,-0.91507614,9.987637,21.666348,43.568893,CSI
2451452898000,2.845062,7.10386755718762,-2.32387803117901,5.66945836858598,0.906524,-1.1151345,-0.9257663,10.14264,21.148752,44.181656,CSI
2451457835000,2.849999,7.09422381478531,-2.65317089726054,5.71885721060812,0.89919364,-1.0012082,-0.96974856,10.312931,20.662807,44.752106,CSI
2451462865000,2.855029,7.18781494418108,-2.77951888774043,5.85924375811152,0.895223,-0.86193085,-1.0204504,10.529195,20.188902,45.267216,CSI
2451468107000,2.860271,7.28899073270023,-2.90145075658484,6.00698551979932,0.90010995,-0.6969972,-1.067487,10.752396,19.776443,45.70203,CSI
2451473277000,2.865441,7.43537111686078,-2.89701498736786,6.17110916609927,0.8970556,-0.5467244,-1.0928379,11.009661,19.368711,46.10022,CSI
2451477865000,2.870029,7.56527309027056,-2.89307856393119,6.31675699767067,0.8888089,-0.42730024,-1.1236867,11.304596,18.972437,46.447433,CSI
2451482883000,2.875047,7.74228047409865,-2.58800021571555,6.70009280479982,0.86315256,-0.32650748,-1.1795808,11.640803,18.577803,46.760044,CSI
2451488144000,2.880308,7.93135927733026,-2.18803038527043,7.15963852013809,0.8237518,-0.27275133,-1.1899655,11.981802,18.199326,47.044685,CSI
2451492837000,2.885001,7.97114322209436,-1.85782335293441,7.50575900575374,0.76052725,-0.25992316,-1.1670581,12.347122,17.821167,47.308838,CSI
2451497914000,2.890078,8.01418244808356,-1.5005974626361,7.88020045162432,0.6795876,-0.30176744,-1.1346822,12.77977,17.39019,47.5663,CSI
2451502801000,2.894965,8.05619078258017,-1.19760817348479,8.17925503813664,0.56230146,-0.37843102,-1.1090258,13.197757,16.990835,47.81932,CSI
2451507909000,2.900073,8.10032284687936,-0.896708138776347,8.4681190781596,0.45265114,-0.47219884,-1.0638218,13.580679,16.625381,48.073486,CSI
2451512824000,2.904988,8.15843117545771,-0.60052716434612,8.69473217545771,0.32803464,-0.5739079,-1.0036516,14.011398,16.231915,48.32144,CSI
2451517850000,2.910014,8.25809616390584,-0.280549514420227,8.79439716390584,0.20738874,-0.7031059,-0.97127575,14.410767,15.869695,48.590736,CSI
2451522790000,2.914954,8.33152303859228,-0.0131654812797441,8.76307479644071,0.106901415,-0.78984874,-0.9230174,14.840585,15.490811,48.8501,CSI
2451527831000,2.919995,8.37496373765247,0.199209449684063,8.5651805184963,0.020463986,-0.88331115,-0.8781188,15.233867,15.144893,49.13302,CSI
2451532866000,2.92503,8.38811460238095,0.367612568964286,8.2672017775,-0.01985312,-0.92087936,-0.84849185,15.65705,14.772349,49.435486,CSI
2451537814000,2.929978,8.36460963888889,0.480436482083333,7.85351392916667,-0.043982297,-0.9300423,-0.8210029,16.052284,14.428743,49.740643,CSI
2451543045000,2.935209,8.31164508938925,0.550248085968303,7.39068705590452,-0.036957346,-0.86498517,-0.8014552,16.467028,14.061659,50.071037,CSI
2451547870000,2.940034,8.23126743428682,0.559178905450329,6.93521493592965,-0.0015271631,-0.8173377,-0.78038037,16.866718,13.707086,50.39502,CSI
2451552797000,2.944961,8.17131535770257,0.549020776306725,6.51737385993283,0.0106901415,-0.68630713,-0.7733554,17.28445,13.344391,50.729633,CSI
2451557815000,2.949979,8.15062458770343,0.503501052061483,6.17804492947559,0.034513887,-0.5360342,-0.77488256,17.709278,12.982821,51.034958,CSI
2451563024000,2.955188,8.12632058990987,0.45210675791053,5.8322795855133,0.054367006,-0.3817908,-0.7360926,18.1107,12.637973,51.345917,CSI
2451567851000,2.960015,8.07042915058254,0.355567113383161,5.58838981314575,0.08246681,-0.24709499,-0.72295904,18.544668,12.287476,51.616047,CSI
2451572815000,2.964979,8.0070675710099,0.281793275231683,5.38564321156436,0.10354166,-0.13775012,-0.7290677,18.956177,11.9548435,51.889717,CSI
2451577831000,2.969995,7.92145666819802,0.300817930233663,5.35710634328713,0.12797627,-0.08552113,-0.7339546,19.37203,11.625832,52.134216,CSI
2451582861000,2.975025,7.83631633094017,0.356227356394168,5.32937986051282,0.15241088,-0.07360926,-0.7351763,19.763945,11.316335,52.374153,CSI
2451587809000,2.979973,7.75531461059829,0.551584585940674,5.30555587487179,0.17562376,-0.086437434,-0.74189585,20.16191,11.005987,52.601982,CSI
2451592808000,2.984972,7.68253553382871,0.745931002502933,5.26729628470864,0.19547687,-0.09407325,-0.7305948,20.555746,10.700284,52.812546,CSI
2451597827000,2.989991,7.64493994587407,0.929209640995307,5.17330706946617,0.20525073,-0.06169739,-0.7104363,20.94926,10.398333,53.010284,CSI
2451602796000,2.99496,7.65175377269924,1.09612238682032,5.10456063106639,0.20891592,-0.007941248,-0.6765333,34.509438,10.072097,53.20149,CSI
2451607799000,2.999963,7.89672228553806,1.18555541715631,5.16677505956014,0.18020524,0.048258353,-0.63804877,34.60633,9.7609,53.375927,CSI
2451612807000,3.004971,8.14193561999675,1.27507782689498,5.22905166517611,0.1554652,0.086437434,-0.602924,34.698647,9.428598,53.553722,CSI
2451617828000,3.009992,8.31861042294203,1.21625056915618,5.27739666955849,0.10567969,0.09896017,-0.5702427,34.79223,9.118889,53.71553,CSI
2451622773000,3.014937,8.46272447493295,1.09412007731587,5.31892102413348,0.07513642,0.08124508,-0.528093,34.875484,8.825562,53.867477,CSI
2451627793000,3.019957,8.60902428099856,0.970137252434496,5.36107517175057,0.03940081,0.04795292,-0.5027421,34.97008,8.522198,54.046062,CSI
2451632793000,3.024957,8.75474121931091,0.846648383030741,5.40306137455643,0.017104227,0.0012217305,-0.47678033,35.05716,8.23694,54.225235,CSI
2451637818000,3.029982,8.85365412953737,0.684145252697509,5.46667992475852,0.0015271631,-0.043066,-0.46731192,35.141846,7.9615035,54.40488,CSI
2451642780000,3.034944,8.94062509893238,0.515034536071174,5.53432406812405,-0.01282817,-0.059253927,-0.45112398,35.222054,7.7020206,54.582718,CSI
2451647825000,3.039989,9.02333614864539,0.56927171846477,5.54102687722026,-0.002443461,-0.08277224,-0.45081854,35.291206,7.482357,54.778908,CSI
2451652852000,3.045016,9.10470911797943,0.664594400376684,5.53637699325832,-0.022602014,-0.1020145,-0.45540005,35.365368,7.276945,54.972885,CSI
2451657881000,3.050045,9.18611446167963,0.759955006570242,5.53172525933259,-0.03573562,-0.09590584,-0.47067168,35.42931,7.099636,55.15347,CSI
2451662877000,3.055041,9.26698562833824,0.854689862116676,5.52710404980924,-0.061391957,-0.09315695,-0.45356745,35.49305,6.9377203,55.33416,CSI
2451667892000,3.060056,9.24820974301011,1.0359131158834,5.52237636061868,-0.093462385,-0.11301007,-0.4025602,35.554234,6.785667,55.51287,CSI
2451672892000,3.065056,9.19123918976799,1.24955400424351,5.51762878972834,-0.12675454,-0.13683382,-0.3436117,35.61474,6.6471386,55.68638,CSI
2451677869000,3.070033,9.18113182173786,1.42339009241024,5.44745488539457,-0.19028452,-0.17531833,-0.30451632,35.68933,6.4880114,55.893116,CSI
2451682978000,3.075142,9.19065334329084,1.58526107924492,5.34747587659823,-0.25778514,-0.1853976,-0.2611449,35.7589,6.3531475,56.09,CSI
2451687956000,3.08012,9.12995102355971,1.65585762114651,5.33942612571538,-0.34513888,-0.20922135,-0.19303341,35.842625,6.2102475,56.29765,CSI
2451692883000,3.085047,9.03543712132774,1.68286161335368,5.37543119801602,-0.4343252,-0.24923302,-0.13683382,35.93453,6.0887313,56.506073,CSI
2451697887000,3.090051,8.86733444939696,1.58094450865233,5.31100153300472,-0.52412236,-0.28924468,-0.092240654,36.039783,5.966773,56.737217,CSI
2451702909000,3.095073,8.64035427005768,1.37413976004195,5.16472497266911,-0.61850107,-0.30024028,-0.061391957,36.157173,5.8716393,56.963913,CSI
2451707915000,3.100079,8.50384047926806,1.11070923113685,4.95575588056258,-0.70707655,-0.2773328,-0.05131268,36.28772,5.793705,57.170235,CSI
2451712901000,3.105065,8.41553479890987,0.817907230416586,4.71407809339108,-0.75625116,-0.19456059,-0.03604105,36.422867,5.7338896,57.356167,CSI
2451717901000,3.110065,8.30333426406347,0.505240203394807,4.51027533508139,-0.7675522,-0.059864793,-0.029932396,36.56335,5.7205896,57.50692,CSI
2451722914000,3.115078,8.17473113599835,0.178786138872862,4.33220966012776,-0.7654142,0.08735373,-0.032986723,36.708992,5.7137427,57.62721,CSI
2451727884000,3.120048,8.06049470568182,-0.113077242868339,4.28651996316614,-0.7538077,0.21685717,-0.04337143,36.840073,5.7648726,57.728657,CSI
2451732903000,3.125067,7.95219552215909,-0.390888136324451,4.31006324255486,-0.72173727,0.3005457,-0.06261369,36.965878,5.808022,57.80021,CSI
2451737918000,3.130082,7.86765658044677,-0.671989750212745,4.37618775940431,-0.70524395,0.35460728,-0.07574729,37.073765,5.916509,57.844944,CSI
2451742911000,3.135075,7.79829632167102,-0.954055019843342,4.46866810443864,-0.6976081,0.36713,-0.09682214,37.179325,6.011756,57.878124,CSI
2451747888000,3.140052,7.74399730134713,-1.16068860629637,4.54613179607575,-0.6957755,0.35643986,-0.10170906,37.25655,6.1674113,57.874237,CSI
2451752925000,3.145089,7.70161677793831,-1.30666567514643,4.61205680339711,-0.6914995,0.31429017,-0.1328632,37.338947,6.305216,57.877445,CSI
2451757910000,3.150074,7.67651055215861,-1.41790080275513,4.64066253081281,-0.68539083,0.25961772,-0.16676621,37.397694,6.5019093,57.85162,CSI
2451762885000,3.155049,7.66833201254828,-1.49559782575745,4.63248394850227,-0.6542367,0.18784106,-0.2144137,37.457993,6.676407,57.843758,CSI
2451767850000,3.160014,7.6622317627843,-1.55551635230086,4.61459122101978,-0.6209445,0.13469578,-0.25473082,37.509857,6.8708677,57.824913,CSI
2451772919000,3.165083,7.66736714829155,-1.51956860012694,4.54269582391833,-0.5681047,0.08674286,-0.28771752,37.558083,7.040563,57.825424,CSI
2451777924000,3.170088,7.6884297470632,-1.46414062062268,4.47535834785316,-0.5002986,0.0571159,-0.32162055,37.59822,7.2082086,57.835148,CSI
2451782929000,3.175093,7.75079465189591,-1.3572293086803,4.4174481255948,-0.410196,0.036957346,-0.34330627,37.626274,7.352291,57.85472,CSI
2451787905000,3.180069,7.82013586590101,-1.24188184209574,4.37484389525358,-0.3155119,0.01038471,-0.3747658,37.64649,7.4631786,57.898468,CSI
2451792911000,3.185075,7.94195068645188,-1.06159571026934,4.43818757751804,-0.21380283,-0.023518313,-0.3830125,37.646034,7.554513,57.947792,CSI
2451798602000,3.190766,8.07386338789238,-0.886319881046338,4.53260667787743,-0.129198,-0.070249505,-0.3659083,37.64907,7.605108,58.035778,CSI
2451802956000,3.19512,8.16042978076731,-0.817066564268394,4.65380002562697,-0.042455133,-0.15027285,-0.3390302,37.62923,7.637646,58.140114,CSI
2451807898000,3.200062,8.25868681190832,-0.7384607095333,4.79136032066102,0.013133603,-0.21685717,-0.29932398,37.61076,7.625512,58.262054,CSI
2451812890000,3.205054,8.36433687211925,-0.728747363665784,5.0644130525939,0.04642576,-0.2843578,-0.26725355,37.5748,7.6078997,58.40275,CSI
2451817906000,3.21007,8.47268876855938,-0.742880117063842,5.3847556105227,0.04062254,-0.34238997,-0.23304509,37.528805,7.5973887,58.55373,CSI
2451822938000,3.215102,8.59538049876641,-0.750367778160466,5.59274739849995,0.027794369,-0.3463606,-0.19975294,37.482388,7.5689096,58.695896,CSI
2451827902000,3.220066,8.72205141280963,-0.755059304381723,5.75225948597651,-0.035124753,-0.31306845,-0.172264,37.44467,7.5553517,58.838852,CSI
2451832931000,3.225095,8.71719223442607,-0.70609764107111,5.83122211324156,-0.106901415,-0.26083946,-0.16432275,37.416077,7.5479054,58.932777,CSI
2451837904000,3.230068,8.65115727602258,-0.632987357629989,5.87131482636427,-0.18020524,-0.16982053,-0.18845193,37.403534,7.5483193,59.0052,CSI
2451842905000,3.235069,8.5847505141131,-0.559465433743191,5.91163327766663,-0.25473082,-0.12583824,-0.22052236,37.418938,7.5584593,59.0667,CSI
2451847921000,3.240085,8.51814457175399,-0.485722988189066,5.95207266013667,-0.28221974,-0.039095376,-0.23090707,37.440403,7.571389,59.090294,CSI
2451852916000,3.24508,8.42263481184104,-0.365782758686131,5.99452173811841,-0.33475417,0.032375857,-0.2406809,37.48947,7.5904126,59.107407,CSI
2451857936000,3.2501,8.31053623722628,-0.219567517992701,6.03838622737226,-0.36285394,0.07269296,-0.2443461,37.539085,7.608515,59.109077,CSI
2451862893000,3.255057,8.18070512015504,-0.0938324252525997,6.07066863227453,-0.35979962,0.09987647,-0.2415972,37.606705,7.6061993,59.07954,CSI
2451868569000,3.260733,8.02140312015504,0.0397757071376442,6.10150125666478,-0.33475417,0.11942416,-0.24190263,37.675484,7.6033773,59.04193,CSI
2451872946000,3.26511,7.98583025943153,0.0599136909943152,6.11835302101292,-0.30024028,0.14110987,-0.23304509,37.7437,7.5811644,58.98701,CSI
2451877944000,3.270108,8.00067186563307,0.0302300446563308,6.1331950921447,-0.2660318,0.13805555,-0.22815818,37.80562,7.555039,58.934597,CSI
2451883022000,3.275186,7.97825122332156,-0.0212314098487633,6.19154454515901,-0.22571471,0.13225232,-0.22510384,37.86216,7.5096474,58.86651,CSI
2451888020000,3.280184,7.93475979293286,-0.0840525580579505,6.27369521540636,-0.18845193,0.11575896,-0.23365596,37.911602,7.4590397,58.803608,CSI
2451892947000,3.285111,7.88913867614471,-0.124996044214344,6.30434627818479,-0.16340645,0.0852157,-0.24831672,37.954662,7.40986,58.745754,CSI
2451897945000,3.290109,7.8413997777133,-0.15537541901895,6.30868614096473,-0.14172074,0.03145956,-0.27366763,37.99237,7.3521075,58.701157,CSI
2451902983000,3.295147,7.80764402027529,-0.155978290854271,6.24315524031025,-0.12858713,0.0030543262,-0.29871312,38.026493,7.302029,58.63896,CSI
2451907949000,3.300113,7.7920579195106,-0.119610700703518,6.09248932833734,-0.12736541,-0.03359759,-0.3182608,38.06104,7.246786,58.596195,CSI
2451912916000,3.30508,7.78311494295499,-0.0713968787227984,5.9768080407045,-0.13347405,-0.05497787,-0.29993483,38.090466,7.202176,58.54864,CSI
2451917949000,3.310113,7.77839859843444,-0.0148018835495108,5.88248312015656,-0.1301143,-0.06658431,-0.28710666,38.120956,7.151079,58.51085,CSI
2451922935000,3.315099,7.78718040811379,0.0609402620950616,5.80941200148252,-0.118507855,-0.10323623,-0.27550024,38.149612,7.099225,58.508434,CSI
2451927916000,3.32008,7.80629381684864,0.151728540955424,5.75207217443654,-0.10048734,-0.14477506,-0.25473082,38.17156,7.052432,58.50912,CSI
2451933002000,3.325166,7.86689923514984,0.257504427867669,5.68570027211947,-0.07391469,-0.18387043,-0.22540927,38.18626,6.9980145,58.53543,CSI
2451938514000,3.330678,7.96609402885966,0.382803276195233,5.6073882227475,-0.03573562,-0.23060162,-0.19639318,38.190025,6.945334,58.57344,CSI
2451942941000,3.335105,8.06905647019773,0.481315738609227,5.57828336994937,-0.0033597588,-0.24281894,-0.18325958,38.188248,6.876232,58.626266,CSI
2451947939000,3.340103,8.20164621563664,0.591045160063043,5.56913935493361,0.013439035,-0.26847526,-0.13713925,38.170387,6.820216,58.69058,CSI
2451952946000,3.34511,8.31234196536478,0.707194634183862,5.57012156816507,0.03573562,-0.28038713,-0.10415252,38.14602,6.737526,58.78041,CSI
2451957947000,3.350111,8.39616491672808,0.830722720085667,5.5833567128224,0.043066,-0.2864958,-0.06841691,38.11281,6.6679187,58.87086,CSI
2451962916000,3.35508,8.48893199452849,0.953402397859672,5.58151202478275,0.034208454,-0.2929099,-0.052534413,38.07921,6.5785203,58.98441,CSI
2451967993000,3.360157,8.60890737077567,1.07859440386225,5.53978138334943,0.027488936,-0.27855456,-0.04184427,38.03827,6.4967866,59.089787,CSI
2451972843000,3.365007,8.72313958664578,1.13431997227335,5.4864469834345,0.0033597588,-0.24312437,-0.02565634,38.006966,6.400044,59.203247,CSI
2451977923000,3.370087,8.84221669649501,1.0962152971216,5.41023773260231,-0.016798794,-0.19517145,-0.00061086525,37.97296,6.3103065,59.305588,CSI
2451983004000,3.375168,8.94255124204187,1.02836195964057,5.32054106490775,-0.03573562,-0.11362094,0.01160644,37.948097,6.2028437,59.40982,CSI
2451987980000,3.380144,9.01088241038142,0.91447658394035,5.21121081502725,-0.055588737,-0.03940081,0.02443461,37.923763,6.106655,59.49871,CSI
2451992842000,3.385006,9.08350755327664,0.79050576052026,5.10680908304152,-0.0580322,0.035430185,0.028710667,37.89745,6.0176516,59.58505,CSI
2451997942000,3.390106,9.17635306603302,0.624360843461731,5.00419039869935,-0.06536258,0.074830994,0.010079277,37.878483,5.931349,59.65922,CSI
2452002870000,3.395034,9.25911693760933,0.486322143780369,4.91330675014577,-0.07360926,0.13072516,-0.022296581,37.857555,5.8645916,59.72671,CSI
2452007925000,3.400089,9.32498226122449,0.406343250340136,4.84273718163265,-0.093767814,0.16035213,-0.03176499,37.840496,5.802913,59.788746,CSI
2452012896000,3.40506,9.37669794277664,0.336733661319343,4.76531325641698,-0.12095132,0.15790866,-0.030848695,37.82303,5.7691298,59.862328,CSI
2452017918000,3.410082,9.38137060322549,0.299353138859419,4.65784411529195,-0.15515977,0.18051068,-0.044593163,37.816055,5.7337766,59.920513,CSI
2452022906000,3.41507,9.38147461912351,0.262076385047809,4.55978467,-0.18997909,0.18081611,-0.04550946,37.807762,5.7227535,59.998707,CSI
2452027932000,3.420096,9.35750400318725,0.223723364507968,4.507049365,-0.22266038,0.17623462,-0.04520403,37.809216,5.712975,60.0709,CSI
2452032975000,3.425139,9.324581684908,0.18776986774907,4.46203873229097,-0.2507602,0.16249016,-0.032986723,37.81313,5.7173104,60.15961,CSI
2452038011000,3.430175,9.24641493726761,0.164779689936124,4.45744060358471,-0.26908615,0.14202617,-0.02565634,37.82318,5.722903,60.249584,CSI
2452043045000,3.435209,9.17017761587563,0.140849949863482,4.45121346556162,-0.29626966,0.1151481,-0.015577064,37.837074,5.7448564,60.34681,CSI
2452047940000,3.440104,9.11708755358798,0.107065405729847,4.42708166488212,-0.30695978,0.07452556,-0.016798794,37.85193,5.764658,60.451435,CSI
2452052900000,3.445064,9.0597113328148,0.0752537875704779,4.41258789153919,-0.32284227,0.04642576,-0.0106901415,37.87102,5.79769,60.54836,CSI
2452057948000,3.450112,8.97197315772189,0.0627197654240774,4.47943604571774,-0.33505958,0.019547688,-0.0033597588,37.891552,5.8300524,60.65384,CSI
2452062874000,3.455038,8.88635543773226,0.0504886653660012,4.54466861455363,-0.34605515,-0.019242255,0.012217305,37.918293,5.872261,60.766087,CSI
2452067976000,3.46014,8.81770933290039,-0.00640782117973824,4.6089739505545,-0.33475417,-0.037873644,-0.0033597588,37.945847,5.9051213,60.878876,CSI
2452072850000,3.465014,8.7570835708862,-0.0716973579174743,4.6696000534419,-0.3368922,-0.019242255,-0.018936822,37.97632,5.9431777,60.988262,CSI
2452077949000,3.470113,8.69374712599555,-0.0826285604536025,4.77925152748657,-0.32650748,-0.008552114,-0.009162978,38.002792,5.980915,61.078762,CSI
2452082963000,3.475127,8.63148980454714,-0.0781816160857566,4.89931895019448,-0.3323107,-0.0125227375,0.002443461,38.035156,6.016279,61.166847,CSI
2452087961000,3.480125,8.59019432115304,-0.144357982828816,4.96743933986656,-0.33353242,-0.013439035,-0.004581489,38.06356,6.0595255,61.230507,CSI
2452092925000,3.485089,8.56045767373853,-0.248436867727064,5.00708841009174,-0.3295618,0.025350908,-0.027488936,38.09231,6.1001663,61.282845,CSI
2452097928000,3.490092,8.52841462648125,-0.287873506602683,5.04192082631476,-0.3417791,0.07849618,-0.04642576,38.130318,6.1423993,61.30506,CSI
2452102934000,3.495098,8.49554887111938,-0.301958756090491,5.0747862384977,-0.34880406,0.12644911,-0.052839845,38.16708,6.179783,61.317795,CSI
2452107942000,3.500106,8.44293811232387,-0.264344766575709,5.10148131653106,-0.35796702,0.14630222,-0.042760566,38.20389,6.23664,61.309166,CSI
2452112957000,3.505121,8.38098559495932,-0.202392005378051,5.12530928438182,-0.3631594,0.16737708,-0.028099801,38.241085,6.2923226,61.28692,CSI
2452117957000,3.510121,8.37257017813613,-0.245049885389087,5.04604306637915,-0.35827246,0.21838433,-0.022602014,38.28156,6.349492,61.242672,CSI
2452122934000,3.515098,8.39044510210013,-0.338893786815113,4.91644928436152,-0.36102137,0.2910773,-0.03940081,38.325607,6.4053025,61.187412,CSI
2452127966000,3.52013,8.41437487388292,-0.346870989309168,4.82441138723767,-0.3640757,0.34483343,-0.042455133,38.36853,6.4555135,61.11737,CSI
2452132961000,3.525125,8.44319480510092,-0.279624672053419,4.76677177557988,-0.36560285,0.36743546,-0.027794369,38.41078,6.5054507,61.036846,CSI
2452137964000,3.530128,8.46984072179673,-0.208437779198924,4.72699977820327,-0.36285394,0.36713,-0.008246681,38.445396,6.573084,60.967495,CSI
2452142946000,3.53511,8.49453106416891,-0.134366705675844,4.70230943583109,-0.35827246,0.3707952,-0.0021380284,38.47921,6.6397386,60.891758,CSI
2452147941000,3.540105,8.51156265562513,-0.0979872182286407,4.75296823002929,-0.34483343,0.376293,0.021991149,38.5067,6.7021985,60.831577,CSI
2452152946000,3.54511,8.52366422197536,-0.0858856417693395,4.85220099828318,-0.33200526,0.34055737,0.034513887,38.53366,6.7616005,60.783066,CSI
2452157936000,3.5501,8.53572951989497,-0.0738203337709554,4.9511363656332,-0.3213151,0.30176744,0.04184427,38.55705,6.8091736,60.743484,CSI
2452162949000,3.555113,8.5478504294082,-0.0616994141324985,5.05052774770248,-0.32498032,0.26419923,0.050701816,38.578236,6.859518,60.713104,CSI
2452167951000,3.560115,8.54142736888737,-0.0833532357016986,5.16753050506633,-0.3295618,0.22907446,0.05009095,38.597492,6.9059095,60.692787,CSI
2452172946000,3.56511,8.52503621856185,-0.123160104439767,5.29397596299378,-0.33414328,0.17867808,0.055283304,38.61498,6.9553146,60.686245,CSI
2452177976000,3.57014,8.50853021533115,-0.16324590018601,5.42130742513094,-0.33658674,0.1572978,0.048563786,38.638306,6.996487,60.65505,CSI
2452183053000,3.575217,8.49186998105634,-0.203706255057516,5.5498286643497,-0.33964106,0.14080444,0.0421497,38.661575,7.038877,60.63635,CSI
2452187969000,3.580133,8.40689611016361,-0.222961541252355,5.59704191056024,-0.33658674,0.1423316,0.036957346,38.68821,7.0794444,60.62112,CSI
2452193354000,3.585518,8.25860009826475,-0.22807518744472,5.5868144152702,-0.33475417,0.1563815,0.02443461,38.717537,7.1163073,60.607944,CSI
2452197935000,3.590099,8.17978930250889,-0.227340298730174,5.57827193496107,-0.31642818,0.1695151,0.012217305,38.74646,7.1658916,60.54849,CSI
2452202948000,3.595112,8.12902563001058,-0.222725423354802,5.56904229022397,-0.31581733,0.19425514,0.005192355,38.779682,7.2150006,60.483418,CSI
2452207941000,3.600105,8.08144707037341,-0.231672660391875,5.55728089327041,-0.32406402,0.21380283,0.0009162979,38.817257,7.2635465,60.407455,CSI
2452212939000,3.605103,8.03725517275339,-0.256223797230201,5.54255012400492,-0.31490102,0.23304509,-0.0036651916,38.851093,7.307147,60.326546,CSI
2452217852000,3.610016,8.00023109492016,-0.299262475133066,5.55983916939023,-0.29901853,0.2556471,0.00030543262,38.883167,7.350504,60.23577,CSI
2452222947000,3.615111,7.96833679456532,-0.363051209057802,5.60995914445793,-0.28527406,0.2706133,-0.0061086523,38.915394,7.388615,60.14437,CSI
2452228051000,3.620215,7.92979743562124,-0.423073184458918,5.66158665300601,-0.2733622,0.27183503,-0.009468411,38.94191,7.431185,60.048145,CSI
2452232981000,3.625145,7.88248924453908,-0.475112278627255,5.71362561873748,-0.26328292,0.27183503,-0.025350908,38.968254,7.4667997,59.951176,CSI
2452237904000,3.630068,7.83908448763251,-0.540576324734982,5.7634553451119,-0.24098633,0.25778514,-0.02076942,38.98538,7.517089,59.84401,CSI
2452242948000,3.635112,7.80115319175501,-0.630662996489988,5.81086934118571,-0.23273966,0.21777347,-0.016187929,39.005615,7.563331,59.74704,CSI
2452247867000,3.640031,7.75007514286567,-0.709635672197015,5.86350417653731,-0.20861048,0.18325958,-0.009773844,39.013416,7.615458,59.636963,CSI
2452252956000,3.64512,7.6676356721592,-0.772677728210945,5.93139569002985,-0.1966986,0.14294247,-0.0106901415,39.02239,7.6666884,59.541603,CSI
2452257845000,3.650009,7.58785091506876,-0.842595975438023,5.99163943717665,-0.1704314,0.08277224,-0.006414085,39.017574,7.7320414,59.44529,CSI
2452263541000,3.655705,7.49342921205885,-0.947508933745552,6.04934141252043,-0.15790866,0.0290161,0.0009162979,39.012817,7.7970724,59.359863,CSI
2452267910000,3.660074,7.41974784010624,-1.01628027994688,6.09317826072122,-0.14172074,-0.028405234,0.0015271631,39.00676,7.8685985,59.273174,CSI
2452272947000,3.665111,7.33104713970784,-1.06063063014608,6.1424566791705,-0.124005646,-0.079107046,-0.0012217305,38.99688,7.937842,59.20057,CSI
2452278007000,3.670171,7.24437617055272,-1.10125273385973,6.17839727626568,-0.1142318,-0.112399206,-0.0076358155,38.982895,8.023339,59.117493,CSI
2452283022000,3.675186,7.16406964551788,-1.1324829766837,6.18285873952624,-0.10476339,-0.14263703,-0.0106901415,38.96507,8.104926,59.048653,CSI
2452287955000,3.680119,7.08495115322196,-1.15474803054893,6.18459461527446,-0.089186326,-0.17104226,-0.008552114,38.944904,8.190805,58.970325,CSI
2452292945000,3.685109,7.00416356929196,-1.12623476563246,6.17033798281623,-0.07269296,-0.21166481,-0.01740966,38.925076,8.270148,58.905872,CSI
2452297924000,3.690088,6.93538239864744,-1.09719253031328,6.15315523321731,-0.056199603,-0.23579398,-0.022907447,38.9052,8.353544,58.834324,CSI
2452302952000,3.695116,6.9497490273098,-1.0636703467628,6.11484392342118,-0.027183503,-0.24129178,-0.03481932,38.881622,8.427516,58.770897,CSI
2452307916000,3.70008,6.96865625741872,-1.02639777602759,6.07758658866995,-0.018325957,-0.23151793,-0.038179077,38.86236,8.497272,58.706333,CSI
2452312942000,3.705106,7.02556226348768,-0.955265248634483,6.0443914679803,0.006414085,-0.21746802,-0.043982297,38.83567,8.555933,58.644043,CSI
2452317953000,3.710117,7.08460640010887,-0.885616580304845,6.01694105847396,0.008857546,-0.1966986,-0.04642576,38.813496,8.609038,58.587612,CSI
2452322950000,3.715114,7.16710069526402,-0.829173166739249,6.04733358138269,0.005192355,-0.19028452,-0.055283304,38.78965,8.6556635,58.533024,CSI
2452328235000,3.720399,7.25434951453457,-0.769476660696788,6.07947776460715,0.0070249503,-0.18600847,-0.059864793,38.7664,8.686355,58.489933,CSI
2452333254000,3.725418,7.36341535205089,-0.686757229256416,6.12592773678438,-0.007330383,-0.1966986,-0.06841691,38.75028,8.716317,58.450912,CSI
2452338023000,3.730187,7.46577829590569,-0.609577834761043,6.16658561803551,-0.027488936,-0.20738874,-0.06963864,38.734936,8.747133,58.41117,CSI
2452342932000,3.735096,7.53706870390843,-0.565883738979602,6.15508701253241,-0.03848451,-0.20586158,-0.0729984,38.73081,8.760812,58.38253,CSI
2452348114000,3.740278,7.61232372413051,-0.5197597209842,6.14294894495916,-0.061086524,-0.22785273,-0.06994407,38.7377,8.762557,58.372444,CSI
2452352938000,3.745102,7.68237972906129,-0.476822194390256,6.131649439368,-0.092240654,-0.22815818,-0.06047566,38.74837,8.767937,58.35602,CSI
2452358296000,3.75046,7.75905875413534,-0.430587268787594,6.11754963045113,-0.116675265,-0.24312437,-0.06078109,38.76267,8.773127,58.349537,CSI
2452362952000,3.755116,7.80096625488722,-0.422205759885338,6.07145137962406,-0.14508049,-0.24953845,-0.053450707,38.781662,8.787478,58.339508,CSI
2452367877000,3.760041,7.84529495789474,-0.413340010026316,6.02268980631579,-0.16249016,-0.2565634,-0.035430185,38.800346,8.785904,58.35698,CSI
2452372949000,3.765113,7.84926720011034,-0.460090933550345,5.93994498954483,-0.17745635,-0.26358834,-0.024740042,38.82444,8.788083,58.375793,CSI
2452377906000,3.77007,7.84490203172414,-0.516839362390805,5.85263984413793,-0.1966986,-0.27000242,-0.034513887,38.853424,8.792641,58.396133,CSI
2452382830000,3.774994,7.8499728112742,-0.55600485328228,5.72089632507977,-0.18692477,-0.26389378,-0.039095376,38.87956,8.796082,58.428463,CSI
2452387856000,3.78002,7.86021158902361,-0.586721528653478,5.56219339897894,-0.1872302,-0.267559,-0.03940081,38.912632,8.80217,58.46485,CSI
2452392849000,3.785013,7.8514931772586,-0.612204089456533,5.40594407660684,-0.13988814,-0.24862215,-0.048563786,38.933327,8.806945,58.503815,CSI
2452397843000,3.790007,7.83710637112203,-0.636182114706708,5.25008690997694,-0.108123146,-0.2098322,-0.0580322,38.957115,8.813321,58.537327,CSI
2452402852000,3.795016,7.82267635271232,-0.660232160457235,5.09376161008724,-0.042760566,-0.1685988,-0.065973446,38.96909,8.807926,58.587723,CSI
2452407851000,3.800015,7.80827514248471,-0.68423419254086,4.9377483990374,0.015271631,-0.14110987,-0.061086524,38.974457,8.79965,58.629875,CSI
2452412857000,3.805021,7.7599127352241,-0.693005853245304,4.85814024410452,0.07360926,-0.13836098,-0.05131268,38.967014,8.782107,58.668163,CSI
2452417897000,3.810061,7.70156486987168,-0.697494143369909,4.79979251935094,0.12950343,-0.13194689,-0.043066,38.946396,8.757651,58.69707,CSI
2452422932000,3.815096,7.64885024146015,-0.708631507670951,4.8105753922365,0.1731803,-0.11942416,-0.042760566,38.915226,8.736814,58.765892,CSI
2452427991000,3.820155,7.59903108220051,-0.723577224236504,4.86039444745501,0.21991149,-0.11148291,-0.04734206,38.870716,8.708248,58.832726,CSI
2452432976000,3.82514,7.59797214651433,-0.688413651531758,4.96001252611348,0.23976462,-0.112399206,-0.04550946,38.82505,8.682833,58.90179,CSI
2452438166000,3.83033,7.61722238315259,-0.630663514486832,5.08513770746514,0.23579398,-0.111177474,-0.032986723,38.774055,8.655824,58.96656,CSI
2452442873000,3.835037,7.67897540533958,-0.594303295169399,5.27481676855582,0.21105394,-0.11789699,-0.027794369,38.72445,8.631735,59.019573,CSI
2452447917000,3.840081,7.76947728674473,-0.564135985617486,5.5199262669477,0.21105394,-0.14660765,-0.025350908,38.669445,8.6073065,59.07675,CSI
2452452953000,3.845117,7.86260633287593,-0.537433520912045,5.75401024874903,0.1853976,-0.18692477,-0.025961773,38.626816,8.579844,59.123726,CSI
2452457852000,3.850016,7.98603975266443,-0.551955091980397,5.85566127655404,0.15577064,-0.21868975,-0.03145956,38.586346,8.552787,59.175858,CSI
2452462828000,3.854992,8.11141323640959,-0.56670490574568,5.95891000371421,0.11484267,-0.25442538,-0.01985312,38.55135,8.529632,59.20478,CSI
2452467835000,3.859999,8.23756778486458,-0.581546609427908,6.06280196048491,0.076052725,-0.30024028,-0.016187929,38.525448,8.507489,59.24588,CSI
2452472809000,3.864973,8.36944916815462,-0.591357736525066,6.14750858336113,0.03390302,-0.34422258,-0.024740042,38.5102,8.4917145,59.295696,CSI
2452478471000,3.870635,8.55563914715981,-0.575398573248308,6.14218898077112,-0.00580322,-0.40042216,-0.041233405,38.504246,8.48009,59.36088,CSI
2452482973000,3.875137,8.68422175541796,-0.568085505356037,6.12193690619195,-0.049480084,-0.44776422,-0.0711658,38.511013,8.469834,59.428524,CSI
2452487811000,3.879975,8.72904814705882,-0.586016080735294,6.02331865735294,-0.07513642,-0.4877759,-0.089491755,38.52341,8.461348,59.50866,CSI
2452492856000,3.88502,8.7709024348937,-0.610964851173344,5.91170194206868,-0.099571034,-0.5222898,-0.10445796,38.55115,8.444519,59.61989,CSI
2452497849000,3.890013,8.75135349264105,-0.713597395077678,5.6917749893704,-0.102319926,-0.5479461,-0.124005646,38.582954,8.4226,59.73924,CSI
2452502823000,3.894987,8.72504025766503,-0.809220558581844,5.47430273334665,-0.10415252,-0.55741453,-0.16584991,38.626606,8.395597,59.884117,CSI
2452507844000,3.900008,8.64340149545591,-0.852441023707181,5.26780489423749,-0.098043874,-0.5225952,-0.19333886,38.668858,8.366584,60.021202,CSI
2452512817000,3.904981,8.55960899802567,-0.892666193923988,5.06606424383021,-0.0842994,-0.49357912,-0.20219639,38.712463,8.350093,60.187553,CSI
2452518002000,3.910166,8.44686672655479,-0.912273575972359,4.87979427048371,-0.073303826,-0.46853364,-0.21868975,38.759808,8.324092,60.3448,CSI
2452522811000,3.914975,8.34532393935509,-0.927066240932847,4.70704752243369,-0.05589417,-0.45906523,-0.22357668,38.8005,8.305476,60.516483,CSI
2452527872000,3.920036,8.27363201222759,-0.903169073291589,4.52542893856622,-0.031154128,-0.4382958,-0.22235495,38.837284,8.281304,60.675434,CSI
2452532897000,3.925061,8.20246254086751,-0.873937523222189,4.34999428584636,-0.016493361,-0.4251622,-0.21533,38.870483,8.262659,60.847317,CSI
2452537890000,3.930054,8.13191523723812,-0.770468095455887,4.24182160628504,0.018325957,-0.40866885,-0.22327125,38.894238,8.233832,61.010117,CSI
2452543087000,3.935251,8.05845724940663,-0.663935970884817,4.13503345888307,0.06536258,-0.3924809,-0.20647246,38.90764,8.209841,61.189396,CSI
2452547939000,3.940103,7.98952777289703,-0.578787613209424,4.10665069839442,0.109650314,-0.36987892,-0.18325958,38.912792,8.18064,61.358852,CSI
2452553005000,3.945169,7.91755812574171,-0.489883742643979,4.07701610139616,0.14721853,-0.3390302,-0.15943582,38.907066,8.132387,61.53414,CSI
2452557910000,3.950074,7.92269352657093,-0.396503592553213,4.05195276752215,0.1469131,-0.29138273,-0.15424347,38.898712,8.084508,61.695053,CSI
2452562872000,3.955036,7.95173110610042,-0.299711431697729,4.02775479300336,0.13103059,-0.25595254,-0.14110987,38.88001,8.041912,61.845276,CSI
2452567917000,3.960081,8.01518839950748,-0.206649677275999,4.04358206412199,0.12644911,-0.23335053,-0.1001819,38.854713,7.9941397,61.986797,CSI
2452572939000,3.965103,8.08807289765107,-0.115543928547073,4.0709137211972,0.1133155,-0.21502456,-0.064446285,38.83398,7.9521003,62.116856,CSI
2452577925000,3.970089,8.13636154066526,-0.0365782078100365,4.14793755968083,0.10445796,-0.19394971,-0.027183503,38.808514,7.9027195,62.24716,CSI
2452583061000,3.975225,8.17419004210729,0.0390787506364161,4.25196604974044,0.07880162,-0.17592919,-0.005192355,38.787106,7.8629274,62.369484,CSI
2452588637000,3.980801,8.2539341795183,0.168972709258775,4.32000359419343,0.04795292,-0.13683382,0.008857546,38.768215,7.813013,62.485268,CSI
2452592914000,3.985078,8.33040931119305,0.287508937766057,4.35441727368372,0.011911872,-0.08674286,0.025350908,38.75304,7.773863,62.589115,CSI
2452597899000,3.990063,8.4498418146538,0.411430019380766,4.42637447041671,-0.007941248,-0.048563786,0.06261369,38.736744,7.7325706,62.672646,CSI
2452602920000,3.995084,8.60789923178878,0.518501175328173,4.53854417475347,-0.0421497,-0.013744468,0.09468412,38.730873,7.7012315,62.741093,CSI
2452607908000,4.000072,8.75068408374183,0.606196611499183,4.6366883653799,-0.056199603,0.03604105,0.12767084,38.719177,7.6537213,62.803406,CSI
2452612886000,4.00505,8.88213642973856,0.679225630473856,4.72432327965686,-0.05497787,0.070249505,0.16432275,38.706573,7.6184883,62.856297,CSI
2452617908000,4.010072,9.01441223553638,0.717174916473818,4.80495954696999,-0.052839845,0.090713486,0.2012801,38.691174,7.5746546,62.89924,CSI
2452622914000,4.015078,9.14604185899196,0.731278111453226,4.88017668503628,-0.028099801,0.103847094,0.22602014,38.66643,7.534835,62.931976,CSI
2452627933000,4.020097,9.27281040719016,0.711673591759697,4.95408671642384,-0.011911872,0.12950343,0.2312125,38.641617,7.4865103,62.95692,CSI
2452632999000,4.025163,9.39674000832545,0.66577376256386,5.02752627059603,-0.010079277,0.15118915,0.24984388,38.608868,7.4475484,62.97553,CSI
2452637971000,4.030135,9.50074779160115,0.617101186902229,5.07840300654889,-0.003970624,0.18081611,0.24281894,38.576836,7.3979115,62.988525,CSI
2452642908000,4.035072,9.58384246554435,0.564620570937009,5.1046433145315,-0.0061086523,0.21899518,0.2275473,38.54526,7.352695,62.99187,CSI
2452647887000,4.040051,9.62503110815432,0.520935530543978,5.14964135410922,-0.002443461,0.23884831,0.2180789,38.512287,7.31166,62.988182,CSI
2452652917000,4.045081,9.55810474607246,0.500342876114139,5.242308446874,-0.011911872,0.22388211,0.22510384,38.483315,7.2739496,62.98341,CSI
2452658160000,4.050324,9.45000986766587,0.463945614841894,5.30821003670261,-0.0015271631,0.19272798,0.24251351,38.44583,7.2434516,62.977,CSI
2452662898000,4.055062,9.30901647925425,0.414183325752148,5.33309111846098,0.037873644,0.16218472,0.24465153,38.405354,7.209318,62.975193,CSI
2452667908000,4.060072,9.15039046861204,0.35240936731991,5.34757775611069,0.055588737,0.15332718,0.24465153,38.36478,7.187392,62.95406,CSI
2452672911000,4.065075,8.9595034197265,0.259545175701518,5.32178216528481,0.09468412,0.15027285,0.24770586,38.30938,7.159808,62.939564,CSI
2452677897000,4.070061,8.76821956316705,0.153939884038742,5.28734383370163,0.116980694,0.15454891,0.226631,38.256195,7.1401258,62.90401,CSI
2452682927000,4.075091,8.57344133287884,0.0248427831219145,5.23751682255865,0.13897185,0.15332718,0.21777347,38.19231,7.1198397,62.870426,CSI
2452688006000,4.08017,8.37676566058583,-0.105511923748178,5.1872044190606,0.14996742,0.15577064,0.21380283,38.127773,7.113221,62.818928,CSI
2452692915000,4.085079,8.18667295035027,-0.231503507923269,5.13857602985566,0.17531833,0.14813483,0.20647246,38.057423,7.099035,62.772686,CSI
2452697910000,4.090074,7.97411954062136,-0.359375714912621,5.09323759293204,0.20250183,0.14813483,0.19486602,37.9859,7.0801406,62.724678,CSI
2452702918000,4.095082,7.61557892796117,-0.485097811067961,5.07926848194175,0.2049453,0.15974127,0.17837265,37.91736,7.0583844,62.677658,CSI
2452708020000,4.100184,7.27001457603098,-0.612787708181994,5.06322326160697,0.20769419,0.1731803,0.16615535,37.840233,7.088566,62.594334,CSI
2452712894000,4.105058,7.16608617494676,-0.730271849812198,5.02707436536302,0.20799962,0.18020524,0.15088372,37.76769,7.1131854,62.512775,CSI
2452718332000,4.110496,7.05460435456694,-0.861090934914039,4.98718160202884,0.20952678,0.1826487,0.14294247,37.693367,7.166819,62.39125,CSI
2452722911000,4.115075,7.0117277074065,-0.968282813981912,4.95859715815204,0.21502456,0.17623462,0.12461651,37.623474,7.2125883,62.27425,CSI
2452727982000,4.120146,6.9642440913876,-1.08699214325756,4.92694140036666,0.20525073,0.17562376,0.113926366,37.553215,7.283063,62.14342,CSI
2452732915000,4.125079,6.90553112271633,-1.19881039062467,4.90214372928743,0.22021692,0.14905111,0.10262536,37.48026,7.343796,62.02497,CSI
2452737970000,4.130134,6.83461444996338,-1.31025089904782,4.88188178500576,0.22113322,0.13408493,0.077579886,37.418446,7.4004483,61.907356,CSI
2452742907000,4.135071,6.80373204311819,-1.3799067584301,4.85577297110451,0.21899518,0.11453723,0.047036625,37.352585,7.4797587,61.792824,CSI
2452747896000,4.14006,6.79513020593213,-1.42721661595103,4.82566665322711,0.20799962,0.10293079,0.03023783,37.292194,7.5558023,61.682697,CSI
2452752913000,4.145077,6.79669520430837,-1.45471186801636,4.807557,0.21197024,0.08857546,0.004886922,37.233166,7.6420627,61.573586,CSI
2452757907000,4.150071,6.81338944355241,-1.45232700515608,4.807557,0.20830505,0.06994407,-0.017104227,37.18239,7.7256002,61.471184,CSI
2452762906000,4.15507,6.83010039709285,-1.44993975456767,4.807557,0.20372356,0.046120327,-0.04153884,37.13686,7.8112717,61.379528,CSI
2452767964000,4.160128,6.84700857933081,-1.44752432878727,4.807557,0.20586158,0.030543262,-0.064751714,37.09533,7.8894305,61.2933,CSI
