timestamp,rel_time,acc_x,acc_y,acc_z,gyro_x,gyro_y,gyro_z,azimuth,pitch,roll,label
5055282047000,0,-1.80837458242664,9.72702663600396,-0.324244214724695,-1.2486086,0.72143185,0.07238753,139.3096,-81.136086,1.6898167,STD
5055287054000,0.005007,-1.80573962047478,9.73756642878338,-0.337419035489614,-1.244027,0.7098254,0.089186326,138.82204,-80.964516,1.3547987,STD
5055292069000,0.010022,-1.80310044847785,9.74812306165513,-0.350614906497417,-1.2583824,0.68325275,0.09865474,138.35576,-80.769714,1.0216216,STD
5055297343000,0.015296,-1.80066474499299,9.758766,-0.363693615007007,-1.2455542,0.627664,0.099571034,137.90392,-80.57678,0.69666904,STD
5055302074000,0.020027,-1.80554863426754,9.758766,-0.358809725732457,-1.1621711,0.5907067,0.099265605,137.45732,-80.39427,0.37847883,STD
5055307141000,0.025094,-1.80746318807995,9.7592766719821,-0.35434186,-1.1078042,0.5216789,0.10262536,136.93683,-80.20424,0.057943914,STD
5055312094000,0.030047,-1.79035012456166,9.76269934901508,-0.35434186,-0.9737192,0.45265114,0.09315695,136.43271,-80.05642,-0.25991347,STD
5055317652000,0.035605,-1.77114673125767,9.7665400998629,-0.35434186,-0.84971356,0.37995818,0.08735373,135.84473,-79.9069,-0.5870052,STD
5055322129000,0.040082,-1.75493993346065,9.768343,-0.35434186,-0.72418076,0.31948254,0.08582657,135.28021,-79.79143,-0.90731406,STD
5055327116000,0.045069,-1.7357382040004,9.768343,-0.35434186,-0.59559363,0.0842994,0.03268129,134.7957,-79.7054,-1.2255334,STD
5055332080000,0.050033,-1.72198331827625,9.77202684037848,-0.352499974429703,-0.16737708,-0.028710667,0.0070249503,134.18246,-79.72331,-1.5491116,STD
5055337362000,0.055315,-1.71678074112928,9.78243221197161,-0.347297386417772,0.051618114,-0.0009162979,0.009468411,133.60548,-79.71083,-1.8680904,STD
5055342050000,0.060003,-1.7225404595501,9.78956984171779,-0.340619010224949,0.005192355,0.009162978,0.011301007,132.9457,-79.71925,-2.199803,STD
5055347106000,0.065059,-1.74234426355828,9.7945203791411,-0.330717108220859,-0.020158553,0.0021380284,0.007330383,132.29382,-79.78465,-2.5236757,STD
5055352076000,0.070029,-1.7525556,9.79873908635795,-0.32561144,-0.019547688,0.00030543262,0.012217305,131.47629,-79.81119,-2.8688672,STD
5055357173000,0.075126,-1.7525556,9.80233284097769,-0.32561144,-0.022602014,0.007330383,0.009773844,130.67206,-79.820244,-3.2074425,STD
5055362074000,0.080027,-1.7525556,9.80578840138408,-0.32561144,-0.004886922,0.013133603,0.0018325958,129.63304,-79.788376,-3.5884218,STD
5055367096000,0.085049,-1.74567102943625,9.79632328793038,-0.329053725281877,-0.015882496,0.016187929,0.008552114,128.61154,-79.74256,-3.9545007,STD
5055372111000,0.090064,-1.73658520802119,9.7826947455543,-0.333596635989406,-0.018325957,0.013744468,0.005497787,127.60987,-79.69577,-4.3140388,STD
5055377130000,0.095083,-1.738400323456,9.77542078608,-0.3301899113248,-0.016798794,0.012217305,0.013133603,126.307625,-79.592964,-4.7213216,STD
5055382083000,0.100036,-1.74598974592,9.7716259956,-0.322600480936,-0.016493361,0.007330383,0.004886922,125.03739,-79.48433,-5.119473,STD
5055387164000,0.105117,-1.75127483172043,9.76514107930108,-0.31603462,-0.014049901,0.009468411,0.008246681,123.3285,-79.30553,-5.5869846,STD
5055392246000,0.110199,-1.74309786639785,9.74469866599462,-0.31603462,-0.01740966,0.0067195175,0.008552114,121.674385,-79.12767,-6.0377345,STD
5055397058000,0.115011,-1.73535533252688,9.7253423313172,-0.31603462,-0.02107485,0.003970624,0.0106901415,119.488,-78.861565,-6.581456,STD
5055402075000,0.120028,-1.733402,9.73104110072639,-0.326616875424697,-0.021685716,0.01038471,0.009468411,117.38989,-78.6087,-7.097626,STD
5055407106000,0.125059,-1.733402,9.74504019322034,-0.340616172569492,-0.014966198,0.006414085,0.0125227375,115.38234,-78.37167,-7.5831275,STD
5055412060000,0.130013,-1.74735778507827,9.75477141895304,-0.347556197015654,-0.024129177,0.0033597588,0.009773844,112.504745,-78.00327,-8.215201,STD
5055417061000,0.135014,-1.76751166355832,9.76283312186501,-0.351586972711665,-0.01863139,0.0012217305,0.0070249503,109.8083,-77.674065,-8.796603,STD
5055422114000,0.140067,-1.77708821193029,9.76274586461126,-0.35714044230563,-0.010995574,0.014660766,0.0061086523,106.13091,-77.22441,-9.52181,STD
5055427116000,0.145069,-1.7642454987042,9.74562239597855,-0.365702221322609,-0.016187929,0.004886922,0.0021380284,102.793915,-76.83442,-10.163749,STD
5055432068000,0.150021,-1.75114649399834,9.72862690135521,-0.373847736500415,-0.0125227375,0.0076358155,0.010995574,99.4006,-76.47186,-10.769709,STD
5055437082000,0.155035,-1.73343908173689,9.71091958154329,-0.378274589565779,-0.008246681,0.011911872,0.008552114,96.33161,-76.16094,-11.298614,STD
5055442067000,0.16002,-1.71583408570112,9.69331467742233,-0.382675838574721,-0.0076358155,0.013439035,0.0070249503,93.25509,-75.90354,-11.751942,STD
5055447067000,0.16502,-1.70455372732261,9.70142353770297,-0.376609144881738,0.0012217305,0.016187929,0.007330383,90.4789,-75.69397,-12.135117,STD
5055452929000,0.170882,-1.69206632428264,9.71391076688663,-0.368284209521762,0.00030543262,0.012217305,0.01038471,87.9693,-75.522446,-12.4572315,STD
5055457033000,0.174986,-1.685518,9.72141623532266,-0.362961444667637,-0.0012217305,0.010995574,0.0021380284,85.49379,-75.39423,-12.715534,STD
5055462119000,0.180072,-1.685518,9.72614293323629,-0.358234845463367,-0.008552114,0.005192355,0.011301007,83.25282,-75.299545,-12.920486,STD
5055467078000,0.185031,-1.68724536847037,9.72888439697041,-0.355493438980245,-0.0027488936,-0.00061086525,0.01282817,81.57934,-75.28057,-13.028053,STD
5055472069000,0.190022,-1.6984418568283,9.72141991551495,-0.362957764552198,-0.0027488936,0.005497787,0.0143553335,80.7953588153135,-75.2775439053457,-13.0695783005426,STD
5055477030000,0.194983,-1.70957104511595,9.71400030171,-0.370377223410635,-0.0009162979,0.008246681,0.01863139,80.01609,-75.274536,-13.110854,STD
5055482094000,0.200047,-1.71702227333009,9.70533442712688,-0.376269333330092,0.002443461,0.002443461,0.022602014,78.770424,-75.30499,-13.145964,STD
5055487103000,0.205056,-1.72168636581429,9.69600653437044,-0.380933425814293,0.008246681,0.0070249503,0.025961773,77.58302,-75.341675,-13.169245,STD
5055492058000,0.210011,-1.72554015886276,9.69344381560331,-0.388217140169777,0.009468411,0.018325957,0.028405234,76.45486,-75.378265,-13.18833,STD
5055497064000,0.215017,-1.72877006257495,9.69667344950482,-0.397906858051607,0.01038471,0.010995574,0.02321288,75.38545,-75.4179,-13.199408,STD
5055503323000,0.221276,-1.73280841002493,9.70071145961059,-0.410021908835141,-0.003970624,0.005497787,0.01740966,74.34692,-75.454735,-13.208182,STD
5055507102000,0.225055,-1.73065575414243,9.70679760641926,-0.41180268,0.0033597588,0.0070249503,0.015271631,73.356995,-75.49692,-13.210064,STD
5055512078000,0.230031,-1.72587599919759,9.71635731594784,-0.41180268,0.004276057,0.019242255,0.02076942,72.41071,-75.53988,-13.205083,STD
5055517031000,0.234984,-1.71852575524791,9.73370761188022,-0.387955167548355,0.01282817,0.024129177,0.013744468,71.50695,-75.583115,-13.199859,STD
5055522104000,0.240057,-1.70898562635248,9.7575579341188,-0.345024567595484,-0.00030543262,0.009468411,0.016493361,70.64452,-75.63018,-13.184811,STD
5055527053000,0.245006,-1.7046716,9.768343,-0.32561144,0.0125227375,0.019547688,0.022907447,69.79662,-75.67958,-13.169888,STD
5055532106000,0.250059,-1.7046716,9.768343,-0.32561144,-0.0009162979,0.0143553335,0.024129177,68.99318,-75.72588,-13.150385,STD
5055537030000,0.254983,-1.7046716,9.768343,-0.32561144,0.007941248,0.021991149,0.01740966,68.21017,-75.77812,-13.122794,STD
5055542123000,0.260076,-1.69725864500047,9.76463644509489,-0.318198477259938,0.0015271631,0.02107485,0.018325957,67.46356,-75.831116,-13.088936,STD
5055547090000,0.265043,-1.68827593031819,9.76014499395713,-0.309215753197998,-0.002443461,0.027794369,0.018020526,66.74347,-75.88469,-13.054661,STD
5055552090000,0.270043,-1.68225467581879,9.76202939233183,-0.175924759385174,0.0012217305,0.02107485,0.016187929,66.04757,-75.936966,-13.02017,STD
5055557069000,0.275022,-1.67757896615023,9.76670519964699,0.0111037611331633,-0.00580322,0.014966198,0.014049901,65.37761,-75.98882,-12.983447,STD
5055562047000,0.28,-1.68011046313522,9.76208919236723,-0.0255325655164569,-0.008857546,0.021991149,0.017104227,64.73055,-76.04378,-12.942523,STD
5055567037000,0.28499,-1.68654355622266,9.75243968708353,-0.183143458338696,-0.003970624,0.025045475,0.01160644,64.11187,-76.097046,-12.902348,STD
5055572059000,0.290012,-1.69301790361446,9.74272830120482,-0.341765082337349,-0.008857546,0.014049901,0.0106901415,63.472168,-76.13206,-12.860316,STD
5055577051000,0.295004,-1.7182687789503,9.739613,-0.196957789429821,-0.005192355,0.015271631,0.015577064,62.856804,-76.17035,-12.816523,STD
5055582083000,0.300036,-1.75275900730815,9.739613,0.0942928979848907,-0.0106901415,0.014966198,0.011911872,62.272263,-76.20617,-12.773328,STD
5055587077000,0.30503,-1.78065221131265,9.74088072442323,0.247712452340493,0.00030543262,0.01863139,0.01160644,61.761826,-76.27091,-12.7248745,STD
5055592749000,0.310702,-1.77633079708831,9.74952319188544,-0.348636907761336,-0.005192355,0.014049901,0.015271631,61.271046,-76.33357,-12.675205,STD
5055597024000,0.314977,-1.77307373682578,9.75603704033413,-0.798106850362769,-0.010995574,0.01160644,0.013439035,60.727566,-76.34899,-12.641026,STD
5055602107000,0.32006,-1.78560749458649,9.758766,-0.772377656519132,-0.0021380284,0.011911872,0.013439035,60.20838,-76.36837,-12.603905,STD
5055607132000,0.325085,-1.80682223647505,9.758766,-0.445671078909363,-0.0030543262,0.021380283,0.0067195175,59.710022,-76.385216,-12.568197,STD
5055612059000,0.330012,-1.8213626126372,9.75522748557552,-0.155223337413307,-0.0030543262,0.013133603,0.004886922,59.5169295528414,-76.4320859089533,-12.5410042568891,STD
5055617039000,0.334992,-1.82599519777562,9.74596260553667,0.0903038393909665,-0.005497787,0.013439035,0.011911872,59.32176,-76.47946,-12.513519,STD
5055622025000,0.339978,-1.81740454220443,9.736671552963,0.0747370434687103,0.008552114,0.010079277,0.011301007,58.939884,-76.57055,-12.46256,STD
5055627113000,0.345066,-1.77934786193498,9.72715719662208,-0.519898216919848,0.008246681,0.004581489,-0.0012217305,58.545204,-76.61875,-12.420048,STD
5055632005000,0.349958,-1.74767023862928,9.72168036584891,-0.879902675292056,0.0033597588,0.0030543262,0.006414085,58.11567,-76.6408,-12.382103,STD
5055637095000,0.355048,-1.72868818566978,9.72642597819315,-0.652117891121495,-0.0009162979,0.0018325958,0.0125227375,57.70471,-76.66024,-12.347248,STD
5055642085000,0.360038,-1.71278930182611,9.7307655643227,-0.45403566276097,-0.00030543262,-0.004886922,0.013133603,57.36655,-76.748604,-12.294318,STD
5055649067000,0.36702,-1.70367711627146,9.73532175224857,-0.29912839415372,0.00030543262,-0.008552114,0.014049901,57.03573,-76.83672,-12.239765,STD
5055652128000,0.370081,-1.69968221509948,9.73731924454892,-0.231215024172799,0.004581489,-0.0067195175,0.0070249503,56.69102,-76.903275,-12.18645,STD
5055657033000,0.374986,-1.69242818301282,9.74094619711538,-0.161228766530449,0.0036651916,-0.004276057,0.0061086523,56.356724,-76.97079,-12.13111,STD
5055662545000,0.380498,-1.68185379967949,9.74623294711538,-0.192951938613782,0.003970624,-0.0021380284,0.012217305,56.031155,-77.03844,-12.075897,STD
5055667005000,0.384958,-1.68211428934419,9.749189,-0.209455130841987,-0.0030543262,0.00061086525,0.010995574,55.699387,-77.08862,-12.023534,STD
5055672115000,0.390068,-1.70500578901675,9.749189,-0.204876826126859,0.007941248,0.008246681,0.015577064,55.375736,-77.14391,-11.968043,STD
5055677100000,0.395053,-1.7272804343611,9.74630964304341,-0.203992298760546,-0.0015271631,0.011301007,0.007941248,55.06452,-77.19808,-11.913161,STD
5055682097000,0.40005,-1.74930314622642,9.72795741509434,-0.222344538207547,-0.009468411,0.014049901,0.011301007,54.75992,-77.257454,-11.8543625,STD
5055687129000,0.405082,-1.77148010962571,9.70947664442399,-0.240825320456358,-0.006414085,0.022296581,0.002443461,54.469727,-77.309685,-11.803082,STD
5055692055000,0.410008,-1.76854248446152,9.70895131303577,-0.254094413554045,-0.016798794,0.018020526,0.0106901415,54.18977,-77.36479,-11.746186,STD
5055697079000,0.415032,-1.74483869902453,9.723173851611,-0.263575922778599,-0.014049901,0.019547688,0.0143553335,53.913666,-77.417725,-11.693844,STD
5055702077000,0.42003,-1.73558540860939,9.72785254579274,-0.29216810838264,-0.007941248,0.01985312,0.009773844,53.65124,-77.467445,-11.645693,STD
5055707095000,0.425048,-1.73984195266608,9.72359591284322,-0.338990119674048,-0.01038471,0.011301007,0.008552114,53.397316,-77.518,-11.595841,STD
5055712014000,0.429967,-1.74402959734004,9.7267638059849,-0.398714615911215,-0.02076942,0.0061086523,0.0143553335,53.155598,-77.578156,-11.53611,STD
5055717024000,0.434977,-1.74834122278936,9.75263364872394,-0.502193707733645,-0.02443461,0.0036651916,0.012217305,52.921497,-77.635635,-11.479607,STD
5055722104000,0.440057,-1.75283244296659,9.77805842437406,-0.604584634216887,-0.01282817,0.00061086525,0.007941248,52.69448,-77.69577,-11.425949,STD
5055727100000,0.445053,-1.76039040723482,9.78183748542769,-0.638595497099755,-0.02076942,0.0021380284,0.010079277,52.471752,-77.75388,-11.371797,STD
5055732088000,0.450041,-1.76793626907827,9.78561049514256,-0.672551899033252,-0.01985312,0.007330383,0.015271631,52.258003,-77.82432,-11.316921,CSI
5055737078000,0.455031,-1.76009418892128,9.78556112439261,-0.701145111078717,-0.031154128,0.009162978,0.0125227375,52.049244,-77.89011,-11.264294,CSI
5055742161000,0.460114,-1.73644070281827,9.78161879437966,-0.72479859718173,-0.016798794,0.019242255,0.009162978,51.840702,-77.9589,-11.211302,CSI
5055747259000,0.465212,-1.71306723141518,9.77762470168697,-0.746400315707591,-0.015882496,0.027794369,0.007941248,51.63474,-78.02581,-11.1606245,CSI
5055752089000,0.470042,-1.69572667134021,9.77328947113402,-0.737730035670103,-0.019547688,0.024129177,0.013439035,51.433384,-78.09364,-11.109465,CSI
5055757071000,0.475024,-1.67784040419869,9.76881781096532,-0.728786902099344,-0.02687807,0.023823744,0.005192355,51.227455,-78.16263,-11.058446,CSI
5055762058000,0.480011,-1.6468033509517,9.79748074763024,-0.688986859393342,-0.021991149,0.029932396,0.02107485,51.02391,-78.239296,-10.999688,CSI
5055767010000,0.484963,-1.6144366778949,9.82984730803063,-0.645831322855843,-0.03176499,0.023518313,0.01038471,50.828575,-78.30336,-10.951248,CSI
5055772032000,0.489985,-1.58144770796777,9.87469648582513,-0.598683320886302,-0.04917465,0.01740966,0.008857546,50.64239,-78.37909,-10.888755,CSI
5055777963000,0.495916,-1.54189726544315,9.97074765323784,-0.530882610313339,-0.049480084,0.008246681,0.008857546,50.462555,-78.451935,-10.829556,CSI
5055782039000,0.499992,-1.51446767067851,10.0369207611739,-0.484596562680847,-0.07360926,-0.007330383,0.008552114,50.285866,-78.52302,-10.763128,CSI
5055787107000,0.50506,-1.47961923481422,10.1196858134087,-0.42796773955035,-0.086132,-0.014049901,0.0036651916,50.112953,-78.5929,-10.699031,CSI
5055792464000,0.510417,-1.44540443983325,10.2041532501315,-0.370721617884774,-0.093767814,-0.03604105,0.0036651916,49.949448,-78.6666,-10.623323,CSI
5055797064000,0.515017,-1.43878635525426,10.2504801186059,-0.344249265747765,-0.13439035,-0.04184427,0.0067195175,49.786842,-78.73408,-10.549693,CSI
5055802025000,0.519978,-1.43164889490723,10.3004426391497,-0.315699409453917,-0.15851954,-0.04642576,0.0033597588,49.632202,-78.806435,-10.466076,CSI
5055807107000,0.52506,-1.43044998921212,10.364926129697,-0.291622482521212,-0.20097467,-0.049480084,-0.0015271631,49.482365,-78.87164,-10.383844,CSI
5055812106000,0.530059,-1.44012158985859,10.4519703335354,-0.277115071452525,-0.22724187,-0.040927973,-0.012217305,49.334145,-78.932,-10.306246,CSI
5055817015000,0.534968,-1.45237775245902,10.5245966721311,-0.266580627868852,-0.25442538,-0.040317107,-0.010995574,49.186947,-78.989136,-10.22326,CSI
5055822066000,0.540019,-1.46980606826698,10.5768819380292,-0.262223523893893,-0.2932153,-0.027183503,-0.01740966,49.03774,-79.03569,-10.147928,CSI
5055827069000,0.545022,-1.48735947953964,10.6224516630435,-0.25975556366688,-0.3203988,-0.005192355,-0.028710667,48.881912,-79.075966,-10.076729,CSI
5055832040000,0.549993,-1.50638372538363,10.6338660516304,-0.267365273923434,-0.3484986,0.015271631,-0.043066,48.72689,-79.10779,-10.010412,CSI
5055837037000,0.55499,-1.52550747442455,10.6453401413043,-0.2750147855211,-0.39614612,0.049785517,-0.049480084,48.56116,-79.128265,-9.95182,CSI
5055842084000,0.560037,-1.52397349128389,10.649409,-0.267333005421886,-0.44532076,0.07269296,-0.06627888,48.397755,-79.13763,-9.902014,CSI
5055847958000,0.565911,-1.50905889641413,10.649409,-0.248689746261019,-0.49846604,0.090713486,-0.073303826,48.230186,-79.14069,-9.8533535,CSI
5055852101000,0.570054,-1.49853946050242,10.649409,-0.235540440387088,-0.5488624,0.1133155,-0.079107046,48.067863,-79.13269,-9.813335,CSI
5055857109000,0.575062,-1.47556017254041,10.6770413770704,-0.202210899574935,-0.60994893,0.1337795,-0.08857546,47.905388,-79.11313,-9.777966,CSI
5055862124000,0.580077,-1.44680683867492,10.7201712777889,-0.159080868752744,-0.67103547,0.15668693,-0.09040806,47.7399,-79.08674,-9.743846,CSI
5055867088000,0.585041,-1.41858745141282,10.71467775032,-0.13468533506941,-0.7489208,0.1704314,-0.100792766,47.575867,-79.04536,-9.713344,CSI
5055872118000,0.590071,-1.39013137904893,10.68147935414,-0.120457313744216,-0.81061816,0.1685988,-0.10140363,47.414043,-78.99889,-9.6819725,CSI
5055877111000,0.595064,-1.3790601,10.6252726995533,-0.137706090353421,-0.86315256,0.18051068,-0.10415252,47.247005,-78.940186,-9.649873,CSI
5055882095000,0.600048,-1.3790601,10.5542058822193,-0.175109746875637,-0.9239337,0.18295415,-0.11911872,47.088398,-78.86695,-9.622667,CSI
5055887077000,0.60503,-1.3797877958907,10.4829655205465,-0.215783624527588,-0.9761627,0.19181168,-0.1255328,46.936344,-78.79065,-9.591901,CSI
5055892073000,0.610026,-1.39487314306884,10.4075387846558,-0.321381123033106,-1.0042624,0.1966986,-0.13744467,46.790134,-78.70254,-9.568504,CSI
5055897080000,0.615033,-1.41130302856712,10.3394394054136,-0.417422719105454,-1.0311406,0.20952678,-0.13988814,46.64138,-78.607544,-9.549782,CSI
5055902122000,0.620075,-1.43559681325216,10.3151451641175,-0.456292728940431,-1.070236,0.21288654,-0.14538592,46.498936,-78.50196,-9.536349,CSI
5055907038000,0.624991,-1.45912870426966,10.2910371876404,-0.508566104196629,-1.1148291,0.19761491,-0.14660765,46.358643,-78.39784,-9.525086,CSI
5055912109000,0.630062,-1.482514235313,10.263753905297,-0.64498178741573,-1.1478158,0.17501289,-0.14996742,46.22377,-78.28732,-9.516685,CSI
5055917035000,0.634988,-1.50523108128411,10.2372507601926,-0.777496805269663,-1.181108,0.14538592,-0.1572978,46.10447,-78.17026,-9.511371,CSI
5055922091000,0.640044,-1.5097889272271,10.1878715363864,-0.867109537496863,-1.196685,0.11759156,-0.16371189,45.99455,-78.05019,-9.50682,CSI
5055927032000,0.644985,-1.50484131442911,10.1285004927854,-0.931428550367001,-1.2223413,0.09193522,-0.1685988,45.88663,-77.9355,-9.507268,CSI
5055932031000,0.649984,-1.49672695333845,10.0721179773599,-0.968598807818496,-1.2547172,0.076358154,-0.17654006,45.78672,-77.81534,-9.5103,CSI
5055937077000,0.65503,-1.48745517037606,10.0164870859555,-0.99641418090944,-1.276403,0.053145275,-0.17806722,45.698723,-77.69356,-9.512187,CSI
5055942075000,0.660028,-1.45256500159363,9.94087413585657,-1.00238070015936,-1.2873985,0.03970624,-0.19181168,45.603275,-77.56733,-9.522316,CSI
5055947050000,0.665003,-1.40511024063745,9.85545576434263,-0.997635224063745,-1.3096951,0.03634648,-0.1966986,45.5135,-77.437775,-9.530286,CSI
5055952109000,0.670062,-1.37633557455667,9.79812585697764,-0.965234323546646,-1.3286319,0.054061573,-0.19639318,45.416466,-77.306694,-9.540691,CSI
5055957197000,0.67515,-1.35755116499614,9.75586103353894,-0.91827328003084,-1.350623,0.0720821,-0.19303341,45.322407,-77.1718,-9.551854,CSI
5055962094000,0.680047,-1.33125562371117,9.761071370524,-0.876377145863032,-1.3753631,0.06169739,-0.21746802,45.232563,-77.02985,-9.565101,CSI
5055967106000,0.685059,-1.29874975102853,9.79764034470499,-0.835744815616693,-1.3826935,0.029932396,-0.23151793,45.14522,-76.89151,-9.574641,CSI
5055972060000,0.690013,-1.25795247177533,9.8363125448345,-0.785536365033099,-1.3869696,0.020158553,-0.2510656,45.056644,-76.73763,-9.590554,CSI
5055977064000,0.695017,-1.18585266150451,9.88437905155466,-0.699016587689067,-1.4043792,0.014049901,-0.2666427,44.97852,-76.57949,-9.60835,CSI
5055982048000,0.700001,-1.1147813540993,9.92564713479384,-0.594374011884626,-1.4202617,0.008246681,-0.28710666,44.89764,-76.41522,-9.628418,CSI
5055987668000,0.705621,-1.0375475645652,9.9462426901368,-0.403864006661246,-1.427592,0.010995574,-0.31856623,44.81928,-76.246025,-9.656316,CSI
5055992067000,0.71002,-0.983092743666496,9.96224925275608,-0.253550804563043,-1.4813483,0.008552114,-0.33200526,44.74742,-76.06495,-9.670589,CSI
5055997103000,0.715056,-0.958444893378112,9.97985484697379,-0.073973614857268,-1.4932601,-0.006414085,-0.34972036,44.682194,-75.88618,-9.694573,CSI
5056002115000,0.720068,-0.933914507030737,9.99737653843908,0.104747766160473,-1.5198327,-0.043676864,-0.36774087,44.639786,-75.679306,-9.703071,CSI
5056007185000,0.725138,-0.8985340117966,10.0369381425461,0.314886919256687,-1.5460999,-0.112704635,-0.40103304,44.61448,-75.46599,-9.718915,CSI
5056012055000,0.730008,-0.850183338118391,10.1046289211072,0.556640237160481,-1.5848899,-0.15515977,-0.40744713,44.59351,-75.24872,-9.73211,CSI
5056017041000,0.734994,-0.810120541853847,10.216004563167,0.846852931436122,-1.625207,-0.21899518,-0.4111123,44.606644,-74.99031,-9.743123,CSI
5056022079000,0.740032,-0.780698058605549,10.3778283592845,1.19011513359081,-1.6710218,-0.3323107,-0.42302418,44.648186,-74.72251,-9.753822,CSI
5056027062000,0.745015,-0.761645526157473,10.5298566754361,1.51737077844413,-1.6893479,-0.44043383,-0.4129449,44.70473,-74.42766,-9.747269,CSI
5056032042000,0.749995,-0.752651190655351,10.673766231306,1.83217270885431,-1.7281377,-0.50671273,-0.38820487,44.781902,-74.12173,-9.737502,CSI
5056037043000,0.754996,-0.767761356331075,10.8214496329138,2.19644663257502,-1.7577647,-0.54275376,-0.34697145,44.883854,-73.777374,-9.703608,CSI
5056042049000,0.760002,-0.823453324404647,10.9746022180058,2.64198232870281,-1.7809776,-0.56077427,-0.31764993,44.997868,-73.43133,-9.667343,CSI
5056047038000,0.764991,-0.915518621841064,11.1607740871816,3.13281034187557,-1.7989981,-0.5681047,-0.28008172,45.123276,-73.04871,-9.615207,CSI
5056052108000,0.770061,-1.09292236252918,11.4268798783112,3.73893957053689,-1.8332067,-0.5861252,-0.23884831,45.25295,-72.66648,-9.557186,CSI
5056057284000,0.775237,-1.62104586971314,11.7490718158125,4.50972517548539,-1.8964312,-0.643852,-0.23396139,45.402588,-72.209145,-9.511724,CSI
5056062122000,0.780075,-2.66245532689348,12.1299765175791,5.47009123574427,-1.9709567,-0.7263188,-0.25992316,45.561676,-71.74804,-9.4637,CSI
5056067145000,0.785098,-3.69568981831584,12.5044569295811,6.41689414699506,-2.125811,-0.8017606,-0.3304781,45.76353,-71.164276,-9.449138,CSI
5056072061000,0.790014,-4.08356247411326,12.5983627188449,6.69044646127829,-2.3160956,-0.90285885,-0.43585235,45.997616,-70.55311,-9.444049,CSI
5056077104000,0.795057,-4.48145543651895,12.6946944713381,6.97106572916486,-2.5692992,-0.97341377,-0.54367006,46.30254,-69.64584,-9.641137,CSI
5056082045000,0.799998,-4.64121671698556,12.5609125632152,7.08240260257925,-2.879619,-0.9966267,-0.59773165,46.62514,-68.69443,-9.839685,CSI
5056087070000,0.805023,-4.72697421909585,12.3487762168449,7.14107883288314,-3.0341678,-1.0054842,-0.68600166,46.974926,-67.72512,-10.063398,CSI
5056092109000,0.810062,-4.53766568243243,12.0515749948611,7.16060548434526,-3.3402112,-0.93187493,-0.7287622,47.306923,-66.58911,-10.352203,CSI
5056097046000,0.814999,-4.18670502702703,11.7096130414922,7.15610603936049,-3.615406,-0.799928,-0.7110472,47.629345,-65.45007,-10.642199,CSI
5056103059000,0.821012,-3.78897014943986,11.3235568065948,7.41126383040936,-3.7766743,-0.6047566,-0.65087694,47.919563,-64.25757,-10.949276,CSI
5056107119000,0.825072,-3.53419592411752,11.0770012707673,7.70439108187134,-3.8573086,-0.44684792,-0.58459806,48.186085,-63.052525,-11.250432,CSI
5056112109000,0.830062,-3.22106208560558,10.7739687279645,8.06466324561404,-3.911981,-0.41874814,-0.5015204,48.438663,-61.844738,-11.476589,CSI
5056117053000,0.835006,-2.96554098743456,10.4142411141361,8.61740148586387,-3.9703186,-0.5467244,-0.43218717,48.68771,-60.651203,-11.681211,CSI
5056122107000,0.84006,-2.73056149976202,10.0180007786768,9.276266039505,-4.051258,-0.91782504,-0.41386122,48.991665,-59.470146,-11.841377,CSI
5056127047000,0.845,-2.33399392664113,9.88944221470369,9.52189568709437,-4.1153994,-1.3582588,-0.38881573,49.365475,-58.229626,-11.87989,CSI
5056132063000,0.850016,-1.80757206465581,9.9507730745824,9.47589727534844,-4.1563272,-1.704314,-0.2947425,49.791164,-57.007618,-11.850957,CSI
5056137042000,0.854995,-1.40772114156148,10.2887754112514,9.02410841382266,-4.1416664,-1.926669,-0.0720821,50.302094,-55.71014,-11.695217,CSI
5056142508000,0.860461,-1.02839632949977,10.7945418273336,8.33071901363565,-4.0295725,-2.2510383,0.15515977,50.892223,-54.45872,-11.441563,CSI
5056147079000,0.865032,-0.787881447373279,11.2017827476348,7.8261199955388,-3.7595701,-2.547308,0.33017266,51.473694,-53.31538,-11.037164,CSI
5056151986000,0.869939,-1.0228303133682,11.5379403663564,7.76828639020075,-3.520111,-2.6966646,0.5137377,52.03736,-52.231083,-10.548038,CSI
5056157128000,0.875081,-1.26903106106453,11.8901968317053,7.70768308907007,-3.4009922,-2.807842,0.6976081,52.549282,-51.373375,-9.916766,CSI
5056161970000,0.879923,-1.51323683543741,12.0966490216056,7.47159296449905,-3.3405166,-3.0079005,0.8552113,53.069504,-50.583706,-9.2183895,CSI
5056166952000,0.884905,-1.77599960900233,12.1926583139165,7.06228947830968,-3.2895093,-3.2268956,0.9807441,53.572666,-49.840702,-8.474056,CSI
5056172469000,0.890422,-1.8491047073954,12.0444174199169,6.35287672181137,-3.2275066,-3.4519994,1.0873401,54.048767,-49.17994,-7.7248235,CSI
5056176963000,0.894916,-1.81422423797994,11.8133344921487,5.66398685900111,-3.1719177,-3.531412,1.1557571,54.505787,-48.542084,-6.9604053,CSI
5056181953000,0.899906,-1.9213882679597,11.2041038302267,4.93585904326448,-3.1658092,-3.6233473,1.3035865,54.923504,-47.982044,-6.2021136,CSI
5056186995000,0.904948,-2.11112774513854,10.3916293460957,4.22068733577834,-3.1273246,-3.5149186,1.488984,55.2769,-47.455776,-5.465541,CSI
5056191932000,0.909885,-2.51236667088429,9.59447843612936,4.05669863409803,-3.0448577,-3.2088752,1.6077974,55.544235,-47.014565,-4.784897,CSI
5056196936000,0.914889,-3.03057691577564,8.78568310454775,4.16808974750884,-2.905886,-2.8142562,1.6404786,55.7376,-46.608868,-4.145634,CSI
5056201974000,0.919927,-3.62243213723373,8.1669986769412,4.70504761016982,-2.7672195,-2.4223862,1.6209309,55.87932,-46.15422,-3.4859362,CSI
5056206979000,0.924932,-4.24351912972416,7.64472095749485,5.43905938085796,-2.681393,-2.1429152,1.4850134,55.972897,-45.72778,-2.916319,CSI
5056211970000,0.929923,-4.50709356414585,7.4394845923025,6.02134123700203,-2.5986207,-1.9999728,1.3054191,56.04834,-45.2276,-2.455718,CSI
5056216970000,0.934923,-4.57579946387576,7.40715238433491,6.52249079810939,-2.5784621,-2.02624,1.1340714,56.1222,-44.740448,-2.0546916,CSI
5056221984000,0.939937,-4.44324462087027,7.39137988097157,6.93782487061126,-2.5662448,-2.150551,0.9941832,56.227512,-44.13642,-1.771492,CSI
5056226940000,0.944893,-3.79307133384367,7.41869806952918,7.12358883805687,-2.518292,-2.3160956,0.9080512,56.364643,-43.557384,-1.5060421,CSI
5056231970000,0.949923,-3.11494106994779,7.37931114230323,7.23374610472829,-2.4678955,-2.463925,0.86254174,56.53597,-42.927353,-1.2578359,CSI
5056236961000,0.954914,-2.4263045874299,7.28225511003674,7.27534161607039,-2.389705,-2.6053402,0.8368854,56.745945,-42.329826,-0.9966123,CSI
5056242000000,0.959953,-1.74956725305499,7.13742277740188,7.30450688654947,-2.322204,-2.7522533,0.80878556,56.985188,-41.754864,-0.6597835,CSI
5056246930000,0.964883,-1.10776266557543,6.94439881593418,7.3189834707686,-2.244319,-2.891225,0.78984874,57.246433,-41.216576,-0.30742148,CSI
5056251972000,0.969925,-0.469417477959084,6.72297914223088,7.30232673692158,-2.1917844,-2.9565878,0.79779,57.506996,-40.70617,0.11760399,CSI
5056256936000,0.974889,0.141900945156357,6.48215671495373,7.25601491395032,-2.1365013,-2.9571986,0.8063421,57.7763,-40.229927,0.54019564,CSI
5056261926000,0.979879,0.653008685780456,6.2720147933858,7.15523136313378,-2.0888536,-2.9003882,0.8045095,58.060204,-39.725914,1.0952857,CSI
5056266932000,0.984885,1.03982620526447,6.10009576840323,6.98808795942823,-2.060143,-2.756224,0.8240572,58.31031,-39.242775,1.6187977,CSI
5056271960000,0.989913,1.38630064663592,5.94202777441091,6.77004096841472,-2.0360138,-2.6804767,0.8344419,58.592186,-38.720905,2.2945337,CSI
5056276929000,0.994882,1.67736815478793,5.80365156264915,6.493288146295,-2.03693,-2.4904976,0.84513205,58.812424,-38.208855,2.8998246,CSI
5056281918000,0.999871,2.00122676219548,5.70582920416215,6.2807623957195,-2.0210476,-2.2440135,0.8671232,59.01504,-37.69464,3.5581424,CSI
5056286962000,1.004915,2.36807923529934,5.65818576611106,6.14736145570569,-2.0091357,-2.042428,0.86467975,59.186607,-37.18756,4.1657906,CSI
5056291918000,1.009871,2.68806857151394,5.59519185159362,6.06570028222112,-2.017077,-1.8701639,0.8533788,59.322964,-36.68309,4.7846904,CSI
5056296930000,1.014883,2.95579183988048,5.50913820776892,6.05135802489044,-2.0332649,-1.72264,0.82527894,59.427166,-36.18846,5.346333,CSI
5056302618000,1.020571,2.87653573740603,5.2980159286223,6.45635838557411,-2.0457878,-1.6398678,0.8167268,59.52178,-35.691486,5.958597,CSI
5056307018000,1.024971,2.49973832346285,5.04126024293741,7.11658738612804,-2.0564778,-1.5693128,0.77763146,59.60244,-35.20065,6.5173435,CSI
5056311989000,1.029942,2.07404288148295,4.7511846716784,7.8624961047084,-2.0772474,-1.5806139,0.73364913,59.694347,-34.689163,7.127995,CSI
5056316976000,1.034929,1.77340585744171,4.58592154748311,8.0606054388102,-2.091908,-1.6401732,0.7089091,59.783054,-34.18539,7.7186766,CSI
5056322078000,1.040031,1.49015365069538,4.42404645074024,8.15551642507851,-2.1560488,-1.8188512,0.68233645,59.89988,-33.67227,8.321229,CSI
5056326994000,1.044947,1.32540682374159,4.18326262333782,7.75421013429341,-2.2061398,-1.9425515,0.6899723,60.003765,-33.034504,8.825716,CSI
5056331953000,1.049906,1.15921896473755,3.94037267213997,7.34939363795424,-2.2073615,-2.0534234,0.7263188,60.130997,-32.37408,9.3232765,CSI
5056337038000,1.054991,1.17738125856208,3.6848291982319,6.97869213499072,-2.166739,-2.1084013,0.75777835,60.261547,-31.724663,9.823049,CSI
5056341968000,1.059921,1.2327259866074,3.4357779942659,6.62817549193123,-2.0922134,-2.0754147,0.77396625,60.383938,-31.09676,10.316561,CSI
5056346975000,1.064928,1.33119991945364,3.15645372698676,6.37810558907285,-2.0265455,-2.1090124,0.80756384,60.519764,-30.487602,10.828496,CSI
5056352003000,1.069956,1.44192510918874,2.86856807643488,6.15665511710817,-1.9456058,-2.0980167,0.8026769,60.642857,-29.917654,11.302428,CSI
5056357021000,1.074974,1.46803924695729,2.60755523529542,6.0389638280925,-1.8903224,-2.112983,0.8011498,60.76745,-29.343294,11.835465,CSI
5056362052000,1.080005,1.44138463266209,2.36233256111972,5.98565465516707,-1.8301523,-2.1077905,0.7858781,60.88558,-28.805632,12.342049,CSI
5056366997000,1.08495,1.46122681268418,2.3458224250572,5.91239816738354,-1.7721201,-2.0415115,0.7507534,61.009483,-28.249037,12.886955,CSI
5056372049000,1.090002,1.49222104304933,2.38124454131967,5.83269871787316,-1.7195857,-2.006387,0.7324274,61.130157,-27.717583,13.423463,CSI
5056377043000,1.094996,1.5782695739628,2.34247879956128,5.76906303971388,-1.6609426,-1.926669,0.7128797,61.244072,-27.17538,13.937942,CSI
5056382042000,1.099995,1.69698545407725,2.26029085321888,5.71427113905579,-1.6377298,-1.7956384,0.6792821,61.348244,-26.65004,14.411662,CSI
5056387038000,1.104991,1.92878658114634,2.33930649288264,5.79810006193576,-1.5949692,-1.6600263,0.63591075,61.456436,-26.161787,14.873483,CSI
5056392027000,1.10998,2.25981683903002,2.55999327909931,6.00373977066975,-1.564426,-1.4165965,0.4831944,61.565136,-25.69771,15.242034,CSI
5056397003000,1.114956,2.40240096491604,2.51114839838074,5.8679600762937,-1.5289958,-1.4892895,0.56382865,61.65048,-25.21079,15.726746,CSI
5056402052000,1.120005,2.43139962302947,2.29572934413982,5.5199756165867,-1.5021176,-1.4532484,0.49846604,61.764004,-24.763159,16.072065,CSI
5056407042000,1.124995,2.45313183378109,2.10994075856858,5.24743391697975,-1.505172,-1.3096951,0.4260785,61.86279,-24.320234,16.474688,CSI
5056412153000,1.130106,2.4582684719173,1.98666133602687,5.14470077880155,-1.493871,-1.2654073,0.38362336,61.975487,-23.90013,16.87743,CSI
5056416974000,1.134927,2.47508885471552,1.88419986573616,5.05239134370456,-1.4706581,-1.2388347,0.32528573,62.091373,-23.473713,17.276176,CSI
5056422030000,1.139983,2.51263488615877,1.79972119697587,4.96321961703984,-1.459357,-1.180497,0.2669481,62.206055,-23.058374,17.640833,CSI
5056426981000,1.144934,2.57328797610506,1.72253595059028,4.83927072618285,-1.4563028,-1.2055426,0.23060162,62.337624,-22.633585,18.03655,CSI
5056432037000,1.14999,2.68850064490711,1.65606711032305,4.63100165324426,-1.4288138,-1.1936307,0.19150625,62.47075,-22.231209,18.391537,CSI
5056437008000,1.154961,2.77906726002482,1.57986809328922,4.4603498335229,-1.395827,-1.1523973,0.14385876,62.611813,-21.82268,18.762989,CSI
5056442054000,1.160007,2.71910506442974,1.42996255212491,4.51531528383828,-1.3628404,-1.1530081,0.09162979,62.76503,-21.432674,19.128849,CSI
5056446995000,1.164948,2.65952777248666,1.25669363940295,4.56523761720353,-1.3170254,-1.1313224,0.02565634,62.920433,-21.057531,19.515099,CSI
5056452056000,1.170009,2.59489016327452,0.968310663520722,4.60004237587197,-1.2638801,-1.0525209,-0.00061086525,63.06952,-20.700485,19.877485,CSI
5056457015000,1.174968,2.59630522016824,0.718421594641498,4.59579587172041,-1.2052372,-1.0348058,-0.04153884,63.237896,-20.333767,20.239553,CSI
5056461998000,1.179951,2.79223662048868,0.565499597053875,4.47632562737833,-1.1453724,-0.98654735,-0.09437868,63.40121,-19.99122,20.561455,CSI
5056467001000,1.184954,3.00406746213693,0.373773639221992,4.3839323283195,-1.0580186,-0.9431759,-0.13316862,63.55388,-19.619785,20.873919,CSI
5056472022000,1.189975,3.26254095665787,0.065419241799321,4.37486313523199,-0.9630291,-0.86376345,-0.1591304,63.70525,-19.275492,21.153315,CSI
5056477062000,1.195015,3.53693208813056,-0.235924773456973,4.35334790578635,-0.9077458,-0.784351,-0.21960606,63.85754,-18.92403,21.46465,CSI
5056481992000,1.199945,3.89593812596439,-0.481099543375371,4.25702912796736,-0.77640975,-0.68752885,-0.267559,64.00055,-18.623272,21.743599,CSI
5056487363000,1.205316,4.27655664418605,-0.740064426325581,4.15212466232558,-0.66675943,-0.5510005,-0.3210097,64.12751,-18.273342,22.037981,CSI
5056491992000,1.209945,4.38962891117779,-0.796600650109527,4.06233192456114,-0.5335908,-0.42821655,-0.37995818,64.2589,-17.973236,22.301004,CSI
5056497730000,1.215683,4.52979064546137,-0.866681629170293,3.95102694955739,-0.42149702,-0.3173445,-0.43218717,64.375565,-17.653288,22.605818,CSI
5056502094000,1.220047,4.63014545932886,-0.892940200008054,3.86968171487248,-0.3136793,-0.17715092,-0.48808134,64.49284,-17.376318,22.861036,CSI
5056507058000,1.225011,4.73224327892617,-0.870606311132886,3.78353672539597,-0.21563543,-0.053145275,-0.52778757,64.60926,-17.131868,23.085087,CSI
5056512119000,1.230072,4.83633616067114,-0.847836002591946,3.69570840312752,-0.12522738,0.07391469,-0.5757405,64.724525,-16.909586,23.307896,CSI
5056517150000,1.235103,4.90772134696201,-0.831423657542697,3.64094513878481,-0.02687807,0.21380283,-0.6270532,64.83736,-16.720755,23.488407,CSI
5056522095000,1.240048,4.91997610216334,-0.826521745225132,3.64584704086534,0.05375614,0.32895094,-0.6826419,64.95419,-16.557417,23.635626,CSI
5056527097000,1.24505,4.93237211541248,-0.821563329570438,3.65080544616499,0.15454891,0.4792238,-0.74189585,65.07329,-16.443403,23.77267,CSI
5056532027000,1.24998,4.94458969744333,-0.816676286552117,3.65569247897733,0.24617869,0.6239988,-0.8167268,65.20142,-16.356144,23.873531,CSI
5056537120000,1.255073,4.8911421938247,-0.773984028982736,3.77385327642762,0.3371976,0.7669413,-0.89552844,65.332596,-16.301695,23.928894,CSI
5056542059000,1.260012,4.76865253416335,-0.69232426899336,4.00941028901062,0.44440445,0.9211848,-0.9786061,65.470795,-16.283487,23.935831,CSI
5056547154000,1.265107,4.64229399681275,-0.608085257625498,4.2524074501992,0.54153204,1.1096367,-1.0656544,65.61463,-16.293196,23.897161,CSI
5056551976000,1.269929,4.52977668764627,-0.524196492169843,4.38725332908726,0.66614854,1.1835514,-1.1276573,65.76996,-16.342663,23.84468,CSI
5056556946000,1.274899,4.42236191875627,-0.432694920521565,4.41112328696088,0.7452556,1.2586879,-1.1902709,65.93113,-16.413252,23.735666,CSI
5056562081000,1.280034,4.3123246131742,-0.342777221980672,4.44911212502684,0.82558435,1.3628404,-1.2516629,66.10326,-16.5228,23.53291,CSI
5056567379000,1.285332,4.21174545049145,-0.313441679177335,4.67122413447592,0.91751957,1.5250251,-1.3267993,66.28239,-16.660906,23.29105,CSI
5056572085000,1.290038,4.12240503154374,-0.287384098121748,4.86851728594202,1.0552697,1.5259414,-1.352761,66.47881,-16.85231,23.04222,CSI
5056576958000,1.294911,3.97106204176896,-0.307285976560719,4.88579947202981,1.0751228,1.5909985,-1.4101825,66.681114,-17.043745,22.727829,CSI
5056581953000,1.299906,3.78231799579132,-0.354472007216133,4.79667036505918,1.138042,1.7272215,-1.4700472,66.87991,-17.279587,22.396646,CSI
5056586960000,1.304913,3.57277720801828,-0.327375224477669,4.65092460317113,1.244027,2.0323486,-1.5457945,67.07306,-17.520073,21.962172,CSI
5056591938000,1.309891,3.35940252179792,-0.281976366970765,4.49202851182744,1.4523321,2.2088888,-1.6169603,67.276634,-17.803112,21.527739,CSI
5056596926000,1.314879,3.23780313372434,0.0149409415835777,4.46251102258065,1.6016886,2.3967297,-1.6572775,67.457344,-18.09234,20.983028,CSI
5056602065000,1.320018,3.15400092451045,0.433952298783464,4.49044504370447,1.7266107,2.5259278,-1.6832392,67.63703,-18.426825,20.411211,CSI
5056607073000,1.325026,2.96436122938169,0.793674988440243,4.55459694208546,1.8487836,2.6633725,-1.6902641,67.80288,-18.817327,19.763561,CSI
5056611975000,1.329928,2.71077316128099,1.1151885295341,4.6406359552426,1.9669861,2.74981,-1.7058412,67.96374,-19.232357,19.10363,CSI
5056616973000,1.334926,2.57547095353063,1.57402429859813,4.84219678120457,2.0702224,2.778826,-1.6911805,68.120316,-19.762915,18.423302,CSI
5056622009000,1.339962,2.55543808021807,2.15998172476636,5.15270409501558,2.1413882,2.7262917,-1.6853772,68.27288,-20.305882,17.754074,CSI
5056626979000,1.344932,2.64032607211686,2.79481367436187,5.45680572699129,2.1841488,2.627026,-1.6823229,68.42754,-20.917187,17.07045,CSI
5056631974000,1.349927,2.79724639092773,3.471532075592,5.76083860146592,2.1762075,2.445599,-1.6603317,68.57755,-21.515886,16.443909,CSI
5056637315000,1.355268,3.21334252988301,4.18611471346421,5.95792647513385,2.1401663,2.2473733,-1.636508,68.73227,-22.198212,15.871794,CSI
5056641997000,1.35995,3.68902477067222,4.80850273111243,6.07351268863772,2.0787745,2.0607538,-1.5690074,68.87362,-22.848093,15.370438,CSI
5056646971000,1.364924,4.14196179333584,5.21904956634036,6.19242223087349,2.0186043,1.8344283,-1.5164729,69.04909,-23.632137,14.915408,CSI
5056652014000,1.369967,4.56927814835279,5.4827127391378,6.31061621426958,1.9834795,1.641395,-1.42973,69.200294,-24.37869,14.525524,CSI
5056657009000,1.374962,4.96916324817503,5.59948646727499,6.54138201005807,1.9792033,1.4107933,-1.3396275,69.36013,-25.254423,14.325585,CSI
5056662008000,1.379961,5.34644017296765,5.57466563401078,6.88390966461012,1.9788979,1.2327261,-1.273654,69.506096,-26.09365,14.173029,CSI
5056666991000,1.384944,5.54180307825915,5.52087642117833,7.24561745860061,2.0140228,1.1148291,-1.2513574,69.65198,-26.984417,14.135159,CSI
5056672024000,1.389977,5.60364048416066,5.44476869949669,7.62615706039672,2.0399845,0.9071349,-1.1578951,69.78515,-27.836826,14.177816,CSI
5056677007000,1.39496,5.14768024971029,5.63920680964554,8.01040172077369,2.1013765,0.76083267,-1.0934488,69.92142,-28.669533,14.219382,CSI
5056681992000,1.399945,4.26902311329243,6.05412820449898,8.4009158997955,2.1523838,0.623388,-1.0094548,70.04662,-29.473396,14.317777,CSI
5056687056000,1.405009,3.49819909269373,6.43437719261993,8.69157042804428,2.179567,0.51007247,-0.91904676,70.16464,-30.201641,14.413982,CSI
5056692017000,1.40997,3.19577959899446,6.65352181628229,8.58199823062731,2.1459696,0.4541783,-0.86406887,70.27383,-30.901827,14.527887,CSI
5056697210000,1.415163,2.91435640914472,6.88177604638946,8.47154150443918,2.067168,0.36010507,-0.7733554,70.383255,-31.599012,14.475411,CSI
5056702149000,1.420102,3.08233459094407,7.08474954265315,8.41904800288547,1.9703459,0.24709499,-0.7333437,70.4957,-32.259487,14.441026,CSI
5056707527000,1.42548,3.2652434108908,7.30576421422758,8.36188864849068,1.8411479,0.16401732,-0.7489208,70.61926,-32.948612,14.33909,CSI
5056712035000,1.429988,3.54019810103282,7.43187679886214,8.24878499322538,1.7467692,0.044593163,-0.679893,70.730415,-33.589115,14.293041,CSI
5056717032000,1.434985,4.07215628373742,7.46119748910284,8.00165519819694,1.6316211,0.01038471,-0.5503896,70.82455,-34.165688,14.254266,CSI
5056722073000,1.440026,4.60280079175309,7.49688839331687,7.75666342182716,1.5238034,0.00580322,-0.44226643,70.91494,-34.766434,14.273635,CSI
5056727048000,1.445001,5.03022982076543,7.6302148719177,7.5841232971358,1.4874569,-0.019242255,-0.40317106,70.994736,-35.331158,14.312828,CSI
5056732064000,1.450017,5.46118138046914,7.76464012149794,7.4101612337284,1.4434745,-0.07819075,-0.2843578,71.02463,-35.88513,14.485351,CSI
5056737143000,1.455096,5.66664518039062,7.98590116398437,7.22224795785156,1.4092661,-0.13775012,-0.14263703,71.04043,-36.408283,14.667188,CSI
5056742060000,1.460013,5.73562367982422,8.24801884720703,7.0337072734668,1.4019357,-0.14172074,-0.048258353,71.036705,-36.90384,14.8545685,CSI
5056747084000,1.465037,5.49597331216662,8.31803728282956,6.95984758298197,1.3848315,-0.11881329,-0.118202426,71.051346,-37.445354,15.105086,CSI
5056753781000,1.471734,4.87693259317585,8.22029345931758,6.97613805958005,1.3707817,-0.07788532,-0.11484267,71.02223,-37.952206,15.371495,CSI
5056757072000,1.475025,4.58512522047561,8.14083556902459,7.00884055471584,1.3069462,0.02107485,-0.094989546,70.99002,-38.507053,15.603187,CSI
5056762061000,1.480014,4.18071056630391,7.92418512715639,7.13401664597944,1.210735,0.14508049,-0.08979719,70.94477,-39.031364,15.809342,CSI
5056767052000,1.485005,3.80384862255303,7.71319500192827,7.2448799928037,1.119716,0.22327125,-0.09468412,70.88988,-39.51817,15.899731,CSI
5056772068000,1.490021,3.51855212231392,7.52052721141535,7.30786752779792,1.0555751,0.3585779,-0.10048734,70.79607,-39.972057,15.949518,CSI
5056777069000,1.495022,3.23410878146548,7.32843558056305,7.37066670293868,0.9434814,0.46853364,-0.10873401,70.69519,-40.340515,15.905326,CSI
5056782171000,1.500124,3.00959476872587,7.1066932496139,7.41159808687259,0.8185594,0.5384777,-0.12186762,70.57666,-40.67996,15.841594,CSI
5056787081000,1.505034,2.82804211583012,6.87975252828185,7.43883086158301,0.69913524,0.5708536,-0.10048734,70.43769,-40.979855,15.771063,CSI
5056792070000,1.510023,2.69879729722222,6.57461099305556,7.44397198611111,0.5928447,0.5821546,-0.057421334,70.29002,-41.2074,15.623654,CSI
5056797038000,1.514991,2.61174582297073,6.21453457569029,7.432101259165,0.49174652,0.59773165,-0.00061086525,70.12921,-41.395683,15.481756,CSI
5056802103000,1.520056,2.53851936609836,5.87760366557377,7.40405203619672,0.42913285,0.5354234,-0.07360926,70.01142,-41.545097,15.298796,CSI
5056807135000,1.525088,2.54246940360656,5.69195173770492,7.29740114721311,0.40408736,0.44440445,-0.086437434,69.874245,-41.66297,15.147759,CSI
5056812015000,1.529968,2.54630012360656,5.51190773770492,7.19397182721312,0.3998113,0.39492437,-0.07574729,69.76271,-41.720833,14.976346,CSI
5056817042000,1.534995,2.63269312773879,5.22357285163471,7.05760842951044,0.40194935,0.35277468,-0.070554934,69.67451,-41.77431,14.8236265,CSI
5056823021000,1.540974,2.77481335390277,4.83151722295447,6.88118330705238,0.4260785,0.34025195,-0.074830994,69.59212,-41.831276,14.679692,CSI
5056827067000,1.54502,2.83237265999805,4.79364055163622,7.11087982499756,0.47555858,0.35246924,-0.09101892,69.52094,-41.884254,14.545321,CSI
5056832040000,1.549993,2.85098184265898,5.05416862310247,7.86455067832373,0.49693888,0.2864958,-0.10598512,69.47037,-41.935402,14.43256,CSI
5056837070000,1.555023,2.68703652003768,5.60402144600103,8.98832511320431,0.47250426,0.17898351,-0.1386664,69.43646,-41.957302,14.354872,CSI
5056842072000,1.560025,2.16608211781127,6.71156211866758,10.8137158784038,0.33444872,0.024740042,-0.19700404,69.43495,-41.95711,14.29457,CSI
5056847406000,1.565359,1.58564879706105,7.93179851446259,12.7194554552349,0.037873644,-0.24404067,-0.30268374,69.50249,-41.854458,14.226064,CSI
5056852087000,1.57004,0.766980423034899,9.48934959343806,13.885017210787,-0.40958515,-0.53786683,-0.42210788,69.62219,-41.6815,14.183011,CSI
5056857073000,1.575026,-0.105029940753695,11.1483860556837,15.1265234943125,-0.91324353,-0.75136423,-0.4981606,69.81546,-41.35869,13.9428625,CSI
5056862164000,1.580117,-1.14697068934108,12.7280304039384,16.0135332542287,-1.2889256,-0.93951076,-0.53878313,70.0792,-40.96697,13.756925,CSI
5056867095000,1.585048,-2.35109755184718,14.1109885483464,16.3831175759488,-1.4697418,-1.0512991,-0.54733527,70.37663,-40.507996,13.603767,CSI
5056872195000,1.590148,-3.64976010634032,15.3007938768691,16.6169798880628,-1.4990633,-1.2452488,-0.5687156,70.75755,-40.12161,13.325775,CSI
5056877117000,1.59507,-5.63431206874948,13.1469248677638,14.8056822434216,-1.5387696,-1.3326025,-0.7125743,71.15957,-39.70839,13.049908,CSI
5056882027000,1.59998,-7.61402562734943,10.9983070630691,12.9988006027901,-1.5677856,-1.2815952,-1.0103711,71.61653,-39.51538,12.591677,CSI
5056887118000,1.605071,-7.42874396003103,8.54534110870746,11.2910213576069,-1.6184875,-1.0345002,-1.4114041,72.09959,-39.31854,12.095895,CSI
5056892479000,1.610432,-5.94023052246679,5.8321647922428,9.58844042974886,-1.6258179,-0.6881397,-1.7168368,72.59161,-39.13307,11.559838,CSI
5056897051000,1.615004,-4.10033342268377,4.00894221268185,8.52673840017228,-1.5534303,-0.38423425,-1.8466456,73.10707,-38.867508,10.748145,CSI
5056902636000,1.620589,-1.45365441569678,2.12503912438744,7.50287821784073,-1.4327844,-0.32253686,-1.8634444,73.63755,-38.615246,9.901247,CSI
5056907055000,1.625008,0.430812124083197,1.45664435864806,6.96785303440066,-1.2968669,-0.47647488,-1.7974709,74.14202,-38.215305,9.256288,CSI
5056912047000,1.63,2.37154388544061,1.43919963659004,6.61023497988506,-1.1716396,-0.67347896,-1.6621643,74.62919,-37.834026,8.62431,CSI
5056917046000,1.634999,4.12458121019683,1.49965630042247,6.36174354745079,-1.1023064,-0.84391034,-1.4504995,75.076,-37.33145,8.367567,CSI
5056922075000,1.640028,5.43787358464714,1.74474252704753,6.37099207883821,-1.1087204,-1.0659598,-1.1988231,75.52559,-36.82927,8.203082,CSI
5056927052000,1.645005,6.45018657173145,1.98215877226148,6.38914801741166,-1.1905763,-1.3026701,-0.97524637,75.96905,-36.342087,8.398836,CSI
5056932030000,1.649983,6.42912945583039,2.20115295353357,6.43968513954947,-1.3203852,-1.4767667,-0.8206975,76.39578,-35.831627,8.666121,CSI
5056937758000,1.655711,6.34561425112802,2.4843523813921,6.49857354927422,-1.473407,-1.5564847,-0.7495316,76.8156,-35.314133,9.169773,CSI
5056942060000,1.660013,5.78360749409759,2.95989657488632,6.54901013558062,-1.5815301,-1.5332718,-0.75747293,77.22764,-34.772606,9.7039995,CSI
5056947075000,1.665028,5.12845549816369,3.5142559729276,6.60780592366212,-1.629483,-1.4459181,-0.77579886,77.6326,-34.23589,10.2449045,CSI
5056952573000,1.670526,4.50553223784487,4.21013846073386,6.47310306739433,-1.6676621,-1.2544118,-0.8219192,78.0229,-33.679016,10.749775,CSI
5056957321000,1.675274,4.00288368516489,4.84372878203437,6.2830258298653,-1.6887369,-0.98471475,-0.8921687,78.39482,-33.12188,11.20818,CSI
5056962215000,1.680168,3.48612993701799,5.49275381619537,6.12642363239075,-1.6850718,-0.70341134,-0.9505063,78.75427,-32.660007,11.495071,CSI
5056967037000,1.68499,2.9780382514036,6.12905576323907,6.00296208647815,-1.6685784,-0.5644395,-0.9783007,79.102234,-32.204174,11.745017,CSI
5056972074000,1.690027,2.23223932445956,6.61872405098173,6.09357188080288,-1.6701056,-0.38759398,-1.0256428,79.43392,-31.887177,11.813215,CSI
5056977077000,1.69503,1.32875216453344,6.9726675786353,6.34971512272551,-1.6911805,-0.26511553,-1.067487,79.756325,-31.574856,11.857944,CSI
5056982027000,1.69998,0.469123914612808,7.17287554861084,6.61919058003941,-1.711339,-0.20433442,-1.099252,80.08579,-31.388508,11.76747,CSI
5056987097000,1.70505,-0.377588473308374,7.23027973698522,6.91099535412808,-1.6899587,-0.18478674,-1.1349876,80.408875,-31.211811,11.65305,CSI
5056992070000,1.710023,-1.0423812731258,7.17537776228096,7.16914018572687,-1.6316211,-0.17562376,-1.16492,80.738686,-31.090237,11.357786,CSI
5056997047000,1.715,-1.53231722133725,7.00273364712677,7.39777698819383,-1.602605,-0.23579398,-1.2299771,81.08561,-30.967752,11.072761,CSI
5057002031000,1.719984,-1.55261017114286,6.65498681028571,7.32257225523809,-1.5647314,-0.37659842,-1.271516,81.44741,-30.841541,10.731949,CSI
5057007111000,1.725064,-0.948068261482993,6.0680955852517,6.84158633596372,-1.5274686,-0.47555858,-1.3295482,81.82705,-30.725615,10.390802,CSI
5057012084000,1.730037,-0.415049328795331,5.611517280643,6.43002055013874,-1.4767667,-0.5919284,-1.3765849,82.239784,-30.578575,10.02607,CSI
5057017036000,1.734989,-0.0701779902516506,5.5298374735432,6.20766930604727,-1.4013249,-0.66828656,-1.3646729,82.65674,-30.446562,9.682704,CSI
5057022089000,1.740042,0.220013381960734,5.47782558210626,6.02529324972014,-1.3793337,-0.7669413,-1.3414601,83.11461,-30.266216,9.47199,CSI
5057027141000,1.745094,0.153354255713252,5.60697763687247,6.10028493238612,-1.3906348,-0.77182823,-1.3139712,83.55974,-30.095617,9.263986,CSI
5057032069000,1.750022,0.0883312600387497,5.73295968871093,6.17343596409197,-1.4538593,-0.7330383,-1.3148874,84.03478,-29.931501,9.121894,CSI
5057037064000,1.755017,0.115307955924447,5.89108816340384,6.38782359255288,-1.4892895,-0.6795876,-1.3283265,84.49596,-29.769966,8.982982,CSI
5057042035000,1.759988,0.162141507925037,6.05500548243974,6.63135804182981,-1.4947872,-0.5525276,-1.2928963,84.920425,-29.595617,8.826979,CSI
5057047037000,1.76499,0.261362504348548,6.12347503235504,7.2214574016138,-1.5723672,-0.4373795,-1.276403,85.35265,-29.412025,8.649258,CSI
5057052092000,1.770045,0.376252369197057,6.1656013653192,7.91462650599636,-1.6203201,-0.462425,-1.2797627,85.77551,-29.233604,8.481901,CSI
5057057165000,1.775118,0.493079793901711,6.22825133253084,8.30714893919618,-1.6346754,-0.45204028,-1.258077,86.17563,-29.048918,8.2920065,CSI
5057062093000,1.780046,0.610455698971349,6.34093217041385,7.91746062276164,-1.6798794,-0.37415496,-1.235475,86.56322,-28.841612,8.096917,CSI
5057067042000,1.784995,0.726632063492334,6.43479531297913,7.44797825799617,-1.7110336,-0.32986724,-1.2125676,86.96204,-28.567596,7.9152656,CSI
5057072075000,1.790028,0.839536829471891,6.47071958300682,6.72949333973595,-1.7733418,-0.47983465,-1.1624765,87.35789,-28.270508,7.777745,CSI
5057077009000,1.794962,0.795031973114754,6.41167217213115,6.15827926639344,-1.8090774,-0.42332962,-1.1191051,87.72404,-28.03138,7.6133175,CSI
5057082224000,1.800177,0.462902205020105,6.17609184619548,5.79911557868079,-1.8930714,-0.33536503,-1.0259482,88.07356,-27.757536,7.4970636,CSI
5057087084000,1.805037,0.153381462366223,5.95654814839159,5.46440119281627,-1.9575176,-0.31581733,-1.0424415,88.45592,-27.55434,7.411097,CSI
5057092049000,1.810002,-0.117678493276579,5.67165971025539,5.05443026341319,-1.9346102,-0.30482176,-1.0488557,88.79286,-27.348661,7.3224945,CSI
5057097121000,1.815074,-0.38213562591566,5.36392773337953,4.61687396470006,-1.8768835,-0.05375614,-1.042747,89.08823,-27.135897,7.1710663,CSI
5057102130000,1.820083,-0.414188174579628,5.06263351402587,4.94929864736257,-1.8463402,0.14355333,-0.9798279,89.37495,-26.915442,6.9960675,CSI
5057107030000,1.824983,-0.380994516940178,4.76863252372676,5.4898810958266,-1.7663169,0.20066923,-0.98868537,89.65918,-26.730019,6.789179,CSI
5057112051000,1.830004,-0.413507095076177,4.62946382079573,5.89936490864629,-1.7458528,0.129198,-0.9966267,89.92203,-26.525356,6.552319,CSI
5057117012000,1.834965,-0.464221893648714,4.53725503047065,6.26358939694323,-1.6963727,0.19456059,-0.9947941,90.156235,-26.35386,6.2711306,CSI
5057122059000,1.840012,-0.365651918531675,4.75165771951091,6.89435512638347,-1.7241671,0.24617869,-0.9502009,90.406494,-26.06823,6.02516,CSI
5057127022000,1.844975,-0.21034249487193,5.08231635206071,7.61579259465584,-1.7534887,-0.0036651916,-0.9468411,90.694565,-25.80035,5.8409677,CSI
5057132269000,1.850222,-0.0468456856554164,5.51629455540683,8.14900380179749,-1.784032,-0.24801129,-0.95294976,90.98063,-25.479372,5.642575,CSI
5057137080000,1.855033,0.102931213639927,5.93038370542117,8.59392907448131,-1.8729129,-0.35246924,-0.91324353,91.26539,-25.135593,5.484341,CSI
5057142060000,1.860013,-0.266871525700892,5.96861825665962,8.45952893019579,-1.967597,-0.48533243,-0.8781188,91.61121,-24.791727,5.416333,CSI
5057148051000,1.866004,-0.936655578417134,5.84731887230444,8.04289163902013,-2.0360138,-0.4700608,-0.83199847,91.934265,-24.432909,5.347029,CSI
5057151975000,1.869928,-1.0726024,5.8226986,7.9583263,-2.096184,-0.44868052,-0.77824235,92.274376,-24.101126,5.3429027,CSI
5057156936000,1.874889,-1.0726024,5.8226986,7.9583263,-2.1227567,-0.43401974,-0.73945236,92.60003,-23.762575,5.3420367,CSI
5057161925000,1.879878,-0.947052437108922,5.43528737048088,8.01572047992468,-2.1096232,-0.46609017,-0.70188415,92.882935,-23.431284,5.2582927,CSI
5057166924000,1.884877,-0.785251904886056,4.93601726572036,8.08968632303978,-2.0842721,-0.410196,-0.66737026,93.14235,-23.09991,5.1552777,CSI
5057171974000,1.889927,-0.691887021875512,4.55726588185913,8.53530726945127,-2.0430388,-0.29626966,-0.6374379,93.399925,-22.78474,5.053829,CSI
5057176932000,1.894885,-0.628694621723997,4.2364427265561,9.12348301187551,-2.0140228,-0.29749137,-0.6310238,93.6593,-22.477825,4.9723735,CSI
5057181924000,1.899877,-0.528777946336421,4.21242582506095,9.03897045041443,-1.9706513,-0.3839288,-0.54428095,93.9134,-22.089792,4.9333487,CSI
5057186963000,1.904916,-0.415839790137494,4.28771796850317,8.72839066582155,-1.9737056,-0.3436117,-0.4972443,94.16035,-21.703865,4.8605843,CSI
5057191928000,1.909881,-0.0938692127707911,4.41163459350913,8.3728935726572,-2.0161607,-0.25870144,-0.47952923,94.417465,-21.224829,4.819045,CSI
5057196929000,1.914882,0.319006733330629,4.55735541541582,7.99401902993915,-2.0244074,-0.28985557,-0.46303585,94.66851,-20.76186,4.8052664,CSI
5057202005000,1.919958,0.361381613309247,4.60730323278977,7.83215028071477,-2.0332649,-0.47952923,-0.40958515,94.92956,-20.336138,4.8503246,CSI
5057207008000,1.924961,0.267811140859291,4.62133884371643,7.75261533125671,-2.0528126,-0.38423425,-0.3594942,95.15884,-19.911705,4.8303967,CSI
5057211968000,1.929921,0.262839055664667,4.6984562822545,7.56975512109252,-2.1025982,-0.3463606,-0.3381139,95.48886,-19.55905,4.9797354,CSI
5057217615000,1.935568,0.301260435931481,4.81798956040417,7.30934363585412,-2.119397,-0.4175264,-0.32528573,95.801765,-19.213358,5.1334295,CSI
5057222031000,1.939984,0.313592565942623,4.86890927080168,7.18756594694122,-2.0971005,-0.36377025,-0.29718593,96.07754,-18.876474,5.225188,CSI
5057227038000,1.944991,0.241694713606557,4.7203202395042,7.44639821735306,-2.1285598,-0.2489276,-0.2611449,96.34346,-18.5237,5.318847,CSI
5057231977000,1.94993,0.168013479852977,4.57246177969904,7.64610514668661,-2.1539109,-0.25686884,-0.23976462,96.630905,-18.23649,5.456691,CSI
5057237017000,1.95497,0.0777861566938032,4.41456407711001,7.54685497377325,-2.1523838,-0.3885103,-0.17470746,96.89095,-17.949358,5.601536,CSI
5057242266000,1.960219,-0.00904940728609805,4.24928511027535,7.45418369563465,-2.1456642,-0.26175576,-0.15118915,97.12306,-17.614603,5.6534567,CSI
5057246974000,1.964927,-0.00232041581441683,4.09115385601075,7.49792210823073,-2.187203,-0.19730948,-0.14874569,97.35685,-17.270351,5.7593203,CSI
5057252051000,1.970004,0.00493597537116633,3.92062871202149,7.54508861646146,-2.1856759,-0.18448131,-0.1151481,97.55206,-16.914259,5.8350353,CSI
5057257088000,1.975041,-0.0202728532919185,3.76591677451603,7.6173947399365,-2.1813998,-0.25350907,-0.07849618,97.7449,-16.553122,5.9155207,CSI
5057261999000,1.979952,-0.10216764753416,3.64066590214074,7.7330110381645,-2.1749856,-0.29565877,-0.036957346,97.9217,-16.197977,5.9878697,CSI
5057266996000,1.984949,0.132307496034126,3.48208542476732,7.83001015470527,-2.2110267,-0.27458394,0.03604105,98.07803,-15.786555,6.0722637,CSI
5057272020000,1.989973,0.873669203483971,3.27311097579111,7.89469267400207,-2.2650883,-0.13347405,0.17745635,98.196556,-15.375189,6.1421385,CSI
5057277043000,1.994996,1.29480654092208,2.92201532823395,8.11941719032197,-2.3634377,0.025350908,0.33414328,98.26895,-14.909118,6.1858683,CSI
5057281996000,1.999949,1.33999032824348,2.41143864001715,8.52607132339493,-2.4459045,0.14477506,0.43310347,98.31141,-14.43777,6.207111,CSI
5057287013000,2.004966,1.04504434430678,2.07029227138643,8.7143365280236,-2.4874432,0.28405234,0.50671273,98.46466,-13.949593,6.400785,CSI
5057292047000,2.01,0.129558802625369,2.04807176474926,8.49657519174041,-2.5277603,0.32406402,0.5494733,98.593834,-13.442566,6.585702,CSI
5057297013000,2.014966,-0.60333884,2.030283,8.322245,-2.5488353,0.34697145,0.54733527,98.67915,-12.79289,6.720304,CSI
5057302042000,2.019995,-0.60333884,2.030283,8.322245,-2.5537221,0.33200526,0.5525276,98.75148,-12.145886,6.853519,CSI
5057307005000,2.024958,-0.698192319493152,1.96704735395509,8.42874722118699,-2.5512786,0.2406809,0.57787853,98.65595,-11.477899,6.755166,CSI
5057312017000,2.02997,-0.953101509423274,1.79710791268052,8.71496123329917,-2.542421,0.12003502,0.63346726,98.55671,-10.821476,6.672364,CSI
5057317024000,2.034977,-1.08444303381856,1.61295445207216,8.87947834917526,-2.5689938,0.061391957,0.70738196,98.445435,-10.164558,6.602807,CSI
5057322030000,2.039983,-0.802724985595876,1.38066062120619,8.63729993907216,-2.5619688,0.021380283,0.7779369,98.328445,-9.529916,6.5641994,CSI
5057326993000,2.044946,-0.54066019845395,1.16897060812647,8.42741102822026,-2.572659,0.017715093,0.86254174,98.1629,-8.840985,6.4721804,CSI
5057331997000,2.04995,-0.319784196836743,1.00234483704536,8.29178510794857,-2.5781567,0.036957346,0.9605856,97.97779,-8.165822,6.387482,CSI
5057337018000,2.054971,-0.0981578171165197,0.835152991202393,8.15569842815557,-2.595872,0.11301007,1.0329732,97.79452,-7.45232,6.352835,CSI
5057342007000,2.05996,-0.0701408853760174,0.542397490366793,8.06730868485079,-2.627637,0.24495697,1.0983357,97.5871,-6.743458,6.297951,CSI
5057347368000,2.065321,-0.0933833614878801,0.196665151291318,7.99946308729837,-2.6673431,0.38056904,1.1646146,97.36123,-6.038167,6.2207556,CSI
5057352050000,2.070003,-0.251474531282503,-0.111612647553989,8.27217062406346,-2.713158,0.44409904,1.2272283,97.14555,-5.2936172,6.195663,CSI
5057357048000,2.075001,-0.42023567323755,-0.440696893309828,8.56328388095196,-2.7207937,0.4905248,1.2663237,96.90572,-4.493102,6.131377,CSI
5057362036000,2.079989,-0.97158647867932,-1.1277460001276,8.78018924084855,-2.7586675,0.5198463,1.3628404,96.63769,-3.6816773,6.054604,CSI
5057366971000,2.084924,-1.67265090206237,-1.95319285777175,8.96487804418215,-2.7763824,0.408058,1.4398094,96.37309,-2.8876119,6.0032835,CSI
5057372055000,2.090008,-2.40518220832068,-2.7518125117522,9.20970260147788,-2.8023443,0.2171626,1.4987578,96.05743,-2.0010564,5.9103365,CSI
5057377102000,2.095055,-3.17332273410264,-3.33892620546614,9.66960849681142,-2.837469,0.08582657,1.5916094,95.717094,-1.1203102,5.8303394,CSI
5057382019000,2.099972,-3.79293663181669,-3.89155808835516,10.0561684498363,-2.8447995,-0.055283304,1.6563611,95.29721,-0.024334896,5.614415,CSI
5057387092000,2.105045,-3.97184365689034,-4.39249720227496,10.2350755579378,-2.8163943,-0.20891592,1.690875,94.86314,1.0519949,5.432885,CSI
5057392096000,2.110049,-4.14831729250409,-4.88662283327332,10.4115492754501,-2.7638597,-0.3484986,1.7168368,94.38157,2.2163594,5.1357565,CSI
5057397032000,2.114985,-4.15864771168831,-5.7497405561039,10.3044704779221,-2.6902506,-0.50793445,1.7437148,93.89054,3.3414083,4.8811026,CSI
5057402151000,2.120104,-4.12391989996065,-6.74912113314443,10.1153980674144,-2.59465,-0.59986967,1.7650951,93.39462,4.4205375,4.6396995,CSI
5057407033000,2.124986,-3.92949515044587,-7.56388636599866,9.99979497051491,-2.4813347,-0.6435465,1.758681,92.88741,5.5719223,4.3887873,CSI
5057412043000,2.129996,-3.21640017039026,-7.95953897411065,10.0872067161281,-2.3585508,-0.605062,1.7116444,92.38758,6.6646934,4.1345587,CSI
5057417090000,2.135043,-2.54024647592012,-8.32091902696597,10.1935354154945,-2.201253,-0.5552765,1.6728544,91.87777,7.957243,3.9123669,CSI
5057422079000,2.140032,-2.08756593761388,-8.48806288947599,10.3920184227097,-2.01555,-0.52656585,1.6258179,91.38585,9.171076,3.6788704,CSI
5057427047000,2.145,-1.63679084955907,-8.65450319994898,10.589665963268,-1.8371773,-0.49235737,1.6084082,90.919754,10.397443,3.5692208,CSI
5057432091000,2.150044,-1.3526470104326,-8.99732930255578,11.098316321148,-1.6710218,-0.4437936,1.5189165,90.49228,11.537534,3.4437714,CSI
5057437120000,2.155073,-1.31228943029224,-9.5825145833246,12.0366306915261,-1.5079209,-0.36774087,1.4236214,90.078606,12.595116,3.294762,CSI
5057442221000,2.160174,-0.996438742521492,-9.80254466838366,12.4790351237123,-1.3603969,-0.29016098,1.3048081,89.724464,13.612464,3.2559953,CSI
5057447066000,2.165019,-0.460741391725755,-9.69128436376554,12.4625522271758,-1.2321151,-0.22510384,1.2730432,89.38177,14.557347,3.1914146,CSI
5057452111000,2.170064,0.0852392994300862,-9.58334981400486,12.374042676607,-1.1343768,-0.21624629,1.1673635,89.103195,15.493004,3.1336322,CSI
5057457066000,2.175019,0.588386597092998,-9.49949206678448,12.0875283116854,-1.0769554,-0.1386664,1.16492,88.821304,16.36793,3.0271866,CSI
5057462043000,2.179996,1.09376784844886,-9.41526199455121,11.7997418345483,-0.95630956,-0.08552113,1.1603385,88.610146,17.13309,3.043277,CSI
5057467034000,2.184987,1.54104523704698,-9.15533146453278,11.433695075684,-0.8393288,0.021380283,1.0940597,88.434814,17.852947,3.0202775,CSI
5057472169000,2.190122,1.94725613234899,-8.72880993433144,10.9868631226639,-0.7473936,0.20616703,0.9459248,88.302124,18.51811,2.962773,CSI
5057477052000,2.195005,2.11226698633615,-8.45167246472038,10.5741120731726,-0.6750061,0.32589662,1.0149527,88.19216,19.122452,3.0109212,CSI
5057482130000,2.200083,2.13768451286493,-8.24833217665945,10.1529068928545,-0.6404922,0.42546764,0.947452,88.18127,19.688143,3.0321536,CSI
5057487763000,2.205716,2.14946499840136,-8.02935597278056,9.68078493083236,-0.6017023,0.56046885,0.8741482,88.24426,20.153173,3.084779,CSI
5057492055000,2.210008,1.93919368372589,-7.95050420690611,9.25586183587339,-0.57879484,0.7079928,0.799928,88.34102,20.600866,3.1066062,CSI
5057497322000,2.215275,1.69795161651045,-7.85821017538911,8.75742378777195,-0.5552765,0.8509353,0.72204274,88.51553,21.001728,3.1030543,CSI
5057502077000,2.22003,1.63138178006707,-7.81513557533752,8.51463931038782,-0.5186246,1.0189233,0.6398814,88.7299,21.384956,3.058729,CSI
5057507864000,2.225817,1.55036397912116,-7.76271229237252,8.21916217671339,-0.5039638,1.1844677,0.5748242,88.92692,21.792873,2.9289532,CSI
5057512112000,2.230065,1.40386563232398,-7.68660869526001,8.13361130161068,-0.49266282,1.3377949,0.50762904,89.16525,22.184843,2.7697396,CSI
5057517013000,2.234966,1.21810902645191,-7.59157034367234,8.06017275991717,-0.4718934,1.450805,0.45173484,89.43293,22.564474,2.5875263,CSI
5057522071000,2.240024,1.02081603686585,-7.43281734855295,8.05211836691352,-0.44532076,1.5296066,0.38973203,89.72557,22.947329,2.3638775,CSI
5057527060000,2.245013,0.821534831426626,-7.22540217909431,8.10092185376234,-0.44348818,1.5552629,0.3359759,90.03837,23.327248,2.137104,CSI
5057532058000,2.250011,0.623360092219037,-7.00818693599006,8.15811382349006,-0.44959682,1.5216653,0.29932398,90.34678,23.693237,1.866944,CSI
5057537050000,2.255003,0.431472492586009,-6.75233686993501,8.24948855743502,-0.45570546,1.5066991,0.28344148,90.669495,24.055405,1.5979934,CSI
5057542118000,2.260071,0.24949553937744,-6.50325412863341,8.33063690021692,-0.46944994,1.4770721,0.26542094,90.981766,24.381027,1.2979527,CSI
5057547096000,2.265049,0.170212325273753,-6.34124056536515,8.32029576211135,-0.48288897,1.450805,0.2519819,91.29563,24.705725,1.0120057,CSI
5057552034000,2.269987,0.0915661799856833,-6.18052883868402,8.3100377187274,-0.4822781,1.4013249,0.24556783,91.59442,24.982195,0.7006018,CSI
5057557069000,2.275022,-0.0230100123856938,-6.10649703867172,8.24674550255833,-0.48502702,1.368949,0.24373524,91.893654,25.26124,0.40269673,CSI
5057562043000,2.279996,-0.203371898077262,-6.2088647785612,8.08100777087597,-0.50426924,1.3655893,0.24495697,92.1905,25.542532,0.11994161,CSI
5057567028000,2.284981,-0.50951890448313,-6.32381803704646,7.96340842609291,-0.50640726,1.3680327,0.24404067,92.480804,25.783506,-0.1792953,CSI
5057572071000,2.290024,-1.0290829335824,-6.46079385761369,7.92562197922739,-0.50488013,1.382999,0.22999077,92.773895,26.027056,-0.46973863,CSI
5057577939000,2.295892,-1.5651850453646,-6.57752910491022,7.97284771557347,-0.48716503,1.4031575,0.22510384,93.04565,26.29972,-0.79914856,CSI
5057582089000,2.300042,-1.88194082861854,-6.62121967838036,8.08935542993771,-0.4642576,1.4101825,0.21227567,93.32313,26.567854,-1.1163206,CSI
5057587083000,2.305036,-2.22030631426782,-6.66070825049647,8.24192601064496,-0.4456262,1.4159856,0.21410827,93.56722,26.86422,-1.5341122,CSI
5057592044000,2.309997,-2.33080578836211,-6.63095822652295,8.45867542454602,-0.41263947,1.3979651,0.22021692,93.81249,27.146126,-1.9362677,CSI
5057597049000,2.315002,-2.44228530213794,-6.60094434424367,8.67734722792736,-0.3915646,1.4025466,0.20219639,94.05599,27.420689,-2.408384,CSI
5057602074000,2.320027,-2.46384927188133,-6.46436567589829,8.86635495798784,-0.36468655,1.396438,0.17806722,94.296745,27.679926,-2.862468,CSI
5057607045000,2.324998,-2.4770074914778,-6.31962576412382,9.05056911636263,-0.32925636,1.3790283,0.1777618,94.53594,27.926477,-3.305105,CSI
5057612047000,2.33,-2.37184614808381,-6.17383841474749,9.17778014604226,-0.2932153,1.3976597,0.15149458,94.79187,28.134382,-3.762679,CSI
5057617007000,2.33496,-2.22723363518983,-6.0292258574409,9.28411325492478,-0.27152961,1.4043792,0.105374254,95.04889,28.333244,-4.199177,CSI
5057622089000,2.340042,-2.04480874249779,-5.82725023042154,9.3642692801415,-0.25534168,1.3564262,0.087659165,95.29923,28.476112,-4.622957,CSI
5057627055000,2.345008,-1.83451794143657,-5.57957443276015,9.41567374805935,-0.2406809,1.3026701,0.09010262,95.55478,28.611563,-5.0325027,CSI
5057632048000,2.350001,-1.75488314924051,-5.3893055943038,9.39392636329114,-0.2312125,1.287093,0.07391469,95.82234,28.7045,-5.3999047,CSI
5057637166000,2.355119,-1.82169886349562,-5.2604468627556,9.28892962151899,-0.24770586,1.2574661,0.089491755,96.06936,28.798674,-5.745135,CSI
5057642025000,2.359978,-1.95742721853492,-5.0726718677461,9.13067138831996,-0.23487769,1.2455542,0.1133155,96.322754,28.83371,-6.0453515,CSI
5057647702000,2.365655,-2.22828684515177,-4.75165294238398,8.85479637129809,-0.22693644,1.2229522,0.11484267,96.568245,28.875408,-6.325785,CSI
5057652090000,2.370043,-2.3760924787234,-4.52341096276596,8.66563489760638,-0.23426682,1.1976013,0.12644911,96.80019,28.90387,-6.621307,CSI
5057657139000,2.375092,-2.38011120073138,-4.31443725049867,8.51292341934009,-0.24923302,1.1368202,0.16126843,97.01382,28.931778,-6.897223,CSI
5057662023000,2.379976,-2.38399859195479,-4.11229274451463,8.36520251225897,-0.24373524,1.0375546,0.19425514,97.20228,28.928717,-7.2190304,CSI
5057667072000,2.385025,-2.50505085308812,-3.97936469927223,8.30125664378442,-0.22418754,0.9764681,0.23060162,97.374725,28.924437,-7.532107,CSI
5057672020000,2.389973,-2.64486012598348,-3.86285706107396,8.25465308241542,-0.21410827,0.9602802,0.25045475,97.53255,28.920609,-7.82619,CSI
5057677061000,2.395014,-2.75284592801537,-3.65919996164762,8.41517025817895,-0.20769419,0.98868537,0.25961772,97.67712,28.886158,-8.129208,CSI
5057682000000,2.399953,-2.85072695019708,-3.44013282625148,8.62025459203784,-0.20433442,1.0073168,0.25900686,97.81256,28.849602,-8.419946,CSI
5057687111000,2.405064,-2.86594909994424,-3.26251662132701,8.81596182696775,-0.19058995,0.9798279,0.29901853,97.93268,28.786697,-8.746089,CSI
5057692049000,2.410002,-2.85715995553387,-3.10431105829384,9.00053500678376,-0.2049453,0.9242391,0.3268129,98.05153,28.731714,-9.060244,CSI
5057697051000,2.415004,-2.79408590920328,-3.00450694998442,9.13218602638413,-0.20830505,0.86590147,0.35613444,98.1441,28.609253,-9.389209,CSI
5057702068000,2.420021,-2.69925986684325,-2.93962599283266,9.23200280336553,-0.2171626,0.8145888,0.38515055,98.21917,28.492167,-9.701809,CSI
5057707165000,2.425118,-2.41846082132641,-2.68458398005486,9.29159948746081,-0.2406809,0.80939645,0.41447207,98.277954,28.331036,-10.009912,CSI
5057712087000,2.43004,-2.07675420187108,-2.36596567762539,9.33315875705329,-0.24129178,0.79809546,0.44959682,98.315796,28.166248,-10.300661,CSI
5057717068000,2.435021,-2.03526787765499,-2.49720030799775,9.22392533171006,-0.24617869,0.83108217,0.46211955,98.36846,27.986902,-10.584023,CSI
5057722075000,2.440028,-2.14304329475557,-2.85196093481925,9.03980859168384,-0.25259277,0.89980453,0.4859433,98.40789,27.808392,-10.872195,CSI
5057727053000,2.445006,-2.1472662042648,-3.18920255266285,8.84380104179928,-0.25717425,0.91874135,0.537256,98.46272,27.560873,-11.096079,CSI
5057732167000,2.45012,-2.05893723532782,-3.52173505862508,8.63077304774029,-0.269697,0.9645562,0.5897904,98.51453,27.321356,-11.34023,CSI
5057737107000,2.45506,-1.98137793960117,-3.77938144972763,8.47608168949416,-0.2968805,0.9954049,0.63621616,98.55874,27.172693,-11.620482,CSI
5057742051000,2.460004,-1.90768497446498,-4.00506600817121,8.3471183151751,-0.31764993,1.0042624,0.6826419,98.58687,27.025023,-11.904975,CSI
5057747054000,2.465007,-1.8551939324429,-4.18084877100271,8.20880593631436,-0.33322698,0.9443977,0.72601336,98.6293,26.949085,-12.1747465,CSI
5057752080000,2.470033,-1.81792486794425,-4.32060800609756,8.06438845731707,-0.3436117,0.86467975,0.8035932,98.64508,26.873215,-12.443206,CSI
5057756976000,2.474929,-1.77862107648115,-4.44678471723519,7.95299627827648,-0.35918877,0.8371908,0.85062987,98.68931,26.850248,-12.706126,CSI
5057761948000,2.479901,-1.73587789439457,-4.56551564083383,7.8675099636944,-0.36560285,0.87995136,0.89827734,98.70926,26.822496,-12.968589,CSI
5057766948000,2.484901,-1.65949858692332,-4.66292701250131,7.87153483261847,-0.36835176,0.97585726,0.9324858,98.742294,26.83194,-13.244116,CSI
5057771937000,2.48989,-1.54953610003138,-4.73790162517,7.96650224040172,-0.37323865,1.094976,0.9575313,98.77282,26.840364,-13.532611,CSI
5057776932000,2.494885,-1.48975475934992,-4.80237918873253,8.06694701417104,-0.3717115,1.1835514,0.97066486,98.82521,26.871574,-13.839034,CSI
5057781930000,2.499883,-1.46603815722921,-4.85929898429293,8.17130026161927,-0.37323865,1.2388347,0.9578367,98.88793,26.904127,-14.156103,CSI
5057786961000,2.504914,-1.519175497244,-4.89052160740626,8.2211332575887,-0.3735441,1.2544118,0.9416488,98.955055,26.942928,-14.4747925,CSI
5057791934000,2.509887,-1.63009575084233,-4.90161366365189,8.22852770437078,-0.37659842,1.2318097,0.9117164,99.03,26.984125,-14.783188,CSI
5057797232000,2.515185,-1.75195232546125,-4.91389905745915,8.22668067237744,-0.37232238,1.2162327,0.8772025,99.1064,27.028765,-15.107541,CSI
5057802055000,2.520008,-1.93456546174662,-4.93418938710244,8.03595182797399,-0.36560285,1.237613,0.84207773,99.19212,27.074984,-15.421144,CSI
5057807081000,2.525034,-2.12486478228782,-4.95533373642594,7.83719520927781,-0.34238997,1.3078625,0.8179486,99.2908,27.11206,-15.766639,CSI
5057812104000,2.530057,-2.19375034277104,-5.04287739444048,7.76046744698231,-0.3155119,1.3961325,0.81306165,99.398056,27.14667,-16.109201,CSI
5057817018000,2.534971,-2.21987634534063,-5.15111380771671,7.72687695019431,-0.29810223,1.5100589,0.80970186,99.52331,27.178715,-16.462057,CSI
5057821990000,2.539943,-2.26602521071391,-5.24653027519541,7.68171521657113,-0.28802297,1.5885551,0.78893244,99.68631,27.216343,-16.863426,CSI
5057827045000,2.544998,-2.39216060529442,-5.28689362042731,7.59089749223554,-0.2828306,1.6352862,0.786489,99.853905,27.24879,-17.272978,CSI
5057832686000,2.550639,-2.57381578827806,-5.31329614311676,7.5072199568378,-0.2874121,1.6542231,0.7840455,100.046165,27.30985,-17.700064,CSI
5057837070000,2.555023,-2.76838372358019,-5.30948100745116,7.46525426124489,-0.29657507,1.625207,0.7791586,100.23665,27.370455,-18.110804,CSI
5057842027000,2.55998,-2.99276698058205,-5.29791253485696,7.41542816351529,-0.2959642,1.5974126,0.77549344,100.429634,27.440458,-18.554005,CSI
5057847025000,2.564978,-3.26427942717856,-5.21134326323578,7.34066401668859,-0.30695978,1.53205,0.77763146,100.61074,27.514511,-18.965565,CSI
5057852016000,2.569969,-3.53541160424203,-5.12489523709306,7.26600458155212,-0.30818152,1.4761559,0.7877107,100.76854,27.584732,-19.41469,CSI
5057857145000,2.575098,-3.8416946916782,-4.97275162774264,7.19507818995849,-0.31673363,1.4263704,0.7959574,100.91682,27.657543,-19.835188,CSI
5057862050000,2.580003,-4.1481089460763,-4.79633145957699,7.13008107412532,-0.3136793,1.3723087,0.79381937,101.05543,27.72553,-20.227596,CSI
5057867202000,2.585155,-4.44482235083478,-4.68188635445048,7.14196512397828,-0.31337386,1.3179418,0.79809546,101.15855,27.772894,-20.670372,CSI
5057872160000,2.590113,-4.71717530027655,-4.60893453644372,7.19546322880262,-0.3036,1.2144,0.788627,101.250084,27.816345,-21.073517,CSI
5057877089000,2.595042,-4.9355319014978,-4.49975756951542,7.19466278651982,-0.29840767,1.1004738,0.7849618,101.300804,27.819363,-21.52088,CSI
5057882283000,2.600236,-5.14213774828194,-4.36828128202643,7.16961966546256,-0.30665436,1.0247264,0.7629707,101.34891,27.824549,-21.937565,CSI
5057887118000,2.605071,-5.33446336807426,-4.24589240062303,7.1463074801888,-0.27885997,0.98746365,0.73975784,101.364235,27.791502,-22.373299,CSI
5057892061000,2.610014,-5.45860554009,-4.1517493044414,7.1608977369008,-0.24556783,0.9651671,0.72387534,101.37425,27.759403,-22.782373,CSI
5057897103000,2.615056,-5.51529060242614,-4.08561633711602,7.21285899471728,-0.22296582,0.94134337,0.6985244,101.38707,27.725725,-23.168034,CSI
5057903006000,2.620959,-5.57959616029548,-4.05675987009234,7.19966999974146,-0.18906279,0.91538155,0.66645396,101.372696,27.636028,-23.60292,CSI
5057907122000,2.625075,-5.62327288716528,-4.06403933723915,7.14871384373038,-0.18081611,0.8848383,0.6392705,101.35941,27.549513,-24.018806,CSI
5057912091000,2.630044,-5.68709147034612,-4.08071988291238,7.07123679900218,-0.19272798,0.83016586,0.6227771,101.33148,27.442863,-24.427622,CSI
5057917052000,2.635005,-5.77597922488307,-4.11528734301008,6.9576580015383,-0.21135938,0.7855727,0.6038403,101.30822,27.340311,-24.818176,CSI
5057922109000,2.640062,-5.85025889872524,-4.12459185089233,6.79220973151598,-0.23732115,0.71837753,0.59742624,101.27896,27.247814,-25.200705,CSI
5057927114000,2.645067,-5.89726015779565,-4.09169096954305,6.54780298803687,-0.25870144,0.6817256,0.59131753,101.25259,27.161665,-25.568796,CSI
5057932007000,2.64996,-5.94070818268583,-4.02089069549632,6.33847796610864,-0.28863382,0.643852,0.59528816,101.22268,27.09552,-25.939075,CSI
5057937117000,2.65507,-5.98078065297971,-3.86505308372305,6.1826402613502,-0.30726522,0.6282749,0.5879578,101.19545,27.033997,-26.295574,CSI
5057942038000,2.659991,-6.02296426646822,-3.74319936565641,6.05787656713314,-0.31887165,0.61178154,0.5858198,101.168526,26.989042,-26.66691,CSI
5057947244000,2.665197,-6.09234925003093,-3.80872951833926,6.10027857979743,-0.32711834,0.61819565,0.5723807,101.148254,26.94949,-27.030163,CSI
5057954381000,2.672334,-6.18841188171763,-3.89629822832357,6.15914978204294,-0.3210097,0.5152648,0.5421429,101.10062,26.891827,-27.383648,CSI
5057957060000,2.675013,-6.26352776486662,-3.83509263580568,6.21200904912167,-0.28619036,0.46792278,0.52381694,101.0637,26.828468,-27.745234,CSI
5057962045000,2.679998,-6.40330106740403,-3.72120317007157,6.3103679316851,-0.2770274,0.37812558,0.48197266,101.02409,26.783356,-28.071547,CSI
5057967031000,2.684984,-6.49006779227053,-3.6870706,6.44755045764895,-0.2519819,0.27122417,0.44348818,100.9782,26.727678,-28.373148,CSI
5057972048000,2.690001,-6.55454284004294,-3.6870706,6.60229079671677,-0.24281894,0.14538592,0.419359,100.92218,26.677477,-28.637987,CSI
5057977089000,2.695042,-6.61298353215728,-3.62430536259299,6.7208219848034,-0.23579398,0.036651913,0.4016439,100.8382,26.593351,-28.89294,CSI
5057982089000,2.700042,-6.66386998274176,-3.49200089925611,6.79715142157279,-0.23335053,-0.040927973,0.3744604,100.74845,26.51395,-29.114702,CSI
5057987152000,2.705105,-6.72205710615115,-3.56803254046533,6.79742557322841,-0.22999077,-0.113926366,0.3472769,100.633965,26.418894,-29.310144,CSI
5057992147000,2.7101,-6.78388910672141,-3.78262589835766,6.74650509546837,-0.21655174,-0.17165314,0.31429017,100.51938,26.327293,-29.481043,CSI
5057997461000,2.715414,-6.84447696159446,-4.00434291184304,6.68939109463778,-0.22937989,-0.22113322,0.2773328,100.38557,26.213968,-29.643913,CSI
5058002141000,2.720094,-6.76887597402344,-4.03617493066406,6.56604209960937,-0.23732115,-0.26297748,0.25534168,100.24988,26.101185,-29.787907,CSI
5058007021000,2.724974,-6.69004417501776,-4.06936729216974,6.4374217800071,-0.2611449,-0.29016098,0.24220806,100.154686,26.056376,-29.92281,CSI
5058012097000,2.73005,-6.61847187932357,-4.10582282456477,6.32682839164046,-0.29016098,-0.29749137,0.21624629,100.0667,26.020702,-30.044188,CSI
5058017083000,2.735036,-6.5525542366976,-4.14244386459851,6.22795209977759,-0.3155119,-0.33841935,0.21563543,99.96604,25.988176,-30.149569,CSI
5058022142000,2.740095,-6.4874080259366,-4.1878522728146,6.12842980883766,-0.33353242,-0.37507126,0.21563543,99.88737,25.987698,-30.247765,CSI
5058027045000,2.744998,-6.43779164409222,-4.29610589711816,6.03821818835735,-0.35735616,-0.40408736,0.21685717,99.803635,25.993834,-30.335798,CSI
5058032398000,2.750351,-6.38095679435225,-4.41317367151371,5.94434512080315,-0.3726278,-0.4605924,0.22968534,99.72321,26.021357,-30.405218,CSI
5058037148000,2.755101,-6.30171362482809,-4.50492906483909,5.91097953906665,-0.37812558,-0.4801401,0.25350907,99.64122,26.048847,-30.477068,CSI
5058042473000,2.760426,-6.21287786109838,-4.60779168998808,5.87357496585679,-0.3857614,-0.5546656,0.28802297,99.5553,26.105742,-30.522663,CSI
5058047073000,2.765026,-6.07635728657399,-4.68453391721577,5.87819508253666,-0.38362336,-0.57604593,0.28588495,99.4793,26.161694,-30.573776,CSI
5058052146000,2.770099,-5.91907032725195,-4.76780357484289,5.88744714863835,-0.37323865,-0.5815437,0.29535335,99.38098,26.208105,-30.616642,CSI
5058057069000,2.775022,-5.50419014272491,-4.83582301919776,6.07941425363031,-0.35063666,-0.5830709,0.3200934,99.29325,26.2734,-30.645844,CSI
5058062090000,2.780043,-4.98953865941568,-4.90073398045512,6.33905834072896,-0.3417791,-0.5858198,0.3231477,99.22636,26.358501,-30.652292,CSI
5058067094000,2.785047,-4.67991640198083,-4.88436273003195,6.47177646396166,-0.30848694,-0.5876524,0.321926,99.1545,26.426836,-30.66156,CSI
5058072108000,2.790061,-4.47280952766773,-4.82683308722045,6.54081203533546,-0.28863382,-0.5919284,0.30909783,99.08521,26.495417,-30.668255,CSI
5058077112000,2.795065,-4.27677616758939,-4.78278941856978,6.59898580265283,-0.27214047,-0.5815437,0.31031954,99.03895,26.556694,-30.601051,CSI
5058082096000,2.800049,-4.13570324279123,-4.80687501534025,6.60242660219146,-0.26939157,-0.56138515,0.30024028,99.00183,26.619026,-30.533804,CSI
5058087156000,2.805109,-3.99247912572088,-4.83132788846597,6.60591986978085,-0.2687807,-0.53969944,0.28252518,98.94333,26.677767,-30.433445,CSI
5058092077000,2.81003,-3.8694925050364,-4.8765004699882,6.61520506261066,-0.2565634,-0.5006041,0.2443461,98.9016,26.736725,-30.340717,CSI
5058097096000,2.815049,-3.7702021108794,-4.95687837755263,6.63411764794413,-0.25411993,-0.47311515,0.24037547,98.85839,26.793856,-30.255718,CSI
5058102074000,2.820027,-3.72414115447536,-5.03330582701978,6.63958512745558,-0.24648413,-0.45875978,0.22082779,98.82956,26.875803,-30.140411,CSI
5058107105000,2.825058,-3.77582704780422,-5.1043739725109,6.62020287529333,-0.22968534,-0.4560109,0.20311269,98.80525,26.95369,-30.031652,CSI
5058112165000,2.830118,-3.82781087214214,-5.1758517733825,6.60070889875964,-0.20586158,-0.46975538,0.19883664,98.78604,27.048805,-29.906599,CSI
5058117073000,2.835026,-3.9226803702124,-5.1847355201651,6.57830512781838,-0.1826487,-0.47616947,0.2312125,98.7642,27.135117,-29.790045,CSI
5058122108000,2.840061,-4.0968317936366,-5.08936667116691,6.5492798617164,-0.17134771,-0.4981606,0.23915374,98.746284,27.221445,-29.665247,CSI
5058127168000,2.845121,-4.27213856025075,-4.99538857952171,6.51919041335036,-0.15974127,-0.49205196,0.25167647,98.734344,27.312788,-29.5652,CSI
5058132159000,2.850112,-4.44970204736476,-4.93250163187834,6.47479959951242,-0.15760323,-0.4990769,0.28955013,98.70793,27.396513,-29.464584,CSI
5058137053000,2.855006,-4.62381459113072,-4.87083689099141,6.43127152038542,-0.17073683,-0.50885075,0.2938262,98.677704,27.453608,-29.402836,CSI
5058142071000,2.860024,-4.81826943200948,-4.76953175892116,6.39396327387868,-0.18295415,-0.50671273,0.28313604,98.64304,27.505217,-29.347366,CSI
5058147064000,2.865017,-5.0308524003853,-4.6230856186722,6.36561894715471,-0.18478674,-0.4886922,0.3023783,98.60111,27.55092,-29.300209,CSI
5058151962000,2.869915,-5.19654032509236,-4.55950539277504,6.34741304874795,-0.19303341,-0.4868596,0.32284227,98.564445,27.573696,-29.295143,CSI
5058156972000,2.874925,-5.30486908094212,-4.60874571297209,6.34248891389573,-0.1881465,-0.4605924,0.29901853,98.54288,27.597298,-29.296288,CSI
5058161928000,2.879881,-5.42966654149477,-4.66225273738847,6.35234375371774,-0.15088372,-0.43951756,0.27488935,98.47798,27.584026,-29.329481,CSI
5058166925000,2.884878,-5.57658879286194,-4.7219399679267,6.37989173577665,-0.11148291,-0.44715336,0.28588495,98.410446,27.567135,-29.36257,CSI
5058171943000,2.889896,-5.70840245063001,-4.77450444387171,6.50668879450172,-0.10598512,-0.45937067,0.25350907,98.36068,27.568737,-29.393251,CSI
5058176928000,2.894881,-5.81280173325003,-4.81427569061752,6.80000146023118,-0.06841691,-0.4896085,0.20005837,98.310165,27.554914,-29.414946,CSI
5058181922000,2.899875,-5.88915542414192,-4.86105124397416,7.10060297298496,-0.04734206,-0.52320606,0.15149458,98.2575,27.555483,-29.433222,CSI
5058186954000,2.904907,-5.93097128592364,-4.91680567783455,7.41189931806787,-0.026267206,-0.5864306,0.10842858,98.20855,27.554504,-29.429167,CSI
5058191922000,2.909875,-5.97499806942799,-4.9475641613381,7.66230268500511,-0.002443461,-0.61391956,0.09315695,98.147385,27.530716,-29.420742,CSI
5058196948000,2.914901,-6.02416348979571,-4.93773111833504,7.81963209178754,0.0067195175,-0.6078109,0.06566802,98.097435,27.514425,-29.397034,CSI
5058202008000,2.919961,-6.02955444679069,-4.92899054250667,7.9073774265046,0.007330383,-0.58276546,0.053450707,98.0252,27.479855,-29.355238,CSI
5058207039000,2.924992,-5.97598850380967,-4.92184843914912,7.90023528585829,0.011911872,-0.50823987,0.036957346,97.9727,27.447865,-29.323149,CSI
5058211991000,2.929944,-5.92326368774088,-4.91481848569523,7.89320529570116,0.01985312,-0.43676865,0.017104227,97.91313,27.402948,-29.295872,CSI
5058216975000,2.934928,-5.82670453157532,-4.87865808462068,7.83649853539309,0.025045475,-0.36651915,0.017104227,97.86629,27.35819,-29.287174,CSI
5058221975000,2.939928,-5.71362601145331,-4.83154207556824,7.76111292090918,0.020463986,-0.27000242,0.00580322,97.845665,27.319963,-29.29738,CSI
5058227596000,2.945549,-5.63540694031181,-4.80919950512249,7.52779685924276,0.03390302,-0.2171626,0.006414085,97.82534,27.278158,-29.308212,CSI
5058231955000,2.949908,-5.58891982482284,-4.80074729027131,7.30381420270298,0.052534413,-0.2312125,0.013744468,97.8114,27.238092,-29.324451,CSI
5058237003000,2.954956,-5.54954071269036,-4.80488341015228,7.29951993299492,0.056199603,-0.22143865,0.025045475,97.8063,27.203642,-29.345179,CSI
5058241988000,2.959941,-5.51627889931323,-4.81438686337215,7.39455382017518,0.05589417,-0.16218472,0.027183503,97.80772,27.167082,-29.373524,CSI
5058246973000,2.964926,-5.43756613553078,-4.82042433686864,7.46479989465827,0.086132,-0.17715092,0.02687807,97.80478,27.145992,-29.38498,CSI
5058252033000,2.969986,-5.33891060668929,-4.82512216546777,7.52587240226854,0.099571034,-0.24007004,0.03359759,97.80106,27.128023,-29.399607,CSI
5058257014000,2.974967,-5.35409121292217,-4.81138222153696,7.60528297640724,0.122783914,-0.3472769,0.037873644,97.77574,27.099773,-29.388037,CSI
5058262070000,2.980023,-5.4291429916789,-4.78768167502039,7.69613539448523,0.12614368,-0.3817908,0.047036625,97.74908,27.07181,-29.38049,CSI
5058266996000,2.984949,-5.48240718248906,-4.77775472545341,7.75998661963727,0.13622294,-0.4569272,0.049480084,97.696396,27.03836,-29.31808,CSI
5058272038000,2.989991,-5.45652347435004,-4.8208943891718,7.72547488866256,0.15332718,-0.53969944,0.069027774,97.62992,26.998774,-29.250784,CSI
5058277333000,2.995286,-5.42921738622178,-4.86608773270978,7.69005713805198,0.17073683,-0.58246,0.07696902,97.5455,26.943094,-29.179237,CSI
5058282012000,2.999965,-5.40100729587193,-4.90235787292023,7.68602702895944,0.19058995,-0.6224717,0.07544186,97.44626,26.881945,-29.091908,CSI
5058287010000,3.004963,-5.37087392729562,-4.94110080106125,7.68172215927691,0.2275473,-0.65057147,0.07574729,97.34364,26.827208,-28.98913,CSI
5058292020000,3.009973,-5.31214011161013,-5.02242982081223,7.64668433691352,0.2657264,-0.6606508,0.0421497,97.249146,26.773396,-28.87884,CSI
5058297405000,3.015358,-5.23822075948399,-5.12591717107501,7.59740466591495,0.31948254,-0.63438356,0.004581489,97.15899,26.708101,-28.773264,CSI
5058302029000,3.019982,-5.19680590838509,-5.213540423706,7.58805280828157,0.37751472,-0.62858033,-0.036651913,97.08597,26.648174,-28.642992,CSI
5058307044000,3.024997,-5.16200321009317,-5.30800469767081,7.59302461490683,0.44593164,-0.61727935,-0.08155051,97.031136,26.579798,-28.51816,CSI
5058312000000,3.029953,-5.06696469827923,-5.24892379827923,7.53038948226828,0.50243664,-0.589485,-0.10720685,96.999504,26.529493,-28.385368,CSI
5058316989000,3.034942,-4.94737776343371,-5.12933686343371,7.44069939820102,0.5271767,-0.59650993,-0.112704635,96.9714,26.474665,-28.247374,CSI
5058321991000,3.039944,-4.82074760497463,-4.99703524504743,7.3183821421906,0.552833,-0.61544675,-0.106595986,96.95398,26.427216,-28.107481,CSI
5058327009000,3.044962,-4.65642482057137,-4.79560765501875,7.01624059109861,0.5308419,-0.6197228,-0.09865474,96.93896,26.386433,-27.973225,CSI
5058331973000,3.049926,-4.53868036896174,-4.62710978815633,6.77158862638115,0.51159966,-0.6453791,-0.09101892,96.90368,26.328497,-27.822718,CSI
5058337061000,3.055014,-4.50753373395124,-4.51587150065747,6.62920361094877,0.49113566,-0.6401868,-0.061391957,96.86486,26.272503,-27.687595,CSI
5058342018000,3.059971,-4.49794641710014,-4.43134223021708,6.47413111432521,0.44226643,-0.6392705,-0.024740042,96.819695,26.220598,-27.552822,CSI
5058347037000,3.06499,-4.60130369242269,-4.47563816864632,6.22804259604751,0.3921755,-0.6750061,-0.0030543262,96.76615,26.172705,-27.41634,CSI
5058352129000,3.070082,-4.7102553930971,-4.54199343989876,6.0416294247584,0.3494149,-0.7284568,0.009468411,96.69933,26.124874,-27.284985,CSI
5058357289000,3.075242,-4.83533109397147,-4.68602016884492,6.079531164289,0.31673363,-0.7892379,0.010995574,96.62394,26.085896,-27.148071,CSI
5058362104000,3.080057,-4.95204417531063,-4.82041720370456,6.11489877588587,0.30909783,-0.8536842,-0.0106901415,96.56944,26.074553,-27.010712,CSI
5058367485000,3.085438,-5.06550653095901,-4.93468301640588,6.25249527311126,0.30482176,-0.86009824,-0.02687807,96.513664,26.069414,-26.877342,CSI
5058372151000,3.090104,-5.15558953545167,-5.01618652929826,6.41979208948834,0.32467487,-0.8384125,-0.053145275,96.46221,26.064644,-26.734507,CSI
5058377092000,3.095045,-5.06398811346766,-5.0245026669141,6.65489548335101,0.34880406,-0.7684685,-0.063224554,96.436935,26.081844,-26.611414,CSI
5058382089000,3.100042,-4.8051735590562,-4.9636051340509,6.94415867171792,0.35827246,-0.68936145,-0.06658431,96.422386,26.100075,-26.497057,CSI
5058387123000,3.105076,-4.54398442922083,-4.87747178793365,7.22126964631948,0.36377025,-0.61483586,-0.06352998,96.41478,26.112873,-26.39555,CSI
5058392055000,3.110008,-4.28783706212617,-4.77953317898556,7.48495083123056,0.3539964,-0.56382865,-0.067500606,96.418846,26.12828,-26.30932,CSI
5058397076000,3.115029,-4.02588301122965,-4.67471594413251,7.74780884637844,0.34574974,-0.5314528,-0.09101892,96.41094,26.12265,-26.194145,CSI
5058402087000,3.12004,-3.75643114033315,-4.53549905350926,7.97235172824256,0.344528,-0.54519725,-0.12156218,96.40712,26.119228,-26.081793,CSI
5058407277000,3.12523,-3.47868496132408,-4.39351656262626,8.20072965826944,0.34330627,-0.57879484,-0.16982053,96.38617,26.087002,-25.913181,CSI
5058412104000,3.130057,-3.25927854327005,-4.32600682323232,8.29074289868565,0.35246924,-0.61941737,-0.21930063,96.37139,26.057142,-25.739567,CSI
5058417061000,3.135014,-3.03396310629183,-4.25667892222222,8.38318036144578,0.364992,-0.6536258,-0.2574797,96.32658,26.000328,-25.508492,CSI
5058422040000,3.139993,-2.80764768149568,-4.18704333232323,8.47602807721796,0.39522982,-0.657291,-0.30726522,96.29838,25.945366,-25.272217,CSI
5058427115000,3.145068,-2.62541692767123,-4.1759299688454,8.49084627710372,0.43157628,-0.63316184,-0.35033122,96.279,25.89008,-25.036087,CSI
5058432102000,3.150055,-2.46653008294521,-4.18994963599804,8.47215381046967,0.4642576,-0.61269784,-0.364992,96.26532,25.831142,-24.80133,CSI
5058437138000,3.155091,-2.3489883072904,-4.17505148693803,8.36514924787363,0.47525316,-0.5537493,-0.37415496,96.25294,25.754463,-24.524946,CSI
5058442128000,3.160081,-2.25359424948794,-4.14601832264364,8.21583642544697,0.5015204,-0.4905248,-0.37140608,96.24617,25.666374,-24.260561,CSI
5058447395000,3.165348,-2.15345802015946,-4.09193585607835,8.03790744923713,0.5137377,-0.41813725,-0.3594942,96.2536,25.588888,-23.996162,CSI
5058452151000,3.170104,-2.06378913865538,-4.01123399380845,7.8496029947042,0.50946164,-0.3222314,-0.321926,96.26669,25.505787,-23.762972,CSI
5058457198000,3.175151,-2.02186988055893,-3.917972881774,7.68335111482382,0.49021935,-0.24312437,-0.26145032,96.28257,25.431656,-23.543846,CSI
5058462114000,3.180067,-2.0790747781693,-3.81309731911705,7.58324241956258,0.47433686,-0.19517145,-0.20372356,96.29842,25.354134,-23.350023,CSI
5058467054000,3.185007,-2.16053299305147,-3.69591502474265,7.53146647352941,0.45723262,-0.20280726,-0.15332718,96.30939,25.278543,-23.170313,CSI
5058472133000,3.190086,-2.29018165707721,-3.55285443961397,7.57170261029412,0.44318274,-0.22327125,-0.1001819,96.30878,25.199749,-23.010544,CSI
5058477107000,3.19506,-2.45179723779314,-3.41801227039236,7.6492847612748,0.44990227,-0.28680122,-0.051923547,96.27524,25.104914,-22.861021,CSI
5058482069000,3.200022,-2.76969330267589,-3.30728444223542,7.89931525676488,0.45173484,-0.33933565,-0.018936822,96.23026,25.011517,-22.716743,CSI
5058487128000,3.205081,-3.09380378075767,-3.19439204347565,8.15423349067949,0.45875978,-0.38912117,0.0076358155,96.14241,24.877295,-22.586199,CSI
5058492079000,3.210032,-3.2799496222896,-3.10264014407737,8.28207139309984,0.4560109,-0.44073927,0.025045475,96.04134,24.743965,-22.44774,CSI
5058497090000,3.215043,-3.34517309166754,-3.02738231091479,8.29712272922112,0.44165558,-0.50701815,0.043066,95.92506,24.610336,-22.299343,CSI
5058502110000,3.220063,-3.41404226946994,-2.94880009120521,8.33176214569144,0.4364632,-0.5543602,0.06841691,95.75921,24.409782,-22.197319,CSI
5058507313000,3.225266,-3.48781794373704,-2.86518771172638,8.38094644210838,0.41325033,-0.5696318,0.076052725,95.59086,24.220697,-22.0894,CSI
5058512082000,3.230035,-3.52480557026908,-2.81854689179532,8.36243677238641,0.38515055,-0.5739079,0.09743301,95.39737,24.017784,-21.985773,CSI
5058517074000,3.235027,-3.54237930401412,-2.79042892514336,8.29917137494486,0.35185838,-0.53786683,0.10598512,95.2115,23.826046,-21.890837,CSI
5058522062000,3.240015,-3.55993895624173,-2.7623334889134,8.23595667093075,0.310625,-0.505491,0.105068825,95.00918,23.625961,-21.80457,CSI
5058527096000,3.245049,-3.49608040147818,-2.77058749595019,8.1392065415612,0.27916542,-0.47219884,0.09590584,94.814735,23.43514,-21.730131,CSI
5058532011000,3.249964,-3.41983047386858,-2.78488433871621,8.0391285426749,0.25442538,-0.41905355,0.09040806,94.62926,23.255932,-21.671515,CSI
5058537177000,3.25513,-3.33388274626109,-2.73654378920737,8.02117166988398,0.25137106,-0.3921755,0.0729984,94.44985,23.08419,-21.620743,CSI
5058542023000,3.259976,-3.2524392365019,-2.68224817902896,8.01664694121088,0.24953845,-0.35979962,0.062308256,94.28026,22.920902,-21.586395,CSI
5058547094000,3.265047,-3.17397981378665,-2.64902700679248,8.00433601318159,0.22113322,-0.3484986,0.041233405,94.12499,22.783924,-21.541046,CSI
5058552816000,3.270769,-3.08714220927753,-2.61744971104948,7.98854744774184,0.21166481,-0.3323107,0.0290161,93.97717,22.644653,-21.506191,CSI
5058557133000,3.275086,-3.00970398567839,-2.58764483498744,7.98821780653266,0.19822577,-0.33322698,0.015577064,93.83535,22.508783,-21.457176,CSI
5058562100000,3.280053,-2.74078939928811,-2.46314738558417,8.16251416289782,0.1777618,-0.3491095,0.002443461,93.698814,22.38045,-21.408304,CSI
5058567106000,3.285059,-2.4934606537827,-2.35763489335111,8.32020930753208,0.16523905,-0.35308012,-0.0033597588,93.56741,22.252249,-21.34218,CSI
5058572061000,3.290014,-2.3867090554241,-2.36949617747042,8.37160845309115,0.13469578,-0.33292156,0.0018325958,93.4393,22.136005,-21.279964,CSI
5058577060000,3.295013,-2.27900951148975,-2.38146278883519,8.42346401891352,0.10720685,-0.3277292,0.0027488936,93.288414,21.99773,-21.158594,CSI
5058582108000,3.300061,-2.18879739786924,-2.46262772983974,8.44041718020397,0.089186326,-0.31490102,-0.004581489,93.14387,21.866999,-21.047075,CSI
5058587225000,3.305178,-2.10401445762156,-2.56972189903478,8.44487952850118,0.06078109,-0.29229903,0.00030543262,92.99941,21.746325,-20.943832,CSI
5058592110000,3.310063,-2.04338664606246,-2.6522736309063,8.40389758986396,0.053450707,-0.26267207,-0.005497787,92.86121,21.629883,-20.822453,CSI
5058597066000,3.315019,-1.99791565468481,-2.72048011797279,8.3265962397969,0.038789943,-0.22571471,-0.005497787,92.72545,21.522936,-20.713058,CSI
5058602100000,3.320053,-1.9614155772666,-2.77637096783753,8.22690400543985,0.042760566,-0.17928895,-0.0036651916,92.61753,21.43652,-20.596914,CSI
5058607310000,3.325263,-1.93556585806652,-2.81773068050979,8.09765567935965,0.047647487,-0.15027285,-0.009162978,92.51536,21.35538,-20.487835,CSI
5058612105000,3.330058,-1.9095094563762,-2.83666357029756,8.00401716126461,0.041233405,-0.112704635,-0.005192355,92.435684,21.295168,-20.39083,CSI
5058617056000,3.335009,-1.88071650135115,-2.84026264739639,7.92843586572036,0.04428773,-0.09590584,-0.00030543262,92.359146,21.232279,-20.297728,CSI
5058622981000,3.340934,-1.84994063332065,-2.84366492329497,7.83984773994103,0.040317107,-0.077579886,-0.015577064,92.30559,21.191349,-20.213943,CSI
5058627111000,3.345064,-1.86875171674118,-2.83614045064206,7.79846327784648,0.04184427,-0.06261369,-0.011911872,92.247505,21.146025,-20.138199,CSI
5058632043000,3.349996,-1.89121570304385,-2.82715480920765,7.7490424141539,0.030543262,-0.053450707,-0.016187929,92.209526,21.115715,-20.061855,CSI
5058637256000,3.355209,-1.97633830032694,-2.94361187872228,7.74851180319873,0.0033597588,-0.05222898,-0.013439035,92.169716,21.088423,-19.990189,CSI
5058642112000,3.360065,-2.07085231421755,-3.08332818551736,7.76083970126359,-0.015271631,-0.06566802,-0.01985312,92.13343,21.063547,-19.91717,CSI
5058647063000,3.365016,-2.09590868704009,-3.20332622391543,7.78964113915431,-0.022296581,-0.07269296,-0.03145956,92.10008,21.04505,-19.85049,CSI
5058652114000,3.370067,-2.05606311122094,-3.30515361651107,7.83391389844408,-0.057726767,-0.076052725,-0.038179077,92.066444,21.039257,-19.782671,CSI
5058657078000,3.375031,-2.00841631004904,-3.39915029468218,7.87036792630061,-0.0711658,-0.08002335,-0.053145275,92.062485,21.05916,-19.721582,CSI
5058662041000,3.379994,-1.94442787713242,-3.48142107564189,7.89322092101164,-0.07422013,-0.067500606,-0.07147124,92.063095,21.08623,-19.664484,CSI
5058667027000,3.38498,-1.88234188092379,-3.55381778843808,7.91853079446112,-0.069027774,-0.04642576,-0.09162979,92.08475,21.134258,-19.592768,CSI
5058672096000,3.390049,-1.8259327020335,-3.59612477077564,7.95143614881379,-0.06352998,-0.015577064,-0.101098195,92.11104,21.182892,-19.528011,CSI
5058677034000,3.394987,-1.77633552376256,-3.63786074603647,7.97665488816524,-0.062002823,0.0033597588,-0.10720685,92.14947,21.249641,-19.450478,CSI
5058682043000,3.399996,-1.74955643480648,-3.68249248328991,7.97219162123186,-0.053450707,0.027183503,-0.10781772,92.19279,21.312315,-19.383795,CSI
5058687159000,3.405112,-1.7243295925604,-3.72815196434904,7.9648766499044,-0.06078109,0.0571159,-0.11301007,92.2451,21.386227,-19.312191,SIT
5058692565000,3.410518,-1.73332875487572,-3.77764745105163,7.91088176998088,-0.05222898,0.063224554,-0.10567969,92.29354,21.451231,-19.243614,SIT
5058697030000,3.414983,-1.74076147032852,-3.81852746365375,7.86628555487572,-0.040317107,0.094989546,-0.09896017,92.36007,21.526335,-19.184809,SIT
5058702827000,3.42078,-1.73918327257234,-3.81554061102432,7.77327560328422,-0.05100725,0.1133155,-0.080634214,92.419754,21.602083,-19.12767,SIT
5058707044000,3.424997,-1.73559856055388,-3.80120168808805,7.69799672575892,-0.051618114,0.13439035,-0.0729984,92.48396,21.67125,-19.080437,SIT
5058712034000,3.429987,-1.73550819568556,-3.80715881378428,7.64344417327239,-0.051923547,0.16310102,-0.051923547,92.55207,21.753769,-19.044384,SIT
5058717033000,3.434986,-1.73988428555759,-3.83779153427788,7.62593972239488,-0.059864793,0.19181168,-0.044898596,92.6238,21.837866,-19.01403,SIT
5058722106000,3.440059,-1.75173572273088,-3.83756090079271,7.60918308529528,-0.06811147,0.19975294,-0.036957346,92.691795,21.923553,-18.986261,SIT
5058727159000,3.445112,-1.78050602868609,-3.76563516093936,7.59479775707491,-0.07574729,0.20250183,-0.029321533,92.76011,22.0093,-18.965874,SIT
5058732039000,3.449992,-1.81619131756287,-3.6908609331478,7.58745614954776,-0.0711658,0.2134974,-0.016798794,92.83564,22.099081,-18.94719,SIT
5058737134000,3.455087,-1.87438891834808,-3.59871471080409,7.59715604508498,-0.086437434,0.21624629,-0.006414085,92.90834,22.194323,-18.92809,SIT
5058742019000,3.459972,-1.93848350548724,-3.52741880037202,7.62839161175984,-0.09407325,0.22204952,0.0012217305,92.96826,22.270872,-18.916723,SIT
5058747051000,3.465004,-2.02812174494161,-3.50251931830113,7.72300953963005,-0.09162979,0.2049453,0.0030543262,93.02404,22.347189,-18.900822,SIT
5058752163000,3.470116,-2.11141774229692,-3.47938156047308,7.82540023716153,-0.090713486,0.21868975,0.011911872,93.075935,22.400759,-18.906643,SIT
5058757106000,3.475059,-2.17771763361345,-3.46096492399627,7.93590005602241,-0.08827003,0.24495697,0.0143553335,93.12808,22.452955,-18.91079,SIT
5058762195000,3.480148,-2.24597580616246,-3.44200432051043,8.04966367693744,-0.08979719,0.24709499,0.014660766,93.1718,22.489298,-18.923733,SIT
5058767030000,3.484983,-2.33838967299528,-3.40249943903302,8.10526470400943,-0.092240654,0.2501493,0.029626964,93.2135,22.523056,-18.945238,SIT
5058772059000,3.490012,-2.44251295339033,-3.35517074710102,8.14786047238601,-0.087964594,0.25809056,0.016798794,93.26309,22.557726,-18.964842,SIT
5058777097000,3.49505,-2.54639818671171,-3.32430987021908,8.17743471703522,-0.09254608,0.25686884,0.0290161,93.29057,22.572046,-18.990688,SIT
5058782048000,3.500001,-2.6483341472973,-3.3000392754914,8.20170515970516,-0.10048734,0.24404067,0.03145956,93.32324,22.588287,-19.012278,SIT
5058787124000,3.505077,-2.76019414186572,-3.25519257215322,8.28251185694432,-0.12156218,0.26206118,0.025045475,93.34635,22.593843,-19.05219,SIT
5058792191000,3.510144,-2.87399540576739,-3.20461433533397,8.3794538259359,-0.13500121,0.26511553,0.004581489,93.36885,22.600752,-19.082567,SIT
5058797135000,3.515088,-2.97413646628541,-3.19819992598517,8.43590130587079,-0.15607607,0.2510656,-0.0012217305,93.38414,22.605434,-19.12345,SIT
5058802137000,3.52009,-3.06402715753731,-3.23672444409794,8.45302369135913,-0.1695151,0.23945917,-0.007330383,93.40534,22.613855,-19.162006,SIT
5058808169000,3.526122,-3.20052882892902,-3.2725822904943,8.48886896831432,-0.17440203,0.2434298,-0.014966198,93.41098,22.603168,-19.213837,SIT
5058812045000,3.529998,-3.31814508279468,-3.28434391178707,8.52807437262357,-0.18325958,0.22418754,-0.015271631,93.4118,22.597364,-19.255093,SIT
5058817010000,3.534963,-3.43861168458726,-3.3171426061574,8.54348899711372,-0.21380283,0.21502456,-0.002443461,93.41761,22.602947,-19.312096,SIT
5058822063000,3.540016,-3.49913606549933,-3.38697852751587,8.48762014335193,-0.24281894,0.20525073,0.009162978,93.42116,22.610817,-19.36177,SIT
5058827021000,3.544974,-3.56513195464489,-3.4552635013635,8.44041084761762,-0.24129178,0.21197024,0.0076358155,93.420296,22.615643,-19.42388,SIT
5058832094000,3.550047,-3.65248553332334,-3.52441843365298,8.41493259065028,-0.25534168,0.21319197,0.021380283,93.41047,22.629465,-19.483,SIT
5058837137000,3.55509,-3.73932253258915,-3.59316440714714,8.38960500344621,-0.27091873,0.19517145,0.040317107,93.40148,22.662642,-19.547245,SIT
5058842149000,3.560102,-3.8107851070091,-3.69257801145851,8.33467793755369,-0.2846632,0.19883664,0.058948494,93.392136,22.69696,-19.616657,SIT
5058847110000,3.565063,-3.87199955162343,-3.8109258581687,8.26122045060986,-0.29016098,0.20769419,0.0571159,93.38237,22.73261,-19.680326,SIT
5058852107000,3.57006,-3.92996190923695,-3.9479446977371,8.21334513291628,-0.29077184,0.21746802,0.076358154,93.380424,22.782393,-19.76464,SIT
5058857101000,3.575054,-3.97798052289157,-4.13263178904078,8.23550764712697,-0.2874121,0.22785273,0.08735373,93.3828,22.832418,-19.847677,SIT
5058862099000,3.580052,-4.02603759759036,-4.31746680753012,8.2576879126506,-0.2773328,0.2312125,0.1255328,93.39993,22.906448,-19.943348,SIT
5058867059000,3.585012,-3.9588564446661,-4.33379397338273,8.22197730531015,-0.27488935,0.23671028,0.102319926,93.43254,22.985157,-20.033455,SIT
5058872132000,3.590085,-3.83424877986131,-4.26918268979766,8.15736606991546,-0.25289822,0.24465153,0.09468412,93.451035,23.048647,-20.12853,SIT
5058877848000,3.595801,-3.80169150769398,-4.25760794190393,8.25890855183656,-0.24709499,0.28496864,0.09468412,93.50398,23.160135,-20.231354,SIT
5058882099000,3.600052,-3.82381232210389,-4.27530461191046,8.40932983112367,-0.24220806,0.23304509,0.113926366,93.54235,23.26226,-20.310755,SIT
5058887091000,3.605044,-3.78110450075122,-4.31494543906319,8.47492790269554,-0.22937989,0.22082779,0.12705997,93.58884,23.354342,-20.395239,SIT
5058892098000,3.610051,-3.71329914476359,-4.36156142770658,8.50035496650464,-0.22815818,0.21471913,0.11056661,93.63202,23.447275,-20.464205,SIT
5058897087000,3.61504,-3.65326508492826,-4.42978921242853,8.50166764246413,-0.22143865,0.22418754,0.12614368,93.657616,23.51732,-20.539803,SIT
5058902213000,3.620166,-3.60030287023411,-4.5251212541806,8.47518653511706,-0.22143865,0.23457226,0.1282817,93.69063,23.59037,-20.608187,SIT
5058906994000,3.624947,-3.59063183587239,-4.57340339312065,8.40949254816585,-0.21930063,0.23793201,0.12339478,93.72173,23.670229,-20.661695,SIT
5058912086000,3.630039,-3.6058344958329,-4.5987411597215,8.31320808261457,-0.21746802,0.23151793,0.12583824,93.750206,23.747286,-20.71466,SIT
5058916954000,3.634907,-3.61341277206621,-4.6448795294774,8.25141495424958,-0.19608775,0.23365596,0.1301143,93.79188,23.836342,-20.77116,SIT
5058921974000,3.639927,-3.61788325151571,-4.70299590236191,8.20224005374744,-0.18600847,0.24709499,0.12614368,93.83571,23.926376,-20.826313,SIT
5058926957000,3.64491,-3.62265143329076,-4.75974546619838,8.15764536962537,-0.17104226,0.25473082,0.12767084,93.8783,24.01882,-20.89271,SIT
5058931966000,3.649919,-3.62775681762452,-4.81590469386973,8.11680197509579,-0.15210545,0.2556471,0.12583824,93.92369,24.106268,-20.957598,SIT
5058936964000,3.654917,-3.6296098,-4.8419089240886,8.09354593724043,-0.118202426,0.2602286,0.12858713,93.973854,24.20049,-21.028183,SIT
5058941969000,3.659922,-3.6296098,-4.85075647992617,8.08027471896631,-0.10934488,0.2678644,0.122478485,94.027306,24.295355,-21.096046,SIT
5058947310000,3.665263,-3.64513615935335,-4.82438830831409,8.07583578060046,-0.08735373,0.27550024,0.11362094,94.08276,24.390453,-21.168617,SIT
5058952441000,3.670394,-3.67474067434481,-4.7651793298524,8.08076996947485,-0.080634214,0.28130344,0.108123146,94.13959,24.485424,-21.23976,SIT
5058956932000,3.674885,-3.6870706,-4.71364423792966,8.07610606755414,-0.064446285,0.2883284,0.10720685,94.1988,24.573767,-21.314037,SIT
5058961945000,3.679898,-3.6870706,-4.65641157490562,8.06179765279158,-0.04550946,0.29229903,0.10323623,94.2604,24.658699,-21.385324,SIT
5058966935000,3.684888,-3.70663893209791,-4.59733210871073,8.04757131344763,-0.040011674,0.3036,0.09865474,94.31334,24.729837,-21.46646,SIT
5058971955000,3.689908,-3.74951672656823,-4.53539746695075,8.03327891428005,-0.03481932,0.28619036,0.09468412,94.36337,24.795137,-21.538105,SIT
5058976914000,3.694867,-3.79240841049638,-4.4800377924305,8.01770535180292,-0.02443461,0.27855456,0.090713486,94.410736,24.847378,-21.614054,SIT
5058981934000,3.699887,-3.83651854573814,-4.43151679105423,8.00006128849436,-0.008552114,0.26847526,0.07666359,94.458786,24.897469,-21.680635,SIT
5058986933000,3.704886,-3.88078087833753,-4.38269778214736,7.97269452899874,0.0033597588,0.27275133,0.08277224,94.493286,24.931427,-21.763086,SIT
5058991960000,3.709913,-3.92625560151134,-4.33217036471453,7.9171143645466,0.014660766,0.27030787,0.08246681,94.53068,24.963203,-21.836103,SIT
5058996931000,3.714884,-3.95847696231383,-4.28370758843086,7.86868895074469,0.021685716,0.2602286,0.081855945,94.556465,24.982857,-21.918667,SIT
5059002142000,3.720095,-3.96806756571538,-4.23575457142308,7.83032653713846,0.025350908,0.25503623,0.07452556,94.584236,25.00103,-21.998306,SIT
5059006937000,3.72489,-3.98926697211946,-4.17984931139816,7.80103606638421,0.034208454,0.25350907,0.089491755,94.60327,25.00669,-22.087849,SIT
5059011912000,3.729865,-4.04342527350419,-4.09122634663635,7.78626550370983,0.027488936,0.2556471,0.07880162,94.630844,25.019333,-22.170107,SIT
5059016910000,3.734863,-4.09057176189318,-4.00082909119564,7.76706507973538,0.024740042,0.23762658,0.07574729,94.64474,25.019768,-22.254244,SIT
5059021956000,3.739909,-4.12348072434089,-3.90680334394396,7.73885745374064,0.025350908,0.23732115,0.090713486,94.65917,25.020304,-22.341747,SIT
5059026921000,3.744874,-4.15866319750643,-3.82045609404314,7.72155219711063,0.030848695,0.22602014,0.0852157,94.66443,25.006697,-22.430288,SIT
5059031907000,3.74986,-4.20118776825648,-3.74958236861271,7.73100201401148,0.014660766,0.21074851,0.09285152,94.6613,24.99557,-22.518682,SIT
5059036964000,3.754917,-4.24054770831349,-3.68904866523809,7.74439227896825,0.00030543262,0.18997909,0.09101892,94.647415,24.96876,-22.60842,SIT
5059041918000,3.759871,-4.26878776906746,-3.66080850619048,7.76792574484127,-0.012217305,0.15851954,0.10354166,94.62392,24.94357,-22.691803,SIT
5059046912000,3.764865,-4.29335775536569,-3.64115203691046,7.78790943691046,-0.02443461,0.13072516,0.10903945,94.590385,24.907747,-22.779352,SIT
5059052414000,3.770367,-4.30686379268626,-3.65015606179084,7.79691346179084,-0.03176499,0.103847094,0.10842858,94.55118,24.873762,-22.857538,SIT
5059056917000,3.77487,-4.3179175342447,-3.6575252228298,7.8042826228298,-0.05009095,0.080634214,0.11453723,94.50064,24.836264,-22.9359,SIT
5059061910000,3.779863,-4.33894105393284,-3.67814135731371,7.78529644268629,-0.056505036,0.05681047,0.12644911,94.44538,24.797567,-23.005823,SIT
5059066910000,3.784863,-4.35961836487893,-3.70171390041619,7.76317147113129,-0.07269296,0.03726278,0.13072516,94.3886,24.766827,-23.068808,SIT
5059071926000,3.789879,-4.37324986204124,-3.73352061642073,7.7404523882709,-0.06994407,0.032070424,0.13469578,94.33036,24.731524,-23.133356,SIT
5059077048000,3.795001,-4.38863394890071,-3.76754514707359,7.71539718204999,-0.07422013,0.035430185,0.13652839,94.27685,24.705946,-23.196762,SIT
5059081906000,3.799859,-4.42132827426965,-3.81892211826122,7.66869093327979,-0.06414085,0.027488936,0.13683382,94.22111,24.675957,-23.25462,SIT
5059087034000,3.804987,-4.45398390818322,-3.87287452084406,7.62352284405558,-0.06414085,0.02107485,0.13744467,94.17597,24.655878,-23.315397,SIT
5059091915000,3.809868,-4.46360708983016,-3.92099017786927,7.62833430927432,-0.06169739,0.019547688,0.13897185,94.13072,24.632656,-23.373919,SIT
5059096917000,3.81487,-4.46621709217214,-3.97000320168246,7.63886661771009,-0.06566802,0.00580322,0.14263703,94.095215,24.622385,-23.43261,SIT
5059102379000,3.820332,-4.40600189153458,-4.02095447693261,7.69908191508014,-0.05375614,-0.00061086525,0.13927728,94.06254,24.608128,-23.490458,SIT
5059106951000,3.824904,-4.35559839513858,-4.06360354878243,7.74948549244665,-0.044593163,-0.013744468,0.1441642,94.03185,24.601149,-23.546906,SIT
5059111949000,3.829902,-4.29318405126246,-4.09292869645626,7.78911389986711,-0.06047566,-0.018325957,0.13897185,94.005615,24.599192,-23.60063,SIT
5059117064000,3.835017,-4.22821387778065,-4.11834237327638,7.82519802642161,-0.059864793,-0.03726278,0.13988814,93.97291,24.589262,-23.647346,SIT
5059121961000,3.839914,-4.16751258587454,-4.12238910635085,7.83733831015618,-0.056199603,-0.05589417,0.13897185,93.94691,24.589165,-23.680952,SIT
5059126963000,3.844916,-4.10550975513849,-4.12652260825783,7.84973890220036,-0.043676864,-0.076358154,0.1423316,93.92347,24.586521,-23.70646,SIT
5059131945000,3.849898,-4.05450088221915,-4.11716482743275,7.83906341835443,-0.052839845,-0.07666359,0.13500121,93.90391,24.589825,-23.730032,SIT
5059136984000,3.854937,-4.00677793442445,-4.1028478783129,7.8199742193038,-0.058643065,-0.09254608,0.12614368,93.879166,24.588743,-23.74401,SIT
5059141948000,3.859901,-3.95247263248823,-4.10913697760297,7.79756783020343,-0.047036625,-0.09437868,0.12064589,93.85982,24.586258,-23.757425,SIT
5059146972000,3.864925,-3.89461451860908,-4.12360155641848,7.77346028275378,-0.035430185,-0.095294975,0.106901415,93.84351,24.58726,-23.76445,SIT
5059151966000,3.869919,-3.88168298424242,-4.1399082369697,7.77294276848485,-0.03481932,-0.10323623,0.106901415,93.82732,24.58641,-23.761946,SIT
5059157127000,3.87508,-3.88608814153298,-4.15752886613191,7.78175308306595,-0.02321288,-0.10720685,0.08552113,93.82155,24.584217,-23.755718,SIT
5059162041000,3.879994,-3.87827559293167,-4.17383720911309,7.78990720282733,-0.027488936,-0.0983493,0.0729984,93.82459,24.588482,-23.747217,SIT
5059167160000,3.885113,-3.85764969289801,-4.19033814451363,7.79815756284079,-0.014660766,-0.094989546,0.057421334,93.83296,24.588509,-23.733532,SIT
5059172041000,3.889994,-3.84138679842053,-4.2025876023692,7.8099899928924,-0.0027488936,-0.09773844,0.05009095,93.84551,24.59211,-23.724316,SIT
5059177035000,3.894988,-3.85082935305035,-4.18842377042448,7.85248148872656,0.01282817,-0.094989546,0.040927973,93.86386,24.593725,-23.715351,SIT
5059182017000,3.89997,-3.85833830476542,-4.17511634885243,7.88943064903678,0.014660766,-0.089186326,0.025045475,93.88832,24.60071,-23.703018,SIT
5059187086000,3.905039,-3.84491454242787,-4.17064152779058,7.86705780525394,0.028099801,-0.093767814,0.014660766,93.91231,24.601288,-23.688635,SIT
5059192078000,3.910031,-3.83169469204535,-4.16623468092912,7.84502481330998,0.029626964,-0.08246681,0.0106901415,93.93613,24.599203,-23.682438,SIT
5059197040000,3.914993,-3.81482050503207,-4.15795955251604,7.843405,0.029321533,-0.09040806,-0.014966198,93.96505,24.598475,-23.666319,SIT
5059202734000,3.920687,-3.79511481024483,-4.14810670512241,7.843405,0.0421497,-0.083383106,-0.022907447,93.9934,24.59252,-23.658936,SIT
5059207081000,3.925034,-3.75438636431535,-4.15021425726141,7.83303337261411,0.036651913,-0.08277224,-0.032375857,94.0281,24.596394,-23.64363,SIT
5059211985000,3.929938,-3.70210310359275,-4.15496738022467,7.81877420224674,0.044593163,-0.071776666,-0.038179077,94.065796,24.59431,-23.632607,SIT
5059217014000,3.934967,-3.65595330856527,-4.14388705093374,7.83023304571736,0.05131268,-0.058643065,-0.064446285,94.11363,24.595398,-23.619217,SIT
5059222073000,3.940026,-3.6124544477285,-4.12648746117795,7.85198247613575,0.058643065,-0.05681047,-0.06811147,94.15598,24.592493,-23.608263,SIT
5059227035000,3.944988,-3.57701201675045,-4.10781917098918,7.87276592901082,0.051923547,-0.04550946,-0.07880162,94.20638,24.601555,-23.591434,SIT
5059232095000,3.950048,-3.5481109970691,-4.0871756470904,7.8934094529096,0.060170226,-0.044898596,-0.09010262,94.255936,24.60561,-23.572327,SIT
5059237193000,3.955146,-3.52546020014876,-4.06775190594361,7.91163780014876,0.0720821,-0.040927973,-0.09254608,94.304375,24.606688,-23.550047,SIT
5059242070000,3.960023,-3.53177652357834,-4.05511929206167,7.91795412357834,0.07238753,-0.044898596,-0.105068825,94.35691,24.611542,-23.523817,SIT
5059247021000,3.964974,-3.53818868623977,-4.04229500021638,7.92436628623977,0.06811147,-0.0580322,-0.106901415,94.39892,24.6092,-23.493706,SIT
5059252217000,3.97017,-3.544284801125,-4.03356838415625,7.93046239207813,0.07788532,-0.06536258,-0.10781772,94.44366,24.604912,-23.463379,SIT
5059257054000,3.975007,-3.5479037840625,-4.04080627445313,7.93408133722656,0.076052725,-0.0729984,-0.105068825,94.4853,24.604729,-23.430775,SIT
5059262084000,3.980037,-3.5516671671875,-4.04833296210938,7.93784468105469,0.076358154,-0.06719518,-0.10842858,94.52417,24.598753,-23.400215,SIT
5059267095000,3.985048,-3.58269105044078,-4.03911074664622,7.92729441563818,0.07269296,-0.07544186,-0.11056661,94.55827,24.59408,-23.365599,SIT
5059273016000,3.990969,-3.63702638123802,-4.01737677318896,7.90556038544461,0.076358154,-0.080634214,-0.11362094,94.59421,24.58828,-23.333597,SIT
5059277105000,3.995058,-3.6487634,-4.012682,7.9008656,0.0842994,-0.0711658,-0.115453534,94.630585,24.584648,-23.300703,SIT
5059282348000,4.000301,-3.6487634,-4.012682,7.9008656,0.086132,-0.0693332,-0.106901415,94.66253,24.580944,-23.266554,SIT
5059287086000,4.005039,-3.68795818448307,-4.00966695361391,7.88579068289113,0.07819075,-0.06688975,-0.105068825,94.69561,24.575823,-23.241734,SIT
5059292222000,4.010175,-3.74645990290942,-4.00516672744739,7.86329002195791,0.083383106,-0.07788532,-0.10323623,94.72407,24.566135,-23.215792,SIT
5059297040000,4.014993,-3.78208847236867,-4.00751835922602,7.86180822628529,0.08735373,-0.07971791,-0.109650314,94.75377,24.560207,-23.194548,SIT
5059302200000,4.020153,-3.8005654011404,-4.0167568718452,7.88028505859039,0.077579886,-0.081855945,-0.106901415,94.77831,24.555428,-23.172525,SIT
5059307061000,4.025014,-3.82836275406562,-4.0192053946505,7.88670873980028,0.08032878,-0.08552113,-0.10354166,94.795746,24.549198,-23.158031,SIT
5059312154000,4.030107,-3.87619808452211,-4.01050797102354,7.87366274058488,0.08368854,-0.08246681,-0.10415252,94.81379,24.545666,-23.144972,SIT
5059317053000,4.035006,-3.91371890079858,-4.0025724945874,7.86522098266785,0.07269296,-0.09743301,-0.10476339,94.826866,24.544538,-23.130775,SIT
5059322127000,4.04008,-3.88497433812482,-3.99778183419107,7.88917478489599,0.06872234,-0.096516706,-0.102319926,94.84159,24.540638,-23.122004,SIT
5059327089000,4.045042,-3.8594532,-3.99213624171769,7.91009436042942,0.0729984,-0.105068825,-0.099571034,94.84656,24.53713,-23.114899,SIT
5059332091000,4.050044,-3.8594532,-3.97689865806759,7.9062849645169,0.06688975,-0.10629055,-0.09865474,94.8524,24.537334,-23.110062,SIT
5059337125000,4.055078,-3.8594532,-3.96156359287475,7.90245119821869,0.07086037,-0.11209377,-0.09437868,94.85388,24.53045,-23.102613,SIT
5059342050000,4.060003,-3.8594532,-3.94157913045395,7.91177922714701,0.06963864,-0.106595986,-0.095294975,94.85789,24.527128,-23.097364,SIT
5059347136000,4.065089,-3.8594532,-3.91717407744263,7.93130321858904,0.06994407,-0.10995574,-0.096516706,94.858696,24.52203,-23.08909,SIT
5059352164000,4.070117,-3.85142324869076,-3.9073372,7.94452600087283,0.06688975,-0.11209377,-0.09560041,94.86402,24.513353,-23.080612,SIT
5059357057000,4.07501,-3.83822964501173,-3.9073372,7.95332173665885,0.061391957,-0.11484267,-0.08552113,94.86642,24.504509,-23.072416,SIT
5059362042000,4.079995,-3.81552433249479,-3.90902591469316,7.9583263,0.061391957,-0.12705997,-0.089491755,94.86045,24.492895,-23.058771,SIT
5059367090000,4.085043,-3.78066660238744,-3.91289898682903,7.9583263,0.049480084,-0.13683382,-0.082161374,94.848595,24.483362,-23.048103,SIT
5059372511000,4.090464,-3.74358816948868,-3.91672535389774,7.95738307145851,0.048258353,-0.1328632,-0.08032878,94.83619,24.473207,-23.032602,SIT
5059377099000,4.095052,-3.72056933126572,-3.91212158625314,7.93436428130763,0.04428773,-0.1423316,-0.0729984,94.81722,24.465322,-23.013403,SIT
5059382259000,4.100212,-3.69461265441734,-3.90292857748871,7.90942502720867,0.03970624,-0.14202617,-0.06169739,94.80678,24.457302,-22.992544,SIT
5059387108000,4.105061,-3.66944305918699,-3.84839436688347,7.8968402295935,0.03726278,-0.14752395,-0.057726767,94.79435,24.449839,-22.968542,SIT
5059392074000,4.110027,-3.64366615468835,-3.79254431741644,7.88395177734417,0.022296581,-0.15515977,-0.0571159,94.781166,24.447847,-22.939522,SIT
5059397092000,4.115045,-3.61581904731544,-3.76948571275168,7.8984031090604,0.026572637,-0.14538592,-0.047647487,94.76632,24.439945,-22.916107,SIT
5059402201000,4.120154,-3.58708623704698,-3.75306696402685,7.91892654496644,0.03145956,-0.15057829,-0.047647487,94.75104,24.436758,-22.886705,SIT
5059407254000,4.125207,-3.55035796679675,-3.74695262029322,7.93928083060859,0.018325957,-0.1469131,-0.047647487,94.73389,24.425123,-22.861929,SIT
5059412416000,4.130369,-3.50343042679042,-3.75216677930598,7.96013735776817,0.021991149,-0.14844026,-0.052839845,94.71697,24.408716,-22.834724,SIT
5059417036000,4.134989,-3.4859576,-3.75650151293072,7.98704952843646,0.02107485,-0.1432479,-0.05222898,94.70025,24.390493,-22.809477,SIT
5059422150000,4.140103,-3.4859576,-3.7610379852538,8.02334135439051,0.022296581,-0.15363261,-0.0421497,94.68017,24.37053,-22.781292,SIT
5059427086000,4.145039,-3.48168990798265,-3.76795269201735,8.04309498055703,0.02107485,-0.16707164,-0.048258353,94.66195,24.355068,-22.745266,SIT
5059432063000,4.150016,-3.47080860512899,-3.77883399487101,8.0394679932273,0.022602014,-0.16920967,-0.03359759,94.6356,24.335049,-22.714472,SIT
5059437973000,4.155926,-3.45788746792482,-3.79175513207518,8.03516108241382,0.023518313,-0.16187929,-0.040927973,94.61847,24.316418,-22.67382,SIT
5059442062000,4.160015,-3.43220448727038,-3.79867115166882,8.02555727451488,0.026267206,-0.16065755,-0.047647487,94.59633,24.295351,-22.63427,SIT
5059448931000,4.166884,-3.38681736983182,-3.81001806432083,8.00853672781371,0.031154128,-0.15882497,-0.042760566,94.57438,24.273254,-22.598497,SIT
