timestamp,rel_time,acc_x,acc_y,acc_z,gyro_x,gyro_y,gyro_z,azimuth,pitch,roll,label
16773352090000,0,0.991359967501429,9.8115989708526,0.0525119683645243,-0.016187929,-0.00061086525,0.0009162979,177.14291,-79.381775,6.811041,STD
16773357022000,0.004932,0.993814000732582,9.8140530553333,0.0500579330833896,-0.021380283,-0.0061086523,0.004276057,176.9068,-79.48742,6.752824,STD
16773361998000,0.009908,0.993694530791991,9.81565364572443,0.0467373466775816,-0.032375857,-0.01038471,-0.005192355,176.65578,-79.59524,6.688854,STD
16773367037000,0.014947,0.974656165982839,9.81089395512378,0.0372181583091035,-0.020158553,-0.005192355,-0.0018325958,176.40681,-79.70191,6.6306553,STD
16773371994000,0.019904,0.957239599463967,9.80709110859639,0.0278482206090927,-0.024740042,-0.01038471,-0.004581489,176.14757,-79.80508,6.568199,STD
16773377044000,0.024954,0.952438828543776,9.81189196724241,0.018246697065813,-0.019547688,-0.009773844,0.002443461,175.88857,-79.90856,6.5103955,STD
16773382065000,0.029975,0.947665626407088,9.81666525660115,0.00870031098446496,-0.021991149,-0.0076358155,0.0009162979,175.63547,-80.01298,6.447155,STD
16773387026000,0.034936,0.942949463132817,9.82138150605519,-0.000731997589438157,-0.025961773,-0.008246681,-0.0021380284,175.38655,-80.115135,6.386903,STD
16773392091000,0.040001,0.938886484605598,9.82652284669211,-0.0192815485947837,-0.02321288,-0.0076358155,-0.007330383,175.13884,-80.218254,6.326649,STD
16773397040000,0.04495,0.943193607760814,9.83513682315522,-0.135573960586514,-0.019547688,-0.007330383,-0.005497787,174.89499,-80.31795,6.2689157,STD
16773402081000,0.049991,0.94758079867321,9.84391093011632,-0.254028203635678,-0.01985312,-0.0021380284,-0.004581489,174.65746,-80.41816,6.208717,STD
16773407040000,0.05495,0.940074666775683,9.8288987173913,-0.320340324494036,-0.018936822,-0.01160644,-0.003970624,174.42737,-80.51718,6.150769,STD
16773412033000,0.059943,0.930875558964987,9.81050059782609,-0.380134563686033,-0.027488936,-0.014660766,-0.005192355,174.19737,-80.6123,6.0934186,STD
16773417038000,0.064948,0.909889047949336,9.82189886610374,-0.0571720313872135,-0.032070424,-0.008857546,-0.004886922,173.99084,-80.72019,6.040001,STD
16773421930000,0.06984,0.886341724607961,9.84073660675513,0.357260726646562,-0.02687807,-0.0125227375,-0.0036651916,173.79027,-80.8264,5.9879317,STD
16773427055000,0.074965,0.89226757636346,9.82628807838204,0.222348918613315,-0.02321288,-0.0125227375,-0.0027488936,173.59293,-80.93965,5.9349675,STD
16773431937000,0.079847,0.905840452860461,9.80366666479582,-0.0536325302796594,-0.03176499,-0.015577064,0.0018325958,173.39954,-81.04832,5.884558,STD
16773437033000,0.084943,0.892205326495299,9.81114634306861,0.101648435239048,-0.0290161,-0.021685716,-0.0018325958,173.13892,-81.11641,5.8233614,STD
16773441973000,0.089883,0.868545868963793,9.83007428065613,0.418684986309262,-0.03145956,-0.021380283,-0.0030543262,172.88286,-81.17843,5.765924,STD
16773447002000,0.094912,0.875740401430411,9.82500994858841,0.30015390263893,-0.029321533,-0.025350908,0.004581489,172.67952,-81.272835,5.7179832,STD
16773451993000,0.099903,0.894679632204061,9.81080525111441,0.016065693179792,-0.03756821,-0.027183503,0.0036651916,172.47882,-81.364296,5.6682863,STD
16773457034000,0.104944,0.903528225888482,9.80334156502026,-0.0240288623586726,-0.036957346,-0.025350908,0.0012217305,172.22536,-81.42322,5.61314,STD
16773462098000,0.110008,0.908206685776577,9.79866300742813,0.0367911601533861,-0.025350908,-0.018325957,-0.003970624,171.9769,-81.48175,5.558718,STD
16773467036000,0.114946,0.903592760362465,9.80017501459927,0.0884803608608538,-0.025350908,-0.007941248,0.0012217305,171.77666,-81.56491,5.514103,STD
16773472078000,0.119988,0.893869396367298,9.80503679812727,0.137097216372332,-0.025045475,-0.006414085,0.0009162979,171.58029,-81.65076,5.4676137,STD
16773477109000,0.125019,0.884175690439417,9.79371536892911,0.198500385497235,-0.03145956,0.00030543262,-0.0021380284,171.37347,-81.72494,5.423206,STD
16773482061000,0.129971,0.874638342594269,9.77464083257918,0.265261656093514,-0.02565634,0.0012217305,-0.003970624,171.17133,-81.79991,5.380315,STD
16773487024000,0.134934,0.880925398310471,9.77148839188789,0.28101354759696,-0.020158553,0.01038471,-0.0067195175,170.95769,-81.870056,5.334448,STD
16773492014000,0.139924,0.895073725104115,9.77620458946018,0.271581349432547,-0.027488936,0.004581489,0.0030543262,170.75171,-81.93496,5.293343,STD
16773496936000,0.144846,0.887552701684121,9.77538651860366,0.283351181513836,-0.032375857,0.013439035,0.0070249503,170.53575,-81.9959,5.2491627,STD
16773502032000,0.149942,0.866776442019583,9.77123118510004,0.308282679226905,-0.026572637,0.009468411,0.0033597588,170.32945,-82.055565,5.2074795,STD
16773506976000,0.154886,0.850998881390023,9.77235369999004,0.318926841366126,-0.010995574,0.005497787,-0.004886922,170.12718,-82.114,5.169491,STD
16773512061000,0.159971,0.846149929084935,9.78690035437618,0.294682059587773,-0.009468411,0.009468411,-0.003970624,169.92764,-82.16816,5.134121,STD
16773516977000,0.164887,0.836337950818379,9.80477828100966,0.279011609031749,-0.01038471,0.005497787,0.0015271631,169.73839,-82.22393,5.095474,STD
16773522044000,0.169954,0.812414821257148,9.83348611841846,0.283796231946362,-0.013133603,-0.0070249503,-0.003970624,169.55476,-82.27999,5.0553203,STD
16773527018000,0.174928,0.797243306405912,9.8557181920055,0.281383359294343,-0.0076358155,-0.0070249503,0.0033597588,169.464881567097,-82.307381095767,5.03750075709997,STD
16773532037000,0.179947,0.806684672904144,9.86043897014339,0.257779944281084,-0.016187929,-0.0033597588,0.0018325958,169.37419,-82.33502,5.01952,STD
16773536992000,0.184902,0.816005647400805,9.86509955107052,0.23447750925604,-0.018936822,-0.009162978,0.004276057,169.2037,-82.38971,4.9829564,STD
16773542042000,0.189952,0.825505328774799,9.86984948723237,0.21072830706099,-0.03176499,-0.016187929,0.0036651916,169.03435,-82.44325,4.942758,STD
16773547018000,0.194928,0.83056475865228,9.87019810128257,0.188046211239821,-0.023823744,-0.03176499,0.0015271631,168.87442,-82.497665,4.904345,STD
16773552029000,0.199939,0.815910011620521,9.85065856779316,0.168506565533388,-0.023518313,-0.03848451,0.004886922,168.71701,-82.545494,4.8683276,STD
16773556974000,0.204884,0.807294905295818,9.83064243110426,0.142804050710542,-0.018020526,-0.04337143,0.010079277,168.57309,-82.598175,4.8371906,STD
16773562039000,0.209949,0.821316843877433,9.80727256600501,0.0913903094241665,-0.038179077,-0.040927973,0.01160644,168.43156,-82.64418,4.8067846,STD
16773567029000,0.214939,0.833852119236884,9.78548720031796,0.0418547547408585,-0.032375857,-0.043982297,0.009773844,168.29433,-82.702,4.7755237,STD
16773571994000,0.219904,0.838576762718601,9.77131297386725,-0.000667065701808422,-0.04184427,-0.04428773,0.008552114,168.15804,-82.7505,4.7455344,STD
16773576990000,0.2249,0.844455166051081,9.75989680098232,-0.0450918961044204,-0.027794369,-0.045814894,0.008552114,168.095470143942,-82.7807286965214,4.73080164346262,STD
16773581998000,0.229908,0.858588942396857,9.76931951532417,-0.101627042318959,-0.023518313,-0.048258353,-0.0033597588,168.03275,-82.81103,4.7160335,STD
16773587672000,0.235582,0.869490684692526,9.78091803122044,-0.162223136188269,-0.026267206,-0.04062254,-0.0030543262,167.90598,-82.861664,4.6900206,STD
16773591981000,0.239891,0.861682466868496,9.7926301948912,-0.197360144932829,-0.040011674,-0.027488936,-0.0036651916,167.78574,-82.919136,4.6619873,STD
16773597344000,0.245254,0.853716006713869,9.80704435271668,-0.24060321426735,-0.041233405,-0.004581489,-0.005497787,167.67345,-82.980705,4.6364536,STD
16773601995000,0.249905,0.885029867329517,9.81599135020588,-0.267443664889023,-0.040927973,0.017104227,-0.0076358155,167.5592,-83.03857,4.610874,STD
16773607332000,0.255242,0.921450135553854,9.82626547095457,-0.295727305267994,-0.052839845,0.03604105,-0.007330383,167.44418,-83.09917,4.5829825,STD
16773612004000,0.259914,0.962561469908116,9.83540103154671,-0.272887664471669,-0.06169739,0.046731193,-0.0009162979,167.32664,-83.158424,4.5564866,STD
16773617263000,0.265173,1.00757575040926,9.84294598108947,-0.246650747205758,-0.061391957,0.056199603,-0.005192355,167.21413,-83.213875,4.5335426,STD
16773621994000,0.269904,1.03315177053345,9.817370361558,-0.216812091185436,-0.06261369,0.059864793,-0.0076358155,167.10129,-83.26448,4.5132627,STD
16773626991000,0.274901,1.06016579982124,9.79035675538621,-0.185295759726221,-0.06169739,0.050396383,-0.0076358155,167.047841012948,-83.2850572876494,4.50845662123506,STD
16773632034000,0.279944,1.09374095996752,9.77872099959399,-0.160019773420625,-0.05681047,0.03604105,-0.0021380284,166.9939,-83.305824,4.5036063,STD
16773636968000,0.284878,1.12731419569631,9.76912844620382,-0.136038875732846,-0.06627888,0.038179077,-0.004276057,166.87967,-83.34472,4.4906554,STD
16773642028000,0.289938,1.1475957654969,9.79464187112946,-0.142841564441168,-0.0711658,0.038789943,-0.0018325958,166.77649,-83.37323,4.488513,STD
16773646932000,0.294842,1.16606219616632,9.82234154123661,-0.152074760493463,-0.07422013,0.043676864,0.0015271631,166.67282,-83.399704,4.486023,STD
16773652026000,0.299936,1.18106621741038,9.81734023258222,-0.15322891,-0.065973446,0.03970624,-0.0009162979,166.57181,-83.41941,4.4900146,STD
16773657790000,0.3057,1.19739697285637,9.80645311912627,-0.15322891,-0.06505715,0.05467244,-0.0067195175,166.46533,-83.43648,4.4934444,STD
16773662036000,0.309946,1.20942688049406,9.79843322257285,-0.15322891,-0.06047566,0.059253927,-0.0067195175,166.414482036753,-83.444723983811,4.4980582442354,STD
16773666932000,0.314842,1.22329838963069,9.78918559809674,-0.15322891,-0.052534413,0.07574729,0.0030543262,166.35585,-83.45423,4.5033784,STD
16773672026000,0.319936,1.26169453162275,9.76358812343967,-0.145259308058252,-0.04550946,0.09621128,-0.0030543262,166.24419,-83.47474,4.506788,STD
16773676948000,0.324858,1.30372282353874,9.73556919714682,-0.135919693592233,-0.049480084,0.10567969,-0.0070249503,166.13199,-83.491615,4.5131693,STD
16773682037000,0.329947,1.31597802592295,9.71816947441814,-0.0984764386079454,-0.042760566,0.11881329,-0.0070249503,166.06898405997,-83.4976246486757,4.52119862806597,STD
16773686953000,0.334863,1.32070109462279,9.70399997241172,-0.0559687867732745,-0.04428773,0.14172074,0.01038471,166.00812,-83.50343,4.528955,STD
16773692009000,0.339919,1.31373999687344,9.71702413452156,-0.0164463981563278,-0.040927973,0.172264,0.007330383,165.88524,-83.51842,4.5376143,STD
16773696971000,0.344881,1.30427667284676,9.73595117783531,0.0214069236423379,-0.051923547,0.19547687,0.011911872,165.75331,-83.51741,4.561469,STD
16773702033000,0.349943,1.31420162052868,9.75136865685786,0.0600792992937656,-0.04153884,0.20433442,0.0106901415,165.61487,-83.51752,4.5839396,STD
16773707059000,0.354969,1.32860550984539,9.76577234563591,0.0984897008857855,-0.052534413,0.20189096,0.01038471,165.475,-83.50973,4.6074395,STD
16773712129000,0.360039,1.35745837657835,9.77585236133033,0.161663949106539,-0.04062254,0.19883664,0.0030543262,165.33226,-83.50729,4.6261606,STD
16773717038000,0.364948,1.38837599096204,9.78468616309658,0.227916120264938,-0.043982297,0.18692477,0.006414085,165.19475,-83.49735,4.6479154,STD
16773722030000,0.36994,1.41653130149042,9.79748827040454,0.23734031861604,-0.045814894,0.17837265,0.004276057,165.0573,-83.48603,4.668766,STD
16773727208000,0.375118,1.44418393720977,9.81257130193653,0.219743192999088,-0.049480084,0.16126843,0.0009162979,164.92784,-83.473236,4.6904707,STD
16773732034000,0.379944,1.46995674910271,9.82662899026665,0.203342318486262,-0.053145275,0.15027285,0.009773844,164.7987,-83.443306,4.721874,STD
16773737030000,0.38494,1.49663743045726,9.84118187275677,0.186363709065193,-0.05467244,0.1518,-0.0018325958,164.6736,-83.41833,4.7462564,STD
16773742033000,0.389943,1.4522315673253,9.85522262091566,0.164850308389398,-0.06719518,0.12889257,-0.003970624,164.5603,-83.38705,4.776302,STD
16773747004000,0.394914,1.38340322110843,9.86898857763855,0.141907511943133,-0.06627888,0.118202426,-0.0021380284,164.44527,-83.36007,4.8035464,STD
16773751995000,0.399905,1.34023602683057,9.86244773115981,0.108784543114912,-0.061086524,0.11789699,-0.013133603,164.3389,-83.331505,4.836249,STD
16773757035000,0.404945,1.31013897498664,9.84524950561197,0.0700883030721539,-0.08093964,0.10323623,-0.013439035,164.24109,-83.29603,4.8725443,STD
16773762054000,0.409964,1.27668155175325,9.83133405870666,0.0337200235523989,-0.069027774,0.089186326,-0.015882496,164.14548,-83.28528,4.8896933,STD
16773767152000,0.415062,1.23788342708851,9.82163433763783,-0.000228314513360483,-0.069027774,0.08307768,-0.023823744,164.05351,-83.26972,4.9051137,STD
16773771924000,0.419834,1.2144624480318,9.82160308105488,-0.0424503056792709,-0.0729984,0.07574729,-0.03176499,163.96779,-83.26711,4.91335,STD
16773777027000,0.424937,1.20972418834594,9.83581766220671,-0.104047724145239,-0.08368854,0.06658431,-0.028710667,163.88568,-83.26247,4.922588,STD
16773781933000,0.429843,1.20356803869517,9.83873770986113,-0.149871427480268,-0.0720821,0.07391469,-0.038789943,163.8041,-83.27548,4.917789,STD
16773787035000,0.434945,1.19380465901688,9.81921105245279,-0.169398202129084,-0.08246681,0.076052725,-0.037873644,163.72752,-83.279,4.917438,STD
16773791945000,0.439855,1.18984707448224,9.80122977472064,-0.185056630926744,-0.08002335,0.07727446,-0.04795292,163.64882,-83.30074,4.9087615,STD
16773797024000,0.444934,1.19709424118699,9.78431987042463,-0.194719524911348,-0.087659165,0.08582657,-0.04550946,163.56828,-83.31529,4.903882,STD
16773801996000,0.449906,1.20418873082195,9.7677662094363,-0.204178849363298,-0.09254608,0.09621128,-0.051618114,163.48932,-83.33767,4.892109,STD
16773806983000,0.454893,1.21130462378445,9.75116260779737,-0.213666711600199,-0.09407325,0.096516706,-0.05131268,163.41176,-83.356926,4.8831444,STD
16773812017000,0.459927,1.22730534723502,9.73823161705069,-0.228554681820277,-0.099571034,0.10415252,-0.059253927,163.33063,-83.377075,4.8699684,STD
16773816995000,0.464905,1.26245622105991,9.73383767179724,-0.254917825718894,-0.0983493,0.12797627,-0.0580322,163.24574,-83.39582,4.859404,STD
16773822004000,0.469914,1.29748525683457,9.72904678218647,-0.27739766761489,-0.08979719,0.13316862,-0.05955936,163.16756,-83.415726,4.8496933,STD
16773827004000,0.474914,1.3303645790181,9.72200107126392,-0.275049146353426,-0.09743301,0.13775012,-0.057726767,163.08382,-83.43139,4.841032,STD
16773832004000,0.479914,1.36324390120163,9.71495536034136,-0.272700625091961,-0.10323623,0.13469578,-0.06658431,163.00392,-83.4485,4.8366594,STD
16773836988000,0.484898,1.39601800955417,9.70793219569376,-0.270359619098534,-0.111177474,0.119729586,-0.0729984,162.92715,-83.46249,4.8337855,STD
16773842061000,0.489971,1.42909089238425,9.70253165166595,-0.268763913024665,-0.102319926,0.122783914,-0.07696902,162.8472,-83.48005,4.829133,STD
16773847012000,0.494922,1.45781461912592,9.7189455770662,-0.276970704335785,-0.10415252,0.11178834,-0.070554934,162.7765,-83.49287,4.826426,CSI
16773851930000,0.49984,1.48634689303332,9.73525009839896,-0.285122794755517,-0.102319926,0.11178834,-0.073303826,162.69865,-83.498985,4.832695,CSI
16773856982000,0.504892,1.49568539607656,9.73790936834587,-0.271971824637654,-0.10598512,0.10781772,-0.08368854,162.62616,-83.50382,4.8388605,CSI
16773861987000,0.509897,1.49796764938577,9.73562706737454,-0.251431530556138,-0.099265605,0.09743301,-0.090713486,162.55649,-83.5107,4.845269,CSI
16773866999000,0.514909,1.50025309465765,9.73334157437387,-0.230862508790591,-0.096516706,0.1001819,-0.09896017,162.48613,-83.51462,4.854395,CSI
16773871965000,0.519875,1.50251756417484,9.73107705756595,-0.210482268948672,-0.089186326,0.106595986,-0.108123146,162.41876,-83.52221,4.8612866,CSI
16773876992000,0.524902,1.48993137577266,9.72185949471064,-0.192936599771832,-0.089491755,0.11575896,-0.112399206,162.35083,-83.52768,4.865945,CSI
16773882001000,0.529911,1.46505573213026,9.70693379682638,-0.178011203196432,-0.0888809,0.11759156,-0.12034045,162.28435,-83.53727,4.8669596,CSI
16773886998000,0.534908,1.4526476109224,9.69222406437506,-0.163301451622089,-0.08857546,0.12461651,-0.13255776,162.21327,-83.54242,4.866749,CSI
16773891978000,0.539888,1.44779741606834,9.67767353045866,-0.14875070499339,-0.084910266,0.1414153,-0.13897185,162.13992,-83.548676,4.8657413,CSI
16773896976000,0.544886,1.4521944103229,9.65123697514677,-0.131459009328767,-0.07849618,0.1441642,-0.15363261,162.06929,-83.56159,4.8547735,CSI
16773902003000,0.549913,1.46161560841487,9.61826241291585,-0.112616504931507,-0.090713486,0.14905111,-0.16340645,161.99438,-83.5718,4.8432245,CSI
16773906980000,0.55489,1.4738776209392,9.57965839723184,-0.0967186512543747,-0.09101892,0.14782938,-0.17379116,161.92136,-83.58721,4.8271723,CSI
16773912676000,0.560586,1.49005640081068,9.53112217024221,-0.0805398567416708,-0.093462385,0.15332718,-0.1881465,161.84644,-83.60261,4.8073406,CSI
16773917000000,0.56491,1.5166350521608,9.5136828717588,-0.0511295605465327,-0.08674286,0.15790866,-0.20189096,161.7735,-83.61701,4.7881556,CSI
16773921991000,0.569901,1.55506550135678,9.50407557296482,-0.00789533103386935,-0.098043874,0.16707164,-0.21502456,161.69913,-83.63021,4.765273,CSI
16773926978000,0.574888,1.60199047301325,9.51458187417219,0.0239658004147351,-0.106901415,0.1731803,-0.22204952,161.62146,-83.64111,4.743569,CSI
16773932002000,0.579912,1.65509630642016,9.53892184179544,0.0483059697465968,-0.10293079,0.17837265,-0.23273966,161.54303,-83.65561,4.7174187,CSI
16773936964000,0.584874,1.70754677325239,9.56296143561442,0.0723457627849522,-0.10293079,0.1881465,-0.24312437,161.45958,-83.65678,4.697257,CSI
16773941988000,0.589898,1.76065260665931,9.58730140323767,0.0966859321168138,-0.10598512,0.19242255,-0.25350907,161.37778,-83.660225,4.6745334,CSI
16773946937000,0.594847,1.81442719121816,9.61136511626951,0.110259183819844,-0.09987647,0.19456059,-0.26389378,161.29572,-83.66765,4.649435,CSI
16773951992000,0.599902,1.87409534995892,9.63622682744453,0.0903698013804437,-0.094989546,0.19211712,-0.2666427,161.21518,-83.674576,4.624138,CSI
16773956977000,0.604887,1.93067960382813,9.66038381992188,0.0738293239955078,-0.08827003,0.21410827,-0.2706133,161.1279,-83.66177,4.6183376,CSI
16773962109000,0.610019,1.98347545476563,9.68438193398437,0.0642300713541016,-0.086132,0.22632557,-0.27366763,161.0455,-83.64961,4.6124835,CSI
16773967039000,0.614949,2.03433269971575,9.70195389384464,0.0613541244715489,-0.07422013,0.2415972,-0.28344148,160.95845,-83.636444,4.613774,CSI
16773971991000,0.619901,2.08580365821489,9.70440494061708,0.0760601082267817,-0.07971791,0.25686884,-0.28588495,160.86917,-83.61967,4.616048,CSI
16773976955000,0.624865,2.13739934440023,9.70686192692129,0.09080172845315,-0.06841691,0.27397305,-0.28588495,160.77718,-83.60383,4.626014,CSI
16773982722000,0.630632,2.19734139158613,9.70971636689235,0.107928022539666,-0.05681047,0.2968805,-0.2855795,160.68063,-83.58773,4.6347923,CSI
16773986928000,0.634838,2.2404877710675,9.71767053585448,0.128498831455242,-0.06078109,0.32986724,-0.28588495,160.5778,-83.57118,4.6426935,CSI
16773991988000,0.639898,2.29152125005266,9.73622806768789,0.165614113121111,-0.07238753,0.35124752,-0.28496864,160.47327,-83.55533,4.650712,CSI
16773996931000,0.644841,2.33935346415373,9.75694596329145,0.203725581425639,-0.08552113,0.37293324,-0.28619036,160.35753,-83.52061,4.6774535,CSI
16774001994000,0.649904,2.38315421433851,9.78481928135009,0.247526285874189,-0.1020145,0.40103304,-0.2782491,160.23541,-83.481415,4.705989,CSI
16774008054000,0.655964,2.43764015836567,9.81915907956015,0.300912652740405,-0.12492194,0.41355577,-0.26511553,160.11372,-83.42483,4.7452874,CSI
16774012073000,0.659983,2.49573065265201,9.85235352393273,0.346555278046572,-0.14385876,0.42332962,-0.25320363,159.98665,-83.36533,4.785252,CSI
16774017345000,0.665255,2.57169470682692,9.89488528557692,0.405633013259615,-0.16035213,0.44104472,-0.24281894,159.85764,-83.28691,4.838733,CSI
16774021990000,0.6699,2.63585479658654,9.92054935721154,0.448406348370192,-0.17012598,0.44593164,-0.23090707,159.73126,-83.20477,4.8950825,CSI
16774027302000,0.675212,2.70922797135577,9.94989866798077,0.497321731816346,-0.17654006,0.4474588,-0.21624629,159.60196,-83.10287,4.966975,CSI
16774031997000,0.679907,2.74106884303875,9.97728063613409,0.517264309521115,-0.19486602,0.45142943,-0.19883664,159.47235,-82.995605,5.0414476,CSI
16774036995000,0.684905,2.77440961545494,10.0064539860688,0.538102314040052,-0.21013765,0.46486846,-0.18417588,159.34138,-82.887215,5.117575,CSI
16774041978000,0.689888,2.79013279083315,10.0304682947901,0.58526312426907,-0.22327125,0.46700647,-0.15760323,159.21368,-82.755196,5.21482,CSI
16774046972000,0.694882,2.79538960982634,10.0514954609804,0.648345007078479,-0.23732115,0.47647488,-0.13744467,159.0819,-82.62079,5.311972,CSI
16774052235000,0.700145,2.7602366731396,10.0516257130375,0.701011729844885,-0.24617869,0.47983465,-0.11575896,158.95236,-82.473694,5.422324,CSI
16774056995000,0.704905,2.71995882982525,10.0471503036521,0.745764889083055,-0.27122417,0.4908302,-0.09896017,158.81956,-82.32034,5.534299,CSI
16774062094000,0.710004,2.66130413233831,10.0535981890547,0.794207898507463,-0.29840767,0.48899764,-0.07849618,158.69174,-82.1547,5.652486,CSI
16774067092000,0.715002,2.59938945538309,10.0631237305473,0.841834661074627,-0.3313944,0.49021935,-0.057421334,158.56145,-81.98261,5.7728324,CSI
16774071996000,0.719906,2.53981793234381,10.0934822875437,0.855868104384944,-0.37018433,0.50793445,-0.027488936,158.42796,-81.80173,5.8909116,CSI
16774077014000,0.724924,2.47921117287544,10.1307784703143,0.860530151571595,-0.4156938,0.5421429,-0.002443461,158.29095,-81.61313,6.0107217,CSI
16774081962000,0.729872,2.34671842726068,10.159094590285,0.934076451529211,-0.45998153,0.57360244,0.035430185,158.15057,-81.41558,6.128038,CSI
16774086948000,0.734858,2.18168921585077,10.1839620351292,1.03806748150743,-0.4981606,0.5751296,0.06872234,158.01054,-81.209816,6.248801,CSI
16774091980000,0.73989,2.01513747260676,10.2090589028501,1.14301791529211,-0.5317582,0.58093286,0.09407325,157.85388,-81.00412,6.3600874,CSI
16774096996000,0.744906,1.84911530565287,10.2340759713095,1.24763464340498,-0.5674938,0.58123827,0.13316862,157.69936,-80.784775,6.482637,CSI
16774102019000,0.749929,1.65899205835118,10.2840190744111,1.36138310877944,-0.59773165,0.6044512,0.17806722,157.53804,-80.55763,6.6107674,CSI
16774107031000,0.754941,1.44315097595289,10.3611056735546,1.48472080882227,-0.6218608,0.6114761,0.21410827,157.38264,-80.32279,6.745506,CSI
16774111987000,0.759897,1.23847157596125,10.4573359618496,1.63059356052132,-0.66431594,0.65240407,0.24281894,157.21526,-80.099495,6.820644,CSI
16774117011000,0.764921,1.03665564451213,10.567853926895,1.79396839084191,-0.68783426,0.7189884,0.2947425,157.03923,-79.8675,6.910202,CSI
16774122051000,0.769961,0.852728452580709,10.6810700512973,1.95702208358091,-0.72234815,0.763887,0.3387248,156.86061,-79.63754,6.961253,CSI
16774126987000,0.774897,0.684203959001783,10.7934195311943,2.11618413190731,-0.7519751,0.81581056,0.39828414,156.6621,-79.3948,7.028226,CSI
16774131984000,0.779894,0.571528691690601,10.9457920209963,2.25524937476478,-0.78984874,0.8875872,0.46028697,156.44504,-79.151955,7.0675745,CSI
16774136964000,0.784874,0.500677195444191,11.1252826241458,2.3780586309795,-0.8353582,0.977079,0.5222898,156.20987,-78.89419,7.120593,CSI
16774141969000,0.789879,0.416627783348399,11.3180309277854,2.47461761790136,-0.9089675,1.0903945,0.60048056,155.93314,-78.621765,7.1572027,CSI
16774146985000,0.794895,0.322233484083317,11.5209788397524,2.5501331085675,-0.9972375,1.1933253,0.66889745,155.63654,-78.33079,7.2044463,CSI
16774151925000,0.799835,0.238634519463985,11.7803681666502,2.70057327964926,-1.0830641,1.2843442,0.7483099,155.3082,-78.01468,7.2552643,CSI
16774156909000,0.804819,0.162968920787675,12.0972173373625,2.92284086558011,-1.1859949,1.346347,0.838718,154.96066,-77.66618,7.323627,CSI
16774161919000,0.809829,0.109888401702608,12.4993784925036,3.30856933635243,-1.2605205,1.3322971,0.91874135,154.60513,-77.30862,7.385506,CSI
16774166916000,0.814826,0.0804026944239064,12.9858927344424,3.85896918160813,-1.328021,1.2608259,0.98440933,154.25052,-76.922585,7.467006,CSI
16774171911000,0.819821,0.100579626749235,13.4050878232508,4.26067908911477,-1.4101825,1.162782,1.0488557,153.89896,-76.503784,7.550147,CSI
16774176949000,0.824859,0.162478703255699,13.7717210267443,4.5416058843383,-1.5192219,1.0903945,1.1093313,153.56194,-76.06031,7.6509805,CSI
16774181914000,0.829824,0.238704052033898,13.8718373295115,4.57418107876371,-1.6181821,1.063211,1.16492,153.21745,-75.55633,7.756505,CSI
16774186910000,0.83482,0.329339028372881,13.7334996834497,4.38337053934197,-1.7550159,1.0714576,1.1921035,152.8848,-75.02149,7.8697147,CSI
16774191901000,0.839811,0.39037700869805,13.3622352543825,4.04924458622218,-1.9184223,1.0855075,1.1988231,152.54764,-74.436295,7.993317,CSI
16774196918000,0.844828,0.423499703190861,12.7660270104392,3.5760631727989,-2.1038198,1.0613784,1.1426234,152.22444,-73.828674,8.104926,CSI
16774201949000,0.849859,0.463016587844828,12.137912083908,2.9212811733908,-2.2489004,1.0485502,1.0757337,151.90103,-73.21006,8.226567,CSI
16774206982000,0.854892,0.50918525137931,11.47770011341,2.07639483800766,-2.3301454,1.0546589,1.0341948,151.58481,-72.57808,8.3361635,CSI
16774211976000,0.859886,0.526596775387828,10.8279226064041,1.33368080199682,-2.329229,1.0852021,0.9673051,151.28645,-71.98259,8.435923,CSI
16774217039000,0.864949,0.502488089513723,10.1769882640215,0.721320397291169,-2.244319,1.0680978,0.9007208,151.00713,-71.40576,8.524885,CSI
16774221926000,0.869836,0.475914327353026,9.60060021922965,0.319265723573704,-2.057394,0.97005403,0.83658,150.79378,-70.95375,8.630839,CSI
16774226976000,0.874886,0.44323355387103,9.08704559040448,0.202548679602278,-1.7959439,0.8026769,0.79320854,150.61246,-70.558914,8.730988,CSI
16774231933000,0.879843,0.46866036358754,8.64167558099795,0.282593883984962,-1.5131133,0.5833763,0.7504479,150.45093,-70.257286,8.815868,CSI
16774237773000,0.885683,0.643420011278195,8.26484988038277,0.866946479473684,-1.2226468,0.35827246,0.7290677,150.34232,-70.03401,8.90906,CSI
16774241949000,0.889859,0.739264810499021,8.09552222504892,1.21016352000978,-0.97097033,0.1459968,0.70371675,150.28188,-69.86926,9.0104065,CSI
16774247003000,0.894913,0.781888159622309,8.14288146888454,1.43748803877691,-0.75411314,-0.016187929,0.68966687,150.27197,-69.77509,9.122828,CSI
16774251949000,0.899859,0.833798796349582,8.19440909494361,1.63163927582757,-0.5852089,-0.14355333,0.6976081,150.30946,-69.66122,9.30904,CSI
16774256985000,0.904895,0.921519422126228,8.26458517788287,1.73251801333212,-0.44440445,-0.21777347,0.70157874,150.37648,-69.59803,9.4958,CSI
16774262141000,0.910051,1.01190521599116,8.33615929876829,1.83651174551005,-0.33169982,-0.27275133,0.72356987,150.4529,-69.54705,9.712344,CSI
16774267005000,0.914915,1.10507823647752,8.39991000936941,1.94439622817139,-0.23793201,-0.27550024,0.73456544,150.53242,-69.52497,9.9227085,CSI
16774272040000,0.91995,1.20485064691142,8.44910161173559,2.03480622821491,-0.18448131,-0.2611449,0.7476991,150.5973,-69.49373,10.14895,CSI
16774276983000,0.924893,1.32201223567083,8.40028432556461,2.00063412789523,-0.15363261,-0.23793201,0.7892379,150.65422,-69.470535,10.378809,CSI
16774281996000,0.929906,1.45974821302275,8.3558439357306,1.94645197113341,-0.106901415,-0.18234327,0.8414669,150.68147,-69.4356,10.6167145,CSI
16774286999000,0.934909,1.67392064459124,8.33204651296315,1.81318908727526,-0.06414085,-0.1160644,0.872621,150.69585,-69.40019,10.850965,CSI
16774291968000,0.939878,1.87502019800467,8.27679461592369,1.68131216969048,-0.019547688,-0.03634648,0.91538155,150.66148,-69.3542,11.11425,CSI
16774296971000,0.944881,2.02425213042632,8.07626440303679,1.55073425925638,0.016798794,0.07360926,0.9660834,150.59744,-69.30492,11.372939,CSI
16774302004000,0.949914,2.17540892629644,7.87961318382674,1.45277284075104,0.0852157,0.12522738,0.99204516,150.5281,-69.24663,11.655957,CSI
16774307804000,0.955714,2.35750708842639,7.69199672445857,1.59624418984701,0.16584991,0.24831672,1.0137309,150.40614,-69.18726,11.930183,CSI
16774312010000,0.95992,2.46856340706265,7.55160066829196,1.68608117470449,0.23701571,0.26419923,1.0219775,150.28448,-69.11252,12.233099,CSI
16774317001000,0.964911,2.44973059223798,7.35385564558708,1.69078939070134,0.27091873,0.26816985,1.0231993,150.13397,-69.04009,12.525094,CSI
16774321966000,0.969876,2.43514268644068,7.16324620577055,1.69283734718331,0.35063666,0.26389378,1.0158689,149.96735,-68.94151,12.846505,CSI
16774326988000,0.974898,2.46812616101695,7.04073577778975,1.66456570617223,0.41325033,0.29016098,0.9779953,149.79718,-68.84638,13.151166,CSI
16774332152000,0.980062,2.50140493325503,6.92365961334899,1.63837727718313,0.4578435,0.33505958,0.94714653,149.60907,-68.74928,13.456064,CSI
16774336993000,0.984903,2.52508039480135,6.91892452103973,1.64784751124502,0.47983465,0.41263947,0.93126404,149.41054,-68.65945,13.744208,CSI
16774342016000,0.989926,2.53222028382353,6.91741203676471,1.65805511764706,0.5015204,0.47067168,0.9098838,149.19765,-68.571396,14.026891,CSI
16774346966000,0.994876,2.36601593487534,6.94972949147838,1.67190547604207,0.50762904,0.50518554,0.89980453,148.97495,-68.48047,14.298871,CSI
16774352200000,1.00011,2.19254269559574,6.99034955250202,1.68235459216722,0.52412236,0.528093,0.86529064,148.74126,-68.39764,14.557332,CSI
16774357018000,1.004928,2.0603688380897,7.10600182338197,1.64105025900098,0.54183745,0.5216789,0.8167268,148.51395,-68.31656,14.803856,CSI
16774361988000,1.009898,1.92402511210277,7.22530273377495,1.59844284184943,0.5699373,0.54092115,0.77946407,148.27011,-68.271835,15.0065775,CSI
16774367025000,1.014935,1.77740947244019,7.41759907942584,1.56107444363636,0.5928447,0.6246097,0.7715228,148.01869,-68.229324,15.194986,CSI
16774371927000,1.019837,1.63265458516746,7.62225249760766,1.52613358181818,0.6102544,0.70157874,0.7602218,147.77415,-68.19567,15.367122,CSI
16774377473000,1.025383,1.39358077866654,7.81934043071309,1.66148007799586,0.61544675,0.7987063,0.7489208,147.51561,-68.20396,15.491553,CSI
16774381938000,1.029848,1.19536199407239,7.97538489244501,1.7837853632804,0.61208695,0.8549059,0.7122689,147.25778,-68.21815,15.600019,CSI
16774387030000,1.03494,1.04094493311573,8.13255391839763,1.95759786811078,0.6075055,0.8979719,0.68691796,146.97705,-68.274254,15.663654,CSI
16774391951000,1.039861,0.901100772848665,8.28172081824926,2.13007229836795,0.5864306,0.9334021,0.6704246,146.69386,-68.32913,15.714246,CSI
16774397042000,1.044952,0.764711989853581,8.33218014265928,2.3625570248516,0.56199604,0.97035944,0.63529986,146.41069,-68.42598,15.707071,CSI
16774401939000,1.049849,0.634801691840127,8.36465837603878,2.59453975524337,0.52656585,0.9807441,0.6065892,146.13516,-68.515884,15.69631,CSI
16774407041000,1.054951,0.528003485022705,8.2771303715696,2.81153308253702,0.5009095,0.98807454,0.5729916,145.84773,-68.62622,15.64559,CSI
16774412015000,1.059925,0.429253646617966,8.16897508706812,3.01843739035538,0.46211955,0.9896017,0.5308419,145.57039,-68.73262,15.585466,CSI
16774417076000,1.064986,0.393419225337373,8.05059153985128,3.1322118157257,0.41263947,0.9630291,0.47036624,145.29462,-68.83961,15.500362,CSI
16774421957000,1.069867,0.371963069859543,7.93472852789865,3.22232767590196,0.3707952,0.9468411,0.42546764,145.0236,-68.94414,15.408855,CSI
16774427049000,1.074959,0.393940648546717,7.78454389919915,3.34618016215697,0.3200934,0.91996306,0.37873647,144.75421,-69.03247,15.299014,CSI
16774432002000,1.079912,0.439525844522157,7.62246312247731,3.48293574479445,0.29443705,0.91996306,0.312763,144.4915,-69.1294,15.172484,CSI
16774437029000,1.084939,0.526793150366837,7.52275388353659,3.5585070222856,0.24373524,0.8940013,0.25870144,144.24062,-69.1991,15.047289,CSI
16774442026000,1.089936,0.625628861528324,7.44274399146341,3.61498462206924,0.19975294,0.8885035,0.1994475,143.99367,-69.278366,14.902751,CSI
16774447030000,1.09494,0.772181976199059,7.39712175037549,3.71143508146591,0.16646078,0.8750645,0.14935656,143.74051,-69.32407,14.776372,CSI
16774452037000,1.099947,0.935427823780915,7.36351243208171,3.82186612844698,0.13316862,0.8530733,0.094989546,143.50006,-69.372734,14.63504,CSI
16774457002000,1.104912,1.10888571868801,7.34456242402043,3.88810177916135,0.103847094,0.8396343,0.049785517,143.25644,-69.39271,14.512561,CSI
16774462055000,1.109965,1.28946916080723,7.33030574899342,3.9403758903663,0.06811147,0.8136725,-0.0076358155,143.03148,-69.416885,14.375782,CSI
16774467060000,1.11497,1.44965743848298,7.33987012144137,4.02668971443361,0.047647487,0.79259765,-0.05467244,142.80547,-69.40018,14.268789,CSI
16774471998000,1.119908,1.60029332566195,7.35869969950229,4.12554448313757,0.02565634,0.7449502,-0.09743301,142.60219,-69.385544,14.152492,CSI
16774476982000,1.124892,1.82769122371483,7.4826971313513,4.12680081716218,0.013744468,0.711658,-0.1386664,142.39323,-69.34029,14.0693865,CSI
16774481998000,1.129908,2.09039879973153,7.65465121738093,4.08381229565477,0.0036651916,0.68416905,-0.15943582,142.20122,-69.2948,13.9846115,CSI
16774486994000,1.134904,2.35705623406709,7.80864936533257,4.04841645474557,-0.0027488936,0.6435465,-0.18448131,142.01709,-69.22018,13.927894,CSI
16774491986000,1.139896,2.62584194475891,7.95443127316562,4.01652659402516,-0.004886922,0.5928447,-0.1853976,141.8464,-69.14386,13.87604,CSI
16774497015000,1.144925,2.91974613020876,8.153523751535,3.98014896463365,0.009162978,0.5534439,-0.18784106,141.68985,-69.05472,13.871087,CSI
16774501998000,1.149908,3.22740456625051,8.387930251842,3.94108136756038,0.025045475,0.4822781,-0.17623462,141.55823,-68.96431,13.8764925,CSI
16774507020000,1.15493,3.49453069931341,8.6189166402669,3.8796523057538,0.049480084,0.39828414,-0.14569137,141.45062,-68.85155,13.948181,CSI
16774512040000,1.15995,3.73627998642298,8.84671861879896,3.80526785744125,0.08093964,0.3203988,-0.10934488,141.36179,-68.74252,14.028355,CSI
16774517036000,1.164946,3.91789162555947,9.03008841986478,3.75257058598229,0.124005646,0.23487769,-0.070249505,141.29584,-68.61772,14.188921,CSI
16774521989000,1.169899,4.05340407358347,9.17915244757642,3.71643392059804,0.15974127,0.15821409,-0.027488936,141.24661,-68.49262,14.360893,CSI
16774526984000,1.174894,4.13909517596973,9.29524690791548,3.67136597685273,0.20830505,0.09040806,0.013439035,141.23544,-68.36857,14.597176,CSI
16774532003000,1.179913,4.16435874219489,9.37103734279407,3.61578671151056,0.2434298,0.023518313,0.057726767,141.24023,-68.24142,14.8424835,CSI
16774536995000,1.184905,4.10858999853154,9.36068369316974,3.57586457072747,0.27763826,-0.015882496,0.099265605,141.2376,-68.11561,15.124754,CSI
16774541983000,1.189893,3.98860178158632,9.28222931040479,3.54817493030625,0.28771752,-0.05589417,0.1301143,141.24942,-67.9857,15.409022,CSI
16774547016000,1.194926,3.85468672187213,9.15066633098807,3.53862853520954,0.3032946,-0.0571159,0.15607607,141.25433,-67.86596,15.69193,CSI
16774552002000,1.199912,3.7086177159376,8.9656459223004,3.54836646215968,0.30909783,-0.07727446,0.18661933,141.27136,-67.73919,15.976985,CSI
16774556976000,1.204886,3.59236664444444,8.79257288888889,3.52958524444444,0.32559118,-0.070554934,0.20891592,141.26787,-67.63031,16.234486,CSI
16774563136000,1.211046,3.48160976033453,8.59119692712067,3.47420685495818,0.32253686,-0.06536258,0.24373524,141.26605,-67.509895,16.495243,CSI
16774567055000,1.214965,3.37577900826118,8.43343764194764,3.41470178876439,0.34025195,-0.05100725,0.26389378,141.2562,-67.40121,16.730528,CSI
16774571990000,1.2199,3.10618076760721,8.12051078496486,3.24620293234186,0.35796702,-0.028099801,0.27366763,141.23978,-67.287125,16.963333,CSI
16774576987000,1.224897,2.84969165173559,7.86761329675614,3.07267127368191,0.37751472,-0.016798794,0.2669481,141.2098,-67.18297,17.1789,CSI
16774581996000,1.229906,2.65255945010929,7.84664180458162,2.88812196736032,0.40042216,-0.0030543262,0.25686884,141.17227,-67.0816,17.387745,CSI
16774586959000,1.234869,2.45723760609426,7.82586290347119,2.70526746401154,0.4288274,0.0009162979,0.26145032,141.1334,-67.01909,17.557222,CSI
16774591985000,1.239895,2.15183802703137,8.07643303297291,2.59116133901081,0.4364632,-0.0021380284,0.26450464,141.09427,-66.958885,17.71862,CSI
16774597060000,1.24497,1.83370080416472,8.39265638839495,2.47955038905007,0.47342056,-0.05222898,0.2507602,141.06937,-66.91114,17.87549,CSI
16774601998000,1.249908,1.51503920940571,9.1937367827796,2.34234890246139,0.55680364,-0.08827003,0.25137106,141.04991,-66.92742,17.98759,CSI
16774607749000,1.255659,1.18008744898469,10.1895748748308,2.19913626339685,0.591623,-0.034513887,0.25503623,141.03705,-67.02364,18.015099,CSI
16774612119000,1.260029,1.31518788978444,11.6233831149641,2.26886559069041,0.6059783,0.054061573,0.25717425,141.02477,-67.12821,18.040462,CSI
16774617128000,1.265038,1.47493065807438,13.2654479648497,2.33603358553235,0.56688297,0.26816985,0.267559,141.00107,-67.371666,17.929031,CSI
16774621988000,1.269898,1.77842223382578,14.8161004111054,2.0135736996434,0.45204028,0.37659842,0.2666427,140.98286,-67.60032,17.818186,CSI
16774627186000,1.275096,2.07665687068146,16.4034838478605,1.66149439900951,0.3585779,0.32895094,0.23304509,140.98073,-67.92111,17.630388,CSI
16774632662000,1.280572,2.05587931251981,17.1722543676704,1.19919340447702,0.3036,0.25350907,0.14935656,140.95863,-68.22795,17.43113,CSI
16774637248000,1.285158,2.03147519262823,17.6873627137099,0.827009532451407,0.21105394,0.301462,0.030543262,140.96614,-68.62481,17.16814,CSI
16774641982000,1.289892,1.92242922752389,16.6779505398167,0.622179918783722,0.033292156,0.44135013,-0.09132435,140.96916,-68.995384,16.895039,CSI
16774646937000,1.294847,1.80829260794383,15.6214154063902,0.407788128390106,-0.2312125,0.54519725,-0.20219639,140.99382,-69.43373,16.554829,CSI
16774651996000,1.299906,1.69176038625756,14.5427047625951,0.188896490125463,-0.5018258,0.57451874,-0.26175576,140.99753,-69.83018,16.211533,CSI
16774656987000,1.304897,1.57679451979458,13.4784934909641,-0.0270529399158162,-0.76144356,0.5742133,-0.26267207,140.97858,-70.17173,15.869428,CSI
16774662106000,1.310016,1.4588802199701,12.3869892834948,-0.248540644259897,-0.93126404,0.52839845,-0.26297748,140.95514,-70.47474,15.531155,CSI
16774667021000,1.314931,1.34566498581551,11.3389831925177,-0.461201723933888,-0.97585726,0.4718934,-0.27000242,140.93346,-70.73756,15.209358,CSI
16774671990000,1.3199,1.0714813705555,10.3365093597579,-1.06055725690227,-0.9288206,0.46273044,-0.27763826,140.90968,-70.970314,14.903705,CSI
16774676976000,1.324886,0.773131504285854,9.33890193205116,-1.71785923225129,-0.7959574,0.5299256,-0.27580565,140.87819,-71.194885,14.612602,CSI
16774681997000,1.329907,0.62681337364033,8.59531355744062,-2.25406935258362,-0.6102544,0.65209866,-0.28405234,140.81169,-71.36432,14.398156,CSI
16774687011000,1.334921,0.515089228521571,7.91100342074649,-2.76148328466311,-0.41813725,0.78801614,-0.30390546,140.72427,-71.55894,14.180745,CSI
16774691976000,1.339886,0.605589454998478,7.44738280164384,-2.98880636340944,-0.25503623,0.915687,-0.3213151,140.61592,-71.8299,13.926625,CSI
16774697000000,1.34491,0.761819194996448,7.04704387050228,-3.13038951462202,-0.11178834,0.95264435,-0.35369098,140.49821,-72.13893,13.663713,CSI
16774702003000,1.349913,0.997223209552169,6.95523854149967,-2.91894836792737,-0.05467244,1.0170907,-0.36041048,140.34274,-72.48875,13.38452,CSI
16774707091000,1.355001,1.25852976864898,6.94606999326371,-2.60721418559601,0.03573562,1.0503827,-0.36041048,140.18729,-72.87615,13.10122,CSI
16774712102000,1.360012,1.55935379447757,7.13787634818534,-2.13340318003347,0.105068825,1.0488557,-0.34055737,140.01979,-73.241714,12.853162,CSI
16774717094000,1.365004,1.87936997219956,7.42289077931179,-1.58337536804728,0.14080444,1.0277808,-0.31673363,139.84818,-73.61626,12.608752,CSI
16774721988000,1.369898,2.28760794013475,7.91251170500481,-1.1733754273821,0.12705997,1.0250319,-0.24984388,139.65028,-73.90969,12.4320545,CSI
16774726988000,1.374898,2.73464855611165,8.4793774412897,-0.79546488840231,0.112399206,1.0522153,-0.15454891,139.44807,-74.19621,12.272962,CSI
16774731998000,1.379908,3.06425343608053,9.00797322969354,-0.399518030000992,0.09193522,1.0781772,-0.030543262,139.22318,-74.37173,12.198686,CSI
16774736991000,1.384901,3.33456662217594,9.51540375304969,0.00358073026876921,0.0870483,1.0858129,0.069027774,138.99498,-74.52923,12.146388,CSI
16774741979000,1.389889,3.5713773652821,9.95053138568709,0.321578842203185,0.09193522,1.0626001,0.17654006,138.75082,-74.57419,12.192245,CSI
16774747000000,1.39491,3.79191327622015,10.3499924304258,0.596208467964694,0.09315695,1.0216721,0.28588495,138.50842,-74.59213,12.267865,CSI
16774751998000,1.399908,3.985655550827,10.7286435891819,0.849184955565489,0.129198,0.96852684,0.3885103,138.26357,-74.53368,12.411856,CSI
16774756969000,1.404879,4.1293045622262,11.0691443116898,1.0619980876844,0.16279559,0.92087936,0.48472157,138.0284,-74.44956,12.584457,CSI
16774762077000,1.409987,4.1474018433728,11.3184966228703,1.21653100115507,0.22143865,0.8680395,0.58032197,137.80586,-74.302956,12.81805,CSI
16774767087000,1.414997,4.06427181853884,11.4847568654346,1.318134225527,0.27763826,0.820392,0.66767573,137.59563,-74.14016,13.073199,CSI
16774771975000,1.419885,3.87040124810769,11.5819880444791,1.40909844151385,0.32620203,0.75961095,0.7470882,137.40437,-73.941315,13.36406,CSI
16774777007000,1.424917,3.54606033082325,11.6101916878658,1.4937091753414,0.3680463,0.70952,0.81245077,137.22408,-73.73293,13.669651,CSI
16774781993000,1.429903,3.14493252290266,11.571586750181,1.60913642923347,0.39400807,0.65179324,0.84665924,137.0729,-73.52859,13.967826,CSI
16774786994000,1.434904,2.63463543889521,11.4427738819696,1.76767526834592,0.4016439,0.5867361,0.8509353,136.93976,-73.32005,14.269785,CSI
16774791976000,1.439886,2.1556530864095,11.2802510132542,1.90144038911968,0.39003745,0.5488624,0.8350528,136.78746,-73.15492,14.514417,CSI
16774796978000,1.444888,1.70552414540059,11.0812461216617,2.01041892848665,0.37110063,0.47861293,0.82741696,136.6663,-72.98779,14.759604,CSI
16774801986000,1.449896,1.33246161064347,10.9174779768706,2.0973613502224,0.34788775,0.40561453,0.8008443,136.5498,-72.88085,14.922103,CSI
16774806977000,1.454887,1.04899119204705,10.7946412628249,2.15878000324207,0.2996294,0.31764993,0.7644979,136.46165,-72.77322,15.079047,CSI
16774812013000,1.459923,0.835239180867069,10.6919292962486,2.16964872176581,0.25228736,0.2565634,0.72509706,136.37195,-72.71832,15.166435,CSI
16774817004000,1.464914,0.712231725016332,10.61623238058,2.11760716017025,0.21319197,0.21563543,0.68966687,136.30525,-72.66687,15.245323,CSI
16774821937000,1.469847,0.576899072129586,10.5080479137335,2.09514364492578,0.1881465,0.17073683,0.65668017,136.23491,-72.65214,15.277396,CSI
16774826989000,1.474899,0.418802658595836,10.3499511134348,2.11321179676968,0.183565,0.12889257,0.59315014,136.17975,-72.65197,15.291234,CSI
16774831937000,1.479847,0.336360800459858,10.2276383996934,2.1210673738264,0.13836098,0.032375857,0.5479461,136.15532,-72.664925,15.290021,CSI
16774836991000,1.484901,0.447649212274382,10.1905424851504,2.10251931971642,0.11453723,-0.0729984,0.51343226,136.14891,-72.6934,15.27545,CSI
16774842111000,1.490021,0.565688245956784,10.1479310538126,2.0942744503636,0.10323623,-0.17806722,0.4896085,136.16844,-72.74017,15.237097,CSI
16774847029000,1.494939,0.697795642680241,10.0892164895076,2.12363163033451,0.086437434,-0.3051272,0.46089783,136.2272,-72.792755,15.19258,CSI
16774851957000,1.499867,0.875228985056115,10.0241553378483,2.16346704812307,0.06536258,-0.43951756,0.4364632,136.31497,-72.83136,15.164239,CSI
16774856978000,1.504888,1.18227427394253,9.94041597813468,2.23324996123259,0.019547688,-0.5534439,0.42760566,136.43379,-72.86759,15.136153,CSI
16774862077000,1.509987,1.47441043578092,9.90005806319591,2.27092506804093,-0.03848451,-0.679893,0.419359,136.59302,-72.87881,15.134009,CSI
16774867022000,1.514932,1.6881809653225,10.0188194133815,2.19016739951851,-0.09315695,-0.7666359,0.4111123,136.77261,-72.886955,15.131573,CSI
16774871996000,1.519906,1.87475023075252,10.1002228575943,2.10028100833498,-0.14782938,-0.8524625,0.42424592,136.9794,-72.82471,15.195158,CSI
16774877009000,1.524919,1.95534918138455,10.0385881067549,1.97701195221213,-0.18570304,-0.93187493,0.45998153,137.20631,-72.75516,15.264505,CSI
16774881993000,1.529903,2.04796502177041,9.96486750864222,1.86738160893196,-0.20555615,-0.98715824,0.48502702,137.45226,-72.66245,15.363942,CSI
16774886993000,1.534903,2.19627199549406,9.83569726186432,1.81475652151064,-0.22907446,-1.0088439,0.514654,137.70576,-72.55615,15.474331,CSI
16774891971000,1.539881,2.37612875398488,9.7283869063409,1.76758655194881,-0.24190263,-1.0128145,0.51923543,137.97095,-72.445915,15.598275,CSI
16774896967000,1.544877,2.70549148293582,9.71910889742098,1.74439201403917,-0.23945917,-1.0238101,0.5222898,138.23833,-72.33001,15.728297,CSI
16774902015000,1.549925,3.02258405360078,9.71425326568476,1.71804591685247,-0.24862215,-1.0387764,0.52931476,138.50064,-72.18574,15.88795,CSI
16774907015000,1.554925,3.22520180117992,9.74152887802099,1.67128796258443,-0.28405234,-1.0571023,0.5510005,138.76076,-72.03688,16.04957,CSI
16774912039000,1.559949,3.42879211394743,9.76893541329644,1.62430557013589,-0.3042109,-1.0848967,0.5674938,139.02608,-71.833374,16.283766,CSI
16774917078000,1.564988,3.64914137105263,9.82466983552632,1.54211792105263,-0.32650748,-1.1026118,0.57451874,139.28696,-71.62628,16.51614,CSI
16774921964000,1.569874,3.87040424268092,9.89201054790296,1.44591675986842,-0.34788775,-1.1151345,0.56413406,139.54816,-71.42142,16.743593,CSI
16774926981000,1.574891,4.10454194852941,10.0743430772059,1.32240920698529,-0.40500367,-1.1221595,0.55924714,139.80557,-71.1766,17.014187,CSI
16774931987000,1.579897,4.34098225936155,10.3021856548601,1.18914281650825,-0.43310347,-1.1261301,0.55863625,140.05893,-70.93954,17.276619,CSI
16774936996000,1.584906,4.51631347519439,10.4730874751944,1.08735406454934,-0.48288897,-1.0958922,0.5702427,140.30023,-70.671585,17.571976,CSI
16774941978000,1.589888,4.62604351199211,10.5828175119921,1.01942595952251,-0.5348125,-1.0864239,0.5696318,140.54211,-70.40944,17.856947,CSI
16774947037000,1.594947,4.72550637120847,10.5652378945595,0.968267270091478,-0.5717699,-1.0754282,0.5558874,140.7986,-70.13615,18.160797,CSI
16774951994000,1.599904,4.81693092123255,10.482955990467,0.927126203487723,-0.61453044,-1.0622946,0.5369505,141.0456,-69.86428,18.45455,CSI
16774957765000,1.605675,4.7782606469067,10.3886572366222,0.969435961812214,-0.6392705,-1.0155635,0.5448918,141.27994,-69.588554,18.753834,CSI
16774962097000,1.610007,4.68747995464492,10.3185080498309,1.0395846057032,-0.6188065,-0.9599747,0.54275376,141.5033,-69.327095,19.036505,CSI
16774967025000,1.614935,4.55306132593206,10.0715473562552,1.10571260588235,-0.593761,-0.9211848,0.5021312,141.72726,-69.05762,19.329233,CSI
16774972028000,1.619938,4.39427855010586,9.70105408984627,1.16305090980392,-0.5699373,-0.8857546,0.4279111,141.93211,-68.80616,19.602165,CSI
16774976942000,1.624852,4.29103865889594,9.39156140209656,1.22752323844008,-0.58093286,-0.7816021,0.40042216,142.09552,-68.55837,19.865494,CSI
16774982027000,1.629937,4.26762164216195,9.15739074572033,1.30714114423928,-0.5626069,-0.73823065,0.36468655,142.265,-68.34361,20.099863,CSI
16774986927000,1.634837,4.22515714825784,8.86463571777004,1.41805148675958,-0.5112942,-0.73853606,0.3210097,142.39973,-68.13867,20.317049,CSI
16774991986000,1.639896,4.13606170475223,8.40978108652729,1.61030964500581,-0.4370741,-0.7602218,0.3036,142.52437,-67.94488,20.525656,CSI
16774996956000,1.644866,4.09832465588066,7.99208402168074,1.6950644467287,-0.4202753,-0.7965683,0.26236662,142.6688,-67.749214,20.73255,CSI
16775001992000,1.649902,4.21399240634114,7.65896112452034,1.45910238652149,-0.37293324,-0.7583892,0.26175576,142.79198,-67.5619,20.939093,CSI
16775007005000,1.654915,4.28361882114467,7.33182968461844,1.24305886526232,-0.30207285,-0.7318166,0.26450464,142.91714,-67.35964,21.147408,CSI
16775012028000,1.659938,4.13066387937202,7.02592005062599,1.11878303746025,-0.23518312,-0.6792821,0.2660318,143.01907,-67.16536,21.349121,CSI
16775017014000,1.664924,3.98723031027038,6.74736837933049,0.985659880360503,-0.17287487,-0.63499445,0.28008172,143.12961,-66.94424,21.605713,CSI
16775021992000,1.669902,3.88807823313856,6.60100068460929,0.801519977518075,-0.14996742,-0.59803706,0.2864958,143.22282,-66.7304,21.853796,CSI
16775027852000,1.675762,3.74332123659243,6.45792008500815,0.642979448506247,-0.12034045,-0.5821546,0.29077184,143.32892,-66.531975,22.095013,CSI
16775031997000,1.679907,3.58519901791599,6.41479587425312,0.646573170260728,-0.103847094,-0.54519725,0.29840767,143.41362,-66.33398,22.332327,CSI
16775036982000,1.684892,3.39503273079848,6.362932378327,0.65089517338403,-0.11178834,-0.5216789,0.30848694,143.52113,-66.15478,22.557829,CSI
16775041981000,1.689891,3.2537592560937,6.38524526259761,0.677468462597608,-0.10873401,-0.4841107,0.31031954,143.61044,-65.97984,22.77731,CSI
16775046959000,1.694869,3.11710540641495,6.41351845251557,0.705741652515568,-0.11942416,-0.43799037,0.32284227,143.68657,-65.799065,22.997652,CSI
16775052004000,1.699914,2.92877217563914,6.45043384131649,0.734163672729944,-0.13255776,-0.41905355,0.3145956,143.75188,-65.652756,23.183228,CSI
16775056974000,1.704884,2.73762059135077,6.48773172210794,0.762137046811637,-0.13775012,-0.38759398,0.29565877,143.79727,-65.50749,23.363403,CSI
16775062095000,1.710005,2.36748779788753,6.79865815462103,0.873511519364303,-0.14355333,-0.37904188,0.2770274,143.87291,-65.38523,23.518257,CSI
16775067012000,1.714922,1.98524820049878,7.13945025515892,0.993249245427873,-0.15577064,-0.37812558,0.23762658,143.94101,-65.274445,23.658112,CSI
16775071996000,1.719906,1.88135932752294,7.37554724770642,1.0944796559633,-0.16798794,-0.36132678,0.1966986,144.01057,-65.20654,23.748407,CSI
16775076994000,1.724904,1.83975777103815,7.58817727513279,1.19154993833897,-0.18417588,-0.34972036,0.15241088,144.08159,-65.15024,23.824917,CSI
16775081978000,1.729888,1.83646072378999,7.77716850205086,1.25999828080394,-0.21594086,-0.34880406,0.10873401,144.17871,-65.19429,23.791004,CSI
16775086936000,1.734846,1.84619857744052,7.95731874374487,1.31842545354799,-0.25442538,-0.34880406,0.0571159,144.27332,-65.25109,23.741526,CSI
16775091979000,1.739889,1.90399091754563,8.03142548826011,1.21636252975328,-0.28252518,-0.3567453,0.028099801,144.37537,-65.33045,23.664072,CSI
16775097510000,1.74542,1.98172264696872,8.08000778744382,1.05604079025956,-0.34300083,-0.4111123,-0.06047566,144.49498,-65.434296,23.557192,CSI
16775101967000,1.749877,2.06844452524494,8.12584733562643,0.926965800562852,-0.4071417,-0.4129449,-0.07422013,144.60306,-65.530815,23.45255,CSI
16775106983000,1.754893,2.17859879216177,8.18092425995414,0.781762481988743,-0.42577308,-0.44165558,-0.10293079,144.73898,-65.653336,23.322691,CSI
16775112007000,1.759917,2.23868932918149,8.18782852669039,0.694437763274021,-0.4605924,-0.46120325,-0.124005646,144.88556,-65.77054,23.202208,CSI
16775116979000,1.764889,2.27634515160142,8.17370777145117,0.633246942483195,-0.48899764,-0.4813618,-0.13897185,145.04031,-65.891525,23.077818,CSI
16775121983000,1.769893,2.26766566831384,8.12663393662769,0.628052132749906,-0.4972443,-0.5039638,-0.14782938,145.21951,-66.00742,22.968935,CSI
16775126955000,1.774865,2.23623314756696,8.06376889513391,0.650503994907582,-0.52748215,-0.56321776,-0.15760323,145.4145,-66.12223,22.85891,CSI
16775131973000,1.779883,2.24526591950323,7.96981114803775,0.718113996929955,-0.5332854,-0.6218608,-0.17684549,145.62404,-66.23764,22.754375,CSI
16775137038000,1.784948,2.28863978154993,7.84932805812221,0.82413916637854,-0.5335908,-0.6658431,-0.20922135,145.84528,-66.35612,22.646,CSI
16775141985000,1.789895,2.34840498483063,7.77279896671576,0.982574743740795,-0.5222898,-0.70554936,-0.23915374,146.08397,-66.477,22.53524,CSI
16775147081000,1.794991,2.42507214084438,7.72967364767796,1.19340934772705,-0.5207626,-0.73364913,-0.2660318,146.33052,-66.60384,22.4184,CSI
16775151993000,1.799903,2.55065911969237,7.7375673653767,1.34228517540903,-0.5546656,-0.7632761,-0.28252518,146.58073,-66.706474,22.318369,CSI
16775157015000,1.804925,2.72971268209072,7.79411045059273,1.44123574674243,-0.5907067,-0.78984874,-0.2950479,146.83636,-66.81424,22.21374,CSI
16775162030000,1.80994,2.90474533906003,7.84414786939178,1.52051092071485,-0.63529986,-0.8185594,-0.2910773,147.08461,-66.88439,22.130913,CSI
16775167076000,1.814986,3.07651510505529,7.88709038562401,1.57776752598736,-0.66339964,-0.8503244,-0.2910773,147.33995,-66.956436,22.045609,CSI
16775171958000,1.819868,3.24246581763606,7.95074385780927,1.54845116599744,-0.6835582,-0.91751957,-0.2910773,147.60701,-66.98617,21.997345,CSI
16775176975000,1.824885,3.41269374844996,8.04531467812223,1.40659458990257,-0.6979135,-0.9560041,-0.28405234,147.87207,-67.01152,21.952078,CSI
16775181934000,1.829844,3.50824137865971,8.14802539145207,1.25160745731055,-0.7131852,-0.9746355,-0.26358834,148.14822,-66.996925,21.945688,CSI
16775186991000,1.834901,3.49154882150771,8.2672581915407,1.07037384021862,-0.7333437,-0.9776898,-0.2611449,148.42876,-66.983864,21.937195,CSI
16775191982000,1.839892,3.47507412252696,8.38493485858486,0.891505542234477,-0.74128497,-0.9443977,-0.25259277,148.71045,-66.94874,21.964058,CSI
16775196996000,1.844906,3.45852350327441,8.50315381441725,0.711812966379438,-0.75533485,-0.89980453,-0.24831672,148.98572,-66.91291,21.989416,CSI
16775201933000,1.849843,3.44535649159296,8.62746182024492,0.586880306794635,-0.7849618,-0.84604836,-0.25625798,149.26004,-66.8764,22.012985,CSI
16775207023000,1.854933,3.43824998289435,8.7719608799203,0.565560755963651,-0.8020661,-0.7699956,-0.24404067,149.50934,-66.83406,22.040462,CSI
16775212064000,1.859974,3.43121188655846,8.91506888774419,0.544446442458937,-0.83169305,-0.7254025,-0.24770586,149.79654,-66.84692,22.040625,CSI
16775217040000,1.86495,3.42426454131597,9.05633162270386,0.523604382550297,-0.8582657,-0.6747007,-0.258396,150.05357,-66.857666,22.038393,CSI
16775221999000,1.869909,3.40605994698724,9.20679918907688,0.514000762030276,-0.8732319,-0.6423248,-0.27214047,150.30649,-66.86911,22.032578,CSI
16775226971000,1.874881,3.34952574399921,9.39053542257841,0.542267843846839,-0.9288206,-0.63438356,-0.2968805,150.54802,-66.88113,22.01921,CSI
16775231994000,1.879904,3.28605303000876,9.54020901112084,0.580413190849387,-0.9605856,-0.64660084,-0.31703907,150.79245,-66.92796,21.9754,CSI
16775236996000,1.884906,3.19796496298599,9.54859809220666,0.655917329640981,-1.0021244,-0.6740898,-0.3213151,151.0353,-66.971085,21.929775,CSI
16775241998000,1.889908,3.10987689596322,9.55698717329247,0.731421468432574,-1.0204504,-0.7113526,-0.32620203,151.29875,-67.043495,21.852198,CSI
16775247005000,1.894915,2.91086874355972,9.61181163164938,0.83096072690978,-1.0644327,-0.75533485,-0.31429017,151.56787,-67.105385,21.7807,CSI
16775251968000,1.899878,2.72453076399665,9.67055679151549,0.922073025244209,-1.1120802,-0.81214535,-0.32711834,151.84898,-67.17221,21.703789,CSI
16775257036000,1.904946,2.68389279689273,9.73377123937111,0.944649671015908,-1.1621711,-0.87109387,-0.3231477,152.14182,-67.239655,21.615822,CSI
16775262400000,1.91031,2.63944588735109,9.79412438828087,0.969938079263922,-1.1924089,-0.9086621,-0.3109304,152.4459,-67.33686,21.487337,CSI
16775267029000,1.914939,2.57933595741404,9.74689558673123,1.01287372429056,-1.2385293,-0.9810496,-0.3203988,152.77531,-67.43027,21.359995,CSI
16775271929000,1.919839,2.51570695402421,9.69690182401937,1.05832299208717,-1.2492194,-1.0451905,-0.34116822,153.12274,-67.53284,21.222864,CSI
16775276977000,1.924887,2.58897005859164,9.52733881661086,1.11469113525219,-1.284955,-1.1023064,-0.3359759,153.48505,-67.62146,21.095762,CSI
16775282090000,1.93,2.6842345442212,9.34857860572139,1.1658370239667,-1.3035865,-1.1169671,-0.3118467,153.84929,-67.70829,20.971724,CSI
16775286992000,1.934902,2.83694666465748,9.24976428482587,1.13439626570034,-1.3417655,-1.1221595,-0.310625,154.22719,-67.79604,20.837763,CSI
16775292355000,1.940265,3.00489096756868,9.14932105863059,1.09602413087331,-1.3710871,-1.0940597,-0.29718593,154.58907,-67.83795,20.745028,CSI
16775297022000,1.944932,3.16981708364084,9.22720293665437,0.976910867343173,-1.4428637,-1.0775663,-0.28405234,154.9515,-67.869545,20.65525,CSI
16775302269000,1.950179,3.35164664760154,9.31670857176989,0.848470578331189,-1.4602734,-1.0192287,-0.25961772,155.29402,-67.86017,20.611038,CSI
16775307045000,1.954955,3.47353835728726,9.42178803289836,0.79803260376769,-1.5103643,-0.9502009,-0.22876903,155.62277,-67.83394,20.572458,CSI
16775312059000,1.959969,3.60150423508546,9.53210386583349,0.745081179047969,-1.5534303,-0.86132,-0.20341812,155.94093,-67.78726,20.56752,CSI
16775317540000,1.96545,3.81193823126734,9.73998174252235,0.826345820551958,-1.5864171,-0.7733554,-0.16065755,156.23108,-67.72381,20.573544,CSI
16775321952000,1.969862,3.99000045636756,9.91804351413301,0.908862487444753,-1.6383406,-0.6542367,-0.13530666,156.47986,-67.651726,20.576899,CSI
16775326968000,1.974878,4.19135996379594,10.0449538862514,0.978932767563457,-1.7250835,-0.52320606,-0.11148291,156.708,-67.55205,20.606709,CSI
16775331985000,1.979895,4.39262339989029,10.1623576407021,1.04602057542512,-1.8194622,-0.42394048,-0.083383106,156.90427,-67.43864,20.640615,CSI
16775336988000,1.984898,4.59332520789907,10.2794337785369,1.11292117393657,-1.8787161,-0.38148534,-0.057421334,157.07695,-67.28826,20.698475,CSI
16775341955000,1.989865,4.79258282940208,10.3956674736448,1.17934037697601,-1.9144517,-0.37140608,-0.053145275,157.22667,-67.129196,20.754463,CSI
16775346992000,1.994902,4.8587252650898,10.0273491874571,1.24159278804593,-1.9324722,-0.3885103,-0.08246681,157.3823,-66.96857,20.807713,CSI
16775352007000,1.999917,4.90586203219158,9.59369073324173,1.30287063449799,-1.9095647,-0.3943135,-0.1160644,157.52924,-66.80999,20.859255,CSI
16775357078000,2.004988,4.5924299700621,8.2737409989354,1.40215531484797,-1.8524488,-0.39064834,-0.16432275,157.68108,-66.60696,20.953533,CSI
16775362030000,2.00994,4.22524406255343,6.83559632765546,1.5054263014114,-1.7498235,-0.37293324,-0.24801129,157.83177,-66.433495,21.025875,CSI
16775367046000,2.014956,4.04377379442018,5.80522134202333,1.55384782871603,-1.6319265,-0.30970868,-0.32895094,157.96375,-66.2334,21.120733,CSI
16775371992000,2.019902,4.17519300161332,5.48397443628423,1.51004140937677,-1.5372424,-0.22815818,-0.4196644,158.08792,-66.070625,21.185507,CSI
16775376968000,2.024878,4.3074093329908,5.1607790050352,1.4659692818733,-1.4776831,-0.13591751,-0.48838675,158.14877,-65.8457,21.270573,CSI
16775381999000,2.029909,4.44108705870626,4.83401127701793,1.42141002273545,-1.4453071,-0.09865474,-0.5320636,158.205,-65.64641,21.33678,CSI
16775386937000,2.034847,4.77431956384306,4.76221263591549,1.42279064397384,-1.421178,-0.015271631,-0.54000485,158.24922,-65.460175,21.385551,CSI
16775391980000,2.03989,5.34765052221328,4.97599677042254,1.47623675370221,-1.396438,0.09590584,-0.54611355,158.27637,-65.28887,21.419922,CSI
16775397042000,2.044952,5.88302151758362,5.24680561014478,1.61282315005492,-1.3820826,0.24281894,-0.516792,158.27434,-65.03066,21.561125,CSI
16775402026000,2.049936,6.36914634610085,5.57088922727908,1.83205604758862,-1.3720033,0.38087448,-0.47678033,158.24025,-64.774956,21.69835,CSI
16775407067000,2.054977,6.74498287344661,5.99604516631433,2.10453336007112,-1.3561208,0.5552765,-0.43951756,158.14577,-64.44449,21.929676,CSI
16775412092000,2.060002,7.00169221850242,6.51897109884422,2.42779672789687,-1.3579534,0.70341134,-0.37048978,158.01222,-64.09807,22.17263,CSI
16775417068000,2.064978,7.15957485365029,7.07012378675154,2.76703044255023,-1.3494014,0.8338311,-0.29077184,157.83333,-63.668243,22.472305,CSI
16775421993000,2.069903,7.21117845893177,7.6518380994629,3.12356502604933,-1.3564262,0.9062186,-0.21563543,157.62411,-63.226025,22.779823,CSI
16775426967000,2.074877,7.10268986797682,8.18661964056012,3.39286522779334,-1.3582588,0.9682214,-0.14202617,157.3614,-62.741722,23.087452,CSI
16775432019000,2.079929,6.78964331002414,8.66319765774988,3.55172459938194,-1.3787229,1.0305296,-0.059864793,157.07376,-62.242363,23.405787,CSI
16775436962000,2.084872,6.40351120634709,9.11193565739064,3.57249483669113,-1.4123205,1.0818423,0.008246681,156.75146,-61.744896,23.677332,CSI
16775442037000,2.089947,5.87084529073668,9.54270028380825,3.36406028699133,-1.4498887,1.138042,0.09254608,156.4057,-61.2309,23.961493,CSI
16775446947000,2.094857,5.27986780485498,9.86803658112652,3.15671409870744,-1.4333953,1.2052372,0.18234327,156.05186,-60.792076,24.14695,CSI
16775452029000,2.099939,4.46155205264817,9.95498278667507,2.92656278338588,-1.3793337,1.2476922,0.26725355,155.68726,-60.343845,24.343746,CSI
16775456952000,2.104862,3.64364221010643,9.95108845657812,2.95530008762186,-1.2550226,1.2626585,0.35888332,155.35919,-60.04234,24.425438,CSI
16775462045000,2.109955,2.75373663996065,9.79404631857616,3.42206435919864,-1.0998629,1.1948525,0.42821655,155.04292,-59.745525,24.524292,CSI
16775467064000,2.114974,1.7781514273815,9.52536414152224,4.04762279847567,-0.94134337,0.97005403,0.45020768,154.80722,-59.60128,24.507475,CSI
16775471993000,2.119903,0.284850481950303,8.64318301221549,5.56063734579244,-0.8381071,0.5537493,0.35277468,154.65872,-59.486958,24.501451,CSI
16775476994000,2.124904,-1.04864183842177,7.80218484994191,6.888858401433,-0.8533788,0.004581489,0.18661933,154.5666,-59.451927,24.341148,CSI
16775482005000,2.129915,-1.75491470075136,7.14702386738962,7.5022003377227,-0.93737274,-0.2434298,0.03145956,154.52055,-59.440636,24.171112,CSI
16775486984000,2.134894,-2.3021420814678,6.62387690247629,7.97385752591113,-1.0146471,-0.65057147,-0.032986723,154.54144,-59.400276,23.833961,CSI
16775491970000,2.13988,-2.02083923012481,6.78598368606091,7.70685834608088,-1.2049317,-0.88239485,-0.11942416,154.60614,-59.353638,23.460974,CSI
16775497007000,2.144917,-1.6235150342138,6.99431792350212,7.39648795730925,-1.3833044,-1.0146471,-0.16615535,154.70496,-59.24774,23.029917,CSI
16775501998000,2.149908,-0.628021495226532,7.43780785763498,6.8727923428092,-1.5305228,-1.0806206,-0.17959438,154.8622,-59.105457,22.606354,CSI
16775507054000,2.154964,0.384271493124632,7.86278943817468,6.38855335750736,-1.6099354,-1.0809261,-0.1600467,155.06937,-58.937054,22.232126,CSI
16775512083000,2.159993,1.41462121547792,8.13691929048086,6.19004555044161,-1.6502525,-1.0525209,-0.13958271,155.29144,-58.73512,21.86369,CSI
16775516994000,2.164904,2.37724038831727,8.40342639943221,6.02778901620785,-1.6710218,-1.0076222,-0.124005646,155.55714,-58.489887,21.659174,CSI
16775521990000,2.1699,2.92468379320372,8.66274175077426,6.17596924153476,-1.677436,-0.9663888,-0.11026118,155.81473,-58.230366,21.46054,CSI
16775526968000,2.174878,3.47015482393324,8.92112281942533,6.32361559094976,-1.7217237,-0.88361657,-0.10567969,156.06154,-57.88469,21.431412,CSI
16775531994000,2.179904,3.74934774536845,9.30170883022591,6.50746815880438,-1.7852536,-0.77091193,-0.10629055,156.28831,-57.53432,21.397247,CSI
16775536926000,2.184836,3.94038502148565,9.71174014008089,6.69850558088192,-1.8738291,-0.66767573,-0.1518,156.50113,-57.179443,21.345078,CSI
16775541981000,2.189891,3.86529406282795,10.0822728191019,6.62341459044905,-1.958434,-0.5170974,-0.22968534,156.67366,-56.76141,21.357183,CSI
16775546958000,2.194868,3.69200535902525,10.4288504223248,6.45012578883757,-2.051591,-0.35185838,-0.301462,156.82175,-56.335766,21.34426,CSI
16775551999000,2.199909,3.4192079195447,10.62313585018,6.32835844352563,-2.080607,-0.1908954,-0.41447207,156.95639,-55.935513,21.284554,CSI
16775557003000,2.204913,3.10684318713883,10.7490137849985,6.23045305856601,-2.0650299,-0.040317107,-0.54458636,157.06596,-55.54615,21.183428,CSI
16775562109000,2.210019,2.75073960103441,10.789770254916,6.30478635431176,-2.0433443,0.074830994,-0.6395759,157.198,-55.251553,20.999338,CSI
16775567068000,2.214978,2.38594506810733,10.784906229619,6.46529588785334,-2.0280726,0.15882497,-0.70463306,157.31625,-54.976967,20.778948,CSI
16775571993000,2.219903,2.24669787742315,10.6140568265126,6.59694215478755,-1.9953914,0.18692477,-0.7690793,157.4624,-54.783806,20.472107,CSI
16775576991000,2.224901,2.19983587781476,10.3703742328177,6.71878354950069,-1.9581286,0.22876903,-0.7993172,157.59026,-54.596382,20.151917,CSI
16775581997000,2.229907,2.26318854943431,9.90622951686882,6.7548515454286,-1.928807,0.27000242,-0.7974846,157.71472,-54.42513,19.762384,CSI
16775587004000,2.234914,2.38537552738763,9.32461933645908,6.74507654024055,-1.9370537,0.42424592,-0.7834347,157.8047,-54.25018,19.35549,CSI
16775592030000,2.23994,2.59016607254517,8.75235845095247,6.82732853368028,-1.9550742,0.6001751,-0.70707655,157.85582,-54.02028,18.963972,CSI
16775597051000,2.244961,2.83096956441477,8.18576221700707,6.95009109622938,-1.9651535,0.763887,-0.6386596,157.87415,-53.78447,18.561155,CSI
16775602032000,2.249942,2.89871652944522,7.56712019152864,7.15213647006586,-1.9501873,0.8188649,-0.5717699,157.84521,-53.459534,18.220953,CSI
16775607203000,2.255113,2.87895130810218,6.89510405897027,7.40414248752744,-1.9324722,0.8323039,-0.535118,157.78583,-53.125828,17.877367,CSI
16775612139000,2.260049,2.9155188432971,6.4491292807971,7.49582323429952,-1.9004018,0.7684685,-0.4999932,157.69217,-52.686813,17.620543,CSI
16775617018000,2.264928,2.97665291953502,6.09643267578502,7.51933632165862,-1.8637499,0.7275405,-0.4709771,157.59227,-52.251556,17.368717,CSI
16775622027000,2.269937,2.77325395850435,5.78047764458905,7.46969636091701,-1.8246545,0.6649268,-0.46089783,157.47388,-51.716957,17.154135,CSI
16775627014000,2.274924,2.438569044549,5.48882356612274,7.3836345900891,-1.78617,0.6096435,-0.46578476,157.36975,-51.193558,16.950226,CSI
16775632036000,2.279946,2.04011594044577,5.30562750886578,7.36455586199109,-1.7599027,0.5369505,-0.4792238,157.27307,-50.631428,16.786749,CSI
16775637032000,2.284942,1.61355671809807,5.1776596332838,7.37877449283804,-1.7305813,0.47555858,-0.48716503,157.19435,-50.084812,16.632301,CSI
16775642637000,2.290547,1.45045049471581,5.15906992232544,7.42812083176506,-1.6933185,0.38423425,-0.4905248,157.14923,-49.546146,16.450565,CSI
16775647003000,2.294913,1.43374399200879,5.18830668366796,7.47824047072221,-1.6862935,0.29352075,-0.48258355,157.12413,-49.010643,16.282234,CSI
16775652034000,2.299944,1.55964231292945,5.22131736898287,7.48054448798993,-1.6933185,0.1731803,-0.47616947,157.13094,-48.49111,16.064857,CSI
16775657009000,2.304919,1.76252264923062,5.253593818949,7.45287909700958,-1.7330247,0.07422013,-0.4801401,157.15941,-47.967857,15.861942,CSI
16775662132000,2.310042,1.97581581853993,5.22757957628613,7.41001422243998,-1.7739527,0.0125227375,-0.47555858,157.21301,-47.44122,15.6732,CSI
16775667051000,2.314961,2.18354477882411,5.16295244801568,7.3592359710926,-1.8023579,-0.03604105,-0.47311515,157.29155,-46.912144,15.501313,CSI
16775672030000,2.31994,2.45291518907083,5.01489492359268,7.38113010200562,-1.8325957,-0.026267206,-0.45356745,157.37868,-46.368782,15.373917,CSI
16775677154000,2.325064,2.78097813479314,4.79143207569034,7.46671167526403,-1.8613064,0.042760566,-0.46395215,157.47263,-45.826973,15.2404175,CSI
16775682031000,2.329941,3.11466459511289,4.53029685695913,7.47111717957512,-1.892766,0.06078109,-0.45998153,157.57726,-45.263943,15.166881,CSI
16775687018000,2.334928,3.47865074558445,4.21180885058588,7.39377026809565,-1.8909334,0.077579886,-0.48380527,157.67836,-44.712852,15.074094,CSI
16775692026000,2.339936,3.88100293270373,4.09911105422326,7.32620455687606,-1.8768835,0.2134974,-0.4831944,157.7387,-44.10011,15.027186,CSI
16775697053000,2.344963,4.34587737148769,4.3289940465938,7.27511948302207,-1.8148806,0.37048978,-0.4700608,157.79793,-43.51009,14.970895,CSI
16775702031000,2.349941,4.58710688009328,4.48590851041977,7.26608136612087,-1.7455474,0.5180137,-0.40042216,157.81602,-42.87018,14.986541,CSI
16775707031000,2.354941,4.60611412431279,4.57144110940756,7.29934394426913,-1.6829338,0.6310238,-0.35460728,157.81593,-42.254803,14.97527,CSI
16775712860000,2.36077,4.53978570098795,4.58552670039518,7.37766839920964,-1.6157386,0.6960809,-0.32895094,157.81453,-41.680588,15.030229,CSI
16775717040000,2.36495,4.44091437121122,4.54597816848449,7.45676546303102,-1.5427402,0.74097955,-0.2947425,157.78763,-41.12857,15.075994,CSI
16775721987000,2.369897,4.31385055754338,4.50142768347221,7.55423319443192,-1.4813483,0.7797695,-0.2706133,157.7605,-40.605614,15.110976,CSI
16775727024000,2.374934,4.17198679293207,4.45886861334183,7.65826667448289,-1.4340062,0.79901177,-0.2321288,157.7225,-40.102436,15.149167,CSI
16775731969000,2.379879,4.03758674779017,4.4647042094565,7.78210702825005,-1.4062119,0.80573124,-0.19242255,157.67334,-39.599705,15.15976,CSI
16775737034000,2.384944,3.90721896185546,4.54195922359148,7.9414455957396,-1.3811663,0.81397796,-0.15851954,157.61757,-39.114098,15.171508,CSI
16775741937000,2.389847,3.7636080965179,4.47664176500245,8.12563663227072,-1.3686435,0.8335256,-0.11026118,157.54758,-38.620113,15.1578865,CSI
16775746984000,2.394894,3.58819229720451,4.18744282345267,8.36268523717509,-1.3567317,0.8304713,-0.04520403,157.4735,-38.13608,15.15627,CSI
16775751929000,2.399839,3.44209064821622,3.95390613124324,8.61665233081081,-1.3582588,0.8008443,0.011301007,157.39813,-37.653652,15.129096,CSI
16775757014000,2.404924,3.34118473281081,3.80912821016216,8.91936971054054,-1.3765849,0.75502944,0.06505715,157.31648,-37.172405,15.11711,CSI
16775762000000,2.40991,3.24543994911236,3.66358721683852,9.22724073381524,-1.3924674,0.7131852,0.11759156,157.20738,-36.625164,15.083711,CSI
16775766997000,2.414907,3.16913203539917,3.49570958356543,9.60369379515254,-1.3979651,0.70402217,0.1554652,157.09615,-36.081642,15.059243,CSI
16775771963000,2.419873,3.08777077045588,3.30754352176678,9.92089007679515,-1.4266758,0.70524395,0.20189096,156.96379,-35.47134,15.019752,CSI
16775776981000,2.424891,2.98904400133046,3.05367479206613,10.071330423694,-1.4419475,0.70738196,0.23304509,156.83223,-34.872116,14.984593,CSI
16775782396000,2.430306,2.85898842446756,2.85113268186279,10.2103908878202,-1.4453071,0.75961095,0.25900686,156.67043,-34.21392,14.918176,CSI
16775786993000,2.434903,2.69479814832663,2.84249114299735,10.2752032188635,-1.3759739,0.7809912,0.27152961,156.51465,-33.58258,14.85957,CSI
16775791968000,2.439878,2.53859801578116,2.83232611551452,10.3558576535651,-1.3353515,0.8533788,0.29077184,156.32191,-32.894802,14.760224,CSI
16775797001000,2.444911,2.48623771769702,2.81804588510764,10.4891382135098,-1.2626585,0.88606006,0.28619036,156.14098,-32.248707,14.661808,CSI
16775801978000,2.449888,2.41596881049774,2.79118120473605,10.6537588232278,-1.2238685,0.979217,0.30940324,155.9368,-31.608921,14.500553,CSI
16775806992000,2.454902,2.23731930986425,2.68978557082956,11.0110581269985,-1.1991285,0.97249746,0.3173445,155.75475,-30.998922,14.352022,CSI
16775812007000,2.459917,2.05459324834414,2.61368659507134,11.3575671661911,-1.1976013,0.91446525,0.30665436,155.57237,-30.38999,14.179178,CSI
16775817003000,2.464913,1.85187457603978,2.66746908586252,11.6471649609166,-1.1972959,0.8393288,0.3118467,155.39403,-29.797451,14.016419,CSI
16775821978000,2.469888,1.65000800383917,2.72102550933852,11.9355454710765,-1.169807,0.75869465,0.35369098,155.21558,-29.17735,13.82731,CSI
16775827010000,2.47492,1.72776579607648,2.69296147313136,11.970465982369,-1.1582005,0.6805039,0.40653083,155.04977,-28.565006,13.659432,CSI
16775832348000,2.480258,1.86486708351627,2.6472610086367,11.9577714309908,-1.1969905,0.59986967,0.46181414,154.88988,-27.955868,13.519126,CSI
16775837018000,2.484928,1.98481144701266,2.60727952321331,11.9466654821455,-1.2159272,0.5348125,0.5164866,154.73355,-27.353016,13.344605,CSI
16775842015000,2.489925,2.1131544843556,2.56449847767569,11.9347818790663,-1.2018774,0.5290093,0.54733527,154.57658,-26.760216,13.180909,CSI
16775846998000,2.494908,2.28902810385164,2.6318366589729,11.9514083202092,-1.1753048,0.59559363,0.5858198,154.40663,-26.17488,13.024197,CSI
16775852039000,2.499949,2.47726810470756,2.72366109874465,11.9743644061816,-1.1612549,0.675617,0.6356053,154.22874,-25.600334,12.871339,CSI
16775857023000,2.504933,2.5772207138902,2.8953746757416,12.0230027195593,-1.1713341,0.73456544,0.66614854,154.0451,-25.017183,12.758322,CSI
16775862036000,2.509946,2.64503576025049,3.09881986203032,12.0817755299934,-1.1936307,0.7122689,0.691194,153.8541,-24.44442,12.650769,CSI
16775867120000,2.51503,2.4882509378152,3.27521946227205,11.8619036941803,-1.2330315,0.6585127,0.70646566,153.66243,-23.88456,12.571089,CSI
16775872019000,2.519929,2.19760516373789,3.42668268435564,11.4771054321612,-1.2739595,0.5928447,0.7244862,153.47153,-23.328661,12.50264,CSI
16775876961000,2.524871,1.97817772937093,3.56603713015184,11.1757346117137,-1.3014483,0.54092115,0.72082096,153.30211,-22.808952,12.450566,CSI
16775881958000,2.529868,1.93146434255965,3.67503514110629,11.0771170281996,-1.3121386,0.4279111,0.7315111,153.14207,-22.29213,12.434118,CSI
16775886983000,2.534893,1.82802392362818,3.72267660521527,10.9799311891943,-1.3439035,0.301462,0.7312057,153.01917,-21.83902,12.386402,CSI
16775891981000,2.539891,1.65741467845418,3.69573831815027,10.885647559516,-1.3747523,0.1826487,0.7440339,152.90378,-21.390656,12.368872,CSI
16775896983000,2.544893,1.53375403023573,3.62882215082242,10.8315261875327,-1.3939945,0.04795292,0.7492262,152.81519,-20.968906,12.381728,CSI
16775902030000,2.54994,1.50843485188057,3.47690760944997,10.8619086516501,-1.3997977,-0.008246681,0.7556403,152.72853,-20.549843,12.405729,CSI
16775906947000,2.554857,1.54181415474438,3.37105663412815,10.8428994807183,-1.4049901,-0.06627888,0.7874053,152.65562,-20.13593,12.440014,CSI
16775912066000,2.559976,1.66207634724757,3.32295169685016,10.7515003912276,-1.3753631,-0.099265605,0.81153446,152.58714,-19.738281,12.481166,CSI
16775916991000,2.564901,1.82665246252974,3.22448357182791,10.6614274662966,-1.3744467,-0.16615535,0.82436264,152.51286,-19.31011,12.542353,CSI
16775921998000,2.569908,2.07382295796987,3.03910574988105,10.5663619674861,-1.3713925,-0.21594086,0.8509353,152.43024,-18.896471,12.609745,CSI
16775926937000,2.574847,2.26905557873361,2.87835430453122,10.4140641200822,-1.3775011,-0.26389378,0.88697636,152.34492,-18.48044,12.718227,CSI
16775931971000,2.579881,2.37757207521041,2.755683488853,10.1498500631239,-1.3912456,-0.3155119,0.89827734,152.26463,-18.070782,12.838563,CSI
16775936925000,2.584835,2.4870204003089,2.6311315412899,9.86338229907329,-1.3756685,-0.29810223,0.9049969,152.1654,-17.64057,13.000494,CSI
16775941976000,2.589886,2.60474799059253,2.4952920758682,9.51019952822241,-1.3903292,-0.2574797,0.8924741,152.07143,-17.206537,13.165206,CSI
16775947036000,2.594946,2.71929385483871,2.40059727899794,9.19052040494166,-1.4437801,-0.19914207,0.88789266,151.96906,-16.762947,13.348265,CSI
16775952001000,2.599911,2.81719816359447,2.48451512579665,9.02268451661928,-1.4752395,-0.15027285,0.88208944,151.86838,-16.329771,13.517542,CSI
16775957016000,2.604926,2.89628014569081,2.54931802002528,8.89252929125523,-1.4908166,-0.07941248,0.8943067,151.75792,-15.884057,13.700499,CSI
16775962003000,2.609913,2.85855236202702,2.49649923320167,8.99439385804566,-1.5008959,-0.05222898,0.86834496,151.66048,-15.4415045,13.874735,CSI
16775966933000,2.614843,2.82125579626353,2.44428415017774,9.09509414163836,-1.4932601,-0.055283304,0.8594874,151.5649,-15.026565,14.061546,CSI
16775971993000,2.619903,2.78557967239516,2.42584993441097,9.29383465669102,-1.5204436,-0.049785517,0.8552113,151.47401,-14.607599,14.233662,CSI
16775976990000,2.6249,2.75205080769693,2.43063982224002,9.55248629876889,-1.5485435,-0.048563786,0.8445212,151.3896,-14.198411,14.403571,CSI
16775981999000,2.629909,2.77238129508503,2.45073507645168,9.70202401856076,-1.5705346,-0.0580322,0.8258898,151.29977,-13.773003,14.556143,CSI
16775987012000,2.634922,2.82714015914558,2.48060343907092,9.78167322812111,-1.6096299,-0.061391957,0.8173377,151.21124,-13.342437,14.703697,CSI
16775992000000,2.63991,2.89842413469451,2.40541898547503,9.75930169027189,-1.6490307,-0.0693332,0.8081747,151.11559,-12.9029455,14.830566,CSI
16775997051000,2.644961,2.97843640273958,2.28039976443709,9.68929106016748,-1.7223345,-0.07422013,0.83169305,151.01454,-12.449289,14.956143,CSI
16776002095000,2.650005,3.01221199322423,2.11117029947111,9.6689070500948,-1.7806722,-0.042760566,0.8546005,150.9134,-11.998388,15.074959,CSI
16776006982000,2.654892,3.03089349071949,1.93369592696338,9.66423657818581,-1.8170186,-0.059253927,0.8723156,150.81216,-11.540123,15.206553,CSI
16776012012000,2.659922,3.04954092785755,1.76681539753015,9.7040777193184,-1.8228219,-0.057421334,0.8888089,150.69429,-11.057852,15.338508,CSI
16776017002000,2.664912,3.06784012630672,1.60669773354394,9.75897536243538,-1.8231273,-0.025961773,0.90194255,150.57349,-10.574688,15.464206,CSI
16776021993000,2.669903,2.99198155385607,1.47673959125227,9.82423585160351,-1.8500054,0.03756821,0.9300423,150.42882,-10.053772,15.582157,CSI
16776026993000,2.674903,2.86629564663072,1.36247971247017,9.8950768604801,-1.9083431,0.09193522,0.9468411,150.28462,-9.532987,15.690406,CSI
16776032005000,2.679915,2.74030809322802,1.247945609979,9.96608788777799,-1.9798143,0.13408493,0.9560041,150.1132,-8.972486,15.780396,CSI
16776037679000,2.685589,2.5976797257087,1.11828349953708,10.0464782646511,-2.037541,0.110872045,0.93554014,149.94876,-8.410577,15.869792,CSI
16776041948000,2.689858,2.40902911335994,1.03335423373242,10.0148953854998,-2.0912971,0.10170906,0.9111055,149.7797,-7.8388033,15.939749,CSI
16776047016000,2.694926,2.10003429948689,0.945728812303307,9.88115127964652,-2.1465805,0.09407325,0.89675015,149.61768,-7.2617555,16.012506,CSI
16776051968000,2.699878,1.82553659557744,0.872473708920322,9.72136748907789,-2.1798725,0.11759156,0.8720101,149.43184,-6.6400723,16.015865,CSI
16776057041000,2.704951,1.59501670518353,0.820280550354521,9.50389633567592,-2.221106,0.16890424,0.86406887,149.24796,-6.0121098,16.011263,CSI
16776062050000,2.70996,1.36666657647059,0.74473761,9.29119305882353,-2.2449298,0.21074851,0.81336707,149.0625,-5.3814487,15.943352,CSI
16776066984000,2.714894,1.137089131789,0.51925970460177,9.09441203114697,-2.2727242,0.25320363,0.7583892,148.88272,-4.7504487,15.859445,CSI
16776072001000,2.719911,0.903649723607496,0.289988798362832,8.89432074297241,-2.300213,0.27152961,0.72265357,148.69788,-4.118368,15.731485,CSI
16776077014000,2.724924,0.858700563754889,0.191180278681877,8.89709056910039,-2.3096814,0.3454443,0.7113526,148.52354,-3.4965806,15.574709,CSI
16776081973000,2.729883,0.854830668774446,0.121522122159387,8.94352947050196,-2.3307564,0.43218717,0.6988298,148.36372,-2.8774328,15.408424,CSI
16776086967000,2.734877,0.857928144974003,0.0915273848310225,8.96228327112219,-2.3689353,0.49418998,0.68019843,148.17473,-2.2112863,15.183981,CSI
16776092047000,2.739957,0.873737333882149,0.133685252733969,8.9306647832539,-2.415972,0.5009095,0.6740898,147.98985,-1.5473559,14.95143,CSI
16776097095000,2.745005,0.927581865511022,0.104129062736473,8.83072848677355,-2.4486532,0.47342056,0.6462954,147.81345,-0.87276584,14.707141,CSI
16776102025000,2.749935,1.01273679717435,0.0142433416042084,8.67461149078156,-2.473088,0.44898596,0.64599,147.63554,-0.19685154,14.46171,CSI
16776107478000,2.755388,0.991819002118183,-0.18133750325052,8.56182107443334,-2.4846945,0.41783184,0.6563747,147.46654,0.46605992,14.230325,CSI
16776112003000,2.759913,0.901743150885875,-0.404382416593091,8.50605961991488,-2.4685066,0.35643986,0.6536258,147.30577,1.1161453,14.01605,CSI
16776117009000,2.764919,0.857120882292388,-0.641566449965357,8.39651999227952,-2.4559836,0.25900686,0.64843345,147.14928,1.7790536,13.847833,CSI
16776122014000,2.769924,0.866609526061566,-0.869294049044838,8.23995707284965,-2.4113905,0.1908954,0.6719518,146.9885,2.4195995,13.689272,CSI
16776126983000,2.774893,0.850111302207506,-1.05392089239637,8.17969187662497,-2.36863,0.15027285,0.6835582,146.805,3.1006072,13.526626,CSI
16776136998000,2.784908,0.760716041501104,-1.33622175705175,8.26438188054942,-2.3289237,0.043982297,0.72112644,146.41069,4.462117,13.26428,CSI
16776142001000,2.789911,0.716058578763797,-1.47724534425803,8.30668882909002,-2.3209825,-0.027794369,0.7296785,146.20447,5.1428595,13.160473,CSI
16776146975000,2.794885,0.702774872051712,-1.59129328444686,8.31857634649166,-2.3057108,-0.121256754,0.7495316,145.97362,5.848762,13.059658,CSI
16776151984000,2.799894,0.735913265262015,-1.66703823264581,8.28543824987664,-2.2837198,-0.20861048,0.75777835,145.74397,6.5395927,12.976164,CSI
16776156906000,2.804816,0.806169085263591,-1.70716249310451,8.21163969828384,-2.2635612,-0.2932153,0.77518797,145.49207,7.2399797,12.902623,CSI
16776161960000,2.80987,0.945438752553694,-1.68726684118796,8.06242230890967,-2.240043,-0.40591997,0.7968737,145.23375,7.923227,12.859248,CSI
16776166886000,2.814796,1.11973474792696,-1.70167482518915,7.90819721860184,-2.1991148,-0.4447099,0.8042041,144.97409,8.602277,12.8248,CSI
16776171936000,2.819846,1.35391388996268,-1.76509835237567,7.73744170563906,-2.1700988,-0.50915617,0.8344419,144.69627,9.270373,12.82446,CSI
16776176870000,2.82478,1.53548625024192,-1.81615699514225,7.5971046533772,-2.1041253,-0.5766568,0.8686504,144.42583,9.907861,12.869925,CSI
16776181936000,2.829846,1.65755116237662,-1.85371539947745,7.48912394677763,-2.0357084,-0.65240407,0.915687,144.13924,10.529555,12.929697,CSI
16776186864000,2.834774,1.7739451822416,-1.90239358449113,7.35276375532653,-1.9608774,-0.7510588,0.9560041,143.85829,11.141024,13.071722,CSI
16776191932000,2.839842,1.88937936628679,-1.97453993696363,7.15556376206521,-1.8668042,-0.86254174,0.9972375,143.55739,11.72227,13.230623,CSI
16776196878000,2.844788,1.94041465948405,-2.13485990257974,6.95436073162684,-1.7666223,-0.9801333,1.0369438,143.24951,12.2864685,13.446792,CSI
16776201937000,2.849847,1.87259274740526,-2.4739694629737,6.73151737126287,-1.636508,-1.078788,1.063211,142.92578,12.810135,13.6806,CSI
16776206966000,2.854876,1.79361147827645,-2.81553784227796,6.51126052498586,-1.4975362,-1.1194105,1.07665,142.5964,13.321279,13.96031,CSI
16776211968000,2.859878,1.69424598896851,-3.16331696053177,6.29446301659438,-1.3368785,-1.105666,1.0726794,142.25871,13.78428,14.244282,CSI
16776216993000,2.864903,1.57192620998758,-3.49389422593902,6.1125295475485,-1.1612549,-1.0473285,1.0650436,141.88173,14.28654,14.504991,CSI
16776222016000,2.869926,1.37882860954793,-3.76515043608908,6.04356615311096,-0.98746365,-0.977079,1.0445796,141.50826,14.737895,14.752351,CSI
16776227017000,2.874927,1.20680108778401,-4.00298179702961,6.00368366983378,-0.8014552,-0.8689558,0.9987647,141.10841,15.225401,14.946123,CSI
16776232034000,2.879944,1.14536615373266,-4.0644166323891,6.1218279749582,-0.62858033,-0.7153232,0.9450085,140.72345,15.661415,15.10394,CSI
16776236984000,2.884894,1.09701864478603,-4.11467774241048,6.24884570993886,-0.49510628,-0.56321776,0.8912524,140.31389,16.121868,15.174196,CSI
16776242017000,2.889927,1.14332439864629,-4.08521042851528,6.45932638532751,-0.39522982,-0.4129449,0.8356637,139.93315,16.534956,15.20364,CSI
16776246974000,2.894884,1.18893091998253,-4.0561880810131,6.66662873142358,-0.3222314,-0.2724459,0.77549344,139.57108,16.917635,15.170918,CSI
16776252028000,2.899938,1.25956191735812,-4.07441194774951,6.83259060117417,-0.2593123,-0.1872302,0.7247916,139.23296,17.26734,15.115261,CSI
16776256964000,2.904874,1.33356757786693,-4.10216414892368,6.98522698317025,-0.2302962,-0.11636983,0.6649268,138.9289,17.596382,15.031287,CSI
16776262094000,2.910004,1.3159629250646,-4.17718390936196,7.11144421248261,-0.23426682,-0.086437434,0.59956425,138.6549,17.884758,14.939307,CSI
16776266982000,2.914892,1.27409221602067,-4.26092552176506,7.22309969568674,-0.25870144,-0.07238753,0.54519725,138.40324,18.162704,14.838202,CSI
16776272033000,2.919943,1.27811645925127,-4.51845772344718,7.03647949543066,-0.2666427,-0.040011674,0.5290093,138.17151,18.42448,14.736994,CSI
16776277039000,2.924949,1.29610917306249,-4.82433310672734,6.76209109124601,-0.28802297,-0.03268129,0.4810564,137.96599,18.685726,14.648243,CSI
16776282032000,2.929942,1.35558465286985,-5.00707515491108,6.47165691665319,-0.28313604,-0.04917465,0.43951756,137.75589,18.949162,14.538553,CSI
16776287034000,2.934944,1.43787584236055,-5.12325110347615,6.17153570355699,-0.27916542,-0.09590584,0.41447207,137.55577,19.211512,14.440148,CSI
16776292006000,2.939916,1.54674759827842,-5.28100873258138,5.78645876967448,-0.24098633,-0.20311269,0.40530908,137.33113,19.549505,14.380375,CSI
16776297090000,2.945,1.67199749913921,-5.46406613295736,5.34808436817058,-0.18967366,-0.32436943,0.3827071,137.11383,19.874254,14.34149,CSI
16776302027000,2.949937,1.70505398712753,-5.58711367783075,4.93050323438617,-0.13591751,-0.44073927,0.36132678,136.88222,20.228674,14.3655405,CSI
16776307067000,2.954977,1.69067166531585,-5.68299612359952,4.50862134404052,-0.05222898,-0.569021,0.33078352,136.64592,20.55338,14.426995,CSI
16776312099000,2.960009,1.68238465752535,-5.74242060892495,4.24151319756592,0.03940081,-0.6951646,0.30451632,136.38882,20.92652,14.571539,CSI
16776317049000,2.964959,1.67757683196755,-5.78088301257606,4.06362345111562,0.14844026,-0.7797695,0.2764165,136.12871,21.265217,14.738673,CSI
16776322023000,2.969933,1.67894851812542,-5.73983621093825,4.12640520015271,0.29229903,-0.8530733,0.2489276,135.84431,21.61865,14.954878,CSI
16776327057000,2.974967,1.68354998908084,-5.65700963764436,4.31506574956572,0.441961,-0.8906415,0.21594086,135.55885,21.935127,15.182705,CSI
16776332031000,2.979941,1.73457258575115,-5.50798539607225,4.61004548302752,0.57360244,-0.9111055,0.17562376,135.26479,22.235348,15.433371,CSI
16776337018000,2.984928,1.82129191192661,-5.30716185137615,4.98887218623853,0.68691796,-0.9239337,0.13897185,134.96957,22.495737,15.690097,CSI
16776342014000,2.989924,1.91518293853113,-5.06424512682278,5.3981489690793,0.76144356,-0.91965765,0.10323623,134.68936,22.690912,15.9374,CSI
16776347094000,2.995004,2.01874902559872,-4.76908155428419,5.84866132075572,0.80939645,-0.8741482,0.076358154,134.41525,22.859621,16.17577,CSI
16776352029000,2.999939,2.12624029407115,-4.48906181106719,6.31792903833992,0.829555,-0.79381937,0.062002823,134.17934,22.928783,16.405226,CSI
16776357077000,3.004987,2.2408894026087,-4.20721595913044,6.81951901913043,0.83260936,-0.68111473,0.042760566,133.95792,22.98737,16.613764,CSI
16776362692000,3.010602,2.35518248676354,-3.94006347889482,7.36100465679122,0.83016586,-0.59223384,0.03268129,133.77885,22.939304,16.81033,CSI
16776367078000,3.014988,2.43822699168644,-3.75321359212139,7.77622683454923,0.8072584,-0.56077427,0.03940081,133.60493,22.89747,16.989405,CSI
16776372026000,3.019936,2.47036662800115,-3.53551738511928,8.1700377468738,0.79198676,-0.528093,0.047647487,133.4893,22.741106,17.148611,CSI
16776377046000,3.024956,2.45186887444209,-3.30892035068296,8.50762130266449,0.7828238,-0.4877759,0.058337633,133.37431,22.593369,17.293583,CSI
16776382017000,3.029927,2.45112673809233,-3.10544729235708,8.76527287679609,0.77946407,-0.4089743,0.06780604,133.29834,22.356224,17.415648,CSI
16776387032000,3.034942,2.4707039427698,-2.92435857071232,8.93657297054927,0.7892379,-0.36743546,0.0580322,133.22351,22.122244,17.53526,CSI
16776391973000,3.039883,2.48958565725578,-2.81175322487557,9.04433370313263,0.79504114,-0.33658674,0.064751714,133.18219,21.81492,17.611027,CSI
16776397116000,3.045026,2.50881210551381,-2.76368682818386,9.09239994925344,0.8020661,-0.28619036,0.07422013,133.14828,21.510838,17.670107,CSI
16776401969000,3.049879,2.52274284436478,-2.75513765635217,9.07062831316318,0.8173377,-0.26511553,0.07452556,133.1332,21.154745,17.727047,CSI
16776407032000,3.054942,2.5320129597266,-2.79221806940063,8.96402169610936,0.83658,-0.22235495,0.084910266,133.1189,20.805473,17.761852,CSI
16776412026000,3.059936,2.57054792835,-2.79534175216725,8.90775113030549,0.88453287,-0.15210545,0.09865474,133.11122,20.4373,17.785374,CSI
16776417013000,3.064923,2.66092825916013,-2.73939212415067,8.93787805704244,0.9428705,-0.10720685,0.109650314,133.101,20.069876,17.80287,CSI
16776421969000,3.069879,2.74616693659306,-2.67602767476341,8.96912749842271,0.9990701,-0.07849618,0.12186762,133.08301,19.715971,17.81303,CSI
16776426990000,3.0749,2.80178599495268,-2.55973339520505,9.00957743470032,1.03786,-0.07422013,0.13194689,133.06242,19.359243,17.816814,CSI
16776432559000,3.080469,2.81809232951857,-2.38939810108279,9.03360517324671,1.0852021,-0.03756821,0.1432479,133.05078,18.973969,17.826916,CSI
16776436997000,3.084907,2.7508313085957,-2.18053504952524,9.01590492403798,1.1136073,-0.008246681,0.15210545,133.03375,18.592146,17.836592,CSI
16776441982000,3.089892,2.67528011677495,-1.94592885033317,8.99602305330668,1.1533136,0.04337143,0.17104226,133.01804,18.176046,17.840595,CSI
16776447114000,3.095024,2.55074882387533,-1.72391216622957,9.18689424682267,1.1670581,0.057421334,0.18600847,132.99675,17.768463,17.846004,CSI
16776451960000,3.09987,2.42435703950978,-1.51794025362114,9.40691017439984,1.1963795,0.029626964,0.2012801,132.96765,17.356266,17.847067,CSI
16776457017000,3.104927,2.23298076220633,-1.38572185679265,9.61352967926456,1.208597,0.032375857,0.21227567,132.95891,16.895113,17.823963,CSI
16776462048000,3.109958,2.03164900917448,-1.26939690518154,9.81486124542669,1.2162327,0.03604105,0.20616703,132.94467,16.436373,17.808529,CSI
16776467077000,3.114987,1.8364614064291,-1.29248932084109,10.0037060714552,1.1801916,-0.0021380284,0.19517145,132.94391,15.938224,17.764448,CSI
16776471973000,3.119883,1.64887431867324,-1.37101409106811,10.1825676836621,1.1508701,-0.07513642,0.17684549,132.94098,15.445341,17.731205,CSI
16776476993000,3.124903,1.58593928396947,-1.46870558530534,10.2303408721374,1.0952814,-0.10048734,0.13439035,132.96399,14.941842,17.638357,CSI
16776482005000,3.129915,1.63173978167939,-1.58066246376166,10.1641848102205,1.0824533,-0.06872234,0.08399397,132.9903,14.4429245,17.553686,CSI
16776486995000,3.134905,1.69141978028803,-1.63111147992799,10.1734158673867,1.078788,0.0012217305,0.04734206,133.0149,13.977579,17.407793,CSI
16776491972000,3.139882,1.75815578046805,-1.65017892988299,10.2210843678368,1.0852021,0.021991149,0.0076358155,133.0512,13.517965,17.274042,CSI
16776497011000,3.144921,1.88427941259711,-1.64742454788081,10.3249943778149,1.0937542,-0.030848695,-0.02076942,133.07594,13.091085,17.158249,CSI
16776502243000,3.150153,2.04688080412037,-1.63264256577835,10.462959372603,1.0974194,-0.12064589,-0.034208454,133.10484,12.67028,17.051949,CSI
16776507006000,3.154916,2.21194312780637,-1.63378821339813,10.5773959174767,1.0891727,-0.23487769,-0.052839845,133.1306,12.256967,16.983488,CSI
16776512073000,3.159983,2.39690852111683,-1.64303647823518,10.6929992279398,1.0800097,-0.30543262,-0.04734206,133.14865,11.852426,16.929167,CSI
16776517028000,3.164938,2.53679681414906,-1.65258251452749,10.7693499830758,1.0225884,-0.3417791,-0.036651913,133.16235,11.459,16.925886,CSI
16776521993000,3.169903,2.6417611834332,-1.66257916337643,10.8143345636497,0.9593639,-0.3659083,-0.03359759,133.17166,11.078402,16.93924,CSI
16776526983000,3.174893,2.71619549480734,-1.60854846464137,10.7012825831311,0.9049969,-0.35521814,-0.028710667,133.17413,10.714793,16.985952,CSI
16776532003000,3.179913,2.77218947034844,-1.51522499341939,10.4913054793749,0.86834496,-0.32467487,-0.024129177,133.174,10.372136,17.032679,CSI
16776536994000,3.184904,2.83219797033034,-1.39778414320962,10.2408213393148,0.82894415,-0.2678644,-0.022296581,133.16667,10.051963,17.086636,CSI
16776541975000,3.189885,2.89542462494902,-1.26160371493679,9.95873260195759,0.8228355,-0.22235495,-0.00580322,133.1531,9.7416935,17.13298,CSI
16776547000000,3.19491,2.96588987079198,-1.16733433506519,9.7325474697412,0.82436264,-0.1685988,0.003970624,133.1408,9.433139,17.187107,CSI
16776551999000,3.199909,3.04041718846079,-1.10212296858338,9.54622941875851,0.818254,-0.15821409,0.018020526,133.12079,9.136721,17.238419,CSI
16776556974000,3.204884,3.13610728110092,-1.08689906877064,9.45950242091743,0.8210029,-0.1591304,0.02321288,133.10446,8.823443,17.309324,CSI
16776562055000,3.209965,3.25217643311927,-1.11368423618349,9.45503859926606,0.8017606,-0.16126843,0.030543262,133.08209,8.52549,17.375435,CSI
16776567054000,3.214964,3.33860721322103,-1.15710984330952,9.43298998347372,0.7874053,-0.17195857,0.03756821,133.04567,8.221718,17.472921,CSI
16776572006000,3.219916,3.37905870152468,-1.22790000063973,9.38242562309415,0.786489,-0.1826487,0.03848451,133.00725,7.9255257,17.569084,CSI
16776577012000,3.224922,3.44163776583112,-1.28274799862381,9.33327891418461,0.768163,-0.19181168,0.043676864,132.95206,7.6489034,17.692099,CSI
16776582038000,3.229948,3.52680388670009,-1.32059961338838,9.28596396343261,0.75900006,-0.18692477,0.046731193,132.89589,7.3755465,17.811815,CSI
16776587027000,3.234937,3.54160970417279,-1.40590342831801,9.23023274669118,0.75716746,-0.20280726,0.043676864,132.82497,7.1241546,17.949472,CSI
16776591999000,3.239909,3.47596276130515,-1.54595009048713,9.16458589522059,0.77732605,-0.21594086,0.045814894,132.75064,6.8749843,18.082193,CSI
16776597051000,3.244961,3.43001100483994,-1.63661126612046,9.0868359032013,0.8231409,-0.22235495,0.025961773,132.66736,6.6297326,18.237513,CSI
16776602030000,3.24994,3.43518549069995,-1.60038986510038,8.98334618600109,0.84635377,-0.24648413,0.013133603,132.579,6.3907623,18.398367,CSI
16776606974000,3.254884,3.4237192924142,-1.52685707898329,8.935837076847,0.86315256,-0.23945917,0.0036651916,132.48111,6.1790457,18.538353,CSI
16776612113000,3.260023,3.38964687362279,-1.40030232978934,8.96017451884087,0.86742866,-0.2312125,0.004276057,132.38202,5.9684896,18.682404,CSI
16776616959000,3.264869,3.40009417738095,-1.29049471121032,8.95022137718254,0.8512407,-0.2602286,0.00061086525,132.2776,5.757118,18.841242,CSI
16776622038000,3.269948,3.47247597380952,-1.18916009543651,8.89231573849206,0.8200866,-0.29352075,-0.002443461,132.17189,5.5530596,18.996494,CSI
16776626941000,3.274851,3.5274149532277,-1.09915495824531,8.95854338116197,0.7669413,-0.29443705,-0.004581489,132.0809,5.33698,19.140652,CSI
16776632036000,3.279946,3.56082238583725,-1.01802281412363,9.22103006690141,0.6954701,-0.28802297,0.0027488936,131.98628,5.1393003,19.289406,CSI
16776636923000,3.284833,3.57706672588527,-0.899701111825904,9.36896420005727,0.6068946,-0.4016439,0.0036651916,131.89362,4.942789,19.49059,CSI
16776642016000,3.289926,3.56310047252076,-0.697190997069772,9.32008219175336,0.5708536,-0.46792278,-0.037873644,131.81274,4.7519765,19.674438,CSI
16776646961000,3.294871,3.54954007140403,-0.500565723661353,9.27262066984824,0.51068336,-0.47067168,-0.070249505,131.73697,4.574007,19.857635,CSI
16776652058000,3.299968,3.53556284905985,-0.297896559139067,9.22370027002004,0.43127087,-0.48197266,-0.10323623,131.67188,4.4107156,20.059221,CSI
16776656978000,3.304888,3.52195667387026,-0.0863739921068488,9.19646710243021,0.35888332,-0.50579643,-0.15454891,131.62173,4.260216,20.262371,CSI
16776662119000,3.310029,3.50712407832898,0.220166537741514,9.27557489817232,0.27947086,-0.5152648,-0.18906279,131.57663,4.134344,20.461006,CSI
16776667026000,3.314936,3.50548385544747,0.493680666994163,9.35977327042801,0.19639318,-0.54336464,-0.2144137,131.58617,3.9404926,20.673456,CSI
16776672033000,3.319943,3.56145792671206,0.684925209162451,9.48571490642023,0.15363261,-0.5522222,-0.2602286,131.61327,3.7552278,20.87986,CSI
16776676997000,3.324907,3.6303361861372,0.859151797111066,9.61470495202123,0.061086524,-0.5186246,-0.30207285,131.68462,3.5421076,21.071539,CSI
16776682036000,3.329946,3.80275486108616,0.918266787545937,9.77727082850143,0.004581489,-0.4382958,-0.33933565,131.76999,3.3307135,21.248438,CSI
16776687543000,3.335453,3.99302143609827,0.949924438777989,9.95706089112501,-0.03726278,-0.3203988,-0.36713,131.88922,3.0969238,21.40399,CSI
16776692023000,3.339933,4.15248734272505,0.891583256002176,10.1087477372858,-0.08979719,-0.21105394,-0.38423425,132.01775,2.8827727,21.535164,CSI
16776697437000,3.345347,4.34233098488284,0.818163664399093,10.2877720111489,-0.16065755,-0.10445796,-0.37232238,132.14464,2.6740172,21.652761,CSI
16776702030000,3.34994,4.43791711254724,0.689330118548753,10.3417992132464,-0.23793201,-0.029321533,-0.36071593,132.27678,2.4837904,21.744862,CSI
16776706989000,3.354899,4.5411201622071,0.550230280997732,10.4001316528723,-0.30604348,0.03390302,-0.32559118,132.37971,2.3297334,21.83264,CSI
16776712032000,3.359942,4.59030333742241,0.391814932141098,10.3623737659868,-0.3717115,0.077579886,-0.28099802,132.4753,2.2016044,21.901457,CSI
16776716991000,3.364901,4.627738583624,0.232714801079909,10.3062206279436,-0.45020768,0.09407325,-0.23732115,132.55917,2.101849,21.957354,CSI
16776722040000,3.36995,4.58299722552336,0.0726768690007219,10.1545901481902,-0.48655418,0.095294975,-0.2049453,132.61089,2.0444734,22.019188,CSI
16776727027000,3.374937,4.5189698952047,-0.0849291069031659,9.98220873579458,-0.5186246,0.076358154,-0.17745635,132.64992,2.0123389,22.079716,CSI
16776732018000,3.379928,4.43659811175947,-0.23703898948472,9.73352989704282,-0.5403103,0.059864793,-0.15149458,132.65964,2.0246658,22.148531,CSI
16776736926000,3.384836,4.35292163869054,-0.385797260911878,9.47785178488775,-0.535118,0.0143553335,-0.13927728,132.66481,2.039713,22.228891,CSI
16776742023000,3.389933,4.23211365135135,-0.557308344533566,9.15000885353095,-0.49754974,-0.040927973,-0.1337795,132.64655,2.0860562,22.315006,CSI
16776746983000,3.394893,4.10787384354354,-0.727562672461494,8.81870314782524,-0.43860126,-0.10598512,-0.1414153,132.62863,2.1241286,22.41493,CSI
16776752033000,3.399943,4.05396208905852,-0.891252226463104,8.49708887531807,-0.35430184,-0.16249016,-0.12980886,132.58759,2.1805737,22.528736,CSI
16776756934000,3.404844,4.02180797010178,-1.04742975254453,8.18932689185751,-0.25411993,-0.18753563,-0.12095132,132.55003,2.214843,22.649931,CSI
16776762071000,3.409981,4.02012797193856,-1.18110774101287,7.92699789269406,-0.20555615,-0.23884831,-0.10629055,132.4849,2.2803814,22.793844,CSI
16776766977000,3.414887,4.02987969066003,-1.29812846749689,7.69783280821918,-0.1133155,-0.26236662,-0.099571034,132.41988,2.3071282,22.934662,CSI
16776772009000,3.419919,4.04997553070984,-1.18917765957793,7.75345266122315,-0.033292156,-0.26206118,-0.08124508,132.32187,2.3618693,23.09944,CSI
16776778250000,3.42616,4.0779427509569,-0.985016572133733,7.91006917053484,0.01863139,-0.2611449,-0.11209377,132.23683,2.3943446,23.268803,CSI
16776781999000,3.429909,4.09474280042113,-0.862375982992841,8.00414949314492,0.081855945,-0.2565634,-0.119729586,132.13284,2.4318,23.453781,CSI
16776787109000,3.435019,4.1176417742174,-0.695213163438304,8.13238380857237,0.093767814,-0.22907446,-0.14905111,132.04521,2.4629338,23.6302,CSI
16776792056000,3.439966,3.84650982180319,-0.837615221938428,7.09534586538758,0.18051068,0.13041973,-0.20830505,131.97386,2.4536042,23.708397,CSI
16776797213000,3.445123,3.31435119534909,-1.24487962650027,5.02644297122595,0.59650993,0.6209445,-0.29352075,131.92151,2.348667,23.739626,CSI
16776802016000,3.449926,3.05001385748024,-1.40219932751223,4.70434128041965,1.0619892,0.8378017,-0.3436117,131.9239,2.1301672,23.734179,CSI
16776807050000,3.45496,2.85496165652051,-1.48838512096349,4.93568223651675,1.357648,0.8268061,-0.3744604,131.94785,1.8427534,23.655842,CSI
16776812045000,3.459955,2.95958661354219,-1.41563977119757,5.58633663506822,1.5158621,0.6951646,-0.38056904,131.90498,1.5569103,23.620556,CSI
16776817034000,3.464944,3.26378648944922,-1.23698279885801,6.51825052461849,1.5503759,0.4810564,-0.37018433,131.86267,1.228471,23.614985,CSI
16776822093000,3.470003,3.68491576325823,-1.02346434005392,7.67602920969575,1.464244,0.22876903,-0.31948254,131.8162,0.9214706,23.592993,CSI
16776827446000,3.475356,4.20318914124783,-0.776667434488735,9.03834796967071,1.2458596,-0.073303826,-0.25228736,131.75731,0.64826447,23.648241,CSI
16776832042000,3.479952,4.61656702023299,-0.435307273231147,10.1549031637033,0.9615019,-0.38453966,-0.17501289,131.70412,0.38488057,23.758831,CSI
16776837045000,3.484955,5.04252369788473,0.0347137180196199,11.3299558207644,0.65484756,-0.61208695,-0.09040806,131.62508,0.1983269,23.930908,CSI
16776841994000,3.489904,5.3137242362718,0.326828957956733,11.5504141256075,0.38637227,-0.71868294,-0.005192355,131.55357,0.034152653,24.139463,CSI
16776847086000,3.494996,5.48103018721052,0.498782532049938,11.0763796435719,0.18661933,-0.66737026,0.038789943,131.46782,-0.0590487,24.362728,CSI
16776851962000,3.499872,5.22342523765419,0.419709634156387,10.6388750716078,0.07941248,-0.5363397,0.058337633,131.42647,-0.19710344,24.567879,CSI
16776856920000,3.50483,4.50370327833995,0.0722575447773364,10.212005576521,0.018020526,-0.45723262,0.062002823,131.37682,-0.2877417,24.766834,CSI
16776861945000,3.509855,4.05725698109837,-0.134558456999289,9.93404093553954,-0.0015271631,-0.28527406,0.076052725,131.31262,-0.39481202,24.977566,CSI
16776866916000,3.514826,3.84462080347173,-0.221545915857273,9.78422919551315,-0.029626964,-0.1133155,0.06352998,131.25668,-0.48302647,25.158726,CSI
16776871922000,3.519832,3.7131174535545,-0.291366392837678,9.70952819135071,-0.05100725,0.04428773,0.044898596,131.18834,-0.49346334,25.189924,CSI
16776876927000,3.524837,3.64212828886256,-0.348157769066943,9.69059784626777,-0.046731193,0.17531833,0.023823744,131.12444,-0.5048071,25.178915,CSI
16776881915000,3.529825,3.58938890555944,-0.370862055069368,9.69268556472702,-0.0571159,0.26297748,0.016187929,131.05971,-0.48929,25.107836,CSI
16776886910000,3.53482,3.55119248605649,-0.366087515095319,9.71178362491267,-0.07788532,0.31673363,0.016187929,131.031993902463,-0.47921149956439,25.061334380733,CSI
16776891901000,3.539811,3.52610244623454,-0.289106786392875,9.66628486976744,-0.10476339,0.30176744,-0.00061086525,131.0043,-0.46914107,25.01487,CSI
16776896922000,3.544832,3.51182680661059,-0.151108837318159,9.56635529302326,-0.13408493,0.26328292,0.0070249503,130.94006,-0.43730116,24.908888,CSI
16776901979000,3.549889,3.47279967086864,-0.0339956346822034,9.44726616949153,-0.19303341,0.19456059,0.004886922,130.89246,-0.3915539,24.795067,CSI
16776906984000,3.554894,3.41279254533898,0.0629390980508475,9.31340362711864,-0.2134974,0.11911872,0.02107485,130.8369,-0.3458735,24.69673,CSI
16776911996000,3.559906,3.34190662175926,0.103094767174769,9.18248347685185,-0.21533,0.04886922,0.037873644,130.79756,-0.3198014,24.624783,CSI
16776917038000,3.564948,3.25807627172068,0.0774799499647955,9.05440947955247,-0.20250183,-0.02687807,0.039095376,130.75816,-0.2927372,24.577415,CSI
16776921927000,3.569837,3.17678976213349,0.0526424169740066,8.93022190065586,-0.17745635,-0.08032878,0.047647487,130.72029,-0.28772205,24.546108,CSI
16776926981000,3.574891,3.09275989519676,0.0269666362958623,8.80184308622685,-0.14874569,-0.13897185,0.056199603,130.6821,-0.28701773,24.538443,CSI
16776931934000,3.579844,3.00007965850155,-0.0358210879685476,8.65849056651957,-0.106901415,-0.1872302,0.06047566,130.64265,-0.29579115,24.543285,CSI
16776936993000,3.584903,2.88181134350765,-0.185930859632523,8.47199058614215,-0.0421497,-0.21380283,0.07360926,130.59781,-0.3158509,24.558586,CSI
16776941949000,3.589859,2.76499856535988,-0.325687693372129,8.33623037274119,-0.0106901415,-0.22510384,0.074830994,130.55038,-0.32808226,24.57278,CSI
16776947024000,3.594934,2.64094981446656,-0.434850565143441,8.41562161061766,0.016798794,-0.2501493,0.09193522,130.49408,-0.3523828,24.598167,CSI
16776951953000,3.599863,2.5453691954337,-0.523331492442189,8.48165796750902,0.032986723,-0.258396,0.0852157,130.42757,-0.35083652,24.613825,CSI
16776956995000,3.604905,2.53594662279247,-0.551599387468046,8.50992593140794,0.057421334,-0.24923302,0.090713486,130.35207,-0.35503635,24.63124,CSI
16776962035000,3.609945,2.54565560566111,-0.551147266025591,8.53901754827453,0.0571159,-0.23579398,0.086437434,130.27591,-0.3360566,24.618725,CSI
16776967056000,3.614966,2.63887994222567,-0.425294324053897,8.57164626075999,0.062308256,-0.21838433,0.092240654,130.19504,-0.32310635,24.60246,CSI
16776971969000,3.619879,2.72399966729138,-0.319174618555928,8.60206631998422,0.069027774,-0.19883664,0.10751228,130.11177,-0.30409595,24.577576,CSI
16776977116000,3.625026,2.76289637586309,-0.348347132215427,8.62151454734662,0.08735373,-0.17073683,0.116980694,130.02873,-0.28964904,24.545475,CSI
16776982020000,3.62993,2.80615340453714,-0.369295637575743,8.64314293495774,0.09162979,-0.12736541,0.11636983,129.95763,-0.30085242,24.520067,CSI
16776986995000,3.634905,2.90976448606237,-0.324554488623536,8.69494829130628,0.08857546,-0.07574729,0.11178834,129.88498,-0.3140118,24.484524,CSI
16776991976000,3.639886,3.01350052567588,-0.279759380496713,8.74681612647655,0.08124508,-0.036651913,0.11026118,129.80637,-0.32053477,24.446564,CSI
16776997016000,3.644926,3.11846531982405,-0.234433673819503,8.79929833672713,0.07086037,-0.005497787,0.109650314,129.72913,-0.32577357,24.396757,CSI
16777002138000,3.650048,3.2136967056262,-0.202105482433374,8.85249212698136,0.079107046,0.01038471,0.1151481,129.6575,-0.3332954,24.34042,CSI
16777007002000,3.654912,3.15689991064275,-0.348154716058178,8.90117533617837,0.070249505,0.0070249503,0.10293079,129.59187,-0.33579624,24.28166,CSI
16777012791000,3.660701,3.08930191595541,-0.521978526390002,8.95911676258492,0.05009095,0.0125227375,0.09437868,129.52824,-0.3567021,24.250366,CSI
16777016997000,3.664907,3.08893627905858,-0.543240262897115,8.94133911804139,0.03970624,0.015271631,0.073303826,129.47253,-0.38034868,24.221355,CSI
16777021930000,3.66984,3.09582088849704,-0.552419774098902,8.91150580248713,0.031154128,0.03023783,0.058337633,129.41768,-0.39917058,24.187847,CSI
16777026977000,3.674887,3.10286459898475,-0.561811420771398,8.88098304886816,0.05100725,0.04153884,0.05497787,129.35223,-0.38517344,24.135082,CSI
16777032002000,3.679912,3.1098776057612,-0.571162129019722,8.85059334470028,0.058643065,0.03940081,0.050396383,129.29224,-0.36804637,24.082876,CSI
16777036997000,3.684907,3.12166059349088,-0.580740608466945,8.8148640252623,0.07574729,0.013439035,0.043066,129.23502,-0.35911146,24.034678,CSI
16777041974000,3.689884,3.1362262653662,-0.590451076662932,8.77602192940817,0.08277224,-0.006414085,0.044898596,129.17668,-0.34925446,23.9864,CSI
16777047146000,3.695056,3.15104543783677,-0.600330554753775,8.73978840412514,0.10873401,-0.021685716,0.043676864,129.11191,-0.34588456,23.953617,CSI
16777051999000,3.699909,3.16480524696536,-0.609503792768183,8.70768235843284,0.13561209,-0.032070424,0.04062254,129.04749,-0.34474644,23.92574,CSI
16777057014000,3.704924,3.16839851663774,-0.608342142157203,8.71098599280932,0.14935656,-0.040927973,0.044593163,128.97946,-0.34414795,23.90837,CSI
16777062060000,3.70997,3.1660020857823,-0.601152774520208,8.7349505515993,0.14477506,-0.045814894,0.041233405,128.915,-0.34690398,23.893179,CSI
16777067065000,3.714975,3.1636251265212,-0.594021822276221,8.7587203924126,0.1740966,-0.04734206,0.03726278,128.8471,-0.3595922,23.885754,CSI
16777071977000,3.719887,3.16129233453509,-0.587023373240764,8.78204855586412,0.19058995,-0.047036625,0.030543262,128.78143,-0.36831534,23.87937,CSI
16777076976000,3.724886,3.1575698405322,-0.556420619229657,8.81372055977632,0.18509217,-0.049480084,0.0290161,128.71562,-0.37856165,23.87438,CSI
16777082663000,3.730573,3.15231885117624,-0.503910676322792,8.85572825530274,0.1731803,-0.046731193,0.013744468,128.6564,-0.39348263,23.867945,CSI
16777086955000,3.734865,3.14317888680008,-0.458054779102486,8.88077397796645,0.16768251,-0.042760566,0.01740966,128.5931,-0.4082234,23.8555,CSI
16777091967000,3.739877,3.12862488781079,-0.399838940181928,8.90503055852032,0.15424347,-0.038789943,0.016798794,128.53609,-0.4197325,23.842505,CSI
16777096955000,3.744865,3.13489884202212,-0.365779549415482,8.94687072827804,0.14294247,-0.04153884,0.007941248,128.48836,-0.4410706,23.82626,CSI
16777101998000,3.749908,3.15874155647709,-0.351473910783965,9.0040934421406,0.12095132,-0.04520403,-0.006414085,128.44264,-0.45643133,23.80951,CSI
16777107033000,3.754943,3.19975100349956,-0.332336700017498,9.05081423184602,0.105374254,-0.055283304,-0.017715093,128.406,-0.48373848,23.791348,CSI
16777112047000,3.759957,3.25576508947215,-0.308997487780694,9.08815676086322,0.09040806,-0.05467244,-0.025045475,128.37256,-0.5061748,23.771559,CSI
16777117029000,3.764939,3.29626482553383,-0.290028922839098,9.10069100300752,0.07788532,-0.06658431,-0.036957346,128.34605,-0.52969384,23.758396,CSI
16777122076000,3.769986,3.32049260118296,-0.27549233840401,9.08615463107769,0.06505715,-0.0711658,-0.04520403,128.3206,-0.54922897,23.743307,CSI
16777127043000,3.774953,3.36681136019067,-0.270474405170095,9.0548003471149,0.048258353,-0.07238753,-0.051618114,128.303172743894,-0.567782468331776,23.7426119647004,CSI
16777137062000,3.784972,3.50803227361097,-0.280103108230139,8.95530375106205,0.005497787,-0.077579886,-0.074830994,128.26802,-0.60520697,23.74121,CSI
16777142071000,3.789981,3.578635682666,-0.284916979238,8.90556041843118,0.006414085,-0.065973446,-0.1001819,128.26128,-0.623641,23.742857,CSI
16777147051000,3.794961,3.6488303277237,-0.289702979960529,8.85610507874226,-0.011301007,-0.051923547,-0.113926366,128.24716,-0.6312947,23.756744,CSI
16777152545000,3.800455,3.72626996225121,-0.294982957464459,8.80154531242683,-0.02107485,-0.03634648,-0.1301143,128.24156,-0.6442276,23.766521,CSI
16777156914000,3.804824,3.76927151190476,-0.299047200952381,8.77110109523809,-0.024129177,-0.0290161,-0.1337795,128.23618,-0.6542396,23.77446,CSI
16777161954000,3.809864,3.80119427380952,-0.303607581904762,8.74829919047619,-0.02107485,-0.025350908,-0.14874569,128.23918,-0.6663059,23.778809,CSI
16777166925000,3.814835,3.82646179540744,-0.302913952694574,8.73050406238569,-0.018325957,-0.0076358155,-0.15393804,128.23006,-0.67578936,23.82025,CSI
16777171923000,3.819833,3.84105177094087,-0.293187292182483,8.72077720890063,-0.02321288,0.0018325958,-0.16310102,128.2268,-0.68609506,23.862099,CSI
16777176949000,3.824859,3.85965033783756,-0.271665889254051,8.72075848517273,-0.015271631,0.009468411,-0.16218472,128.2135,-0.69901377,23.908401,CSI
16777181926000,3.829836,3.88393635312341,-0.232808239437481,8.73533039865485,-0.01863139,0.014049901,-0.17501289,128.20732,-0.71018964,23.951933,CSI
16777186878000,3.834788,3.90770124412658,-0.200748899645341,8.75356584412658,-0.021685716,0.020158553,-0.17989981,128.1986,-0.724489,23.995947,CSI
16777191946000,3.839856,3.93147670332125,-0.176973425555011,8.77734130332125,-0.023518313,0.0076358155,-0.18600847,128.19423,-0.73962754,24.043112,CSI
16777196886000,3.844796,3.92755185252386,-0.141094646403621,8.81683852868248,-0.027794369,-0.009468411,-0.19883664,128.19144,-0.76457864,24.095469,SIT
16777201937000,3.849847,3.87995526017908,-0.0839786918539801,8.88347365856539,-0.02565634,-0.008246681,-0.19486602,128.18512,-0.78905016,24.145224,SIT
16777206896000,3.854806,3.83635752660276,-0.032675328719293,8.93065349370881,-0.039095376,-0.019547688,-0.19456059,128.18643,-0.8150867,24.205143,SIT
16777212004000,3.859914,3.79727750095866,0.0112896154560615,8.94530826103455,-0.052839845,-0.043066,-0.19792034,128.18748,-0.84104764,24.267097,SIT
16777216897000,3.864807,3.75318285922901,0.0500199517098317,8.94929433469469,-0.06963864,-0.054367006,-0.18661933,128.19785,-0.8727876,24.311863,SIT
16777221915000,3.869825,3.69573923050105,0.0835287616265564,8.93493362745294,-0.07666359,-0.061086524,-0.18295415,128.21143,-0.9041709,24.361013,SIT
16777226950000,3.87486,3.64379954717557,0.11503865529771,8.92881515496183,-0.08002335,-0.059253927,-0.1731803,128.22765,-0.93878585,24.4009,SIT
16777231976000,3.879886,3.60246395832061,0.142595733717557,8.93800055362595,-0.09285152,-0.058948494,-0.16523905,128.243,-0.9682562,24.442286,SIT
16777236889000,3.884799,3.56139041934893,0.166391906477111,8.93995544465921,-0.098043874,-0.05375614,-0.15668693,128.26062,-1.0051385,24.471872,SIT
16777241933000,3.889843,3.51716362162767,0.181134143307223,8.92029923835198,-0.094989546,-0.058643065,-0.13744467,128.27208,-1.03798,24.503727,SIT
16777246913000,3.894823,3.47908732899838,0.190162075799677,8.89955972899839,-0.10170906,-0.05589417,-0.12980886,128.28902,-1.072725,24.521679,SIT
16777251905000,3.899815,3.45495193642973,0.185334997285945,8.87542433642973,-0.09254608,-0.061391957,-0.124005646,128.30022,-1.1096847,24.54307,SIT
16777256899000,3.904809,3.44162695499161,0.179827315520885,8.85143929001679,-0.093767814,-0.059253927,-0.11728613,128.3094,-1.1434956,24.554092,SIT
16777261954000,3.909864,3.4535778595043,0.172656767821665,8.82753748099141,-0.089186326,-0.054367006,-0.10934488,128.31604,-1.1797134,24.565662,SIT
16777266885000,3.914795,3.46523560631974,0.165662114863237,8.80422198736052,-0.08460484,-0.050701816,-0.108123146,128.3228,-1.2136668,24.573538,SIT
16777271910000,3.91982,3.47711558558309,0.158534122343241,8.78046202883381,-0.0693332,-0.043982297,-0.10720685,128.32681,-1.2501047,24.579021,SIT
16777276914000,3.924824,3.48835417002574,0.146039194167096,8.77835578024154,-0.06505715,-0.034513887,-0.1001819,128.32817,-1.2834085,24.582573,SIT
16777281889000,3.929799,3.4977868724609,0.117741064207682,8.83966864155613,-0.06261369,-0.0106901415,-0.098043874,128.33028,-1.3200302,24.579962,SIT
16777286911000,3.934821,3.5149458755304,0.0886652462320453,8.88399876721634,-0.06536258,-0.0125227375,-0.10262536,128.32318,-1.3530455,24.59173,SIT
16777291910000,3.93982,3.55736480821068,0.0580293652812208,8.86985909017967,-0.052839845,-0.026267206,-0.101098195,128.31317,-1.389108,24.600058,SIT
16777296905000,3.944815,3.59974979895644,0.0274179979378784,8.85573072714743,-0.024740042,-0.03023783,-0.09315695,128.29916,-1.4210049,24.602118,SIT
16777301917000,3.949827,3.64227904292395,-0.0032975522372631,8.84155427959636,-0.016187929,-0.03634648,-0.1020145,128.28987,-1.452375,24.608517,SIT
16777306909000,3.954819,3.68399544531345,-0.0303558323467043,8.82900327736343,0.0012217305,-0.029321533,-0.096516706,128.27327,-1.4900817,24.61236,SIT
16777311954000,3.959864,3.72295126551099,-0.0400947934976819,8.82413369814554,-0.003970624,-0.028405234,-0.096516706,128.26106,-1.5251622,24.61945,SIT
16777316922000,3.964832,3.7599822588216,-0.0508210558905415,8.81583345205029,-0.00061086525,-0.038179077,-0.084910266,128.22925,-1.5510112,24.647879,SIT
16777321928000,3.969838,3.79149944902621,-0.0665796213739831,8.79219553882817,0.0030543262,-0.0421497,-0.07696902,128.19846,-1.575551,24.673908,SIT
16777326866000,3.974776,3.8225885191881,-0.0821241272383926,8.7688787159175,0.0027488936,-0.03481932,-0.07971791,128.16895,-1.5976874,24.707272,SIT
16777331910000,3.97982,3.85605261623364,-0.104284000994965,8.77001524149043,0.0033597588,-0.019547688,-0.080634214,128.13629,-1.6194228,24.73893,SIT
16777336854000,3.984764,3.88942964487412,-0.128124755653575,8.77955173454179,-0.014966198,-0.012217305,-0.08582657,128.10582,-1.6365772,24.770096,SIT
16777341900000,3.98981,3.95088322116204,-0.115102848022035,8.7629595638707,-0.0036651916,-0.019547688,-0.074830994,128.0652,-1.6554643,24.811222,SIT
16777346863000,3.994773,4.02004601272217,-0.0904018304022451,8.73825856688494,0.005497787,-0.027488936,-0.073303826,128.0292,-1.6705346,24.849642,SIT
16777351948000,3.999858,4.03935191758934,-0.0786748600009258,8.71901528633586,-0.0030543262,-0.02443461,-0.07727446,127.99442,-1.6769902,24.890656,SIT
16777356925000,4.004835,4.04817680851694,-0.0698498723162377,8.70136541233105,-0.0070249503,-0.021685716,-0.071776666,127.95633,-1.685488,24.933346,SIT
16777361964000,4.009874,4.06166668986116,-0.0563599887558928,8.66370793041653,-0.007941248,-0.0021380284,-0.06505715,127.92046,-1.6975564,24.984379,SIT
16777366931000,4.014841,4.07702611225918,-0.0410006075223334,8.61762966322247,-0.015577064,0.020463986,-0.06505715,127.885,-1.7067734,25.032726,SIT
16777371940000,4.01985,4.08103218999967,-0.0186168623385008,8.6187383162907,-0.022907447,0.025961773,-0.059864793,127.8533,-1.7162997,25.08259,SIT
16777376945000,4.024855,4.08261991678757,0.00519905721945079,8.62985238722714,-0.029932396,0.022296581,-0.050396383,127.82017,-1.7232174,25.127848,SIT
16777381949000,4.029859,4.08420732634734,0.0290102183519163,8.64096423756997,-0.024129177,0.028405234,-0.044898596,127.78725,-1.7347856,25.17499,SIT
16777386956000,4.034866,4.08579568759151,0.0528356547608401,8.6520827496936,-0.03481932,0.028099801,-0.038179077,127.75118,-1.738806,25.224241,SIT
16777391933000,4.039843,4.08737453199179,0.0765183384051807,8.66313464400941,-0.045814894,0.024740042,-0.031154128,127.72375,-1.7435802,25.271276,SIT
16777396958000,4.044868,4.08896860334228,0.100429426472854,8.67429312681771,-0.03940081,0.022296581,-0.020463986,127.693146,-1.7487317,25.317421,SIT
16777402012000,4.049922,4.06622167343777,0.0954557306295155,8.69306890070193,-0.039095376,0.020463986,-0.016493361,127.66264,-1.7493919,25.36354,SIT
16777407545000,4.055455,4.03447039048108,0.0818480053206643,8.71574842235919,-0.04734206,0.02076942,-0.016493361,127.63019,-1.7486438,25.408997,SIT
16777411998000,4.059908,4.01988121751201,0.0623489491414842,8.74586919273892,-0.039095376,0.012217305,-0.014660766,127.61237,-1.767415,25.454777,SIT
16777416999000,4.064909,4.01476711427656,0.031664308368393,8.79189601505606,-0.028710667,0.004581489,-0.005497787,127.59225,-1.7834233,25.499483,SIT
16777421995000,4.069905,3.99009263108984,0.0106825944669459,8.81913319024828,-0.0143553335,0.00061086525,0.00030543262,127.57364,-1.7985924,25.534931,SIT
16777426981000,4.074891,3.95200315074285,-0.00360097110349985,8.83341704367335,-0.022907447,0.004886922,-0.0027488936,127.554955,-1.8102237,25.569544,SIT
16777432005000,4.079915,3.91938415001482,-0.00679622997005633,8.84217334272161,-0.0012217305,0.015271631,0.0027488936,127.53326,-1.8254405,25.598604,SIT
16777436995000,4.084905,3.89104840616662,-0.00207360254343315,8.84689557219093,-0.0033597588,0.025350908,0.0067195175,127.513016,-1.8326916,25.625921,SIT
16777442002000,4.089912,3.86267906160055,-0.00663655055182597,8.84631446471109,0.004276057,0.03176499,0.016493361,127.488716,-1.8430996,25.641842,SIT
16777447043000,4.094953,3.83416637364898,-0.0185168244622502,8.84156250718575,0.0070249503,0.04184427,0.02321288,127.46403,-1.8514212,25.65359,SIT
16777451994000,4.099904,3.8061627398366,-0.0301849927087312,8.83689538921154,0.014660766,0.04428773,0.03023783,127.43821,-1.8625224,25.659355,SIT
16777456995000,4.104905,3.77787629816911,-0.0419709974351806,8.83218113815336,0.015271631,0.04886922,0.03145956,127.41202,-1.8722295,25.661604,SIT
16777462035000,4.109945,3.7373175465981,-0.0622662913243671,8.84659513835047,0.016187929,0.044898596,0.030848695,127.384346,-1.8831501,25.66564,SIT
16777467075000,4.114985,3.68481183140823,-0.090905796261076,8.88000756714794,0.027794369,0.043676864,0.03573562,127.35456,-1.8959634,25.667656,SIT
16777471994000,4.119904,3.64439295099278,-0.104610813843218,8.89171459147757,0.027183503,0.046731193,0.029626964,127.33846,-1.9032687,25.659897,SIT
16777476955000,4.124865,3.61529610392599,-0.103079399964415,8.88099480818076,0.035430185,0.042760566,0.033292156,127.317894,-1.9138862,25.654818,SIT
16777481997000,4.129907,3.5857241823556,-0.101522982150077,8.87009999919417,0.04520403,0.04428773,0.03970624,127.29642,-1.9184002,25.633657,SIT
16777486995000,4.134905,3.55641032594765,-0.0999801467204745,8.85930026589092,0.03970624,0.028099801,0.03481932,127.277756,-1.9219948,25.619032,SIT
