timestamp,rel_time,acc_x,acc_y,acc_z,gyro_x,gyro_y,gyro_z,azimuth,pitch,roll,label
4612701284000,0,-1.28999963949734,-9.4970613975082,1.11072761401538,-0.035124753,0.063224554,0.0009162979,88.94734,-53.183216,-6.3213296,STD
4612706271000,0.004987,-1.29620788053956,-9.49586750547956,1.11430929259459,-0.038789943,0.06536258,-0.004581489,89.06587,-52.456043,-6.443412,STD
4612711290000,0.010006,-1.30245595789887,-9.49466595262379,1.11791395367121,-0.033292156,0.0711658,-0.0027488936,89.18422,-51.72568,-6.562369,STD
4612716283000,0.014999,-1.30867166825054,-9.49347062419006,1.12149994146868,-0.03176499,0.07269296,-0.00030543262,89.30659,-50.983868,-6.6807513,STD
4612721261000,0.019977,-1.31486870532857,-9.49227888676906,1.1250751562205,-0.03481932,0.071776666,0.00030543262,89.430885,-50.233303,-6.798302,STD
4612726302000,0.025018,-1.32114417015589,-9.49107206709463,1.12869561776408,-0.038179077,0.06688975,-0.009162978,89.559814,-49.473682,-6.915553,STD
4612731287000,0.030003,-1.32734992142829,-9.48987865386769,1.13227585993721,-0.021685716,0.06719518,-0.0030543262,89.68742,-48.71067,-7.028418,STD
4612736296000,0.035012,-1.33358554993851,-9.4886794950204,1.13587333898338,-0.024740042,0.06719518,-0.003970624,89.82189,-47.93137,-7.142199,STD
4612741322000,0.040038,-1.33984234149218,-9.48747626635869,1.1394830274813,-0.02076942,0.06505715,-0.0067195175,89.9585,-47.150055,-7.252836,STD
4612746291000,0.045007,-1.34602817460603,-9.48628668354532,1.14305177840573,-0.010995574,0.0580322,-0.00580322,90.09815,-46.3608,-7.359964,STD
4612751294000,0.05001,-1.3522563338068,-9.48508896110311,1.14664494823364,-0.023518313,0.06352998,-0.0076358155,90.23918,-45.557323,-7.4681797,STD
4612756270000,0.054986,-1.35845088111501,-9.4838977024838,1.15021872657937,-0.019547688,0.056199603,-0.0076358155,90.38622,-44.75268,-7.5696826,STD
4612761289000,0.060005,-1.36469895847432,-9.48269614962803,1.15382338765599,-0.015577064,0.06078109,-0.009162978,90.53274,-43.93566,-7.6730256,STD
4612766285000,0.065001,-1.37091840348072,-9.48150010299176,1.15741153006259,-0.013439035,0.058337633,-0.009468411,90.684204,-43.110714,-7.7707314,STD
4612771251000,0.069967,-1.37710050193984,-9.48031123838093,1.16097812637789,-0.01863139,0.05222898,-0.013133603,90.838745,-42.27606,-7.866963,STD
4612776303000,0.075019,-1.38338966050116,-9.47910178529717,1.16460648815495,-0.02076942,0.047036625,-0.0106901415,90.994514,-41.434742,-7.9590225,STD
4612781285000,0.080001,-1.38959167711883,-9.47790909027278,1.16818457571894,-0.007941248,0.060170226,-0.009773844,91.15112,-40.587574,-8.051888,STD
4612786299000,0.085015,-1.3958335300536,-9.47670873442125,1.17178564578034,-0.015882496,0.05589417,-0.014049901,91.31463,-39.72557,-8.137433,STD
4612791333000,0.090049,-1.40210028068655,-9.47550359055275,1.17540107990261,-0.012217305,0.053145275,-0.013744468,91.47607,-38.862625,-8.222052,STD
4612796382000,0.095098,-1.40838570459313,-9.47429485567154,1.17902728707053,-0.01863139,0.057726767,-0.008857546,91.638725,-37.98662,-8.304168,STD
4612801287000,0.100003,-1.41449186507279,-9.47312059451244,1.18255007300016,-0.020158553,0.063224554,-0.008246681,91.80435,-37.104935,-8.38334,STD
4612806264000,0.10498,-1.42068765726592,-9.47192909649228,1.18612456954894,-0.021685716,0.06078109,-0.007330383,91.97102,-36.213966,-8.457343,STD
4612811289000,0.110005,-1.42694320393469,-9.47072610723142,1.18973353984381,-0.027794369,0.06841691,-0.009773844,92.13718,-35.313503,-8.532012,STD
4612816284000,0.115,-1.43316140405618,-9.469530299996,1.19332096404738,-0.025961773,0.07544186,-0.010995574,92.304855,-34.40749,-8.601964,STD
4612821271000,0.119987,-1.43936964509839,-9.46833640796736,1.19690264262659,-0.027488936,0.08307768,-0.004276057,92.47122,-33.491768,-8.669336,STD
4612826388000,0.125104,-1.44573972117881,-9.46711139382849,1.20057768760149,-0.029932396,0.0852157,-0.005497787,92.64087,-32.56866,-8.734815,STD
4612831303000,0.130019,-1.45185833050756,-9.46593473866091,1.20410765556156,-0.028710667,0.07788532,-0.016798794,92.812805,-31.639,-8.796461,STD
4612836275000,0.134991,-1.45804789827614,-9.46474443764499,1.20767856109511,-0.014966198,0.083383106,-0.0076358155,92.97878,-30.706356,-8.854908,STD
4612841327000,0.140043,-1.46433705683745,-9.46353498456124,1.21130692287217,-0.017104227,0.08582657,-0.004276057,93.15149,-29.762089,-8.909444,STD
4612846380000,0.145096,-1.47062746028368,-9.46232529207663,1.21493600285227,-0.018325957,0.083383106,-0.0036651916,93.323265,-28.815893,-8.95913,STD
4612851287000,0.150003,-1.47673611053316,-9.46115055211583,1.21846022518798,-0.0106901415,0.08277224,-0.01282817,93.49674,-27.865084,-9.006621,STD
4612856268000,0.154984,-1.48293688226592,-9.45995809649228,1.22203759454894,-0.015271631,0.086437434,-0.002443461,93.66525,-26.905544,-9.047697,STD
4612861293000,0.160009,-1.48919242893469,-9.45875510723142,1.22564656484381,-0.007330383,0.08552113,-0.0070249503,93.84099,-25.944738,-9.086447,STD
4612866984000,0.1657,-1.49627706895298,-9.45739267700584,1.22973385836583,-0.013744468,0.0842994,-0.007330383,94.01265,-24.973824,-9.119868,STD
4612871251000,0.169967,-1.50158899286057,-9.45637115358771,1.23279843075354,0.0018325958,0.0852157,-0.0018325958,94.18381,-24.006153,-9.149199,STD
4612876292000,0.175008,-1.50786445768788,-9.45516433391329,1.23641889229712,-0.006414085,0.089186326,-0.0012217305,94.35594,-23.024677,-9.175317,STD
4612881285000,0.180001,-1.51408016803956,-9.45396900547956,1.24000488009459,-0.012217305,0.09010262,0.0027488936,94.52563,-22.043972,-9.195547,STD
4612886294000,0.18501,-1.52031579654978,-9.45276984663227,1.24360235914077,-0.01863139,0.090713486,0.00030543262,94.69593,-21.055986,-9.213032,STD
4612891288000,0.190004,-1.52520494603227,-9.45010950559763,1.24263878743826,-0.01160644,0.09010262,-0.002443461,94.864586,-20.066097,-9.225667,STD
4612896293000,0.195009,-1.52927017701679,-9.4465225165185,1.23881268989134,-0.017715093,0.0983493,-0.0027488936,95.0315,-19.066713,-9.236489,STD
4612901283000,0.199999,-1.53332322449187,-9.44294627765638,1.23499805917023,-0.016493361,0.10323623,-0.0009162979,95.170784,-18.06715,-9.308641,STD
4612906268000,0.204984,-1.53737221079714,-9.43937362219994,1.2311872507244,-0.022907447,0.0983493,0.0021380284,95.31097,-17.060524,-9.375519,STD
4612911286000,0.210002,-1.54144800082318,-9.43577731626605,1.22735121526177,-0.021685716,0.1133155,-0.0021380284,95.451515,-16.053192,-9.444781,STD
4612916294000,0.21501,-1.54551566850959,-9.43218817714351,1.22352282434969,-0.01038471,0.106595986,-0.0036651916,95.59333,-15.044547,-9.501401,STD
4612921261000,0.219977,-1.54955003460353,-9.4286284219475,1.21972577609483,-0.013133603,0.11453723,-0.0070249503,95.73514,-14.029655,-9.561786,STD
4612926353000,0.225069,-1.55368592994283,-9.42497908160964,1.21583317095818,-0.014966198,0.11789699,-0.0076358155,95.877815,-13.016268,-9.614105,STD
4612931282000,0.229998,-1.55768943114617,-9.42144656029674,1.21206517199539,-0.01038471,0.11148291,-0.007330383,96.02145,-12.002099,-9.6612015,STD
4612937091000,0.235807,-1.5624076982369,-9.41728335958532,1.20762445258479,-0.014660766,0.10567969,-0.0067195175,96.164856,-10.98352,-9.704549,STD
4612941316000,0.240032,-1.56583938673033,-9.41425538179124,1.20439462998024,-0.0021380284,0.11148291,-0.011301007,96.30914,-9.969675,-9.744787,STD
4612946291000,0.245007,-1.56988025069596,-9.41068989314615,1.20059146608495,-0.011911872,0.10476339,-0.0033597588,96.4501,-8.948238,-9.774437,STD
4612951284000,0.25,-1.57393573487293,-9.40711150424063,1.19677454199868,-0.002443461,0.1001819,-0.006414085,96.59444,-7.934583,-9.802317,STD
4612956266000,0.254982,-1.57798228447631,-9.40354099882759,1.19296602691801,-0.012217305,0.09162979,-0.010995574,96.736435,-6.9129558,-9.822177,STD
4612961286000,0.260002,-1.58205969897028,-9.39994325953143,1.18912846254527,-0.012217305,0.08857546,-0.007330383,96.8062635106808,-6.40526342667199,-9.83019256398483,STD
4612966284000,0.265,-1.58611924431706,-9.39636128722024,1.18530771618373,-0.0030543262,0.090713486,-0.007941248,96.875786,-5.899796,-9.838173,STD
4612971275000,0.269991,-1.5901731040261,-9.39278433167699,1.18149232100757,-0.008857546,0.08582657,-0.007941248,97.01631,-4.8798275,-9.846359,STD
4612976347000,0.275063,-1.59429275468614,-9.38914932496184,1.17761500497201,0.002443461,0.08674286,-0.0021380284,97.152504,-3.8685718,-9.851336,STD
4612981281000,0.279997,-1.5983003170593,-9.38561322024326,1.17384318373395,0.002443461,0.07666359,-0.011301007,97.2220687312261,-3.36412945435877,-9.8493676647876,STD
4612986281000,0.284997,-1.60236148687401,-9.3820298145698,1.1700209084623,0.0030543262,0.07513642,-0.014966198,97.292564,-2.8529394,-9.847373,STD
4612991324000,0.29004,-1.60645758274912,-9.37841559160755,1.16616576162331,-0.0015271631,0.086437434,-0.01740966,97.42557,-1.8413222,-9.8457365,STD
4612996290000,0.295006,-1.61049113660909,-9.37485655309266,1.16236947782351,-0.004886922,0.07819075,-0.022296581,97.56111,-0.83128923,-9.8312845,STD
4613001287000,0.300003,-1.61454986972191,-9.37127529746261,1.15854949591702,-0.0106901415,0.086132,-0.016798794,97.69185,0.178211,-9.820678,STD
4613006867000,0.305583,-1.61908213523513,-9.36727621673102,1.15428383671386,-0.013439035,0.0870483,-0.025350908,97.825615,1.1862789,-9.801805,STD
4613011294000,0.31001,-1.62267789498907,-9.36410346934774,1.15089959418834,-0.007941248,0.08582657,-0.027488936,97.95328,2.1903267,-9.780822,STD
4613016286000,0.315002,-1.62673256693208,-9.36052579712336,1.14708343455713,-0.009162978,0.093462385,-0.024129177,98.07924,3.19414,-9.758967,STD
4613021260000,0.319976,-1.63077261866375,-9.3569610251594,1.14328103511689,-0.016187929,0.0983493,-0.013744468,98.200905,4.19445,-9.732589,STD
4613026311000,0.325027,-1.63487521241057,-9.35334106874807,1.13941977263747,-0.023823744,0.093462385,-0.024740042,98.32481,5.192508,-9.701778,STD
4613031291000,0.330007,-1.63892013754602,-9.3497719966973,1.13561278646691,-0.01740966,0.093767814,-0.018936822,98.43807,6.183329,-9.671237,STD
4613036287000,0.335003,-1.64297805842488,-9.34619145774838,1.13179356901548,-0.022602014,0.10262536,-0.021991149,98.554146,7.176308,-9.638037,STD
4613041308000,0.340024,-1.64705628515281,-9.34259300177109,1.12795524018769,-0.021380283,0.10354166,-0.015577064,98.66241,8.160428,-9.600247,STD
4613046291000,0.345007,-1.65110364699015,-9.33902177967691,1.12414596065196,-0.033292156,0.10293079,-0.008857546,98.76849,9.14507,-9.56164,STD
4613051281000,0.349997,-1.65515669446523,-9.3354455408148,1.12033132993085,-0.027183503,0.094989546,-0.01160644,98.87187,10.119384,-9.518386,STD
4613056279000,0.354995,-1.65921623981202,-9.33186356850361,1.11651058356931,-0.01863139,0.09162979,-0.004276057,98.96732,11.090244,-9.4746,STD
4613061273000,0.359989,-1.66327253622295,-9.32828446291695,1.11269289502799,-0.027488936,0.08399397,0.003970624,99.05917,12.058825,-9.425057,STD
4613066286000,0.365002,-1.66734426507918,-9.32469174038874,1.10886068184063,-0.03573562,0.090713486,0.011911872,99.14628,13.018693,-9.376955,STD
4613071287000,0.370003,-1.67140624712785,-9.32110761803414,1.10503764211393,-0.043982297,0.116980694,0.024740042,99.22714,13.974398,-9.331179,STD
4613076631000,0.375347,-1.67574682542581,-9.31727767405035,1.10095239430359,-0.049480084,0.12583824,0.02107485,99.306305,14.925788,-9.280073,STD
4613081307000,0.380023,-1.67954483143653,-9.31392647306453,1.09737780246954,-0.04337143,0.13194689,0.018936822,99.37995,15.869026,-9.234776,STD
4613086324000,0.38504,-1.68361980922861,-9.31033088381177,1.09354253146197,-0.053145275,0.13133603,0.020158553,99.45065,16.811577,-9.188434,STD
4613091302000,0.390018,-1.6722266920243,-9.31055477017822,1.09188258379736,-0.06291912,0.1337795,0.021685716,99.51948,17.745552,-9.142954,STD
4613096290000,0.395006,-1.64712368400356,-9.31414093664887,1.0921216598978,-0.06078109,0.13561209,0.02107485,99.58532,18.671812,-9.095668,STD
4613101285000,0.400001,-1.62198544722257,-9.31773213583108,1.09236107151001,-0.07147124,0.13775012,0.022907447,99.654976,19.584732,-9.120679,STD
4613106264000,0.40498,-1.59692773332216,-9.32131183167256,1.09259971623817,-0.07880162,0.1441642,0.029321533,99.722694,20.489195,-9.144469,STD
4613111289000,0.410005,-1.57163851614008,-9.32492459961863,1.09284056575796,-0.087964594,0.1695151,0.031154128,99.7919,21.3904,-9.170463,STD
4613116283000,0.414999,-1.54650531203912,-9.32851507984205,1.09307992943991,-0.10629055,0.19058995,0.02687807,99.85982,22.289099,-9.193918,STD
4613121257000,0.419973,-1.52147276153889,-9.33209118088956,1.09331833451681,-0.1160644,0.2171626,0.027183503,99.928085,23.180298,-9.223116,STD
4613126357000,0.425073,-1.49580609335409,-9.33575787074527,1.09356277880555,-0.13591751,0.22540927,0.022602014,99.99777,24.072374,-9.248877,STD
4613131306000,0.430022,-1.47089935985476,-9.3393159978229,1.09379998562613,-0.14935656,0.22540927,0.019242255,100.0678,24.957539,-9.276466,STD
4613136306000,0.435022,-1.44573595967359,-9.34291079179908,1.0940396368896,-0.15577064,0.22724187,0.0070249503,100.14124,25.839005,-9.301912,STD
4613141306000,0.440022,-1.42057255949241,-9.34650558577527,1.09427928815307,-0.15699236,0.22937989,-0.0015271631,100.21317,26.714592,-9.324446,STD
4613146281000,0.444997,-1.39553497631214,-9.35008240578158,1.09451774116022,-0.1591304,0.24098633,-0.004581489,100.28684,27.584232,-9.3461075,STD
4613151285000,0.450001,-1.37035144541082,-9.35368007559295,1.0947575841447,-0.15577064,0.24984388,-0.0125227375,100.36231,28.44488,-9.363005,STD
4613156270000,0.454986,-1.34526353543019,-9.35726408518721,1.09499651645438,-0.13591751,0.24801129,-0.013744468,100.43533,29.29266,-9.377923,STD
4613161289000,0.460005,-1.32000451432833,-9.3608725393805,1.09523707839265,-0.108123146,0.25900686,-0.010079277,100.5106,30.128674,-9.395184,STD
4613166280000,0.464996,-1.29488640826748,-9.36446086272753,1.09547629828384,-0.1001819,0.26908615,-0.0036651916,100.58353,30.95583,-9.409485,STD
4613171306000,0.470022,-1.26959215840536,-9.36807434963239,1.09571719573388,-0.06963864,0.2828306,-0.0036651916,100.621608909915,31.3530192353637,-9.41954789808792,STD
4613176426000,0.475142,-1.24382483661984,-9.37175541866401,1.09596259862768,-0.061086524,0.3032946,-0.0015271631,100.6604,31.757637,-9.429799,STD
4613181354000,0.48007,-1.21902378940127,-9.37529844760694,1.09619879891295,-0.052534413,0.31031954,0.007330383,100.729935,32.556217,-9.445554,STD
4613186279000,0.484995,-1.19423784022282,-9.37883931967349,1.09643485540747,-0.038789943,0.29779682,0.009162978,100.801445,33.333805,-9.461696,STD
4613192162000,0.490878,-1.16463058356964,-9.38306895426587,1.09671682908407,-0.03481932,0.29779682,0.0009162979,100.87497,34.10297,-9.47989,CSI
4613196325000,0.495041,-1.1436795365788,-9.38606197973044,1.09691636272603,-0.03359759,0.28955013,-0.0036651916,100.94228,34.85988,-9.491843,CSI
4613201285000,0.500001,-1.11871744359907,-9.38962801535482,1.09715409677939,-0.031154128,0.2837469,-0.008857546,101.0106,35.606953,-9.50085,CSI
4613206276000,0.504992,-1.09359933753822,-9.39321633870185,1.09739331667059,-0.027794369,0.28038713,-0.0070249503,101.0758,36.34436,-9.507027,CSI
4613211270000,0.509986,-1.06846613343727,-9.39680681892526,1.09763268035254,-0.021380283,0.2602286,-0.008552114,101.13739,37.071766,-9.504859,CSI
4613216275000,0.514991,-1.04327756985591,-9.40040520769543,1.09787257126727,-0.043982297,0.24373524,-0.004276057,101.19563,37.79695,-9.502552,CSI
4613221261000,0.519977,-1.01818462719524,-9.40398993624848,1.0981115515072,-0.03940081,0.2415972,0.0015271631,101.25122,38.50375,-9.497596,CSI
4613226295000,0.525011,-0.992850115892837,-9.4076091748237,1.09835283239927,-0.04886922,0.23243423,-0.005192355,101.302704,39.212254,-9.484724,CSI
4613231283000,0.529999,-0.967747107872097,-9.41119534129435,1.0985919084997,-0.04428773,0.23426682,0.00061086525,101.35011,39.905384,-9.476099,CSI
4613236319000,0.535035,-0.942402531209617,-9.41481601778716,1.09883328525227,-0.05222898,0.2275473,0.004886922,101.39443,40.59607,-9.461196,CSI
4613241301000,0.540017,-0.917329719269095,-9.41839787050504,1.09907207377119,-0.06414085,0.21899518,0.0061086523,101.436516,41.277336,-9.446003,CSI
4613246290000,0.545006,-0.892221678568318,-9.42198475593448,1.09931119780188,-0.06352998,0.21227567,0.01863139,101.47279,41.94726,-9.432052,CSI
4613251285000,0.550001,-0.867083441787325,-9.42557595511669,1.09955060941408,-0.07360926,0.19486602,0.028405234,101.504105,42.61446,-9.413232,CSI
4613256270000,0.554986,-0.841995531806694,-9.42915996471095,1.09978954172376,-0.069027774,0.18997909,0.040927973,101.53195,43.267307,-9.398172,CSI
4613262056000,0.560772,-0.812876445117038,-9.43331986030019,1.10006686616585,-0.064751714,0.1881465,0.045814894,101.55512,43.9138,-9.380256,CSI
4613266290000,0.565006,-0.791568077843619,-9.43636393183922,1.10026980285576,-0.056199603,0.17898351,0.06078109,101.56993,44.547268,-9.364159,CSI
4613271264000,0.56998,-0.766535527343386,-9.43994003288674,1.10050820793265,-0.0571159,0.18448131,0.07086037,101.58627,45.173157,-9.350503,CSI
4613276330000,0.575046,-0.74103997027982,-9.44358227814341,1.1007510225928,-0.03726278,0.15821409,0.06872234,101.59243,45.78173,-9.329161,CSI
4613281284000,0.58,-0.716108073380312,-9.44714400001501,1.10098846906465,-0.01282817,0.14966199,0.07574729,101.5986,46.37909,-9.316341,CSI
4613286307000,0.585023,-0.690828921558304,-9.45075533004349,1.10122922272393,0.0027488936,0.14263703,0.087964594,101.59804,46.964397,-9.299476,CSI
4613291298000,0.590014,-0.67466864678756,-9.46287825124305,1.10397512660622,0.012217305,0.108123146,0.10140363,101.58728,47.5354,-9.277687,CSI
4613296291000,0.595007,-0.665344875236424,-9.48152569698742,1.10863701238179,0.03268129,0.09865474,0.100792766,101.579956,48.090637,-9.259245,CSI
4613301284000,0.6,-0.649810971676083,-9.49720913693839,1.09112989085284,0.03726278,0.08124508,0.10445796,101.42784,48.689835,-9.074812,CSI
4613306269000,0.604985,-0.628404636898933,-9.51005274289301,1.05259849183033,0.043066,0.07452556,0.108123146,101.283134,49.272243,-8.900638,CSI
4613311281000,0.609997,-0.599808302387704,-9.53245330111484,1.00869822052711,0.05375614,0.06872234,0.10140363,101.14891,49.844444,-8.78464,CSI
4613316282000,0.614998,-0.553153643740665,-9.57910782985171,0.951675859357073,0.06047566,0.06811147,0.10598512,101.02101,50.403862,-8.680368,CSI
4613321241000,0.619957,-0.506735888258394,-9.61353256332221,0.901383797781268,0.06719518,0.06536258,0.09896017,100.96229,50.951263,-8.63413,CSI
4613326295000,0.625011,-0.459218513685451,-9.63253989024151,0.858618180512468,0.0720821,0.08032878,0.092240654,100.91291,51.486664,-8.596375,CSI
4613331819000,0.630535,-0.407354702217279,-9.65671841222529,0.816017388984785,0.069027774,0.08857546,0.08674286,100.89366,52.02485,-8.578169,CSI
4613336313000,0.635029,-0.365231755261144,-9.67969423213809,0.785382495933802,0.06566802,0.09315695,0.07788532,100.88416,52.552334,-8.562644,CSI
4613341333000,0.640049,-0.317674416818499,-9.70593495418916,0.758551959075945,0.0729984,0.099265605,0.067500606,100.90132,53.076984,-8.559413,CSI
4613346289000,0.645005,-0.268070524148232,-9.73487070823898,0.770952952746037,0.057421334,0.110872045,0.05375614,100.92795,53.5999,-8.557245,CSI
4613351269000,0.649985,-0.218226418922662,-9.76394658700575,0.783413999654242,0.04642576,0.10751228,0.03970624,100.96741,54.121418,-8.552298,CSI
4613356268000,0.654984,-0.162141597701124,-9.79666290329321,0.801480871098398,0.034208454,0.08460484,0.024129177,101.012215,54.638885,-8.544458,CSI
4613361249000,0.659965,-0.10518956129022,-9.82988509790071,0.820464864073227,0.016493361,0.050396383,0.0012217305,101.06148,55.152847,-8.531049,CSI
4613366294000,0.66501,-0.053589746163606,-9.91551966224958,0.836258864511686,-0.016493361,0.0015271631,-0.025045475,101.11683,55.669003,-8.505804,CSI
4613371278000,0.669994,-0.00378715528547579,-10.0101444176753,0.85119965259182,-0.028710667,-0.025045475,-0.04428773,101.17608,56.175884,-8.476985,CSI
4613376401000,0.675117,0.0486514768802427,-10.1105884297698,0.823955778875602,-0.071776666,-0.06169739,-0.06627888,101.22867,56.695976,-8.428451,CSI
4613381325000,0.680041,0.0991489204212029,-10.2073749534178,0.7944989441335,-0.11484267,-0.0888809,-0.089186326,101.28427,57.21123,-8.3750305,CSI
4613386297000,0.685013,0.151845430853293,-10.2776068950225,0.788375147095808,-0.1469131,-0.118507855,-0.12461651,101.34318,57.737377,-8.306092,CSI
4613391319000,0.690035,0.205843997185629,-10.3361055830838,0.792875024491018,-0.17928895,-0.11942416,-0.15485434,101.40915,58.266464,-8.235912,CSI
4613396282000,0.694998,0.24259531643491,-10.3850587154559,0.802526134806436,-0.20708331,-0.13164146,-0.16676621,101.47416,58.813732,-8.156642,CSI
4613401313000,0.700029,0.266086745517309,-10.4273436449537,0.816620975575817,-0.22204952,-0.13072516,-0.20219639,101.55424,59.359398,-8.069037,CSI
4613406250000,0.704966,0.300295585069638,-10.4508043649025,0.818590211253482,-0.27091873,-0.13225232,-0.23854288,101.63423,59.92016,-7.975113,CSI
4613411293000,0.710009,0.34686324354189,-10.455978113349,0.808241849907864,-0.29565877,-0.12889257,-0.28955013,101.72688,60.470993,-7.872704,CSI
4613416281000,0.714997,0.386177610386266,-10.4474855885748,0.817807138289182,-0.32253686,-0.113926366,-0.32559118,101.83901,61.027843,-7.7795534,CSI
4613421260000,0.719976,0.421461696337625,-10.4310198383405,0.838977602632332,-0.36285394,-0.116675265,-0.3744604,101.960144,61.588886,-7.671175,CSI
4613426305000,0.725021,0.457213496623748,-10.4143358234917,0.860428695745647,-0.41172317,-0.109650314,-0.42577308,102.090866,62.15611,-7.5477924,CSI
4613431300000,0.730016,0.492610967868383,-10.3978171606236,0.881667191305806,-0.44532076,-0.098043874,-0.47647488,102.231834,62.7229,-7.415272,CSI
4613436306000,0.735022,0.531077458181818,-10.3412105454545,0.888031189090909,-0.4877759,-0.08368854,-0.5296202,102.38541,63.29875,-7.273044,CSI
4613441312000,0.740028,0.571724999189826,-10.2553987922751,0.883514772589732,-0.51251596,-0.06414085,-0.5867361,102.55296,63.87234,-7.1215444,CSI
4613446243000,0.744959,0.600786609084367,-10.1878022138958,0.851211755260546,-0.54153204,-0.044898596,-0.643852,102.7198,64.445755,-6.9405766,CSI
4613451247000,0.749963,0.616641793431762,-10.1402364828784,0.78382716280397,-0.5723807,-0.026572637,-0.713796,102.902306,65.02133,-6.7468295,CSI
4613456502000,0.755218,0.634941528506216,-10.0903636301476,0.715388200369075,-0.6075055,-0.008857546,-0.7855727,103.083046,65.59631,-6.5289273,CSI
4613461301000,0.760017,0.670651788950078,-10.0457258453768,0.679677925942114,-0.62888575,0.00580322,-0.86315256,103.2782,66.17149,-6.296387,CSI
4613466623000,0.765339,0.710383836297093,-9.99837490782462,0.638623536940264,-0.66706485,0.018936822,-0.93370754,103.489,66.766075,-6.051936,CSI
4613471347000,0.770063,0.748447551308778,-10.0026042943816,0.570954743128915,-0.6969972,0.01038471,-1.0067059,103.70759,67.359764,-5.7890196,CSI
4613476289000,0.775005,0.788267805243526,-10.0070288558474,0.500163214971487,-0.7296785,0.0143553335,-1.0958922,103.9403,67.9654,-5.502368,CSI
4613481321000,0.780037,0.860164671491003,-9.98087886632391,0.507620008097686,-0.7733554,-0.0030543262,-1.174083,104.17161,68.57569,-5.199807,CSI
4613486242000,0.784958,0.936444496048748,-9.9494693644673,0.530055256126821,-0.8167268,-0.0067195175,-1.2589933,104.41713,69.19015,-4.8773856,CSI
4613496243000,0.794959,1.08060963863772,-9.86696785930993,0.503520129729328,-0.87995136,-0.090713486,-1.3778065,104.88818,70.456024,-4.163729,CSI
4613501302000,0.800018,1.151587330033,-9.8344321320132,0.484592744323432,-0.9285152,-0.14813483,-1.4669929,105.107506,71.096985,-3.7461715,CSI
4613506333000,0.805049,1.221740088245,-9.80637095059212,0.465885345389245,-0.97249746,-0.22113322,-1.5344934,105.307014,71.72804,-3.3246822,CSI
4613511211000,0.809927,1.26967965602289,-9.7908995124473,0.472034098341698,-1.02717,-0.30268374,-1.6056592,105.48255,72.36748,-2.8618405,CSI
4613516216000,0.814932,1.30817148221241,-9.78127686990564,0.491279996364184,-1.0735956,-0.3820962,-1.6789632,105.64297,73.00175,-2.381213,CSI
4613521189000,0.819905,1.34163242494598,-9.79127530347882,0.511349340638505,-1.1365148,-0.49571714,-1.7324139,105.76799,73.64149,-1.8690966,CSI
4613526195000,0.824911,1.37270937656655,-9.81199319911409,0.532067371483362,-1.1896601,-0.61208695,-1.7806722,105.87397,74.27129,-1.3404906,CSI
4613531217000,0.829933,1.33597662025874,-9.97419968407237,0.507578853929877,-1.212262,-0.7113526,-1.8255708,105.93594,74.88266,-0.7865943,CSI
4613536213000,0.834929,1.28215189788132,-10.1715569057842,0.471695672893035,-1.244638,-0.8179486,-1.8671097,105.96509,75.48453,-0.22122696,CSI
4613541239000,0.839955,1.20330401925505,-10.5721957323232,0.358295913465909,-1.2476922,-0.91721416,-1.8952094,105.96132,76.05058,0.35799816,CSI
4613546203000,0.844919,1.11326753672138,-11.067396516835,0.208235086609848,-1.2611313,-0.98563105,-1.9037615,105.93623,76.59505,0.9372292,CSI
4613551205000,0.849921,1.03770585166634,-11.6613513354368,0.103919022481562,-1.2855659,-1.0283916,-1.9242256,105.88786,77.12554,1.5070502,CSI
4613556200000,0.854916,0.966956247125813,-12.2839478947939,0.0143028877581345,-1.3374895,-1.0732902,-1.9474384,105.818214,77.62829,2.072754,CSI
4613561223000,0.859939,0.93039497580587,-12.7792343506962,-0.129997262838526,-1.4266758,-1.0919216,-1.9779817,105.74517,78.15637,2.6124964,CSI
4613566210000,0.864926,0.906474565295001,-13.224154378844,-0.292656204676751,-1.5121969,-1.0919216,-2.008525,105.662704,78.649796,3.1483457,CSI
4613571193000,0.869909,0.886186960513791,-13.3685579748083,-0.59830489839291,-1.6157386,-1.0177015,-2.0015,105.59313,79.16933,3.6425717,CSI
4613576214000,0.87493,0.867035237675993,-13.40686166046,-0.957399419129742,-1.7024814,-0.88789266,-1.9926424,105.53694,79.647934,4.1308303,CSI
4613581208000,0.879924,0.796801024551602,-13.3622761581888,-1.3344566764187,-1.7944167,-0.7104363,-2.0039434,105.51211,80.137695,4.5918736,CSI
4613586512000,0.885228,0.702210009438401,-13.2826205063217,-1.74269161931785,-1.8738291,-0.623388,-2.0442605,105.4949,80.5721,5.0474815,CSI
4613591203000,0.889919,0.583717041050711,-13.1345604398942,-2.05527847007479,-1.9037615,-0.46517387,-2.0842721,105.525024,80.997826,5.4797416,CSI
4613596213000,0.894929,0.443681125472455,-12.9463870515323,-2.37035926184787,-1.9361374,-0.29260445,-2.159714,105.58147,81.33732,5.922332,CSI
4613601225000,0.899941,0.329218335624635,-12.6912790474801,-2.65411723131932,-1.9553796,-0.116675265,-2.2342396,105.67526,81.640045,6.338604,CSI
4613606216000,0.904932,0.240858828324577,-12.3703943617435,-2.90524421833041,-1.981036,0.06658431,-2.3011293,105.81553,81.82309,6.763423,CSI
4613611232000,0.909948,0.204357590196118,-11.9733100160096,-2.97490649569742,-1.9782871,0.24190263,-2.3374758,105.992035,81.94214,7.1546063,CSI
4613616240000,0.914956,0.23315125506704,-11.4838173524114,-2.81654139903942,-1.949271,0.3399465,-2.339614,106.19088,81.933525,7.5489707,CSI
4613621217000,0.919933,0.297443395782333,-10.9911652761933,-2.39869046814221,-1.8606955,0.31978795,-2.300824,106.387886,81.841675,7.9166665,CSI
4613626267000,0.924983,0.407598483671024,-10.4834942472767,-1.6467622214597,-1.7421877,0.22296582,-2.250122,106.581535,81.64548,8.277089,CSI
4613631188000,0.929904,0.540870145050585,-9.9586210952192,-0.806136901132712,-1.6218473,0.10048734,-2.172237,106.73665,81.35449,8.637751,CSI
4613636275000,0.934991,0.714825685467169,-9.3739369970244,0.213435881597897,-1.4975362,-0.07849618,-2.0906863,106.83987,98.984924,8.977668,CSI
4613641227000,0.939943,0.966292364802277,-8.84583871533706,1.07627390683937,-1.385137,-0.3191771,-1.9859229,106.89111,99.388405,9.343422,CSI
4613646245000,0.944961,1.33882272681974,-8.36956596231969,1.76474775621038,-1.271516,-0.59528816,-1.8872682,106.87641,99.7861,9.679363,CSI
4613651211000,0.949927,1.74449131759082,-7.980391423174,2.15932276244742,-1.1753048,-0.84665924,-1.7953329,106.84582,100.20497,10.052658,CSI
4613657007000,0.955723,2.29107240325048,-7.68852769254302,2.0531904665392,-1.0235047,-1.0103711,-1.7107282,106.76137,100.58753,10.3913765,CSI
4613661275000,0.959991,2.73775574241887,-7.55144192112077,1.66710652754744,-0.84665924,-1.0873401,-1.6340646,106.67521,101.01135,10.801286,CSI
4613666285000,0.965001,3.36313536708636,-7.56845904046817,0.509941594545132,-0.66737026,-1.1230757,-1.5604553,106.55753,101.39744,11.1806,CSI
4613671495000,0.970211,3.95507061676473,-7.60320474694704,-0.62855797951963,-0.4877759,-1.1016954,-1.466382,106.428665,101.849495,11.633468,CSI
4613676328000,0.975044,3.83452589067233,-7.83090035103694,-0.941081316182116,-0.33353242,-1.0784826,-1.3796391,106.294365,102.26913,12.061217,CSI
4613681688000,0.980404,3.69671542507313,-8.08426955119097,-1.27846968520685,-0.22571471,-1.070236,-1.2797627,106.05794,102.80743,12.568542,CSI
4613686298000,0.985014,3.49377351575428,-8.31949802799833,-1.37994059170497,-0.14110987,-1.074512,-1.1908818,105.82662,103.31057,13.046721,CSI
4613691344000,0.99006,3.27110656777547,-8.56495115592516,-1.48649557276507,-0.09987647,-1.0876455,-1.1520919,105.555305,103.75957,13.4587965,CSI
4613696307000,0.995023,3.04383372134096,-8.61929858544699,-1.52108061487526,-0.048258353,-1.1068878,-1.0864239,105.28402,104.16455,13.830487,CSI
4613701260000,0.999976,2.82383387279162,-8.64985296712887,-1.54369434169495,-0.015577064,-1.0943651,-1.026559,104.994156,104.50337,14.130348,CSI
4613706262000,1.004978,2.65197130283138,-8.50586055367013,-1.47866533457772,0.039095376,-1.0604621,-0.9618073,104.70865,104.81264,14.403976,CSI
4613711339000,1.010055,2.47811513181991,-8.3513602243541,-1.41308668151596,0.10140363,-1.0057896,-0.89736104,104.42234,105.053444,14.607909,CSI
4613716281000,1.014997,2.31627735296353,-8.09511649164134,-1.35464523138298,0.16218472,-0.98868537,-0.82711154,104.139534,105.26699,14.787001,CSI
4613721890000,1.020606,2.13124449672907,-7.79904491880522,-1.28588884633992,0.22143865,-0.9746355,-0.7501425,103.870415,105.42356,14.914865,CSI
4613726930000,1.025646,1.94849143572781,-7.46907440134623,-1.1945122893353,0.2883284,-0.96791595,-0.64873886,103.609474,105.54597,15.012687,CSI
4613731455000,1.030171,1.79171687388535,-7.17757296783439,-1.11414252834395,0.34788775,-0.9645562,-0.5503896,103.35222,105.62116,15.067852,CSI
4613736304000,1.03502,1.69602234033346,-6.91223796789996,-1.04454652458786,0.41905355,-0.9621128,-0.4465425,103.10238,105.65901,15.0907,CSI
4613741286000,1.040002,1.59770306498689,-6.63962527050393,-0.973041618274635,0.47983465,-0.9773844,-0.34697145,102.846214,105.6448,15.066293,CSI
4613746288000,1.045004,1.56320684263761,-6.38753368509441,-0.931866799963841,0.54092115,-0.979217,-0.23579398,102.600655,105.59236,15.008476,CSI
4613751261000,1.049977,1.53450525006027,-6.1387867825231,-0.893598056480514,0.6047566,-0.9773844,-0.13744467,102.357025,105.51072,14.925417,CSI
4613756258000,1.054974,1.50134598931359,-5.92508032952772,-0.868540881815089,0.68233645,-0.96791595,-0.037873644,102.1224,105.38551,14.806669,CSI
4613761255000,1.059971,1.46782718931359,-5.71439067952772,-0.844598851815089,0.745561,-0.95172805,0.058643065,101.895515,105.2307,14.661503,CSI
4613766279000,1.064995,1.45320576378422,-5.56168270570164,-0.878895929610554,0.79534656,-0.95172805,0.15027285,101.660866,105.05514,14.5008135,CSI
4613771240000,1.069956,1.44032679799404,-5.41572100375892,-0.917532849394597,0.85154617,-0.95111716,0.2321288,101.43571,104.8517,14.317017,CSI
4613776278000,1.074994,1.41236744873916,-5.29667743889449,-0.987608928535404,0.9275989,-0.9462303,0.33750305,101.20687,104.618195,14.1077175,CSI
4613781227000,1.079943,1.37890274403873,-5.19150265269316,-1.06888042911539,0.9828822,-0.956615,0.42730024,100.97751,104.36585,13.881067,CSI
4613786313000,1.085029,1.34699340574128,-5.11691887728924,-1.17850318780887,1.0073168,-0.99021256,0.47067168,100.73709,104.10516,13.645228,CSI
4613791337000,1.090053,1.31639775690407,-5.05572739705669,-1.29651506746003,1.0567969,-0.9950995,0.5635232,100.50728,103.80304,13.372527,CSI
4613796285000,1.095001,1.26909017527154,-5.0611790993633,-1.41704102457865,1.1087204,-0.9859365,0.63713247,100.260216,103.49477,13.089201,CSI
4613801286000,1.100002,1.2063082861985,-5.12396112891386,-1.54260475589888,1.149343,-0.98929626,0.72295904,100.01318,103.158,12.778634,CSI
4613806261000,1.104977,1.14083929863316,-5.18746366938282,-1.68927477379876,1.1817188,-0.9630291,0.8246681,99.769844,102.794525,12.436213,CSI
4613811293000,1.110009,1.06990381205972,-5.25333229013773,-1.87168019732941,1.2012665,-0.9260717,0.9034697,99.53395,102.41555,12.079663,CSI
4613816283000,1.114999,0.983281904035413,-5.3544150861643,-2.00697102553016,1.2278391,-0.8775079,0.9761627,99.31147,101.98998,11.6708145,CSI
4613821292000,1.120008,0.879578536102532,-5.49268622621989,-2.09585968554663,1.2479976,-0.8228355,1.0601566,99.10853,101.54319,11.241613,CSI
4613826301000,1.125017,0.761140963389304,-5.6574639755411,-2.14334669816558,1.2812898,-0.78893244,1.144456,98.90184,101.05986,10.768055,CSI
4613831291000,1.130007,0.631268936406872,-5.84299530428031,-2.15726154782102,1.3026701,-0.7519751,1.2370021,98.72058,100.55607,10.274791,CSI
4613836291000,1.135007,0.525287132813674,-6.03477318966003,-2.19527071879226,1.3219124,-0.68936145,1.3191634,98.56253,99.99875,9.7243395,CSI
4613841322000,1.140038,0.443839306168294,-6.23386797466191,-2.2586189370586,1.3411547,-0.58032197,1.3982705,98.438255,99.4227,9.156884,CSI
4613846285000,1.145001,0.389970844781056,-6.41390353457298,-2.28772058429348,1.3652838,-0.47036624,1.4902058,98.34762,98.776535,8.51862,CSI
4613851285000,1.150001,0.382535433290373,-6.56632950506988,-2.25797900820652,1.4043792,-0.35888332,1.5873333,98.29805,98.11446,7.8670955,CSI
4613856237000,1.154953,0.37517140175,-6.71729218625,-2.22852295125,1.4468343,-0.25289822,1.6869044,98.29241,97.40126,7.1611786,CSI
4613861346000,1.160062,0.4197522243364,-6.89427383117356,-2.13316039061963,1.4792101,-0.12705997,1.7938058,98.33348,96.66965,6.4385147,CSI
4613866253000,1.164969,0.476754218961892,-7.07002974442535,-2.02390655394724,1.4944818,0.008857546,1.885741,98.41569,95.925964,5.7047944,CSI
4613871658000,1.170374,0.732474572367771,-7.31730851267566,-1.72177946676082,1.4978416,0.13408493,1.964848,98.52493,95.16991,4.9625425,CSI
4613876348000,1.175064,0.992558487592684,-7.54250322943295,-1.42363450086858,1.4782939,0.24953845,2.0152445,98.67594,94.41211,4.2165084,CSI
4613881864000,1.18058,1.31043224649334,-7.83206406562533,-1.07581004205892,1.4602734,0.33078352,2.0363193,98.84342,93.66695,3.4915454,CSI
4613886333000,1.185049,1.67834263635601,-8.29419539584862,-0.820067429416081,1.4337007,0.36682457,2.0357084,99.03381,92.932175,2.772434,CSI
4613891319000,1.190035,2.09826679745491,-8.82480861863727,-0.536001791048898,1.4092661,0.42577308,2.0073032,99.213806,92.29632,2.1945145,CSI
4613896276000,1.194992,2.63577809906814,-9.54307543517034,-0.269624538643888,1.3475688,0.45814893,1.9303342,99.393715,91.6952,1.6416281,CSI
4613901330000,1.200046,3.18263946208386,-10.2783904091487,-0.0181971501750953,1.258077,0.4718934,1.8099937,99.54561,91.23031,1.224787,CSI
4613906290000,1.205006,3.70573345683185,-11.0348649877171,-0.00612574922973316,1.1297953,0.45906523,1.6581937,99.694534,89.13895,0.8471041,CSI
4613911958000,1.210674,4.30349490083016,-11.8993202117747,0.00766874685057179,0.9630291,0.45845437,1.4630222,99.817154,89.20121,0.6576472,CSI
4613916283000,1.214999,4.83941296204867,-12.6141865121684,-0.14939378752294,0.7678576,0.45234573,1.2293663,99.93083,89.12484,0.52430457,CSI
4613921243000,1.219959,5.47427539971075,-13.448035927688,-0.372069344945641,0.54519725,0.45204028,0.9611965,100.043884,89.00209,0.45711178,CSI
4613926373000,1.225089,6.0356115094047,-13.9358400975488,-0.67887056058029,0.36254853,0.47158796,0.68539083,100.142586,88.81126,0.5966414,CSI
4613931279000,1.229995,6.53388896991496,-14.2507890996498,-1.00322106865433,0.21502456,0.5552765,0.4251622,100.26143,88.63065,0.7969654,CSI
4613936316000,1.235032,6.7701445237315,-14.0831214376687,-1.25655980079136,0.118507855,0.66156703,0.2012801,100.39587,88.382256,1.1795852,CSI
4613941340000,1.240056,6.89108989835211,-13.711326260311,-1.47605331387208,0.06261369,0.8014552,-0.009468411,100.56779,88.06588,1.608186,CSI
4613946282000,1.244998,6.71938679270952,-13.1339774074151,-1.61204043062623,0.021380283,0.94134337,-0.18387043,100.79111,87.63788,2.1616118,CSI
4613951285000,1.250001,6.31634056122131,-12.3826186685014,-1.68667865435663,-0.00030543262,1.0479393,-0.32345316,101.04694,87.14232,2.7343857,CSI
4613956259000,1.254975,5.7245805301449,-11.7107350433681,-1.49584014256764,-0.023823744,1.102001,-0.39370266,101.34482,86.594215,3.3417237,CSI
4613961290000,1.260006,5.01180166359307,-11.0760694740095,-1.14433280311075,-0.055283304,1.0647382,-0.42913285,101.646225,86.01773,3.9524074,CSI
4613966281000,1.264997,4.14876223179539,-10.7498601382146,-0.753845484008024,-0.0852157,0.93126404,-0.42424592,101.95426,85.50104,4.489032,CSI
4613971268000,1.269984,3.20506827021063,-10.5821988988967,-0.341877587285858,-0.12705997,0.7495316,-0.37812558,102.23552,84.9915,5.0074105,CSI
4613976299000,1.275015,2.34840161900525,-10.8084342876546,-0.168283940144998,-0.14782938,0.5748242,-0.27977628,102.467384,95.37994,5.379893,CSI
4613982090000,1.280806,1.41853902407269,-11.3019369503559,-0.111141548152117,-0.1432479,0.45448375,-0.12003502,102.662254,95.71513,5.713068,CSI
4613986314000,1.28503,0.758630379296739,-11.8940342109782,0.0712597393592967,-0.14172074,0.4025602,-0.030543262,102.82446,95.856514,5.8526034,CSI
4613991310000,1.290026,-0.00920969685985895,-12.7547970579577,0.38426458016314,-0.14385876,0.2761111,0.13805555,102.93052,95.927895,5.92134,CSI
4613996286000,1.295002,-0.666242938327526,-13.3417220178571,0.888690938109756,-0.124311075,0.053450707,0.27397305,103.01745,95.793625,5.7836814,CSI
4614001286000,1.300002,-1.24602349581882,-13.7296327321429,1.53937990152439,-0.06291912,-0.28221974,0.36193767,103.033195,95.62857,5.614786,CSI
4614006236000,1.304952,-1.71222759815031,-14.0607781174657,2.08801769781014,-0.026267206,-0.6414085,0.39522982,102.97799,95.26693,5.251597,CSI
4614011300000,1.310016,-1.88751154942064,-14.2515289362177,2.3818760677049,-0.071776666,-0.9578367,0.34269542,102.83454,94.91714,4.899077,CSI
4614016214000,1.31493,-1.76944741717652,-14.3583107560327,2.46558092272468,-0.23823744,-1.2165382,0.24617869,102.59215,94.42679,4.413942,CSI
4614021271000,1.319987,-1.17592102902337,-14.339906466084,2.22172902932738,-0.48716503,-1.4101825,0.105374254,102.27247,93.98528,3.974338,CSI
4614026289000,1.325005,-0.214985605052422,-14.0492326149675,2.04318276955893,-0.6930266,-1.4874569,-0.04062254,101.90493,93.554985,3.5466633,CSI
4614031292000,1.330008,1.66012527454808,-13.0878589566161,2.02153023412871,-0.7825184,-1.4263704,-0.2125811,101.51829,93.19105,3.1828415,CSI
4614036334000,1.33505,3.39370145056383,-12.1474708567616,2.01524883186709,-0.6808093,-1.2476922,-0.39736784,101.144455,93.01258,3.0018275,CSI
4614041298000,1.340014,3.43462357779117,-11.5254543519842,2.17484529897564,-0.46089783,-0.98715824,-0.5006041,100.812485,92.86586,2.8533514,CSI
4614046221000,1.344937,3.47520771001119,-10.9085753727296,2.33312358414393,-0.21777347,-0.6783658,-0.5305365,100.52612,93.14506,3.136538,CSI
4614051242000,1.349958,3.14826088212291,-10.3249322825972,2.17993445806894,0.008246681,-0.43218717,-0.5552765,100.30208,93.444115,3.4413898,CSI
4614056239000,1.354955,2.69427366145251,-9.75997052503426,1.91763061937388,0.1554652,-0.30451632,-0.56505036,100.13733,86.25573,3.7442691,CSI
4614061302000,1.360018,2.05849644804257,-9.37175105291418,1.39573611972079,0.21471913,-0.23823744,-0.5546656,100.01785,85.9306,4.06354,CSI
4614066267000,1.364983,1.40396286832959,-9.02359466660158,0.838686289397637,0.20250183,-0.21105394,-0.5143485,99.92768,85.60514,4.371624,CSI
4614071345000,1.370061,0.56154912208498,-8.83045934288538,0.0350234703557312,0.10842858,-0.16890424,-0.4474588,99.88015,85.3596,4.597215,CSI
4614076295000,1.375011,-0.300363489328063,-8.6805618972332,-0.80346759486166,-0.06169739,-0.14630222,-0.36560285,99.83675,85.13291,4.8035254,CSI
4614081290000,1.380006,-0.9115568316052,-8.70074934431681,-1.36799242935308,-0.3115413,-0.07086037,-0.33444872,99.85624,85.05815,4.879758,CSI
4614086283000,1.384999,-1.45120853792825,-8.76820565981459,-1.85464264070939,-0.44532076,-0.092240654,-0.28771752,99.85428,85.01466,4.9269867,CSI
4614091296000,1.390012,-1.83279854638082,-8.57721520562471,-2.43016436704472,-0.7370089,-0.3295618,-0.26725355,99.87951,85.21239,4.766231,CSI
4614096284000,1.395,-2.17196138934993,-8.32174175795297,-3.02480056569848,-1.0461067,-0.56382865,-0.2556471,99.89776,85.4034,4.5954423,CSI
4614101285000,1.400001,-2.12891949100478,-7.93222624976077,-3.19856178937799,-1.2788464,-0.62858033,-0.23518312,99.97087,94.26419,4.2444406,CSI
4614106312000,1.405028,-1.85762152118022,-7.46129389654439,-3.1217794287932,-1.4239268,-0.5207626,-0.22724187,100.02494,94.02091,3.8998277,CSI
4614111302000,1.410018,-1.40346670383234,-6.9472537692515,-2.34961513937126,-1.4828753,-0.28008172,-0.23518312,100.24407,93.762,3.3370914,CSI
4614116341000,1.415057,-0.883325634690619,-6.41266429796407,-1.33822975508982,-1.4272866,-0.010995574,-0.26389378,100.498276,93.74431,2.797045,CSI
4614121408000,1.420124,-0.140853858319377,-6.34033476106787,-0.396361521712147,-1.1759156,0.19730948,-0.31795537,100.7887,93.95862,2.3634324,CSI
4614126343000,1.425059,0.650640751916067,-6.41482827249532,0.497561830814698,-0.7733554,0.41447207,-0.38148534,101.15031,94.26757,1.9582517,CSI
4614131314000,1.43003,1.07978423923865,-6.67750493382138,1.2845259927672,-0.3594942,0.7452556,-0.4437936,101.423996,94.49169,1.8351176,CSI
4614136341000,1.435057,1.37113041532455,-7.01584264231332,2.03638712558321,-0.069027774,1.0882565,-0.4709771,101.75847,94.655495,1.7259475,CSI
4614141356000,1.440072,1.35799005772295,-7.37752407269283,2.83451523780843,0.09865474,1.2556335,-0.47708577,102.036606,94.649284,1.8605493,CSI
4614146341000,1.445057,1.20030860940354,-7.74853916259957,3.65074869710511,0.2284636,1.2003502,-0.44593164,102.347885,94.58004,1.9920467,CSI
4614151318000,1.450034,0.950655836131401,-8.10644014654625,3.89501922264788,0.33475417,1.0253373,-0.41447207,102.629196,94.366745,2.1795382,CSI
4614156270000,1.454986,0.644722662062326,-8.45473353265185,3.78205926663358,0.40622538,0.88086766,-0.3827071,102.90423,94.15057,2.3535886,CSI
4614161298000,1.460014,0.450484871987079,-8.98050561413469,3.74050981895067,0.43554693,0.70463306,-0.36254853,103.07605,93.77883,2.467263,CSI
4614166282000,1.464998,0.338352999770948,-9.62059152329679,3.74985413594362,0.3933972,0.43096542,-0.40622538,103.18001,93.4689,2.5832393,CSI
4614171287000,1.470003,0.339141007530196,-10.0102121012078,3.47309809554352,0.33169982,0.36193767,-0.49388456,103.29491,93.183784,2.6302204,CSI
4614176317000,1.475033,0.434440401491045,-10.1907793596418,2.95647498683882,0.31887165,0.3857614,-0.52015173,103.36016,92.95947,2.667907,CSI
4614181287000,1.480003,0.566811333387846,-10.3097147221706,2.68965877606393,0.32436943,0.45356745,-0.52839845,103.41792,92.80353,2.6912212,CSI
4614186889000,1.485605,0.741288616465341,-10.4044313101654,2.55007699749117,0.30970868,0.50793445,-0.57787853,103.48094,92.7498,2.7323053,CSI
4614191316000,1.490032,0.878900106242015,-10.4131947821498,2.45913166798445,0.26419923,0.5140431,-0.6072,103.57511,87.21012,2.7894645,CSI
4614196290000,1.495006,1.03325861987594,-10.3602717168781,2.37533701419313,0.23365596,0.54611355,-0.6747007,103.69366,87.10276,2.869655,CSI
4614201267000,1.499983,1.11271989792318,-10.2804266246597,2.13961532359109,0.17989981,0.70616025,-0.754724,103.85969,86.92069,2.9991055,CSI
4614206257000,1.504973,1.02599858781127,-10.1407086369594,1.56629113748362,0.115453534,0.9960158,-0.8396343,104.073616,86.70547,3.1447575,CSI
4614211261000,1.509977,0.903816790132831,-9.9631090954921,1.11450657654429,0.026572637,1.314582,-0.93126404,104.35556,86.43382,3.3497012,CSI
4614216286000,1.515002,0.707517795623889,-9.70641048394519,0.918207539989541,-0.1020145,1.5158621,-1.006095,104.687485,86.155174,3.5675101,CSI
4614221237000,1.519953,0.511519018914521,-9.47727908241601,0.802582603801091,-0.23640485,1.5711454,-1.058324,105.0947,85.93083,3.7820792,CSI
4614226294000,1.52501,0.307545032828563,-9.27794072968316,0.797946839751125,-0.3735441,1.5161675,-1.0848967,105.52487,85.71167,4.005204,CSI
4614231218000,1.529934,0.133499144630001,-9.12192175449221,0.844226947860617,-0.5366451,1.3677273,-1.0705414,105.95063,85.5573,4.189161,CSI
4614237084000,1.5358,-0.0115039576715973,-9.03268902203911,1.02826935226646,-0.72295904,1.0906999,-1.0228939,106.318596,85.41892,4.3689833,CSI
4614241335000,1.540051,0.00677684715660434,-9.09838565614465,0.99294141844928,-0.9083566,0.74372846,-0.9593639,106.616486,85.34541,4.4905734,CSI
4614246286000,1.545002,0.262107912107964,-9.42222041964012,0.631741377102579,-1.0216721,0.46303585,-0.8729264,106.84876,85.29319,4.5912304,CSI
4614251381000,1.550097,0.52486528959275,-9.75547392802417,0.260035820515739,-1.056186,0.36468655,-0.7629707,107.03267,85.28495,4.637984,CSI
4614256258000,1.554974,0.776380055047765,-10.0744685031741,-0.0957655532770019,-1.063211,0.43768495,-0.657291,107.18205,85.29546,4.6610894,CSI
4614261263000,1.559979,1.03449598719916,-10.4018352960028,-0.460905162838755,-1.058324,0.6151413,-0.5375614,107.33049,85.33205,4.648643,CSI
4614266283000,1.564999,1.179001461176,-10.6984274203128,-0.580167543429024,-1.0341948,0.8671232,-0.42210788,107.51866,85.38732,4.607393,CSI
4614271268000,1.569984,1.28296984892101,-10.9819772995446,-0.613248377476737,-0.9957104,0.977079,-0.32589662,107.713875,85.461296,4.538621,CSI
4614276341000,1.575057,1.23334132446512,-11.1398934809302,-0.435624434494884,-0.9077458,1.1594223,-0.28924468,108.057526,94.58844,4.5783463,CSI
4614281251000,1.579967,1.12836168781395,-11.2448733916279,-0.186297842666047,-0.86590147,1.2889256,-0.22479841,108.41398,94.6279,4.584842,CSI
4614286308000,1.585024,0.992909257927067,-11.2558886345554,0.0667584471640016,-0.79473567,1.3658947,-0.17073683,108.806404,94.695564,4.60478,CSI
4614291313000,1.590029,0.838682105674727,-11.1951317605304,0.314456538405226,-0.70432764,1.4056009,-0.15668693,109.220894,94.76911,4.6201468,CSI
4614296283000,1.594999,0.705585680872307,-11.0349065904362,0.388828417456647,-0.65576386,1.4184291,-0.15882497,109.65403,94.80161,4.599773,CSI
4614301286000,1.600002,0.589769254230163,-10.7831321271151,0.308260452485549,-0.63407815,1.412015,-0.18387043,110.08725,94.83973,4.584515,CSI
4614307025000,1.605741,0.649654697087613,-10.4579250309668,0.159125446096677,-0.65301496,1.428203,-0.22418754,110.524994,94.84082,4.543952,CSI
4614311296000,1.610012,0.764989142380665,-10.2025413816717,0.0273146355005035,-0.66431594,1.4718798,-0.27916542,110.96216,94.85448,4.5173407,CSI
4614316279000,1.614995,1.06677644299405,-9.93749131835317,-0.0497927432686508,-0.6713409,1.466382,-0.34972036,111.39762,94.8742,4.485065,CSI
4614321268000,1.619984,1.4649321702619,-9.69101442579365,-0.0829723867126984,-0.65118235,1.3921618,-0.41080686,111.817924,94.90891,4.4678044,CSI
4614326336000,1.625052,1.97162717167357,-9.45351480721467,-0.16699096703016,-0.6261369,1.2996159,-0.45814893,112.23962,95.008194,4.50425,CSI
4614331289000,1.630005,2.52796828344175,-9.22910768480189,-0.279194223616795,-0.59773165,1.1768318,-0.49418998,112.62367,95.11942,4.5541472,CSI
4614336376000,1.635092,3.08940779449001,-8.99589720138956,-0.356494165531217,-0.56046885,1.0635164,-0.52564955,113.00614,95.326294,4.7129264,CSI
4614341296000,1.640012,3.62592342085303,-8.76856049001255,-0.406508322744379,-0.5329799,0.9221011,-0.5384777,113.339485,95.532295,4.872491,CSI
4614346285000,1.645001,4.11853352132231,-8.59069672644628,-0.458942739669422,-0.50335294,0.7623598,-0.5375614,113.659706,95.85919,5.1633615,CSI
4614351285000,1.650001,4.56425705329274,-8.46156210269682,-0.513096067203132,-0.4654793,0.589485,-0.5320636,113.93117,96.177895,5.4497867,CSI
4614356229000,1.654945,4.94192847732369,-8.35433291763596,-0.549234842119879,-0.43401974,0.44532076,-0.5296202,114.19285,96.605354,5.8562346,CSI
4614361292000,1.660008,5.08419474517447,-8.32384668626218,-0.518749220873939,-0.42852196,0.28893927,-0.52503866,114.39786,97.02299,6.251391,CSI
4614366231000,1.664947,5.09005953513767,-8.30442916107885,-0.507360888921146,-0.3924809,0.105374254,-0.52534413,114.5737,97.53121,6.7476716,CSI
4614371267000,1.669983,4.78292711003933,-8.30894590316539,-0.538977446834613,-0.36163223,0.009468411,-0.52412236,114.72651,98.030785,7.233114,CSI
4614376994000,1.67571,4.37750781472335,-8.2941616247997,-0.627668556499199,-0.36193767,-0.23701571,-0.52198434,114.78916,98.54576,7.733035,CSI
4614381286000,1.680002,3.96294556157979,-8.24379424220002,-0.7981427589688,-0.3371976,-0.2996294,-0.50915617,114.87467,99.04351,8.222565,CSI
4614386433000,1.685149,3.46775134915453,-8.18534988687946,-1.00191895928203,-0.34208453,-0.37965274,-0.49571714,114.87117,99.478355,8.631051,CSI
4614391307000,1.690023,3.02035107146216,-8.15158380739669,-1.18763224218284,-0.35430184,-0.40042216,-0.46303585,114.86623,99.896095,9.023372,CSI
4614396263000,1.694979,2.5654237476535,-8.11724964861199,-1.37646995864906,-0.3747658,-0.39278635,-0.41172317,114.8511,100.220726,9.289891,CSI
4614401286000,1.700002,2.17222348497465,-8.1507829024961,-1.44701844345749,-0.37873647,-0.33628133,-0.36285394,114.84454,100.532425,9.54377,CSI
4614406283000,1.704999,1.79427113161076,-8.19744365678627,-1.49367924647036,-0.3811799,-0.267559,-0.29810223,114.8452,100.8247,9.774664,CSI
4614411292000,1.710008,1.55901575772308,-8.29658196584615,-1.51908193716923,-0.37843102,-0.18295415,-0.23182335,114.87397,101.01351,9.866618,CSI
4614416215000,1.714931,1.36559376381538,-8.40779985723077,-1.53842422744615,-0.38515055,-0.07880162,-0.17287487,114.92971,101.189445,9.943096,CSI
4614421265000,1.719981,1.35933056202282,-8.50642229205991,-1.4292484539137,-0.3921755,0.014966198,-0.11759156,115.017624,101.26639,9.897299,CSI
4614426331000,1.725047,1.39350162048176,-8.60210135089449,-1.29256410114101,-0.42332962,0.094989546,-0.080634214,115.13162,101.34248,9.84431,CSI
4614431269000,1.729985,1.42680929649246,-8.69536293646993,-1.15933328116636,-0.43554693,0.15821409,-0.05955936,115.29595,101.36465,9.722391,CSI
4614436221000,1.734937,1.46021140495844,-8.78888893318308,-1.02572473104193,-0.4541783,0.19150625,-0.05955936,115.47111,101.39693,9.602036,CSI
4614441337000,1.740053,1.54520595792753,-8.85620757501817,-0.876352913871872,-0.47342056,0.19975294,-0.08307768,115.68079,101.44059,9.488344,CSI
4614446465000,1.745181,1.66758545696189,-8.90209974073305,-0.718279425345239,-0.50640726,0.172264,-0.10903945,115.88325,101.49795,9.379964,CSI
4614451243000,1.749959,1.7540479092054,-8.92217916351824,-0.685806586556722,-0.52778757,0.1600467,-0.1469131,116.060776,101.54831,9.313002,CSI
4614456303000,1.755019,1.83154298506747,-8.93186624397801,-0.71002378195902,-0.54092115,0.1554652,-0.18387043,116.22731,101.611755,9.255176,CSI
4614461299000,1.760015,1.89278468073812,-8.92247559049545,-0.740459526213347,-0.54428095,0.14172074,-0.22510384,116.39822,101.69362,9.2455015,CSI
4614466294000,1.76501,1.94598971365015,-8.90312792012134,-0.774317277644085,-0.5662721,0.124311075,-0.2593123,116.561226,101.78826,9.244975,CSI
4614471292000,1.770008,1.96961234162566,-8.87775244105491,-0.68024355007282,-0.5681047,0.10903945,-0.27885997,116.71453,101.902596,9.27054,CSI
4614476306000,1.775022,1.97906285829561,-8.84940128577052,-0.524309901666995,-0.5671884,0.09101892,-0.30818152,116.85672,102.02936,9.307826,CSI
4614481304000,1.78002,1.90290908099688,-8.81493455110518,-0.564039962379469,-0.59131753,0.090713486,-0.3381139,116.99558,102.17913,9.363891,CSI
4614486307000,1.785023,1.77970955659398,-8.77702698610493,-0.71093170377491,-0.6206391,0.11301007,-0.36468655,117.131584,102.33388,9.426883,CSI
4614496307000,1.795023,1.53345825856698,-8.70125731790536,-1.00453902217475,-0.6927212,0.19486602,-0.39095375,117.452194,102.6348,9.585111,CSI
4614501335000,1.800051,1.54292698977507,-8.68762707915262,-0.979631759605495,-0.7119634,0.2828306,-0.39767328,117.65584,102.786194,9.626993,CSI
4614506201000,1.804917,1.63672409196397,-8.6899720538419,-0.845970881028531,-0.7296785,0.43218717,-0.4156938,117.88214,102.95076,9.6797085,CSI
4614511193000,1.809909,1.73294997238464,-8.69237774920747,-0.708848993265234,-0.763887,0.55741453,-0.43279803,118.134,103.12347,9.711291,CSI
4614516206000,1.814922,1.82958064917728,-8.69479356468575,-0.571150270637548,-0.7458665,0.64812803,-0.4569272,118.40803,103.29416,9.755857,CSI
4614521195000,1.819911,1.93285952456949,-8.68756806191776,-0.511699031242119,-0.7431176,0.69027776,-0.47403142,118.69318,103.4754,9.807336,CSI
4614526210000,1.824926,2.04132523949374,-8.67400958210219,-0.502660238181989,-0.7461719,0.7119634,-0.4868596,118.986946,103.65695,9.867823,CSI
4614531202000,1.829918,2.17172149644373,-8.64840993513841,-0.491018881977167,-0.7675522,0.73456544,-0.49449542,119.26104,103.8364,9.990467,CSI
4614536201000,1.834917,2.32649847585371,-8.6097159175591,-0.476508534475652,-0.8078693,0.7516697,-0.4868596,119.53251,104.016624,10.110955,CSI
4614541230000,1.839946,2.50401843709938,-8.5610574164483,-0.479043018917557,-0.8594874,0.7467828,-0.4831944,119.79576,104.22149,10.261927,CSI
4614546203000,1.844919,2.70081776986495,-8.50345742592219,-0.498242958955856,-0.9098838,0.72784597,-0.473726,120.05406,104.42775,10.4065,CSI
4614551249000,1.849965,2.91790451710802,-8.46172208444808,-0.443394202298662,-0.9388999,0.72082096,-0.4615087,120.30889,104.65938,10.581826,CSI
4614556264000,1.85498,3.14954225125125,-8.43549932532532,-0.32101954960961,-0.9388999,0.7165449,-0.462425,120.55314,104.891914,10.754324,CSI
4614561273000,1.859989,3.41051159181714,-8.4279994816825,-0.211127566098528,-0.9263771,0.6774496,-0.47403142,120.785,105.16233,10.970832,CSI
4614566283000,1.864999,3.73101134737501,-8.45804588602442,-0.125994835980587,-0.8979719,0.6618725,-0.48930305,121.0173,105.42592,11.1858225,CSI
4614571224000,1.86994,4.01881379565548,-8.46806314868333,-0.0692035587680388,-0.8915578,0.65393126,-0.4990769,121.24646,105.71239,11.458215,CSI
4614576343000,1.875059,4.27514060349843,-8.44942130696834,-0.0505616065850366,-0.8903361,0.6392705,-0.5290093,121.46353,105.997086,11.7342825,CSI
4614581251000,1.879967,4.42609190434395,-8.37136780635266,-0.0617024572918068,-0.9266826,0.64568454,-0.5488624,121.69504,106.319496,12.07091,CSI
4614586288000,1.885004,4.36881310011874,-8.15657160518504,-0.138074314051257,-0.9633345,0.66523224,-0.5842926,121.92053,106.64654,12.413825,CSI
4614591265000,1.889981,4.40888088784027,-7.95485495868037,-0.138928436482784,-1.003957,0.7825184,-0.6423248,122.18277,107.02785,12.826988,CSI
4614596895000,1.895611,4.71992417835767,-7.75559315121687,0.0651937651036597,-1.0393872,0.8042041,-0.7079928,122.417885,107.41895,13.240567,CSI
4614601295000,1.900011,4.93501109124609,-7.61621008350156,0.192812473573917,-1.1194105,0.6872234,-0.6985244,122.64112,107.83192,13.639721,CSI
4614606266000,1.904982,4.84996192143814,-7.65022975142474,-0.0368204492014292,-1.1969905,0.63438356,-0.61941737,122.88617,108.243164,14.035063,CSI
4614611268000,1.909984,4.76438237056722,-7.68446157177311,-0.267885401871371,-1.2754866,0.66828656,-0.5366451,123.14023,108.698875,14.498077,CSI
4614616279000,1.914995,4.47453201000599,-7.65023902792091,-0.48217987996405,-1.3497068,0.7657196,-0.46395215,123.39994,109.14556,14.9353,CSI
4614621232000,1.919948,4.14769534134212,-7.602871254284,-0.690597351947274,-1.3933836,0.8374963,-0.4083634,123.66432,109.57918,15.348108,CSI
4614626337000,1.925053,3.74596767369398,-7.6259781942779,-0.944884167298115,-1.4245378,0.8753699,-0.37690386,123.92949,110.01894,15.717513,CSI
4614631361000,1.930077,3.33722762190216,-7.66356366007226,-1.20328309177815,-1.4825699,0.8772025,-0.3622431,124.20427,110.45508,16.072832,CSI
4614636316000,1.935032,2.85620938481562,-7.80183215357918,-1.35173481478998,-1.5589281,0.82986045,-0.38056904,124.442856,110.86567,16.346882,CSI
4614641247000,1.939963,2.35799547787419,-7.96479902950108,-1.47279611570696,-1.6123788,0.75502944,-0.42943826,124.66867,111.280304,16.620167,CSI
4614646303000,1.945019,1.90669529491828,-8.19020739019317,-1.30873819955423,-1.6194037,0.6872234,-0.5027421,124.824135,111.65672,16.782446,CSI
4614651308000,1.950024,1.47936765123328,-8.43236014799406,-1.05234164309064,-1.5836681,0.5946773,-0.57726765,124.94328,112.04316,16.951134,CSI
4614656254000,1.95497,1.30761284162253,-8.65418875801505,-0.86266995944336,-1.570229,0.4474588,-0.6444628,124.95629,112.3463,16.95652,CSI
4614661313000,1.960029,1.22206948146083,-8.87480036632283,-0.691583206211319,-1.5580118,0.35643986,-0.70554936,124.95385,112.65979,16.98282,CSI
4614666876000,1.965592,1.48534241089934,-8.9304282880683,-0.990582530297796,-1.568702,0.39736784,-0.7339546,124.91907,112.8431,16.876865,CSI
4614671263000,1.969979,1.85651540235259,-8.88872348203296,-1.44933573200417,-1.577254,0.43310347,-0.73426,124.85962,113.03533,16.782722,CSI
4614676357000,1.975073,2.49662130073079,-8.71033266758839,-1.95276637298045,-1.5769486,0.45265114,-0.7281514,124.81893,113.175354,16.679537,CSI
4614681290000,1.980006,3.266421260794,-8.44440177937982,-2.41931183875173,-1.5561792,0.4560109,-0.7119634,124.78788,113.31386,16.5835,CSI
4614686283000,1.984999,3.99458054441151,-8.19240183736495,-2.66608273851229,-1.5259414,0.43371433,-0.71685034,124.76724,113.60861,16.601383,CSI
4614691275000,1.989991,4.68022093374128,-7.95471314360838,-2.72550481649297,-1.4865406,0.36957347,-0.7275405,124.73805,113.89418,16.617744,CSI
4614696286000,1.995002,5.12352372815154,-7.71466419908556,-2.97932339219931,-1.452943,0.3109304,-0.75319684,124.748535,114.4047,16.858849,CSI
4614701287000,2.000003,5.27099867772698,-7.47334161371652,-3.46643773129607,-1.4382823,0.31856623,-0.7706065,124.757645,114.90325,17.097137,CSI
4614706251000,2.004967,5.32932898466981,-7.33768370862387,-3.79080455690115,-1.4382823,0.4071417,-0.763887,124.820526,115.536995,17.521976,CSI
4614711293000,2.010009,5.18573781910377,-7.43918792697908,-3.75366887230312,-1.459357,0.48655418,-0.7535023,124.8779,116.162415,17.941826,CSI
4614716280000,2.014996,5.0437129990566,-7.53958489979491,-3.71693827748154,-1.4996742,0.52778757,-0.7086037,124.95245,116.90031,18.399998,CSI
4614721264000,2.01998,4.90177361603774,-7.63992147739951,-3.68022977846596,-1.5454891,0.50671273,-0.6588182,125.02617,117.6259,18.845339,CSI
4614726269000,2.024985,4.80548014794493,-7.93865625728252,-3.57676343842777,-1.5787812,0.4382958,-0.61361414,125.09535,118.33491,19.269314,CSI
4614731288000,2.030004,4.77670952154828,-8.52845234596967,-3.37536955434956,-1.604743,0.33536503,-0.57635134,125.14693,119.02983,19.667116,CSI
4614736673000,2.035389,4.70549301463941,-8.85602803301135,-3.44032603255181,-1.6148223,0.2275473,-0.5693264,125.170494,119.64073,19.97683,CSI
4614741288000,2.040004,4.6018707052987,-8.81457916121167,-3.79264165925162,-1.6102408,0.17715092,-0.58459806,125.17904,120.24,20.271755,CSI
4614746223000,2.044939,4.49722886994355,-8.72740184621374,-4.1064961738174,-1.5711454,0.1853976,-0.59986967,125.18918,120.72154,20.513094,CSI
4614751285000,2.050001,4.40757761783142,-8.51506981662449,-4.24805100802025,-1.5134187,0.21471913,-0.623388,125.18658,121.19319,20.75249,CSI
4614756227000,2.054943,4.31969177841802,-8.29207031618648,-4.40498490455736,-1.4541647,0.22266038,-0.6444628,125.147736,121.69367,20.95141,CSI
4614761295000,2.060011,4.2281635922263,-8.00223147583028,-4.63888985630173,-1.389413,0.22968534,-0.66248333,125.11318,122.17521,21.155733,CSI
4614766227000,2.064943,4.13791074661017,-7.7551845661017,-4.8478933338983,-1.3347405,0.24678956,-0.66828656,125.09143,122.674736,21.370611,CSI
4614771269000,2.069985,4.04284289139702,-7.58571553114193,-5.01736236885807,-1.3005321,0.25503623,-0.6808093,125.063416,123.16006,21.588278,CSI
4614776636000,2.075352,3.94306024862113,-7.4113716702588,-5.18244634497242,-1.2596041,0.22510384,-0.68233645,125.01202,123.674034,21.794691,CSI
4614781298000,2.080014,3.88623329707255,-7.38769377378023,-5.00249413394145,-1.2473868,0.27366763,-0.6817256,124.98078,124.17935,22.012302,CSI
4614786245000,2.084961,3.83109988470093,-7.38304156609558,-4.86668169798617,-1.2699889,0.22907446,-0.66920286,124.93672,124.71252,22.226946,CSI
4614791317000,2.090033,3.83596648419998,-7.62150514481515,-5.38254149896804,-1.3332134,0.09193522,-0.6719518,124.87378,125.24471,22.435783,CSI
4614796290000,2.095006,3.84620344972599,-7.8633472871596,-5.90052155288762,-1.4391985,0.05375614,-0.65118235,124.83446,125.74663,22.632517,CSI
4614801286000,2.100002,3.91074531675238,-8.18605704350392,-6.54190686191721,-1.5790867,0.019547688,-0.65484756,124.75302,126.26611,22.816093,CSI
4614806257000,2.104973,3.97496421606947,-8.507151959194,-7.18008267680634,-1.7198911,-0.02687807,-0.67164636,124.63071,126.83444,22.97159,CSI
4614811263000,2.109979,4.02811988747815,-8.851548096191,-7.68532276667587,-1.8344283,-0.0870483,-0.70280045,124.492874,127.42058,23.122786,CSI
4614816289000,2.115005,4.07683292083908,-9.20582560626553,-8.1370267596467,-1.9608774,-0.18203785,-0.72143185,124.333244,128.0304,23.261335,CSI
4614821243000,2.119959,4.05551861283784,-9.47450346790541,-8.51698449662162,-2.069917,-0.25778514,-0.72234815,124.12583,128.70576,23.370914,CSI
4614826310000,2.125026,3.97354970248311,-9.67942574379223,-8.84895901579392,-2.1704042,-0.27855456,-0.72051555,123.90834,129.39651,23.475235,CSI
4614831228000,2.129944,3.8913367198252,-9.83400935024515,-9.13817332818162,-2.2476788,-0.23151793,-0.68936145,123.70113,130.09972,23.553917,CSI
4614836317000,2.135033,3.79263800029844,-9.76647893860584,-9.26804046408015,-2.2739458,-0.10995574,-0.6407976,123.514984,130.79526,23.633307,CSI
4614841266000,2.139982,3.69707818148014,-9.66900519698894,-9.24977427816071,-2.3087652,0.043676864,-0.5861252,123.33821,131.4911,23.671339,CSI
4614846287000,2.145003,3.60113464023218,-9.49456256031199,-8.88780553382913,-2.3393085,0.1255328,-0.5305365,123.186966,132.169,23.704317,CSI
4614851301000,2.150017,3.50582123528883,-9.3280979861436,-8.52450996220983,-2.3835962,0.122478485,-0.5140431,123.05859,132.85449,23.733658,CSI
4614856278000,2.154994,3.41576023943675,-9.2337481454022,-8.14711077836962,-2.434298,0.0888809,-0.5152648,122.95286,133.52863,23.761223,CSI
4614861261000,2.159977,3.32559067095555,-9.13928456163397,-7.76925662263811,-2.4749205,0.053450707,-0.5500842,122.86084,134.17479,23.798212,CSI
4614866289000,2.165005,3.12206900771181,-8.6540430817003,-7.24217792590426,-2.4788911,-0.05100725,-0.5684101,122.74872,134.81033,23.812614,CSI
4614871269000,2.169985,2.90353066316662,-8.11467174505216,-6.69815688992883,-2.436436,-0.14172074,-0.59406644,122.62581,135.44,23.831392,CSI
4614876357000,2.175073,2.91022696829102,-7.60662249400614,-6.40357952396082,-2.3848178,-0.22999077,-0.6236934,122.49816,136.0234,23.842033,CSI
4614881613000,2.180329,2.96909626853954,-7.09151623208908,-6.15829090952683,-2.3109033,-0.28680122,-0.6249151,122.3601,136.58139,23.84094,CSI
4614886284000,2.185,3.02141333502753,-6.6337420027484,-5.94030325389114,-2.262034,-0.32711834,-0.6264423,122.20868,137.13013,23.85129,CSI
4614891273000,2.189989,3.07729212858535,-6.14480266852005,-5.70747507706252,-2.2043073,-0.3631594,-0.62949663,122.07585,137.64867,23.854355,CSI
4614896288000,2.195004,3.32348061540964,-5.64586029309376,-5.77782705372671,-2.1792617,-0.38637227,-0.63163465,121.93982,138.15509,23.851843,CSI
4614901220000,2.199936,3.64013553501923,-5.15225114083112,-5.96642295559006,-2.166739,-0.39492437,-0.6432411,121.79964,138.64453,23.847607,CSI
4614906256000,2.204972,3.96346768732131,-4.64823336086464,-6.15899573778468,-2.173764,-0.40042216,-0.6704246,121.64605,139.22844,23.947445,CSI
4614911295000,2.210011,4.2869924521049,-4.14391533202208,-6.35168323768116,-2.169488,-0.4025602,-0.69913524,121.49059,139.79996,24.047249,CSI
4614916280000,2.214996,4.63313003137273,-3.77373581144087,-6.74143900421411,-2.1679606,-0.43585235,-0.7302894,121.34126,140.3681,24.142635,CSI
4614921292000,2.220008,4.99463934940375,-3.46817439829642,-7.23636220783646,-2.143526,-0.47555858,-0.7516697,121.18815,140.92369,24.238134,CSI
4614926305000,2.225021,5.3645394573382,-3.27279864763048,-7.91997688496869,-2.1316142,-0.569021,-0.7672467,120.95687,141.71202,24.469767,CSI
4614931302000,2.230018,5.74418475887265,-3.22284539123173,-8.84910905010439,-2.1355848,-0.61361414,-0.8188649,120.714905,142.4961,24.709295,CSI
4614936283000,2.234999,6.09409278391342,-3.27583137303328,-9.5540002122628,-2.1200078,-0.53969944,-0.83291477,120.42797,143.39235,24.998356,CSI
4614941330000,2.240046,6.42132872323829,-3.4279269314866,-10.0563771581005,-2.084883,-0.4868596,-0.8723156,120.109634,144.2824,25.280413,CSI
4614946282000,2.244998,6.67153977942387,-3.64903659917695,-10.4010485122085,-2.046704,-0.40133846,-0.9147707,119.754814,145.26984,25.582266,CSI
4614951285000,2.250001,6.82489579821674,-3.973274921262,-10.5412592457247,-1.9947804,-0.31612277,-0.94897914,119.40389,146.23009,25.88932,CSI
4614956258000,2.254974,6.95026900934042,-4.30719976029217,-10.6529510909695,-1.949271,-0.27550024,-0.9837985,119.0359,147.20863,26.218382,CSI
4614961271000,2.259987,6.98214705137229,-4.68442468160691,-10.668890500332,-1.9474384,-0.20311269,-1.001819,118.68724,148.16449,26.561882,CSI
4614966226000,2.264942,7.03553484853101,-4.9498438226333,-10.6354976278564,-1.9498819,-0.16584991,-1.029308,118.35272,149.05814,26.901949,CSI
4614971300000,2.270016,7.12205882069443,-5.06520868384608,-10.5297462122861,-1.9236146,-0.14538592,-1.0476339,118.027596,149.92354,27.24134,CSI
4614976258000,2.274974,7.1942316890461,-5.11549869732009,-10.3791031175975,-1.8942931,-0.14966199,-1.0531317,117.74825,150.71574,27.555374,CSI
4614981291000,2.280007,7.24842958161544,-5.07033384186657,-10.1532778971139,-1.8371773,-0.13408493,-1.0580186,117.47334,151.4782,27.868784,CSI
4614986214000,2.28493,7.23690318561942,-5.0037840352874,-9.90145601167255,-1.7614299,-0.109650314,-1.0650436,117.233376,152.18835,28.18907,CSI
4614992012000,2.290728,7.00069454253995,-4.84823214142976,-9.49817346871758,-1.707063,-0.08155051,-1.063211,116.99934,152.8728,28.501547,CSI
4614996218000,2.294934,6.84545059179244,-4.69158856877735,-9.20883966392784,-1.6523905,-0.064751714,-1.0629056,116.79386,153.51733,28.83883,CSI
4615001285000,2.300001,6.6894332858087,-4.41855854351165,-8.86646871434313,-1.6310102,-0.04428773,-1.0491611,116.598526,154.14073,29.17028,CSI
4615006263000,2.304979,6.55909715119521,-4.13136360826584,-8.54278689520444,-1.6129897,-0.03176499,-1.0274754,116.42147,154.72829,29.490425,CSI
4615011265000,2.309981,6.65079817663084,-3.65875074433809,-8.34057429951406,-1.5952746,-0.024740042,-0.98868537,116.25611,155.29465,29.80058,CSI
4615016253000,2.314969,6.74224254185932,-3.18746066731458,-8.13892767270407,-1.5268577,0.0061086523,-0.9492846,116.10249,155.84816,30.123034,CSI
4615021331000,2.320047,6.83533686556226,-2.70766696019241,-7.9336426745202,-1.4330899,0.07696902,-0.8949176,115.97169,156.37305,30.442234,CSI
4615026481000,2.325197,6.93455744846854,-2.22891252365202,-7.73776760113514,-1.3060299,0.1554652,-0.86284715,115.8581,156.86133,30.758602,CSI
4615031288000,2.330004,7.09673435772581,-1.89554897876505,-7.73326259682944,-1.1688906,0.2171626,-0.8323039,115.7678,157.30795,31.07437,CSI
4615036631000,2.335347,7.27036668911943,-1.53617371065283,-7.72396842646761,-1.0571023,0.27091873,-0.8078693,115.64553,157.85754,31.503279,CSI
4615041267000,2.339983,7.30032496219636,-1.42757513693489,-7.63783853800607,-0.95539325,0.2669481,-0.77671516,115.53106,158.3634,31.919163,CSI
4615046289000,2.345005,7.33277760399798,-1.30993449042679,-7.54453735167004,-0.8756753,0.23335053,-0.73884153,115.39734,158.90038,32.366867,CSI
4615051284000,2.35,7.27481146155401,-1.2670801461554,-7.47291670756795,-0.8179486,0.19853121,-0.70463306,115.26661,159.40678,32.799744,CSI
4615056263000,2.354979,7.15918149381631,-1.27189805938163,-7.41510184946954,-0.77488256,0.18295415,-0.6658431,115.142654,159.88403,33.214172,CSI
4615061786000,2.360502,7.04622548329571,-1.17285401954853,-7.40275060722348,-0.75686204,0.12583824,-0.6249151,115.01291,160.35988,33.616165,CSI
4615066283000,2.364999,6.96067488013544,-1.04841693362528,-7.41441641399549,-0.6759224,0.11636983,-0.60994893,114.88762,160.8028,34.01595,CSI
4615071266000,2.369982,6.85543488752915,-0.959932642150919,-7.43118106753101,-0.64568454,0.09712757,-0.5687156,114.771065,161.22894,34.366528,CSI
4615076288000,2.375004,6.73431205619812,-0.941988526971365,-7.45361119979479,-0.57543504,0.0842994,-0.54092115,114.6519,161.62148,34.708733,CSI
4615081264000,2.37998,6.61429867334204,-0.924208774455741,-7.47583587883593,-0.5155703,0.067500606,-0.50946164,114.51478,162.0212,35.01555,CSI
4615086285000,2.385001,6.49319996045611,-0.906268232377577,-7.49826154472531,-0.45112398,0.08582657,-0.48502702,114.38551,162.39497,35.319862,CSI
4615091296000,2.390012,6.34904405649718,-0.903736772655367,-7.52255435932203,-0.3903429,0.12705997,-0.44348818,114.27161,162.74292,35.612385,CSI
4615096278000,2.394994,6.04695413403468,-1.00598266050653,-7.55973475452952,-0.3481932,0.15577064,-0.40591997,114.163666,163.07224,35.898598,CSI
4615101332000,2.400048,5.74186922822098,-1.11479955032945,-7.59797233301571,-0.3145956,0.18234327,-0.34697145,114.054695,163.37672,36.13548,CSI
4615106269000,2.404985,5.4590956344146,-1.27775383066396,-7.64110734992397,-0.29810223,0.2012801,-0.30085114,113.95595,163.66714,36.371105,CSI
4615111273000,2.409989,5.18621299259903,-1.42864045189827,-7.69162402497484,-0.28955013,0.20586158,-0.2501493,113.87711,163.91093,36.541286,CSI
4615116286000,2.415002,5.04127817854725,-1.44620824005123,-7.80581503778245,-0.27366763,0.22876903,-0.20311269,113.81702,164.13864,36.71428,CSI
4615122081000,2.420797,4.88324924226392,-1.46156238189579,-7.93697402978837,-0.27458394,0.26236662,-0.15302174,113.78596,164.31993,36.827732,CSI
4615126318000,2.425034,4.87242484883514,-1.41826495888316,-8.02356880046239,-0.27366763,0.31795537,-0.10720685,113.775024,164.48717,36.94727,CSI
4615131428000,2.430144,4.859370175618,-1.3660464477681,-8.12800573181576,-0.2779437,0.4034765,-0.076358154,113.77216,164.64381,37.040836,CSI
4615136281000,2.434997,4.91197284142455,-1.33545299962512,-8.21894651218369,-0.28252518,0.4746423,-0.046120327,113.78973,164.79007,37.139668,CSI
4615141278000,2.439994,4.99718841053421,-1.31302784985942,-8.30864757956888,-0.25809056,0.5647449,-0.04642576,113.8197,164.92859,37.264812,CSI
4615146320000,2.445036,5.10391553195321,-1.36363977760066,-8.38556378925577,-0.22021692,0.643852,-0.049480084,113.85018,165.07251,37.389446,CSI
4615151308000,2.450024,5.22752897300486,-1.47736390586896,-8.44984243784287,-0.18906279,0.72387534,-0.05589417,113.88974,165.21094,37.536625,CSI
4615156279000,2.454995,5.34512772816424,-1.6877875651186,-8.50108936216863,-0.15088372,0.7556403,-0.06078109,113.9242,165.3483,37.694073,CSI
4615161332000,2.460048,5.460874010295,-1.96750782666932,-8.54449460195336,-0.13133603,0.8188649,-0.07727446,113.96479,165.48393,37.88015,CSI
4615166319000,2.465035,5.56123203661327,-2.37010625228833,-8.68717225629291,-0.1001819,0.88697636,-0.09590584,114.02082,165.5931,38.081257,CSI
4615171307000,2.470023,5.652324863463,-2.85745330396644,-8.89668537757437,-0.083383106,0.9596693,-0.118202426,114.07703,165.70291,38.29874,CSI
4615176369000,2.475085,5.70824358112276,-3.39414801542258,-9.15285119247378,-0.048258353,1.0836749,-0.14446963,114.18048,165.75725,38.54845,CSI
4615181425000,2.480141,5.72815744236068,-3.97164734011927,-9.45155807135513,-0.01038471,1.244638,-0.18478674,114.283325,165.81299,38.826523,CSI
4615186315000,2.485031,5.65329291368821,-4.46091673203422,-9.47846252091255,0.044593163,1.4004086,-0.23671028,114.45842,165.7774,39.10613,CSI
4615191343000,2.490059,5.50224510243346,-4.90948282180608,-9.2999513148289,0.09040806,1.5045611,-0.29046643,114.63119,165.74432,39.413227,CSI
4615196304000,2.49502,5.37351052788452,-5.26972754715779,-8.87884568531608,0.081855945,1.5143349,-0.3359759,114.86998,165.6268,39.6835,CSI
4615201323000,2.500039,5.26823913889497,-5.53290616952713,-8.1515158888004,0.013133603,1.4608842,-0.37782016,115.095345,165.52518,39.96292,CSI
4615206301000,2.505017,5.27159100985272,-5.70888501558151,-7.5046672289487,-0.10842858,1.3716979,-0.42332962,115.39064,165.34996,40.212105,CSI
4615211339000,2.510055,5.41371275957339,-5.77749566720162,-6.94598091833418,-0.25442538,1.3069462,-0.46395215,115.66824,165.20633,40.451027,CSI
4615216314000,2.51503,5.57304513109244,-5.79225980478345,-6.57451832973497,-0.39920044,1.2528846,-0.50793445,116.01811,165.02148,40.72523,CSI
4615221289000,2.520005,5.75343397262905,-5.74826259359128,-6.40292897637824,-0.5015204,1.2089024,-0.5653558,116.340805,164.8727,40.98307,CSI
4615226280000,2.524996,5.90872596664918,-5.66623472704376,-6.17864339104838,-0.5729916,1.1615603,-0.63346726,116.70752,164.72975,41.30859,CSI
4615231386000,2.530102,6.0062265611082,-5.49175945450729,-5.82456171517473,-0.64660084,1.0586295,-0.6914995,117.04182,164.62073,41.603474,CSI
4615236214000,2.53493,6.09893987949533,-5.34089351811615,-5.56372337607628,-0.74097955,0.9297369,-0.7360926,117.36637,164.54982,41.932156,CSI
4615241349000,2.540065,6.19840215393432,-5.20354109598382,-5.4074259048252,-0.84665924,0.84665924,-0.78954333,117.65546,164.5117,42.243412,CSI
4615246222000,2.544938,6.40337663414255,-5.01300931258747,-5.34847820397408,-0.9254609,0.8304713,-0.8481864,117.93098,164.51627,42.600666,CSI
4615251310000,2.550026,6.87064853199136,-4.67623676844925,-5.4916063912743,-0.95814216,0.8402451,-0.91446525,118.17139,164.5461,42.939976,CSI
4615256672000,2.555388,7.34868410405241,-4.33480407584298,-5.62277622902702,-0.9786061,0.88514376,-0.97524637,118.37408,164.62312,43.33442,CSI
4615261413000,2.560129,7.61383846892139,-4.18032285706886,-5.52363173979281,-1.0170907,0.88208944,-0.9941832,118.55984,164.71451,43.7123,CSI
4615266292000,2.565008,7.88671088954906,-4.02134503247512,-5.42160137426366,-1.0430524,0.8729264,-1.0372492,118.63953,164.92128,44.17324,CSI
4615271280000,2.569996,8.16567945566728,-3.85881554096587,-5.31729158470445,-1.0900891,0.8350528,-1.078788,118.704124,165.1413,44.61662,CSI
4615276393000,2.575109,8.46337745979423,-3.69182694438118,-5.2098989261812,-1.1417072,0.81245077,-1.1181889,118.75052,165.37325,45.055305,CSI
4615281275000,2.579991,8.86968996843472,-3.52836787012286,-5.10248273459195,-1.1869112,0.81397796,-1.16492,118.77281,165.62045,45.485226,CSI
4615286349000,2.585065,9.29248483236852,-3.35517958197606,-4.99169334708595,-1.2113458,0.8350528,-1.1960741,118.72112,165.95364,46.020054,CSI
4615291296000,2.590012,9.7108405169741,-3.14600171540424,-4.8940771258438,-1.2021828,0.8170323,-1.2174544,118.646255,166.292,46.53653,CSI
4615296546000,2.595262,10.1426800467919,-2.9291144100319,-4.80346294498405,-1.1734722,0.75136423,-1.2241739,118.51823,166.67876,47.095917,CSI
4615301324000,2.60004,10.3940977377703,-2.79124031669621,-4.8723999916519,-1.1533136,0.66798115,-1.2226468,118.37638,167.06213,47.6337,CSI
4615306287000,2.605003,10.6552501028447,-2.64802785850762,-4.94400622074619,-1.1450669,0.61086524,-1.2244794,118.17501,167.49556,48.21461,CSI
4615311292000,2.610008,10.7917182607402,-2.41260371087967,-4.98815737403757,-1.1322387,0.57696223,-1.2373075,117.95741,167.9193,48.766083,CSI
4615316706000,2.615422,10.8977876531523,-2.12814382397248,-5.0267280713409,-1.1157454,0.55924714,-1.2464706,117.73119,168.33344,49.292877,CSI
4615321285000,2.620001,10.951257276824,-1.85948293816677,-4.8836281385653,-1.1169671,0.5002986,-1.2596041,117.45566,168.78363,49.832283,CSI
4615326337000,2.625053,10.9908095944206,-1.54801072148988,-4.63148388203556,-1.1102476,0.38637227,-1.2745703,117.16142,169.22398,50.33784,CSI
4615331288000,2.630004,10.97474509,-1.32685100344898,-4.42973627171429,-1.1194105,0.2602286,-1.2852604,116.7957,169.71532,50.83862,CSI
4615336302000,2.635018,10.93064696,-1.14555811706122,-4.24844364114286,-1.1349876,0.15057829,-1.3096951,116.40084,170.20396,51.299942,CSI
4615341374000,2.64009,10.9443644295197,-0.997939922905115,-4.19799217118313,-1.1023064,0.0888809,-1.3356569,115.93429,170.7331,51.774254,CSI
4615346330000,2.645046,10.981429929715,-0.868209878797345,-4.20262538289731,-1.0818423,0.067500606,-1.3765849,115.437775,171.26624,52.21784,CSI
4615351307000,2.650023,11.0703277084548,-0.777913115842566,-4.2285876503207,-1.0363328,0.06841691,-1.4278975,114.88456,171.81789,52.66352,CSI
4615356261000,2.654977,11.1855936637512,-0.708753513778426,-4.26547285230321,-1.0213667,0.07788532,-1.4581354,114.317024,172.36603,53.092793,CSI
4615361247000,2.659963,11.3534725149885,-0.629771622589384,-4.32543880674236,-0.9828822,0.08277224,-1.5103643,87.65798,172.93372,53.524,CSI
4615366283000,2.664999,11.5600097033164,-0.543314240639379,-4.40228959112638,-0.93401295,0.102319926,-1.5683966,76.688286,173.49559,53.949066,CSI
4615371299000,2.670015,11.7153512906639,-0.437616345854772,-4.50984550257261,-0.87995136,0.095294975,-1.6178766,65.66912,174.06517,54.36862,CSI
4615376293000,2.675009,11.8344214091286,-0.318546051253112,-4.63883845037344,-0.84788096,0.06383542,-1.6667458,54.791634,174.6336,54.773716,CSI
4615381287000,2.680003,11.853920675,-0.165038449919767,-4.81097569947674,-0.8155051,0.01985312,-1.7116444,43.81079,175.2127,55.17294,CSI
4615386897000,2.685613,11.81747905,0.0275834300162791,-5.02962724337209,-0.77640975,-0.03634648,-1.7412714,33.138454,175.7829,55.54425,CSI
4615391297000,2.690013,11.7636523652906,0.157362433909215,-5.1632476834279,-0.7266242,-0.07666359,-1.7803668,22.281528,176.36932,55.895756,CSI
4615396327000,2.695043,11.6882520649579,0.294025401252201,-5.29519833202896,-0.6649268,-0.1282817,-1.8225164,11.823471,176.94455,56.211967,CSI
4615401320000,2.700036,11.6062635144554,0.416969608444406,-5.39982589247969,-0.62125,-0.18051068,-1.8689423,1.1078539,177.54599,56.4726,CSI
4615406259000,2.704975,11.5195050982619,0.528516110271639,-5.48245287335138,-0.5696318,-0.21533,-1.9181169,-9.166422,178.1358,56.708324,CSI
4615411257000,2.709973,11.4078031021031,0.651077814634412,-5.5462869634957,-0.5354234,-0.25961772,-1.960572,-19.550652,178.74408,56.885765,CSI
4615416281000,2.714997,11.2243020084995,0.803121244740111,-5.5515299457339,-0.50243664,-0.30634892,-2.0042489,-29.60162,179.34492,57.038063,CSI
4615421276000,2.719992,11.0535605865237,0.931766128233793,-5.58024990199081,-0.49754974,-0.33750305,-2.0448713,-39.837975,179.96498,57.145485,CSI
4615426291000,2.725007,10.8982901449719,1.02983183778799,-5.64154093312915,-0.48808134,-0.34880406,-2.0824397,-49.778347,-179.42284,57.231182,CSI
4615431315000,2.730031,10.7461133389253,1.12696691191761,-5.70282893248069,-0.46028697,-0.344528,-2.1273382,-59.903866,-178.79031,57.28232,CSI
4615436313000,2.735029,10.6348091532265,1.21044525873266,-5.76245626376547,-0.4025602,-0.32895094,-2.1725423,-69.72669,-178.16658,57.319447,CSI
4615441319000,2.740035,10.5233268095673,1.29405722435014,-5.82217903695706,-0.3417791,-0.312763,-2.2101104,-77.12975,-177.53114,57.315342,CSI
4615446244000,2.74496,10.3951507507287,1.34250291018572,-6.06917821554093,-0.28038713,-0.30940324,-2.244319,-77.174446,-176.90631,57.29843,CSI
4615451242000,2.749958,10.2556259217123,1.37439416290497,-6.4159964161739,-0.22113322,-0.2947425,-2.2574525,-77.2047,-176.29793,57.276764,CSI
4615456539000,2.755255,9.92367168809074,1.39698266862004,-6.7008864289225,-0.19333886,-0.27091873,-2.3075435,-77.21735,-175.67062,57.2207,CSI
4615461300000,2.760016,9.23039425330813,1.39323526427221,-6.77958274196597,-0.1459968,-0.21288654,-2.325564,-77.2191,-175.07109,57.167965,CSI
4615467531000,2.766247,8.35120675170826,1.38808361687463,-6.8764239886735,-0.118507855,-0.1328632,-2.3600779,-77.209946,-174.46538,57.041443,CSI
4615471284000,2.77,8.07625127911468,1.38274467890671,-6.87909342978313,-0.07727446,-0.13133603,-2.3628268,-77.18846,-173.88371,56.90076,CSI
4615476286000,2.775002,7.70979050802139,1.37562894010695,-6.88265126203209,-0.063224554,-0.12614368,-2.3515258,-77.16032,-173.30008,56.679253,CSI
4615481269000,2.779985,7.35653801341892,1.36317780830084,-6.89479789974083,-0.055588737,-0.13622294,-2.341141,-77.11481,-172.7313,56.446724,CSI
4615486294000,2.78501,7.07794999295144,1.31538655899721,-6.96357066926971,-0.06261369,-0.14294247,-2.3118196,-77.043564,-172.17981,56.212368,CSI
4615491408000,2.790124,6.79442777669856,1.26674885771588,-7.03356150377135,-0.084910266,-0.110872045,-2.269059,-76.955124,-171.63666,55.93535,CSI
4615496308000,2.795024,6.52276980649146,1.22014644545961,-7.10062350788906,-0.09437868,-0.058643065,-2.2269092,-76.812551406133,-171.13342191681,55.6623960479709,CSI
4615511170000,2.809886,5.69881455073271,1.07879847587744,-7.30402667221509,-0.1386664,-0.06780604,-2.1835377,-76.38012,-169.60707,54.83451,CSI
4615516224000,2.81494,5.41861875860482,1.03073141637883,-7.37319633931936,-0.14874569,-0.0888809,-2.1655173,-76.207504,-169.11105,54.432667,CSI
4615521169000,2.819885,5.14446597030398,0.983701022785515,-7.4408742189851,-0.16218472,-0.08979719,-2.1303926,-76.019875,-168.62726,54.03196,CSI
4615526230000,2.824946,5.03063025700612,1.01373819290507,-7.47125773893823,-0.16035213,-0.033292156,-2.096184,81.37618,-168.15738,53.641113,CSI
4615531150000,2.829866,4.94693952284389,1.0555835842609,-7.49450515160845,-0.15118915,0.060170226,-2.067168,80.62238,-167.70209,53.262215,CSI
4615536222000,2.834938,4.89673234148032,1.15722077135045,-7.40051971522312,-0.13897185,0.1328632,-2.053118,79.944534,-167.29526,52.877453,CSI
4615541179000,2.839895,4.85501280448198,1.26847296681965,-7.28463211244996,-0.1133155,0.16065755,-2.044566,79.287125,-166.90556,52.50879,CSI
4615546214000,2.84493,4.75308080993865,1.40111625705521,-7.12004448601227,-0.06261369,0.17012598,-2.0393736,78.63444,-166.52272,52.14087,CSI
4615551175000,2.849891,4.63649041120654,1.53713820291411,-6.94515904009202,-0.040927973,0.15393804,-2.0280726,78.00469,-166.15042,51.775997,CSI
4615556231000,2.854947,4.59678897831094,1.64948550009597,-6.77213959884837,-0.021991149,0.13041973,-2.0131063,77.360794,-165.76952,51.41703,CSI
4615561268000,2.859984,4.57364198138196,1.75596178264875,-6.60085162821497,-0.0106901415,0.15760323,-1.9825631,76.73818,-165.40471,51.07125,CSI
4615566255000,2.864971,4.57479477251376,1.82456360610092,-6.59340303637615,0.0021380284,0.17715092,-1.9394971,76.102615,-165.0222,50.721474,CSI
4615571262000,2.869978,4.5835931280367,1.88175296293578,-6.63739504366972,0.0067195175,0.20647246,-1.9089539,75.483284,-164.65164,50.38429,CSI
4615576264000,2.87498,4.62414771471039,1.99084002666258,-6.59917727367453,0.008552114,0.26083946,-1.8829921,74.849556,-164.27072,50.076786,CSI
4615581267000,2.879983,4.68777699207273,2.13767656896517,-6.50128605807539,0.004886922,0.3005457,-1.8524488,74.24179,-163.90446,49.77772,CSI
4615586256000,2.884972,4.73316523729563,2.21446500540874,-6.33608714,0.016798794,0.32375857,-1.8185458,73.643166,-163.54492,49.482906,CSI
4615591258000,2.889974,4.76764570777378,2.24894542445244,-6.12920442,0.029321533,0.33292156,-1.7843374,73.0653,-163.19838,49.199146,CSI
4615596267000,2.894983,4.79489238677563,2.28904470329866,-5.92716676463596,0.035430185,0.29443705,-1.752267,72.481026,-162.83759,48.924015,CSI
4615601259000,2.899975,4.81857113150074,2.33166654270431,-5.72826535839525,0.04520403,0.23732115,-1.7321084,71.92028,-162.49094,48.649837,CSI
4615606286000,2.905002,4.814204770282,2.46512416496746,-5.6223750802603,0.06078109,0.14263703,-1.700038,71.382835,-162.14911,48.390938,CSI
4615611298000,2.910014,4.79527401831986,2.64496635802603,-5.56558262670085,0.061391957,0.084910266,-1.6465873,70.87726,-161.82161,48.1333,CSI
4615616277000,2.914993,4.72232107816377,2.83338979598015,-5.57200460397022,0.062002823,0.03726278,-1.6105462,70.38269,-161.4901,47.8845,CSI
4615621280000,2.919996,4.61769754764268,3.02836984040695,-5.61480495861042,0.05467244,-0.00061086525,-1.5589281,69.93466,-161.17828,47.634346,CSI
4615626362000,2.925078,4.5265695662967,3.19614805604004,-5.64620453116639,0.04642576,-0.026267206,-1.50731,69.4734,-160.8403,47.37232,CSI
4615631262000,2.929978,4.44751427445248,3.34030784297889,-5.66945639322168,0.029932396,-0.042760566,-1.4416419,69.05297,-160.5197,47.114006,CSI
4615636285000,2.935001,4.37438523134749,3.45919985044165,-5.66553884119526,0.023518313,-0.06352998,-1.3750577,68.62417,-160.17366,46.819775,CSI
4615641742000,2.940458,4.30072342304078,3.5672372718474,-5.6409845974253,0.007941248,-0.08032878,-1.2993103,68.235794,-159.84525,46.535343,CSI
4615646287000,2.945003,4.27903463944292,3.69018767056396,-5.65838754264099,0.0021380284,-0.100792766,-1.2666291,67.83542,-159.49458,46.2229,CSI
4615651281000,2.949997,4.29548109387895,3.85876470866575,-5.71595077716644,-0.009773844,-0.08735373,-1.1930199,67.4831,-159.17128,45.934254,CSI
4615656251000,2.954967,4.32175451903842,4.02620474108901,-5.75368810600502,-0.008246681,-0.070554934,-1.1047498,67.132645,-158.83838,45.633717,CSI
4615661278000,2.959994,4.41006398043058,4.19352808180151,-5.6700262657849,0.004886922,-0.0580322,-1.0155635,66.815475,-158.52711,45.34931,CSI
4615666357000,2.965073,4.49718656071024,4.36486310487905,-5.59329072146166,0.020463986,-0.0729984,-0.9437868,66.49726,-158.20177,45.054287,CSI
4615671316000,2.970032,4.56073649026248,4.55551314875965,-5.59817927967061,0.027183503,-0.08277224,-0.8594874,66.21872,-157.90456,44.78189,CSI
4615676526000,2.975242,4.61461261703315,4.74811940728585,-5.5996158340663,0.025045475,-0.09254608,-0.7834347,65.93412,-157.59273,44.53037,CSI
4615681330000,2.980046,4.60706302934033,4.89156066688546,-5.58451665868067,0.038179077,-0.07238753,-0.70188415,65.683205,-157.30937,44.300163,CSI
4615686277000,2.984993,4.59928871412045,5.03927172251395,-5.56896802824089,0.047036625,-0.04886922,-0.63316184,65.4266,-157.0091,44.07438,CSI
4615691272000,2.989988,4.60037224086044,5.22198583151425,-5.53257809106708,0.05681047,-0.03023783,-0.5522222,65.205025,-156.73654,43.8694,CSI
4615696271000,2.994987,4.60544540214051,5.41983541337289,-5.48692059304864,0.06505715,-0.009773844,-0.464563,65.00915,-156.48611,43.684715,CSI
4615701284000,3,4.62163633221774,5.58411747449552,-5.38677897044,0.07666359,0.005192355,-0.3726278,64.805275,-156.22159,43.504642,CSI
4615706313000,3.005029,4.64059940958756,5.74056377860026,-5.27299996168914,0.07574729,0.01740966,-0.28955013,64.62906,-155.97757,43.343346,CSI
4615711966000,3.010682,4.71307304658635,5.87302722149084,-5.17549805025957,0.07391469,0.048563786,-0.21197024,64.43737,-155.7175,43.19582,CSI
4615716365000,3.015081,4.77909867991968,5.96793875970222,-5.10534574212949,0.055588737,0.080634214,-0.12980886,64.27643,-155.47731,43.067127,CSI
4615721285000,3.020001,4.87091901066364,6.04481205396105,-5.02229157629041,0.0729984,0.106901415,-0.06261369,64.092415,-155.22244,42.960285,CSI
4615726351000,3.025067,4.97182220788429,6.11360984734354,-4.93514804310834,0.09621128,0.1459968,0.00061086525,63.928185,-154.98636,42.877346,CSI
4615731282000,3.029998,5.08257703417383,6.21756748746765,-4.89839789525758,0.124311075,0.17470746,0.059864793,63.76162,-154.75021,42.82219,CSI
4615736286000,3.035002,5.20261299620105,6.3456057132671,-4.89039554792519,0.16493362,0.2049453,0.11636983,63.60909,-154.538,42.78618,CSI
4615741281000,3.039997,5.3048388308822,6.45959586991503,-4.8941441102591,0.20433442,0.21380283,0.15821409,63.45476,-154.33131,42.781597,CSI
4615746294000,3.04501,5.34512703878108,6.52506424061681,-4.93946840330431,0.21533,0.26175576,0.1872302,63.301426,-154.14014,42.798923,CSI
4615751248000,3.049964,5.37617191505916,6.57398930800428,-4.97609599661133,0.25289822,0.2959642,0.23457226,63.14499,-153.95656,42.834644,CSI
4615756272000,3.054988,5.38788471587711,6.58804476682896,-4.99483645345927,0.29871312,0.31642818,0.28191432,62.992916,-153.78696,42.880974,CSI
4615761374000,3.06009,5.39977936352305,6.60231844336628,-5.01386786485223,0.3381139,0.3463606,0.321926,62.841785,-153.62909,42.93764,CSI
4615766284000,3.065,5.4112263882078,6.61605496861094,-5.03218308044209,0.3659083,0.3622431,0.36865717,62.70879,-153.49297,43.002796,CSI
4615771287000,3.070003,5.42855182641236,6.62266200442918,-5.04877237948115,0.41172317,0.38331795,0.4147775,62.582798,-153.37938,43.079803,CSI
4615776283000,3.074999,5.46747546687155,6.60103758410919,-5.05742205729007,0.44257188,0.38973203,0.45265114,62.470684,-153.27939,43.161316,CSI
4615781680000,3.080396,5.50885013166874,6.56958453413009,-5.06925366760263,0.48472157,0.3817908,0.49418998,62.374992,-153.20207,43.246944,CSI
4615786286000,3.085002,5.53628697762573,6.44807818046028,-5.10844944247379,0.5180137,0.37568212,0.52473325,62.28747,-153.1369,43.33669,CSI
4615791290000,3.090006,5.56609461487471,6.31607258042474,-5.1510320862982,0.5571091,0.3726278,0.54061574,62.218273,-153.09683,43.43558,CSI
4615796300000,3.095016,5.71614610714354,6.22133748742055,-5.17885668636752,0.6035349,0.37720928,0.5222898,62.14886,-153.06468,43.53158,CSI
4615801268000,3.099984,5.90571623976852,6.14009303714069,-5.20142453685609,0.6435465,0.3866777,0.5131268,62.087868,-153.04509,43.62998,CSI
4615806290000,3.105006,6.18255724294418,6.0111796050511,-5.21876692796777,0.6765333,0.3921755,0.49571714,62.050385,-153.0616,43.7344,CSI
4615811277000,3.109993,6.50639854613797,5.85629909684552,-5.23284701872052,0.7281514,0.38423425,0.46853364,62.008728,-153.0845,43.83208,CSI
4615816284000,3.115,6.78431020032599,5.68233478850143,-5.25270414506569,0.7892379,0.364992,0.43982297,61.989975,-153.14432,43.95922,CSI
4615821277000,3.119993,7.02993734076855,5.49653991349732,-5.27632210867003,0.8350528,0.35155296,0.40622538,61.962215,-153.20274,44.077152,CSI
4615826328000,3.125044,7.27841775061741,5.30858679640423,-5.30021442474563,0.906524,0.3475823,0.3662137,61.969067,-153.3243,44.24941,CSI
4615831290000,3.130006,7.52251986775659,5.1239454645856,-5.32368575168428,0.9761627,0.34483343,0.3481932,61.975185,-153.44904,44.41271,CSI
4615836282000,3.134998,7.76809781389904,4.93818780065198,-5.34729898507359,1.0500773,0.3659083,0.3417791,61.96744,-153.57878,44.57155,CSI
4615841299000,3.140015,8.01490561754421,4.75149985995588,-5.37103047383845,1.1236867,0.3912592,0.34025195,61.955166,-153.71564,44.724846,CSI
4615846291000,3.145007,8.07153406411437,4.62921618423391,-5.42297567122203,1.1682798,0.4370741,0.33750305,61.929478,-153.85622,44.88281,CSI
4615851287000,3.150003,7.95946508015508,4.56352045884824,-5.50026457001858,1.2425,0.49632803,0.34391713,61.896473,-154.0141,45.0474,CSI
4615856406000,3.155122,7.83205196866738,4.49342481447175,-5.5716084383237,1.3252722,0.54519725,0.36071593,62.011585,-154.34819,45.375057,CSI
4615861379000,3.160095,7.5522588057182,4.39083415685891,-5.54362914150592,1.3988814,0.55955255,0.3839288,62.12324,-154.68915,45.701496,CSI
4615866609000,3.165325,7.23840436675487,4.25142361283311,-5.50411891608392,1.4538593,0.53023106,0.38820487,62.243904,-155.04327,45.99528,CSI
4615871327000,3.170043,6.7174846008694,3.74331342649783,-5.3461352013986,1.484708,0.48166725,0.3735441,62.365887,-155.3993,46.281082,CSI
4615876289000,3.175005,6.16962451644302,3.20892539245889,-5.17998106993007,1.5021176,0.43799037,0.35094208,62.49313,-155.75252,46.52673,CSI
4615881318000,3.180034,6.07569263950519,2.83435614306997,-5.07803029289705,1.5131133,0.38728857,0.30634892,62.620415,-156.09476,46.74797,CSI
4615886219000,3.184935,6.03823382322426,2.48890239784517,-4.98646412370311,1.5286902,0.30543262,0.26939157,62.759346,-156.43073,46.944466,CSI
4615891335000,3.190051,6.06092071588664,2.14751128023631,-5.07110078934736,1.5607607,0.24220806,0.22449298,62.954224,-156.81389,47.10889,CSI
4615896269000,3.194985,6.11762491470507,1.82909588856272,-5.25429871088341,1.5632042,0.18173242,0.16218472,63.147568,-157.17659,47.242916,CSI
4615901285000,3.200001,6.2007182362069,1.54741386793103,-5.48103765172414,1.5775595,0.15149458,0.11911872,63.40047,-157.60335,47.40416,CSI
4615906275000,3.204991,6.31219185030426,1.31477323578093,-5.75245164665314,1.582141,0.14508049,0.095294975,63.644794,-158.01347,47.54704,CSI
4615911240000,3.209956,6.41345498915833,1.14277425853289,-6.03381969377589,1.5494597,0.14844026,0.07422013,63.96972,-158.48727,47.688366,CSI
4615916294000,3.21501,6.50637423709205,1.0302929615338,-6.33213963984036,1.5286902,0.15332718,0.06811147,64.28935,-158.95578,47.824116,CSI
4615921286000,3.220002,6.57437805661647,0.992729169833387,-6.55140879303108,1.5082263,0.14019357,0.076052725,64.68596,-159.47649,47.950577,CSI
4615926330000,3.225046,6.62081081598846,1.02368427540852,-6.70231493776033,1.5015068,0.112704635,0.08460484,65.0779,-159.98763,48.070183,CSI
4615931402000,3.230118,6.66775675336577,1.059388025196,-6.85316463941606,1.5054774,0.063224554,0.111177474,65.517944,-160.53438,48.164814,CSI
4615936288000,3.235004,6.7183566396053,1.19010448604127,-6.97966448710462,1.5183055,0.05131268,0.14782938,65.95604,-161.07762,48.260704,CSI
4615941260000,3.239976,6.76984715012165,1.32312172781833,-7.10839089781022,1.5457945,0.0061086523,0.16187929,66.415184,-161.62079,48.31309,CSI
4615946301000,3.245017,6.82738010322732,1.41540783523783,-7.23233839060888,1.5473217,0.003970624,0.19394971,66.87982,-162.16519,48.37714,CSI
4615951285000,3.250001,6.8855938217375,1.49601144548269,-7.35324385273478,1.5378532,0.009773844,0.23823744,67.3533,-162.7097,48.431667,CSI
4615956282000,3.254998,6.94766415243681,1.48603809335241,-7.43302511998093,1.5531249,0.003970624,0.2742785,67.790115,-163.23134,48.462498,CSI
4615961265000,3.259981,7.01138348671435,1.43142151432523,-7.49219283900811,1.5415184,-0.005497787,0.31429017,68.23588,-163.74843,48.496887,CSI
4615966854000,3.26557,7.06175036445765,1.35568208292224,-7.50476596374443,1.496009,-0.026267206,0.34697145,68.67278,-164.24925,48.51283,CSI
4615971280000,3.269996,7.09114189812779,1.28850123410599,-7.48797083922734,1.4376713,-0.040317107,0.38606682,69.11839,-164.74689,48.530785,CSI
4615976262000,3.274978,7.12873517547569,1.22423544704978,-7.4238879179704,1.3460416,-0.06383542,0.43157628,69.588615,-165.24591,48.546185,CSI
4615981292000,3.280008,7.17039803805497,1.16868517307323,-7.32204583763214,1.241889,-0.101098195,0.46273044,70.06276,-165.72821,48.554043,CSI
4615986282000,3.284998,7.16744426865672,1.13514223920398,-7.28004080199005,1.1612549,-0.1255328,0.4981606,70.558556,-166.21513,48.572697,CSI
4615991267000,3.289983,7.11519105223881,1.12564167243781,-7.30379221890547,1.0839803,-0.12217305,0.52687126,71.05521,-166.68005,48.588455,CSI
4615996293000,3.295009,6.99996742383977,1.18781038955545,-7.32536735761602,1.0549643,-0.10751228,0.56169057,71.561554,-167.14798,48.625107,CSI
4616001388000,3.300104,6.80927354596971,1.33559829424524,-7.34443674540303,1.0231993,-0.09468412,0.5879578,72.06618,-167.5971,48.660915,CSI
4616006276000,3.304992,6.5499561503008,1.50773012140501,-7.2857736276732,0.99021256,-0.10629055,0.6178902,72.57181,-168.0404,48.685307,CSI
4616011285000,3.310001,6.17758856782457,1.72649588777411,-7.11820823986028,0.95172805,-0.14049901,0.6435465,73.078255,-168.47345,48.705845,CSI
4616016213000,3.314929,5.93431467262207,1.87739340293371,-7.0085697190539,0.9074403,-0.1863139,0.66798115,73.550896,-168.86249,48.68444,CSI
4616021278000,3.319994,5.92446674134606,1.90693755667445,-7.0036457019998,0.8720101,-0.22479841,0.68569624,74.025444,-169.24321,48.655468,CSI
4616026250000,3.324966,5.98266754462875,1.91780475136256,-7.01491246003159,0.82772243,-0.24495697,0.70341134,74.412544,-169.54855,48.584915,CSI
4616031291000,3.330007,6.15426720627962,1.89873809463863,-7.05304567393365,0.77213365,-0.31490102,0.6985244,74.79999,-169.839,48.48957,CSI
4616036851000,3.335567,6.29246935637631,1.84164994829268,-7.18071618188153,0.7012733,-0.3811799,0.69974613,75.173225,-170.11073,48.390076,CSI
4616041313000,3.340029,6.34777159315082,1.75656940292683,-7.37640142289696,0.61269784,-0.40011674,0.70921457,75.54235,-170.36475,48.28521,CSI
4616046218000,3.344934,6.38631711315605,1.6710754433386,-7.60115431226962,0.5684101,-0.40194935,0.7458665,75.928955,-170.62433,48.189037,CSI
4616051308000,3.350024,6.38203894894681,1.59834580300158,-7.85356899368088,0.49174652,-0.3436117,0.77854776,76.3057,-170.85791,48.105595,CSI
4616056282000,3.354998,6.38035584512395,1.49521273622365,-8.09897705635033,0.43982297,-0.23976462,0.806953,76.70596,-171.11537,48.015556,CSI
4616061297000,3.360013,6.41182525764989,0.965476374860762,-8.32975358796549,0.38637227,-0.09712757,0.81306165,77.09262,-171.35547,47.95431,CSI
4616066265000,3.364981,6.47339445848778,0.40946512908123,-8.55087483684937,0.32436943,0.056505036,0.8045095,77.4964,-171.60547,47.888012,CSI
4616071264000,3.36998,6.63385708548896,-0.251262813249211,-8.74909277602524,0.25625798,0.16401732,0.76083267,77.87126,-171.8329,47.847332,CSI
4616076330000,3.375046,6.8050439506201,-0.962470545093759,-8.97528731322552,0.16340645,0.2434298,0.6814202,78.33141,-172.13387,47.825905,CSI
4616081295000,3.380011,7.00318385438039,-1.80692364654232,-9.28665030062506,0.05681047,0.27550024,0.6056729,78.76115,-172.40431,47.817898,CSI
4616086266000,3.384982,7.21315742025427,-2.63997442500971,-9.5864304527368,-0.052534413,0.2959642,0.50426924,79.30094,-172.77199,47.830746,CSI
4616091290000,3.390006,7.47464594230396,-3.42910922966809,-9.8385797664014,-0.1685988,0.32162055,0.38331795,79.787476,-173.08923,47.846886,CSI
4616096274000,3.39499,7.71184080050403,-4.13135323941532,-10.0639175828629,-0.29565877,0.36560285,0.24709499,80.42695,-173.53275,47.86874,CSI
4616101325000,3.400041,7.80448948084677,-4.30689840221774,-10.1273086512097,-0.41172317,0.34666604,0.11728613,81.00576,-173.91931,47.871853,CSI
4616106407000,3.405123,7.89112418634357,-4.31909112961398,-10.1926946909928,-0.49754974,0.2855795,-0.016493361,81.71025,-174.41473,47.88339,CSI
4616111265000,3.409981,7.94356042631727,-3.57187351225697,-10.2626102859961,-0.55833083,0.31031954,-0.124005646,82.34628,-174.85376,47.906437,CSI
4616116550000,3.415266,7.99594402645994,-2.72974104210114,-10.3033827300205,-0.56779927,0.4089743,-0.20341812,82.95973,-175.28363,47.933838,CSI
4616121264000,3.41998,7.98711202029737,-1.63014984227722,-9.91918827164237,-0.52442783,0.54367006,-0.22632557,83.52995,-175.68562,47.975048,CSI
4616126615000,3.425331,7.97056163879599,-0.379837289297659,-9.46636988428094,-0.40378192,0.6762278,-0.20799962,83.86768,-175.92172,48.024357,CSI
4616131270000,3.429986,7.81720463210702,0.753300781270903,-8.71662415250836,-0.25992316,0.7247916,-0.18509217,84.18646,-176.15858,48.086887,CSI
4616136267000,3.434983,7.65258058002867,1.96968981212613,-7.91179506085045,-0.12614368,0.79290307,-0.1704314,84.21348,-176.18332,48.230312,CSI
4616141286000,3.440002,7.38419096494024,2.70619196621514,-6.9258856089243,-0.06872234,0.83016586,-0.17195857,84.241875,-176.22119,48.37621,CSI
4616146219000,3.444935,7.10657115856574,3.36495028916335,-5.93304251418327,-0.013133603,0.8136725,-0.17837265,84.273155,-176.28458,48.523346,CSI
4616151283000,3.449999,6.90045940334047,3.6244510947799,-5.30453228311258,-0.01282817,0.74097955,-0.15974127,84.00504,-176.10637,48.740326,CSI
4616156252000,3.454968,6.71044475623296,3.81446608063888,-4.74839094370861,-0.0290161,0.6768387,-0.1142318,83.748375,-175.94318,48.949318,CSI
4616161296000,3.460012,6.34788637425392,3.50278028232676,-4.47319807779464,-0.059253927,0.64934975,-0.037873644,83.33377,-175.6526,49.252644,CSI
4616166218000,3.464934,5.95686571497218,3.08791697703591,-4.26815109307031,-0.06841691,0.569021,0.064446285,82.95664,-175.38225,49.51541,CSI
4616171287000,3.470003,5.67072495535635,2.58226214200763,-4.17909358109523,-0.060170226,0.39187005,0.14721853,82.54343,-175.07874,49.808685,CSI
4616176556000,3.475272,5.39753149081388,2.0403536524807,-4.11191455595101,-0.026267206,0.2012801,0.16798794,82.15254,-174.78992,50.065205,CSI
4616181311000,3.480027,5.36743990812429,1.66633966130897,-4.26022749239187,0.038789943,0.084910266,0.1685988,81.89335,-174.59688,50.275467,CSI
4616186319000,3.485035,5.47141161288325,1.34452259315578,-4.54738730839269,0.09590584,0.06078109,0.14660765,81.63848,-174.40884,50.45192,CSI
4616191332000,3.490048,5.76730305386464,1.20044430910092,-5.04206676041249,0.1518,0.13897185,0.13744467,81.533485,-174.34373,50.6037,CSI
4616196313000,3.495029,6.15892993992791,1.14790897200641,-5.63905915939127,0.14813483,0.29016098,0.1328632,81.41631,-174.27399,50.76598,CSI
4616201333000,3.500049,6.47197592854681,1.08429695561938,-6.10729631935669,0.13164146,0.44532076,0.12461651,81.376144,-174.27554,50.92049,CSI
4616206266000,3.504982,6.73880546866743,1.0164589497511,-6.5007569045089,0.080634214,0.55771995,0.11728613,81.32622,-174.26897,51.102646,CSI
4616211289000,3.510005,6.99895686032364,0.955791597111839,-6.74184062470299,0.011301007,0.591623,0.12370021,81.312454,-174.2818,51.26071,CSI
4616216285000,3.515001,7.24886804741909,0.90188918822204,-6.85944576882425,-0.051618114,0.573297,0.12614368,81.289345,-174.28394,51.431583,CSI
4616221291000,3.520007,7.50207294626748,0.79693291662793,-6.90197658426236,-0.09468412,0.52778757,0.12003502,81.29891,-174.30072,51.576305,CSI
4616226292000,3.525008,7.75677593498129,0.660147952341934,-6.8972599133248,-0.11789699,0.48899764,0.105374254,81.30649,-174.30832,51.714184,CSI
4616231298000,3.530014,8.01935335479645,0.533652171557224,-6.87471175566033,-0.099571034,0.49357912,0.09193522,81.32784,-174.32996,51.86445,CSI
4616236296000,3.535012,8.28690582460618,0.414739925440122,-6.83957858966179,-0.07513642,0.49113566,0.076358154,81.34467,-174.34454,51.997925,CSI
4616241280000,3.539996,8.55370884772175,0.296160766847157,-6.80454383589295,-0.052534413,0.48441613,0.04917465,81.384346,-174.38777,52.16499,CSI
4616246479000,3.545195,8.82616956367226,0.171062127518921,-6.76786864429089,0.00030543262,0.49602258,0.039095376,81.42317,-174.44002,52.332645,CSI
4616251314000,3.55003,9.01408703323462,0.0390120673785236,-6.73231678375562,0.048563786,0.5213735,0.01740966,81.44331,-174.48572,52.49673,CSI
4616256265000,3.554981,9.18953171702638,-0.0956532405395684,-6.70989689724221,0.06658431,0.5384777,0.008246681,81.51339,-174.5828,52.733673,CSI
4616261318000,3.560034,9.30557905235811,-0.231041423120504,-6.73890857960632,0.08368854,0.56779927,-0.004886922,81.56841,-174.67998,52.973534,CSI
4616266299000,3.565015,9.41477943126551,-0.324789205354839,-6.73002858430108,0.06963864,0.60994893,-0.028405234,2.9910307,-174.7948,53.246895,CSI
4616271286000,3.570002,9.50563687890819,-0.277385196419355,-6.58781650387097,0.057726767,0.634689,-0.044898596,5.4723687,-174.90868,53.515713,CSI
4616276321000,3.575037,9.59736883176179,-0.229524922709677,-6.44423562860215,0.05467244,0.6429357,-0.054061573,8.38161,-175.04277,53.797855,CSI
4616281284000,3.58,9.65436499990659,-0.159605987960956,-6.26659318130021,0.03176499,0.61911196,-0.054367006,11.036367,-175.16656,54.06945,CSI
4616286216000,3.584932,9.70289494012703,-0.0846052629730992,-6.08129721343172,0.03176499,0.6035349,-0.04795292,13.739294,-175.29008,54.337765,CSI
4616292024000,3.59074,9.69282359944667,0.064923865754688,-5.86816258130956,0.032375857,0.59650993,-0.044593163,16.061192,-175.39386,54.635784,CSI
4616296248000,3.594964,9.66380745926837,0.193423243608976,-5.71479251306486,0.040317107,0.5888741,-0.03726278,18.402363,-175.49883,54.92106,CSI
4616301283000,3.599999,9.60185302019146,0.337128112296678,-5.57575562062586,0.04642576,0.5766568,-0.034208454,20.404264,-175.58282,55.23484,CSI
4616306269000,3.604985,9.52887034993162,0.475411322751187,-5.45667842120505,0.039095376,0.5543602,-0.011301007,22.413315,-175.6706,55.5354,CSI
4616311261000,3.609977,9.45709478041415,0.629497415819672,-5.31548943636756,0.032070424,0.5158757,0.004886922,23.857008,-175.7256,55.846,CSI
4616316290000,3.615006,9.38956884836066,0.842464642172131,-5.09213338729508,0.020463986,0.4728097,0.039095376,25.325209,-175.78748,56.141403,CSI
4616321280000,3.619996,9.31514925700853,1.06470311332927,-4.96029890397005,0.017104227,0.42088616,0.05589417,26.176394,-175.81111,56.43005,CSI
4616326498000,3.625214,9.22378473916072,1.31704184087585,-4.98640298702769,0.019547688,0.37323865,0.081855945,27.105177,-175.844,56.701004,CSI
4616331333000,3.630049,9.14405435,1.54198552125,-5.0111839025,-0.006414085,0.35277468,0.109650314,27.178207,-175.83548,56.98534,CSI
4616336283000,3.634999,9.12090729921875,1.66697974048828,-5.04358967691406,-0.016798794,0.32375857,0.124005646,27.380293,-175.83328,57.24626,CSI
4616341283000,3.639999,9.09788242456596,1.79211657121901,-5.0763760265992,-0.0421497,0.3100141,0.14202617,26.452822,-175.77866,57.477795,CSI
4616346290000,3.645006,9.09343069905301,1.8588945690233,-5.11199106258008,-0.065973446,0.29657507,0.17104226,25.568626,-175.73015,57.69581,CSI
4616351490000,3.650206,9.08880737717018,1.92824659390493,-5.14897891700399,-0.09712757,0.28924468,0.19181168,24.114716,-175.65498,57.89971,CSI
4616356260000,3.654976,9.08456636844304,1.99186373980596,-5.18290816038901,-0.13103059,0.28496864,0.21563543,22.641449,-175.58525,58.096542,CSI
4616361886000,3.660602,9.07956428980596,2.06689729595674,-5.22292617365611,-0.1563815,0.28588495,0.21960606,21.117847,-175.5131,58.289394,CSI
4616366282000,3.664998,9.03950194884886,2.03885608567575,-5.27807530869858,-0.18448131,0.301462,0.2321288,19.528177,-175.445,58.481567,CSI
4616371268000,3.669984,8.98430484914748,1.9836591780946,-5.34707139514498,-0.22510384,0.31856623,0.22266038,17.71832,-175.3685,58.66878,CSI
4616376276000,3.674992,8.93249425852243,1.922429603295,-5.37886788272718,-0.23915374,0.3359759,0.22540927,15.509373,-175.27257,58.83983,CSI
4616381281000,3.679997,8.88282905906124,1.85786479213553,-5.3888008188996,-0.26053402,0.35033122,0.22204952,13.05116,-175.168,59.009624,CSI
4616386280000,3.684996,8.79626070667904,1.79188006923006,-5.37299534599258,-0.28588495,0.3494149,0.21868975,10.746497,-175.0744,59.16556,CSI
4616391319000,3.690035,8.69329963302412,1.72473137424861,-5.34613598018553,-0.29810223,0.35216382,0.22021692,8.452715,-174.98198,59.3228,CSI
4616396287000,3.695003,8.59453625074754,1.67264390422896,-5.31463695044853,-0.29993483,0.35918877,0.204029,6.270158,-174.8954,59.474087,CSI
4616401285000,3.700001,8.49741631460914,1.63175120121743,-5.27885598876548,-0.31764993,0.33322698,0.20005837,4.0158362,-174.80992,59.614025,CSI
4616406309000,3.705025,8.40511330616653,1.55449704469756,-5.25444731553417,-0.3155119,0.31520647,0.20219639,2.0607095,-174.73857,59.751255,CSI
4616411266000,3.709982,8.31654489719167,1.46126806276512,-5.23580147047329,-0.30879238,0.2959642,0.18387043,-0.004350997,-174.66072,59.876534,CSI
4616416264000,3.71498,8.24812083921029,1.31651046749828,-5.18416604710736,-0.31215215,0.26939157,0.16829337,-1.967422,-174.58998,59.98994,CSI
4616421303000,3.720019,8.19124166044593,1.14113193551714,-5.11306635598664,-0.32589662,0.21838433,0.16065755,-3.9557633,-174.5174,60.087955,CSI
4616426286000,3.725002,8.14712614285714,0.987779257142857,-5.07160291428571,-0.32528573,0.19333886,0.1469131,-5.6409664,-174.45941,60.183853,CSI
4616431408000,3.730124,8.10992645862167,0.843630571769836,-5.04835323909375,-0.33108896,0.13530666,0.13469578,-7.4380407,-174.39804,60.25396,CSI
4616436283000,3.734999,8.07848024916355,0.722356278055501,-5.05132152351899,-0.3368922,0.08093964,0.12889257,-8.631302,-174.36832,60.32805,CSI
4616441301000,3.740017,8.05010622938398,0.613588535603228,-5.07969569143869,-0.3381139,0.04337143,0.11148291,-9.890629,-174.333,60.38781,CSI
4616446289000,3.745005,8.04327022259938,0.540462185405446,-5.13484133805537,-0.34391713,0.016493361,0.09437868,-10.726099,-174.32372,60.440292,CSI
4616451274000,3.74999,8.0612759358075,0.508051871548616,-5.22126891186543,-0.32803464,0.016493361,0.07971791,-11.488586,-174.31372,60.488056,CSI
4616456235000,3.754951,8.07919496152976,0.475797595311156,-5.30728038501923,-0.3051272,0.019242255,0.07696902,-11.901531,-174.32472,60.52541,CSI
4616461307000,3.760023,8.14930052850246,0.463565630589555,-5.33420107573999,-0.2843578,0.023518313,0.062002823,-12.314739,-174.33086,60.561058,CSI
4616466226000,3.764942,8.22970208362998,0.456674084484322,-5.34568697791974,-0.2733622,0.026267206,0.051923547,-12.64676,-174.3393,60.59655,CSI
4616471300000,3.770016,8.31263712951675,0.449565382524991,-5.35753480627103,-0.2507602,0.03573562,0.045814894,-12.682351,-174.35968,60.6207,CSI
4616476234000,3.77495,8.39328386116936,0.442652821337104,-5.36905573356415,-0.23060162,0.03604105,0.036651913,-12.711691,-174.37773,60.641895,CSI
4616481313000,3.780029,8.42491573787389,0.426729184628133,-5.38294153112369,-0.19425514,0.022602014,0.031154128,-12.54587,-174.40027,60.66128,CSI
4616486235000,3.784951,8.43444191673403,0.407676220113177,-5.39723124704931,-0.19822577,0.010079277,0.023823744,-12.518471,-174.41699,60.679947,CSI
4616491314000,3.79003,8.46523622804391,0.409243139383233,-5.4048276993014,-0.17470746,-0.0033597588,0.014966198,-12.106734,-174.44698,60.707294,CSI
4616496282000,3.794998,8.50322258732535,0.418739664748503,-5.40957605618762,-0.16279559,-0.026267206,0.0070249503,-11.803658,-174.47275,60.727592,CSI
4616501415000,3.800131,8.54536600546929,0.449454254995605,-5.40036790045903,-0.14049901,-0.046731193,-0.0030543262,-11.291739,-174.50407,60.74306,CSI
4616506314000,3.80503,8.58660535589413,0.486111564356871,-5.38662132272683,-0.12614368,-0.070249505,-0.014966198,-10.799706,-174.53297,60.75042,CSI
4616511318000,3.810034,8.63258624773203,0.530607228381019,-5.36912010090719,-0.1160644,-0.09193522,-0.021380283,-10.258604,-174.56143,60.754704,CSI
4616516361000,3.815077,8.68073279583292,0.578753821728641,-5.34986148166683,-0.11056661,-0.11759156,-0.033292156,-9.731049,-174.58638,60.75027,CSI
4616521297000,3.820013,8.71158770693556,0.679334310402361,-5.34702754138711,-0.09743301,-0.13103059,-0.040317107,-9.2654295,-174.60625,60.749786,CSI
4616526285000,3.825001,8.73508454825381,0.806217332033448,-5.35172690965076,-0.086437434,-0.14538592,-0.048258353,-8.830539,-174.62302,60.74129,CSI
4616531258000,3.829974,8.73917952382118,0.916053007658033,-5.35047141110513,-0.07941248,-0.15210545,-0.048258353,-8.538562,-174.63269,60.737434,CSI
4616536286000,3.835002,8.73210615223033,1.01743595705822,-5.34575592852176,-0.076052725,-0.15485434,-0.050396383,-8.244044,-174.64067,60.73033,CSI
4616541329000,3.840045,8.72501167869559,1.11912136155805,-5.3410263782696,-0.07238753,-0.15027285,-0.05009095,-8.388569,-174.62553,60.721687,CSI
4616546252000,3.844968,8.71808602071194,1.21838712526074,-5.33640936936787,-0.070554934,-0.14019357,-0.056505036,-8.547731,-174.60863,60.713615,CSI
4616551306000,3.850022,8.68506638384506,1.30752430368036,-5.34241628420089,-0.06688975,-0.12767084,-0.051923547,-8.6489,-174.59578,60.70771,CSI
4616556311000,3.855027,8.6314623555307,1.38549412322082,-5.35703570805205,-0.06811147,-0.13622294,-0.05009095,-8.79199,-174.58046,60.698425,CSI
4616561301000,3.860017,8.57455116587359,1.44653277336299,-5.35134581756491,-0.07147124,-0.14019357,-0.04886922,-9.639651,-174.52544,60.687386,SIT
4616566312000,3.865028,8.51498029212786,1.49617515951174,-5.33148873869867,-0.0870483,-0.14966199,-0.05131268,-10.54898,-174.46909,60.67253,SIT
4616571278000,3.869994,8.46638983517741,1.52651132952118,-5.33510805763068,-0.07941248,-0.1563815,-0.052534413,-11.634232,-174.40149,60.649418,SIT
4616576290000,3.875006,8.42289577184281,1.54711371389737,-5.35113206797024,-0.0870483,-0.18692477,-0.052534413,-12.867309,-174.3306,60.617332,SIT
4616581292000,3.880008,8.37948848836322,1.56767499215948,-5.36712410702022,-0.099265605,-0.22388211,-0.05100725,-14.252909,-174.25073,60.577896,SIT
4616586282000,3.884998,8.33618534070965,1.5881869430847,-5.3830777805227,-0.09621128,-0.25503623,-0.058643065,-15.605422,-174.17102,60.5317,SIT
4616591318000,3.890034,8.30546434515468,1.59212319559125,-5.43256195860731,-0.10567969,-0.2864958,-0.059253927,-17.073212,-174.09201,60.47635,SIT
4616596292000,3.895008,8.29005979691711,1.5767189690525,-5.51985279012612,-0.09712757,-0.30115658,-0.06872234,-18.45754,-174.01315,60.41711,SIT
4616601281000,3.899997,8.2700850399539,1.5512035270073,-5.60164477986938,-0.09712757,-0.30085114,-0.07727446,-20.08516,-173.92331,60.33865,SIT
4616606274000,3.90499,8.24712261083365,1.51905607828467,-5.67971723069535,-0.10262536,-0.30848694,-0.08124508,-21.687834,-173.83417,60.255203,SIT
4616611275000,3.909991,8.2336548397374,1.49636351816953,-5.72454898165669,-0.095294975,-0.3115413,-0.087964594,-23.180925,-173.74918,60.15995,SIT
4616616970000,3.915686,8.22838979629272,1.48056706827573,-5.74034521162387,-0.08002335,-0.30818152,-0.093767814,-24.643269,-173.66525,60.06608,SIT
4616621263000,3.919979,8.23277088494878,1.48112217257683,-5.7733579249803,-0.06627888,-0.31245756,-0.0983493,-25.933363,-173.58911,59.957195,SIT
4616626294000,3.92501,8.247008535658,1.495360021513,-5.83505536948385,-0.059253927,-0.3200934,-0.102319926,-27.17112,-173.51419,59.85012,SIT
4616631237000,3.929953,8.26489651280783,1.51518603560479,-5.89383739026802,-0.05222898,-0.30757064,-0.09773844,-28.27557,-173.44699,59.746952,SIT
4616636284000,3.935,8.28879825823361,1.54386818003165,-5.95120147945802,-0.047036625,-0.30879238,-0.089491755,-29.337557,-173.38167,59.640022,SIT
4616641270000,3.939986,8.29139918362283,1.57271127568238,-6.00499029280397,-0.02565634,-0.30879238,-0.08735373,-30.29122,-173.31856,59.53005,SIT
4616646291000,3.945007,8.26156960535567,1.60254075012407,-6.05470608354012,-0.02687807,-0.30604348,-0.082161374,-31.283281,-173.25693,59.42351,SIT
4616651303000,3.950019,8.21754982936277,1.64656058341081,-6.09639223067984,-0.015577064,-0.3005457,-0.06627888,-32.14161,-173.20029,59.311974,SIT
4616656294000,3.95501,8.15737459035445,1.70673606409065,-6.12879457989541,-0.0106901415,-0.27916542,-0.061086524,-33.033722,-173.14233,59.207623,SIT
4616661285000,3.960001,8.11532564258807,1.7565269403482,-6.15411637762167,-0.0033597588,-0.2666427,-0.05955936,-33.918575,-173.08508,59.093464,SIT
4616666294000,3.96501,8.10067373111383,1.79071466579108,-6.16876834009367,-0.011301007,-0.25289822,-0.04428773,-34.781643,-173.03209,58.989204,SIT
4616671271000,3.969987,8.07380686393206,1.81559489082038,-6.15100803183954,-0.0009162979,-0.23335053,-0.03145956,-35.71919,-172.97034,58.878204,SIT
4616676308000,3.975024,8.03022325207806,1.82866997437658,-6.08999079320564,0.00030543262,-0.21899518,-0.022296581,-36.691334,-172.91017,58.77266,SIT
4616681282000,3.979998,7.9915799262105,1.8367254704842,-6.02679354276602,0.01038471,-0.204029,-0.01985312,-37.6664,-172.84923,58.668873,SIT
4616686989000,3.985705,7.96516898700106,1.82616109480043,-5.94227842698367,0.017715093,-0.19975294,-0.02321288,-38.62004,-172.79004,58.56845,SIT
4616691251000,3.989967,7.94807648472441,1.81420917076772,-5.87964077086614,0.022602014,-0.20280726,-0.022296581,-39.587746,-172.73012,58.477764,SIT
4616696311000,3.995027,7.94330693669291,1.7760527367126,-5.8080975503937,0.02443461,-0.20433442,-0.02565634,-40.535995,-172.67004,58.38996,SIT
4616701279000,3.999995,7.94259153180862,1.73907154616193,-5.74217676656151,0.022907447,-0.20861048,-0.032070424,-41.465805,-172.61111,58.312,SIT
4616706270000,4.004986,7.97191007056607,1.70556449477743,-5.70866989011567,0.028099801,-0.2125811,-0.029626964,-42.320427,-172.5558,58.23566,SIT
4616712330000,4.011046,8.01141824407583,1.6623135457346,-5.66985579123223,0.025961773,-0.2171626,-0.03481932,-43.141514,-172.50334,58.171345,SIT
4616716283000,4.014999,8.10457746955888,1.58985641039008,-5.67675639187022,0.014049901,-0.2302962,-0.036651913,-43.960365,-172.45244,58.105297,SIT
4616721366000,4.020082,8.22436708330295,1.49668676228582,-5.68562959021145,0.01282817,-0.22693644,-0.037873644,-44.616932,-172.41072,58.054714,SIT
4616726288000,4.025004,8.2735514479018,1.43310364344847,-5.697391031002,0.013439035,-0.22296582,-0.04184427,-45.329876,-172.36713,58.00151,SIT
4616731299000,4.030015,8.28725075611381,1.38287214732134,-5.71109062531164,0.018936822,-0.226631,-0.046120327,-46.01736,-172.32443,57.948147,SIT
4616736283000,4.034999,8.28320926011387,1.34187321104785,-5.70447300789132,0.010079277,-0.22113322,-0.04428773,-46.365807,-172.30405,57.916553,SIT
4616741291000,4.040007,8.26404619388673,1.30833767006293,-5.68051905004495,0.00030543262,-0.19761491,-0.05222898,-46.721424,-172.28123,57.888718,SIT
4616746316000,4.045032,8.23320033368599,1.28186558067076,-5.64196135114262,0.002443461,-0.18784106,-0.05467244,-46.866222,-172.2725,57.85976,SIT
4616751285000,4.050001,8.19292367625899,1.2617270942446,-5.59161495107914,0.011301007,-0.1777618,-0.058337633,-47.043915,-172.26128,57.837357,SIT
4616756813000,4.055529,8.1180351099075,1.24031279343622,-5.57548247612405,-0.0027488936,-0.17867808,-0.056505036,-47.235844,-172.25421,57.818066,SIT
4616761298000,4.060014,8.045800498986,1.22331642483553,-5.57760697783054,-0.0070249503,-0.19150625,-0.047036625,-47.319332,-172.25099,57.79897,SIT
4616766280000,4.064996,7.96556129461344,1.20443662363852,-5.57996690369491,-0.01863139,-0.2049453,-0.039095376,-47.475372,-172.24704,57.784306,SIT
4616771322000,4.070038,7.8843557409309,1.18532944627294,-5.58235525098679,-0.021380283,-0.22113322,-0.028099801,-47.575172,-172.24687,57.766605,SIT
4616776311000,4.075027,7.8128672077135,1.15789007393743,-5.63198845316804,-0.032986723,-0.22876903,-0.027183503,-47.801544,-172.24352,57.747253,SIT
4616781287000,4.080003,7.74722787327824,1.12507035776269,-5.71169355509642,-0.032070424,-0.23854288,-0.03023783,-47.960236,-172.2433,57.72383,SIT
4616786283000,4.084999,7.68559212544379,1.1211601130835,-5.80246187547666,-0.03145956,-0.24831672,-0.027794369,-48.07874,-172.24673,57.682217,SIT
4616791309000,4.090025,7.6268214887574,1.13924332781065,-5.90191965088757,-0.04337143,-0.25961772,-0.03176499,-48.284775,-172.24608,57.637722,SIT
4616796285000,4.095001,7.57872899476323,1.16293556423398,-5.98225142607242,-0.03940081,-0.267559,-0.021685716,-48.23362,-172.25809,57.572975,SIT
4616801285000,4.100001,7.54316047108635,1.19405798763231,-6.04005003331476,-0.033292156,-0.2657264,-0.025961773,-48.283657,-172.26408,57.507927,SIT
4616806264000,4.10498,7.51640111796955,1.22669373150072,-6.10284643308476,-0.04062254,-0.25503623,-0.014660766,-48.35427,-172.2708,57.421295,SIT
4616811292000,4.110008,7.51144826386546,1.26384055102345,-6.17961660261777,-0.036957346,-0.258396,-0.0015271631,-48.345318,-172.27943,57.332966,SIT
4616816217000,4.114933,7.50659687037647,1.30022640745731,-6.2548141135466,-0.032375857,-0.24862215,0.0067195175,-48.474808,-172.28232,57.237907,SIT
4616821268000,4.119984,7.50162136001851,1.33754315077659,-6.33193545927278,-0.032986723,-0.24404067,0.0030543262,-48.609844,-172.28522,57.14258,SIT
4616826689000,4.125405,7.50059981031122,1.35402590766074,-6.38893455905438,-0.03848451,-0.22999077,0.016187929,-48.67331,-172.29405,57.056286,SIT
4616831300000,4.130016,7.50437530310363,1.34269931101231,-6.40969996653129,-0.034208454,-0.22357668,0.0143553335,-48.74057,-172.29967,56.969677,SIT
4616836251000,4.134967,7.50842918833789,1.33053752831737,-6.43199654697332,-0.034208454,-0.20708331,0.015271631,-49.003647,-172.29474,56.865696,SIT
4616841293000,4.140009,7.51255758449043,1.31815221053352,-6.45470294135602,-0.030543262,-0.18600847,0.01985312,-49.21501,-172.29158,56.767105,SIT
4616846225000,4.144941,7.5165959125,1.3060371,-6.47691395625,-0.03604105,-0.16737708,0.019547688,-49.479324,-172.28612,56.674232,SIT
4616851286000,4.150002,7.53162548044547,1.29898769794321,-6.48003993405237,-0.052534413,-0.15149458,0.016187929,-49.75894,-172.27966,56.58802,SIT
4616856282000,4.154998,7.55082722323668,1.29418728730812,-6.47523957354269,-0.048258353,-0.13958271,0.022296581,-49.928482,-172.27782,56.508305,SIT
4616861303000,4.160019,7.55269275706485,1.28946130369088,-6.4705136214822,-0.05375614,-0.12980886,0.01985312,-50.133907,-172.27588,56.426548,SIT
