timestamp,rel_time,acc_x,acc_y,acc_z,gyro_x,gyro_y,gyro_z,azimuth,pitch,roll,label
3140608851000,0,2.43274865322397,-9.42369782942723,-0.117438047047209,-0.018020526,-0.007941248,0.03023783,158.01819,103.731415,12.241882,STD
3140613867000,0.005016,2.43371110364146,-9.42417906594205,-0.127543809344086,-0.030848695,-0.013439035,0.026267206,158.01553,103.74356,12.291324,STD
3140618881000,0.01003,2.43467317030679,-9.42466011057627,-0.137645542230159,-0.014049901,-0.02107485,0.022296581,158.01839,103.73245,12.325963,STD
3140623829000,0.014978,2.43562257315084,-9.42513482315109,-0.147614304559693,-0.016187929,-0.015882496,0.021685716,158.0232,103.72629,12.360089,STD
3140628870000,0.020019,2.43658982047033,-9.42561845817326,-0.157770434491623,-0.00061086525,-0.0106901415,0.02565634,158.02567,103.71645,12.392881,STD
3140633853000,0.025002,2.43754593897718,-9.42609652865837,-0.167809711510231,-0.0125227375,-0.022907447,0.016187929,158.02399,103.71459,12.428419,STD
3140638830000,0.029979,2.43850090622755,-9.42657402350171,-0.177836900296426,-0.008552114,-0.02687807,0.023823744,158.02669,103.704216,12.457483,STD
3140643867000,0.035016,2.43946738604273,-9.4270572747627,-0.187984971406747,-0.013133603,-0.025045475,0.02107485,158.02681,103.70205,12.491119,STD
3140648850000,0.039999,2.44042350454958,-9.42753534524781,-0.198024248425355,-0.0036651916,-0.015882496,0.027183503,158.02827,103.69408,12.519315,STD
3140653851000,0.045,2.44138307682587,-9.42801514265822,-0.208099790141201,-0.0027488936,-0.02565634,0.029932396,158.02448,103.68975,12.547952,STD
3140658860000,0.050009,2.4423441841108,-9.42849570759097,-0.218191449500263,-0.004581489,-0.033292156,0.01863139,158.02357,103.68733,12.578407,STD
3140663869000,0.055018,2.44330529139573,-9.42897627252373,-0.228283108859325,-0.004886922,-0.032986723,0.029321533,158.0227,103.678665,12.601021,STD
3140668876000,0.060025,2.4442660149285,-9.4294566455759,-0.238370738807583,-0.009162978,-0.025961773,0.03176499,158.02095,103.67621,12.628387,STD
3140673849000,0.064998,2.44522021467455,-9.42993375665807,-0.248389868772171,-0.005497787,-0.02443461,0.028710667,158.01773,103.672,12.653436,STD
3140678869000,0.070018,2.44618343259636,-9.43041537693406,-0.258503689890656,-0.0061086523,-0.025350908,0.027794369,158.01585,103.66792,12.676634,STD
3140683850000,0.074999,2.44713916735105,-9.43089325553858,-0.26853893749846,-0.010995574,-0.027183503,0.03023783,158.01405,103.664215,12.699096,STD
3140688839000,0.079988,2.44809643711438,-9.43137190166546,-0.27859030274948,-0.00580322,-0.033292156,0.027488936,158.01045,103.66149,12.722511,STD
3140693864000,0.085013,2.44906061441659,-9.43185400164291,-0.288714197394976,-0.0021380284,-0.0290161,0.03359759,158.00955,103.65677,12.742298,STD
3140699616000,0.090765,2.45016428562899,-9.43240585021413,-0.30030278286779,0.0009162979,-0.032375857,0.026267206,158.00414,103.6562,12.765735,STD
3140703836000,0.094985,2.45097400268677,-9.4328107182549,-0.308804839664605,-0.004276057,-0.026267206,0.025350908,158.00296,103.65305,12.78536,STD
3140708929000,0.100078,2.45195122756242,-9.43329934217235,-0.319065734277442,-0.003970624,-0.029932396,0.022296581,157.99763,103.65186,12.806759,STD
3140713852000,0.105001,2.45289583350447,-9.43377165623982,-0.328984128971925,-0.014049901,-0.040927973,0.0290161,157.99207,103.65005,12.825011,STD
3140718842000,0.109991,2.45385329514388,-9.43425039830699,-0.339037508928348,-0.0076358155,-0.040317107,0.027488936,157.98848,103.64984,12.84608,STD
3140723843000,0.114992,2.45481286742017,-9.4347301957174,-0.349113050644193,-0.013133603,-0.04917465,0.018936822,157.97888,103.65199,12.8662195,STD
3140728867000,0.120016,2.4557768528463,-9.43521219975456,-0.359234930584287,-0.0070249503,-0.055283304,0.024129177,157.97054,103.64929,12.882411,STD
3140733851000,0.125,2.45673316322923,-9.43569036617997,-0.369276222308297,-0.022296581,-0.05009095,0.024129177,157.9626,103.652885,12.902004,STD
3140738833000,0.129982,2.45768908986,-9.43616834072479,-0.379313484621503,-0.02687807,-0.055588737,0.023518313,157.94989,103.65375,12.919369,STD
3140743862000,0.135011,2.45865403466653,-9.43665082446342,-0.389445438088607,-0.026572637,-0.06047566,0.024740042,157.93896,103.655106,12.935832,STD
3140748857000,0.140006,2.45961245568634,-9.43713004623206,-0.39950889157204,-0.03268129,-0.06963864,0.021685716,157.92514,103.65879,12.952969,STD
3140753829000,0.144978,2.46056646355631,-9.43760706137394,-0.409526006831225,-0.03023783,-0.069027774,0.02565634,157.91301,103.659424,12.967375,STD
3140758872000,0.150021,2.46153409462796,-9.43809088827669,-0.419686166173959,-0.04428773,-0.07666359,0.01740966,157.89557,103.66615,12.98527,STD
3140763850000,0.154999,2.46248925375441,-9.43856847906033,-0.429715369665556,-0.042760566,-0.09101892,0.028405234,157.87698,103.66492,12.995952,STD
3140769658000,0.160807,2.4636036700273,-9.43912570028801,-0.441416778640888,-0.040011674,-0.08979719,0.028405234,157.86049,103.669914,13.011808,STD
3140773873000,0.165022,2.46441242770468,-9.43953008862731,-0.449908761910691,-0.044898596,-0.09468412,0.033292156,157.83855,103.671005,13.0222645,STD
3140778865000,0.170014,2.46537027309625,-9.44000902257507,-0.459966171277918,-0.047036625,-0.10415252,0.031154128,157.81569,103.67343,13.034251,STD
3140783849000,0.174998,2.46632658347918,-9.44048718900047,-0.470007463001928,-0.053450707,-0.1001819,0.027183503,157.79564,103.67572,13.045171,STD
3140788835000,0.179984,2.46728327761427,-9.44096554730647,-0.480052784136743,-0.054061573,-0.105374254,0.022907447,157.77032,103.678246,13.0560255,STD
3140793865000,0.185014,2.46824841429688,-9.4414481269854,-0.490186752309249,-0.04917465,-0.119729586,0.017715093,157.74367,103.68203,13.067781,STD
3140798780000,0.189929,2.46919148523028,-9.44191967353052,-0.500089029360515,-0.055588737,-0.1255328,0.019242255,157.71834,103.68596,13.078498,STD
3140803829000,0.194978,2.47016026755842,-9.44240407607503,-0.510261276935661,-0.049480084,-0.13041973,0.01863139,157.68925,103.69022,13.090595,STD
3140808928000,0.200077,2.47017297036749,-9.44297317056923,-0.519478889891537,-0.03848451,-0.12858713,0.01985312,157.66089,103.69346,13.101326,STD
3140813852000,0.205001,2.46828910938563,-9.44367960952395,-0.526307900519693,-0.031154128,-0.13622294,0.019547688,157.62866,103.69686,13.1119585,STD
3140818850000,0.209999,2.46637693692679,-9.44439666514859,-0.533239540470854,-0.03970624,-0.13591751,0.02076942,157.61784,103.71021,13.127631,STD
3140823799000,0.214948,2.46448351125676,-9.44510669081612,-0.540103223167593,-0.038789943,-0.13041973,0.02687807,157.6066,103.72057,13.141461,STD
3140828861000,0.22001,2.46254685319621,-9.44583292842554,-0.547123623614328,-0.03970624,-0.13897185,0.032375857,157.59154,103.73125,13.154379,STD
3140833847000,0.224996,2.46063927178769,-9.44654826242803,-0.55403862097257,-0.02443461,-0.15577064,0.029321533,157.57576,103.740906,13.167545,STD
3140839503000,0.230652,2.45847535673623,-9.44735972033378,-0.561882829768842,-0.028099801,-0.15424347,0.023518313,157.56308,103.75114,13.179756,STD
3140843863000,0.235012,2.45680727511947,-9.44798524304754,-0.56792963852976,-0.027183503,-0.15332718,0.015882496,157.54544,103.76081,13.192627,STD
3140848875000,0.240024,2.45488974643526,-9.44870430723135,-0.574880694839328,-0.035430185,-0.1423316,0.014966198,157.53148,103.770935,13.205048,STD
3140853834000,0.244983,2.45299249488996,-9.44941576758401,-0.5817582463635,-0.03390302,-0.1386664,0.019242255,157.51582,103.78052,13.217583,STD
3140858934000,0.250083,2.45104129850339,-9.4501474569969,-0.588831348354482,-0.032375857,-0.13408493,0.010995574,157.50362,103.7941,13.233763,STD
3140863854000,0.255003,2.44915896787164,-9.45085332207757,-0.595654811451664,-0.036651913,-0.11484267,0.01863139,157.49738,103.80218,13.244153,STD
3140868843000,0.259992,2.44725023870054,-9.45156908648559,-0.602573969458135,-0.038789943,-0.12003502,0.021380283,157.4852,103.813225,13.257478,STD
3140873864000,0.265013,2.44532926672859,-9.45228944188601,-0.609537507712394,-0.04062254,-0.11942416,0.027183503,157.48064,103.82139,13.267899,STD
3140878854000,0.270003,2.44342015496996,-9.45300534976255,-0.616458052601609,-0.03940081,-0.11881329,0.025045475,157.47455,103.83066,13.279381,STD
3140883848000,0.274997,2.44150951286123,-9.45372183151314,-0.623384145021797,-0.04153884,-0.11911872,0.027183503,157.46864,103.83736,13.287708,STD
3140888857000,0.280006,2.4395931319396,-9.45444046529141,-0.630331040683136,-0.03970624,-0.12156218,0.025350908,157.46223,103.8451,13.29747,STD
3140893879000,0.285028,2.43767177738011,-9.45516096416034,-0.637295965820137,-0.033292156,-0.12583824,0.025045475,157.45535,103.85145,13.305891,STD
3140898850000,0.289999,2.4357699347845,-9.45587414613514,-0.644190159937229,-0.03176499,-0.11301007,0.024129177,157.4528,103.8585,13.31503,STD
3140903846000,0.294995,2.43385852750071,-9.45659091482275,-0.651119026122905,-0.030848695,-0.11362094,0.0290161,157.44525,103.86337,13.321987,STD
3140908990000,0.300139,2.43189049726296,-9.45732891685018,-0.658253150954592,-0.03726278,-0.10903945,0.024740042,157.44284,103.87129,13.331917,STD
3140913855000,0.305004,2.43002920894518,-9.45802689116268,-0.665000335500891,-0.03145956,-0.11911872,0.021685716,157.43608,103.87636,13.339588,STD
3140918846000,0.309995,2.42811971459903,-9.45874294250773,-0.67192226727285,-0.025045475,-0.105374254,0.01740966,157.4376,103.88322,13.349144,STD
3140923863000,0.315012,2.42620027297718,-9.4594627240341,-0.678880257996135,-0.02321288,-0.09254608,0.01863139,157.43599,103.88911,13.357532,STD
3140928859000,0.320008,2.4242888656934,-9.46017949272171,-0.68580912418181,-0.028710667,-0.10323623,0.022602014,157.43149,103.89531,13.365892,STD
3140933855000,0.325004,2.42237745840961,-9.46089626140932,-0.692737990367485,-0.029321533,-0.103847094,0.019547688,157.43355,103.90244,13.37611,STD
3140938837000,0.329986,2.4204714073512,-9.46161102153776,-0.699647440194754,-0.02321288,-0.10354166,0.018936822,157.43285,103.90756,13.384084,STD
3140943862000,0.335011,2.41854890502914,-9.46233195081222,-0.706616525979985,-0.02565634,-0.10354166,0.019547688,157.43184,103.91373,13.392329,STD
3140948852000,0.340001,2.41663979327051,-9.46304785868876,-0.7135370708692,-0.026267206,-0.09468412,0.01985312,157.4335,103.91938,13.400771,STD
3140953836000,0.344985,2.41473297703705,-9.46376290575422,-0.720449294461956,-0.029932396,-0.09040806,0.026267206,157.43394,103.92345,13.406981,STD
3140958863000,0.350012,2.41280970953993,-9.46448412196571,-0.727421154012674,-0.026267206,-0.094989546,0.02076942,157.43413,103.93007,13.416298,STD
3140963852000,0.355001,2.41090098036883,-9.46519988637374,-0.734340312019146,-0.035124753,-0.09590584,0.019242255,157.43678,103.934975,13.422645,STD
3140968844000,0.359993,2.40899110343515,-9.4659160811873,-0.741263630673847,-0.03176499,-0.09896017,0.024129177,157.43744,103.938286,13.428411,STD
3140973869000,0.365018,2.40706860111309,-9.46663701046177,-0.748232716459079,-0.023823744,-0.1020145,0.023518313,157.43767,103.943726,13.435975,STD
3140978842000,0.369991,2.40516599334242,-9.46735047937359,-0.755129684341658,-0.03023783,-0.103847094,0.019547688,157.43738,103.94946,13.442907,STD
3140983854000,0.375003,2.40324846465821,-9.4680695435574,-0.762080740651226,-0.038179077,-0.10170906,0.03023783,157.43762,103.95072,13.445667,STD
3140988840000,0.379989,2.40134088324969,-9.46878487755989,-0.768995738009468,-0.043982297,-0.11484267,0.040927973,157.43275,103.953255,13.449053,STD
3140993860000,0.385009,2.39942029386526,-9.46950508949179,-0.775957889380983,-0.036957346,-0.121256754,0.025350908,157.43022,103.95965,13.456953,STD
3140998785000,0.389934,2.39753605029588,-9.47021167191503,-0.782788286891882,-0.031154128,-0.11178834,0.02107485,157.42896,103.96045,13.458576,STD
3141003840000,0.394989,2.39560207034801,-9.47093690524487,-0.789798979159413,-0.025045475,-0.09590584,0.024740042,157.42763,103.96267,13.462225,STD
3141008910000,0.400059,2.40195112239794,-9.47078814624556,-0.789214594402687,-0.035430185,-0.073303826,0.025350908,157.43098,103.96758,13.4681,STD
3141013850000,0.404999,2.42910123065737,-9.46842726855267,-0.769383207558199,-0.042455133,-0.054367006,0.025350908,157.43796,103.970856,13.473192,STD
3141018842000,0.409991,2.45653712953006,-9.46604153951564,-0.749343069273243,-0.042455133,-0.05131268,0.03023783,157.4518,103.97175,13.473541,STD
3141023807000,0.414956,2.4838246371228,-9.46366871406115,-0.7294113211593,-0.04520403,-0.05955936,0.029321533,157.46753,103.97498,13.475702,STD
3141028857000,0.420006,2.51157930244874,-9.46125526621721,-0.709138344729207,-0.03359759,-0.05375614,0.03390302,157.48822,103.974304,13.475263,STD
3141033847000,0.424996,2.53900420937477,-9.45887049300111,-0.689106235345807,-0.034208454,-0.04550946,0.03604105,157.50691,103.97569,13.475708,STD
3141038837000,0.429986,2.56642911630079,-9.45648571978502,-0.669074125962408,-0.037873644,-0.04184427,0.03145956,157.52565,103.97709,13.476843,STD
3141043857000,0.435006,2.59401890242678,-9.454086609255,-0.648921583055662,-0.035124753,-0.03756821,0.030848695,157.54681,103.976456,13.476478,STD
3141048838000,0.439987,2.62139434559282,-9.45170613723308,-0.628925603729267,-0.033292156,-0.027794369,0.038789943,157.57045,103.97513,13.475203,STD
3141053833000,0.444982,2.64884673238551,-9.44931897446467,-0.608873422091976,-0.025350908,-0.025045475,0.036651913,157.59273,103.97615,13.476983,STD
3141058886000,0.450035,2.67661788563145,-9.44690409288933,-0.588588402309548,-0.026267206,-0.010079277,0.040927973,157.6214,103.97387,13.475178,STD
3141063857000,0.455006,2.70393836906417,-9.44452839997205,-0.568632567490935,-0.02321288,0.0030543262,0.040927973,157.64981,103.972595,13.475315,STD
3141068843000,0.459992,2.73134129209687,-9.44214553839782,-0.548616515910649,-0.017104227,0.0061086523,0.046120327,157.6794,103.96871,13.47296,STD
3141073842000,0.464991,2.75881566278289,-9.43975646398754,-0.528548276470245,-0.029626964,0.015577064,0.043676864,157.71405,103.96831,13.473291,STD
3141078867000,0.470016,2.78643292877553,-9.4373549639052,-0.508375661309608,-0.029626964,0.03390302,0.052839845,157.75201,103.9621,13.469208,STD
3141083849000,0.474998,2.81381386791491,-9.43497401397282,-0.488375667532434,-0.04153884,0.041233405,0.057421334,157.78885,103.95987,13.46727,STD
3141088835000,0.479984,2.84121679094761,-9.43259115239859,-0.468359615952148,-0.034513887,0.060170226,0.057726767,157.83392,103.95518,13.464727,STD
3141094412000,0.485561,2.87186783421944,-9.42992584574004,-0.445971023961924,-0.03023783,0.07574729,0.06383542,157.87971,103.94902,13.459573,STD
3141098854000,0.490003,2.89628094775961,-9.42780296745829,-0.428138833604998,-0.020158553,0.09254608,0.062308256,157.93056,103.94428,13.457175,STD
3141103831000,0.49498,2.92363440703232,-9.42542440707823,-0.408158912081716,-0.008857546,0.113926366,0.06719518,157.98677,103.93609,13.451902,STD
3141108862000,0.500011,2.95128464886496,-9.42302003953311,-0.387962210216409,0.0015271631,0.12583824,0.07696902,158.0443,103.92671,13.446122,STD
3141113852000,0.505001,2.97870955579099,-9.42063526631701,-0.36793010083301,0.020463986,0.14294247,0.07360926,158.1085,103.91865,13.443531,STD
3141118852000,0.510001,3.00618942245033,-9.41824571399628,-0.347857846941828,0.032070424,0.14966199,0.084910266,158.17256,103.90418,13.434385,STD
3141123840000,0.514989,3.0336033374297,-9.41586189660111,-0.327833766459985,0.04184427,0.1695151,0.086437434,158.24414,103.89269,13.429909,STD
3141128859000,0.520008,3.06118762758235,-9.41346326398156,-0.307685238004017,0.04428773,0.18448131,0.09712757,158.31544,103.8759,13.420034,STD
3141133850000,0.524999,3.08861803048171,-9.411078012855,-0.28764911416984,0.06566802,0.22418754,0.10415252,158.39857,103.85836,13.411989,STD
3141138836000,0.529985,3.11602095351441,-9.40869515128076,-0.267633062589553,0.07819075,0.24862215,0.10048734,158.48029,103.842094,13.404427,STD
3141143862000,0.535011,3.14364371548039,-9.40629317328795,-0.247456432978138,0.08399397,0.2855795,0.10598512,158.57613,103.82122,13.393691,STD
3141148851000,0.54,3.17106312643309,-9.40390887798232,-0.227428338045516,0.12034045,0.31673363,0.10903945,158.67572,103.79999,13.385522,STD
3141153826000,0.544975,3.19840559375914,-9.40153127342319,-0.207456445423791,0.1328632,0.36285394,0.106901415,158.78882,103.78098,13.3787,STD
3141158887000,0.550036,3.22622071479173,-9.39911256856414,-0.187139310035137,0.14385876,0.39522982,0.11056661,158.90526,103.75828,13.370165,STD
3141164521000,0.55567,3.25718502854348,-9.39642002100914,-0.164521894350553,0.160963,0.43066,0.10781772,159.03389,103.737946,13.365412,STD
3141168848000,0.559997,3.28096610515048,-9.39435210243077,-0.147151365833125,0.16615535,0.45631635,0.103847094,159.16698,103.7183,13.360881,STD
3141173856000,0.565005,3.30848993959648,-9.39195872682632,-0.127046996335717,0.17440203,0.48288897,0.099571034,159.30832,103.69955,13.358325,STD
3141178858000,0.570007,3.3359807982025,-9.38956821868466,-0.106966713542979,0.1853976,0.50885075,0.101098195,159.4546,103.68113,13.356134,STD
3141183847000,0.574996,3.36340020915519,-9.38718392337903,-0.0869386186103578,0.204029,0.5354234,0.093462385,159.60617,103.66686,13.35867,STD
3141188822000,0.579971,3.39074267648124,-9.3848063188199,-0.0669667259886322,0.21930063,0.5656612,0.093767814,159.76398,103.650894,13.359413,STD
3141193852000,0.585001,3.41838742234055,-9.38240242918523,-0.0467740385741034,0.2302962,0.59681535,0.08582657,159.92694,103.63994,13.365501,STD
3141198802000,0.589951,3.4455924903333,-9.3800367723877,-0.0269025072218335,0.24831672,0.6072,0.08735373,160.09003,103.62643,13.369338,STD
3141203828000,0.594977,3.47321525229928,-9.3776347943949,-0.00672587761041773,0.2501493,0.61391956,0.094989546,160.2583,103.61516,13.374451,STD
3141208909000,0.600058,3.48829714154986,-9.37774781718062,-0.000496674433420103,0.26847526,0.63224554,0.09621128,160.43008,103.60488,13.381591,STD
3141213856000,0.605005,3.45319643806668,-9.38770883050661,-0.0493530593855076,0.2773328,0.655153,0.099571034,160.60242,103.593735,13.386477,STD
3141218842000,0.609991,3.41781901587805,-9.39774837213656,-0.0985946068629906,0.27091873,0.6719518,0.101098195,160.83061,103.65943,13.476478,STD
3141223809000,0.614958,3.38257640536644,-9.40774965638767,-0.147648511058871,0.2846632,0.6948592,0.10995574,161.06429,103.72158,13.562255,STD
3141228859000,0.620008,3.34674488068682,-9.41791806497797,-0.19752212011649,0.2932153,0.7119634,0.110872045,161.29793,103.78686,13.648579,STD
3141234179000,0.625328,3.30899761112335,-9.42863013105727,-0.250062238965308,0.2883284,0.7305948,0.112399206,161.5356,103.8502,13.731099,STD
3141238841000,0.62999,3.27591908279535,-9.43801728370044,-0.296103974693352,0.29871312,0.75686204,0.121256754,161.77731,103.91104,13.810178,STD
3141243862000,0.635011,3.24029332330697,-9.44812729944934,-0.345691180847472,0.30543262,0.7696902,0.1282817,162.01721,103.97301,13.888168,STD
3141248850000,0.639999,3.2049017104155,-9.45817086817181,-0.394952480249334,0.32742378,0.79290307,0.12675454,162.26447,104.03487,13.965223,STD
3141253827000,0.644976,3.16958814638967,-9.46819228788546,-0.44410514406711,0.33261612,0.79259765,0.1337795,162.50523,104.09336,14.036689,STD
3141258881000,0.65003,3.13372824030436,-9.47836875066079,-0.494018256973488,0.34269542,0.7797695,0.13958271,162.74557,104.15268,14.107966,STD
3141263857000,0.655006,3.09842177162996,-9.48838815682819,-0.543161044829075,0.3371976,0.76144356,0.1459968,162.98074,104.21077,14.176064,STD
3141268847000,0.659996,3.06301596803564,-9.49843575264317,-0.592442096155316,0.33322698,0.74281216,0.15118915,163.20862,104.26794,14.2418585,STD
3141273837000,0.664986,3.02761016444133,-9.50848334845815,-0.641723147481558,0.32070425,0.7076874,0.15027285,163.42288,104.3258,14.306571,STD
3141278862000,0.670011,2.99195602354726,-9.51860141839207,-0.691349857484436,0.30695978,0.6808093,0.1518,163.63092,104.38198,14.368293,STD
3141283860000,0.675009,2.95649345714157,-9.52866512257709,-0.740709916508195,0.30482176,0.6646214,0.15332718,163.82877,104.438705,14.429427,STD
3141288835000,0.679984,2.92119408381858,-9.53868251519824,-0.789842828401592,0.28771752,0.65179324,0.15515977,164.01686,104.49536,14.489255,STD
3141293861000,0.68501,2.88553284757309,-9.54880259867841,-0.83947941436666,0.27275133,0.643852,0.15149458,164.19891,104.55317,14.549489,STD
3141298848000,0.689997,2.85014833003304,-9.55884415385463,-0.888730837806333,0.25137106,0.6411031,0.16493362,164.37616,104.605675,14.603643,STD
3141303846000,0.694995,2.81468576362735,-9.56890785803965,-0.938090896830091,0.2452624,0.63041294,0.15760323,164.5462,104.665054,14.664142,STD
3141308861000,0.70001,2.7791025762475,-9.57900579251101,-0.987618847211073,0.22937989,0.6218608,0.1572978,164.71365,104.7186,14.718297,STD
3141313859000,0.705008,2.74364000984181,-9.58906949669603,-1.03697890623483,0.20433442,0.6032294,0.15332718,164.87263,104.77511,14.775072,STD
3141318846000,0.709995,2.70825549230176,-9.59911105187225,-1.0862303296745,0.15699236,0.5665775,0.14172074,165.02153,75.16636,14.833634,STD
3141323840000,0.714989,2.67282130730176,-9.60916670187225,-1.1355508848495,0.10048734,0.5439755,0.1432479,165.16698,75.11082,14.889105,STD
3141328837000,0.719986,2.6373658362475,-9.61922839251101,-1.18490106791107,0.048563786,0.5363397,0.14752395,165.30418,75.053246,14.946599,STD
3141333847000,0.724996,2.60181812562475,-9.6293162592511,-1.23437963848111,-0.0009162979,0.56107974,0.15210545,165.44267,74.99667,15.003142,STD
3141338844000,0.729993,2.56636265457048,-9.63937794988987,-1.28372982154268,-0.062002823,0.6123924,0.16310102,165.58528,74.94359,15.056283,STD
3141343828000,0.734977,2.5309994230847,-9.64941346442731,-1.33295161709578,-0.12003502,0.66981375,0.1685988,165.73552,74.89044,15.109507,STD
3141348809000,0.739958,2.49565747765318,-9.65944293832599,-1.38214378476231,-0.16707164,0.752586,0.1731803,165.90683,74.8401,15.159893,STD
3141353868000,0.745017,2.45976209481077,-9.6696294688326,-1.43210627747964,-0.2284636,0.8384125,0.16920967,166.09427,105.21149,15.211445,STD
3141358872000,0.750021,2.42425695629656,-9.67970525429515,-1.48152559227654,-0.28527406,0.8921687,0.15241088,166.29465,105.26612,15.265874,STD
3141363849000,0.754998,2.38894339227072,-9.68972667400881,-1.53067825609431,-0.3155119,0.9098838,0.1441642,166.50742,105.32037,15.31969,STD
3141368854000,0.760003,2.35343115840509,-9.69980447301762,-1.5801074468534,-0.35613444,0.93370754,0.13836098,166.73547,105.37992,15.378419,STD
3141373877000,0.765026,2.31779120821386,-9.70991851585903,-1.6297144049319,-0.37782016,0.9431759,0.11575896,166.962,105.44771,15.445056,STD
3141378876000,0.770025,2.28232154645675,-9.71998423359031,-1.67908433991785,-0.39767328,0.9392053,0.090713486,167.18907,105.51917,15.514848,STD
3141383868000,0.775017,2.24690155215959,-9.7300358564978,-1.72838514316847,-0.40530908,0.91599244,0.07360926,167.41072,105.59586,15.589445,STD
3141388887000,0.780036,2.21128998337405,-9.74014184515418,-1.77795259739821,-0.40317106,0.90408057,0.06383542,167.63211,105.678505,15.669582,STD
3141393876000,0.785025,2.17589127513116,-9.75018742742291,-1.82722377276226,-0.3857614,0.9239337,0.029321533,167.85367,105.77364,15.762021,STD
3141398878000,0.790027,2.14040032731978,-9.76025918579295,-1.87662333563478,-0.3707952,0.94225967,0.010079277,168.06908,105.86763,15.853023,STD
3141403845000,0.794994,2.10515771680817,-9.77026047004405,-1.92567723983066,-0.3830125,0.94225967,0.004276057,168.28265,105.96791,15.949973,STD
3141408787000,0.799936,2.07452323070436,-9.7773217684573,-1.96297347708775,-0.40744713,0.91599244,0.009468411,168.49156,106.07048,16.04899,STD
3141413768000,0.804917,2.0585745357469,-9.77470332266274,-1.96178327671349,-0.4251622,0.9117164,0.02107485,168.70479,106.17285,16.14763,STD
3141419127000,0.810276,2.04141552023254,-9.77188616726964,-1.96050275396592,-0.4352415,0.93218035,0.03726278,168.89085,106.15703,16.12208,STD
3141423789000,0.814938,2.02648823336411,-9.76943541555428,-1.95938877802839,-0.419359,0.9401216,0.046120327,169.06969,106.14326,16.097271,STD
3141428770000,0.819919,2.01053953840665,-9.76681696975973,-1.95819857765413,-0.38515055,0.9611965,0.05100725,169.25638,106.12918,16.071304,STD
3141433765000,0.824914,1.9945460167619,-9.76419116435041,-1.95700503200679,-0.38056904,0.9807441,0.05222898,169.44278,106.11731,16.046091,STD
3141438783000,0.829932,1.97847885127373,-9.76155326814541,-1.95580599055366,-0.35888332,0.9877691,0.06841691,169.6296,106.101524,16.017366,STD
3141443780000,0.834929,1.96247892581651,-9.75892641136256,-1.95461196701015,-0.32803464,1.0525209,0.064751714,169.83696,106.09354,15.996759,STD
3141448764000,0.839913,1.94652062514035,-9.7563063885077,-1.95342104979166,-0.30665436,1.1224649,0.06719518,170.04582,106.08166,15.972117,STD
3141453840000,0.844989,1.93026774909055,-9.75363800247012,-1.95220814935003,-0.29352075,1.2055426,0.06169739,170.2752,106.07499,15.953711,STD
3141458934000,0.850083,1.91395723872851,-9.75096015407071,-1.95099094784301,-0.26633725,1.2947289,0.06078109,170.52452,106.06758,15.936243,STD
3141463850000,0.854999,1.89821666767634,-9.74837587791611,-1.94981627909379,-0.27000242,1.3582588,0.07696902,170.78802,106.059975,15.918282,STD
3141468852000,0.860001,1.88220073268794,-9.74574639269942,-1.9486210608099,-0.29749137,1.4975362,0.08277224,171.09715,106.05784,15.907537,STD
3141473861000,0.86501,1.8661623843559,-9.74311322767534,-1.94742416988947,-0.30787608,1.5937474,0.06078109,171.4087,106.060936,15.902705,STD
3141478854000,0.870003,1.85017526652362,-9.74048847363956,-1.94623110213828,-0.35246924,1.6493362,0.058337633,171.74594,106.06194,15.894294,STD
3141483848000,0.874997,1.8341849467851,-9.73786319391701,-1.94503779543901,-0.36163223,1.6844609,0.05222898,172.10117,106.07167,15.896483,STD
3141489683000,0.880832,1.81550182390279,-9.73479581162205,-1.94364353340652,-0.33200526,1.743104,0.03573562,172.47542,106.08774,15.905783,STD
3141493891000,0.88504,1.80202820246513,-9.73258372169964,-1.94263803989621,-0.2959642,1.7724255,0.03268129,172.84705,106.104256,15.915516,STD
3141498852000,0.890001,1.78614354563238,-9.72997578964046,-1.9414526184835,-0.2968805,1.8429805,0.029626964,173.2436,106.12798,15.933475,STD
3141503829000,0.894978,1.77020765829986,-9.72735944659298,-1.94026337390154,-0.3182608,1.9071213,0.021685716,173.64223,106.15538,15.9561205,STD
3141508930000,0.900079,1.75387473459418,-9.72467791838619,-1.93904449975798,-0.35063666,1.9822577,0.028710667,174.06042,106.182014,15.978527,STD
3141513857000,0.905006,1.73809894257342,-9.72208785967714,-1.9378672025799,-0.38637227,2.0735822,0.0106901415,174.49712,106.22115,16.01355,STD
3141518845000,0.909994,1.72212783427231,-9.7194657340752,-1.9366753295691,-0.42302418,2.158187,-0.0076358155,174.9491,106.26209,16.049818,STD
3141523843000,0.914992,1.70612470690886,-9.71683835160558,-1.93548106707752,-0.453262,2.2146919,-0.0290161,175.41423,106.31248,16.09521,STD
3141528856000,0.920005,1.69007355095187,-9.71420308383443,-1.93428322036478,-0.46853364,2.245846,-0.053145275,175.89117,106.37188,16.149632,STD
3141533848000,0.924997,1.67408963502582,-9.71157885548542,-1.93309039156167,-0.46792278,2.24157,-0.08552113,176.36833,106.44229,16.214956,STD
3141538842000,0.929991,1.65809931528731,-9.70895357576287,-1.9318970848624,-0.46578476,2.2537873,-0.10842858,176.85385,106.51926,16.287096,STD
3141543862000,0.935011,1.64202574598668,-9.70631462818434,-1.93069756551311,-0.47586402,2.2553146,-0.12583824,177.32903,106.605865,16.368439,STD
3141548849000,0.939998,1.62605783959181,-9.70369302826917,-1.92950593145039,-0.48533243,2.2638667,-0.1337795,177.8043,106.697395,16.455376,STD
3141553828000,0.944977,1.61011554844682,-9.70107563384815,-1.92831620897228,-0.5009095,2.2834144,-0.1469131,178.27765,106.79721,16.550346,STD
3141559475000,0.950624,1.59203438393673,-9.69810708066569,-1.92696686917837,-0.5109888,2.3124304,-0.15882497,178.75102,106.90012,16.648785,STD
3141563852000,0.955001,1.57801964034532,-9.69580614967938,-1.92592099344295,-0.5131268,2.323426,-0.16584991,179.21948,107.00666,16.750816,STD
3141568841000,0.95999,1.56204533013798,-9.69318349839068,-1.92472888148407,-0.5177083,2.3600779,-0.16584991,179.699,107.116,16.856178,STD
3141573867000,0.965016,1.54595254939994,-9.69054139669153,-1.92352792844632,-0.5198463,2.3952026,-0.16707164,180.17609,107.228355,16.96507,STD
3141578854000,0.970003,1.52998464300507,-9.68791979677637,-1.92233629438359,-0.5158757,2.445599,-0.16310102,180.66357,107.33986,17.074257,STD
3141583856000,0.975005,1.51396870801667,-9.68529031155967,-1.9211410760997,-0.52748215,2.4862216,-0.16279559,181.15338,107.45429,17.18623,STD
3141588834000,0.979983,1.49802961877791,-9.68267344282542,-1.91995159256967,-0.5152648,2.482251,-0.15607607,181.63977,107.56505,17.296223,STD
3141593857000,0.985006,1.48194644375858,-9.68003291818658,-1.91875135637616,-0.49418998,2.4721715,-0.14049901,182.13132,107.67403,17.405075,STD
3141598842000,0.989991,1.46598494117618,-9.67741236964495,-1.91756020020959,-0.4718934,2.477975,-0.13041973,182.62119,107.782616,17.514645,STD
3141603844000,0.994993,1.44996900618778,-9.67478288442825,-1.9163649819257,-0.43890667,2.5298984,-0.12308934,183.11694,107.88664,17.621922,CSI
3141608908000,1.000057,1.42945539469793,-9.6783183862195,-1.90213921435177,-0.43768495,2.588236,-0.11026118,183.6115,107.9874,17.72577,CSI
3141613853000,1.005002,1.38901625324108,-9.71118996591329,-1.82646362635353,-0.4447099,2.6526823,-0.096516706,184.1184,108.08524,17.828852,CSI
3141618849000,1.009998,1.3481600448046,-9.74440056493254,-1.75000756211911,-0.45051312,2.705522,-0.0888809,184.65744,108.10859,17.86048,CSI
3141623798000,1.014947,1.30768819221209,-9.77729873437734,-1.67427076029842,-0.44348818,2.7559185,-0.079107046,185.20912,108.129524,17.89056,CSI
3141628937000,1.020086,1.26566256067584,-9.81145991699542,-1.59562630191157,-0.4373795,2.7867672,-0.0693332,185.7646,108.15104,17.921064,CSI
3141633857000,1.025006,1.22542786381685,-9.84416531074536,-1.52033330030361,-0.42546764,2.808453,-0.052534413,186.32635,108.16966,17.949453,CSI
3141638836000,1.029985,1.18471067770691,-9.87726290332278,-1.44413739481459,-0.41783184,2.8157833,-0.04062254,186.88669,108.189316,17.978796,CSI
3141643863000,1.035012,1.14360095796908,-9.9106795729124,-1.36720692345621,-0.4196644,2.819143,-0.03023783,187.44598,108.20714,18.006203,CSI
3141648848000,1.039997,1.10283470515565,-9.94381705011635,-1.29091919723351,-0.40500367,2.8249464,-0.02076942,188.00182,108.22343,18.032742,CSI
3141653831000,1.04498,1.06208480791005,-9.97694123244479,-1.21466207792204,-0.4129449,2.831055,-0.026572637,188.5522,108.24477,18.063002,CSI
3141658879000,1.050028,1.02080335471002,-10.0104974982273,-1.13741023399583,-0.4147775,2.8173106,-0.0290161,189.09215,108.26421,18.091566,CSI
3141663853000,1.055002,0.98012705751965,-10.0435618536159,-1.06129084578485,-0.40378192,2.81334,-0.03604105,189.63042,108.28896,18.12545,CSI
3141668846000,1.059995,0.939295382434908,-10.0767525103219,-0.984880691917265,-0.4025602,2.776077,-0.05497787,190.14821,108.3207,18.16499,CSI
3141673839000,1.064988,0.898463707350165,-10.1099431670279,-0.908470538049677,-0.38789943,2.7430904,-0.07086037,190.66002,108.354965,18.207617,CSI
3141678869000,1.070018,0.857329454260589,-10.1433797789308,-0.831494156324468,-0.3903429,2.6963592,-0.089186326,191.15044,108.39804,18.257622,CSI
3141683849000,1.074998,0.816604090366734,-10.1764840189459,-0.755282947379827,-0.3866777,2.649628,-0.11728613,191.62509,108.44956,18.316193,CSI
3141688819000,1.079968,0.775960504312024,-10.2095217845836,-0.679224772991301,-0.3943135,2.6386325,-0.14355333,192.09097,108.50798,18.380863,CSI
3141693862000,1.085011,0.73471994003156,-10.2430448131773,-0.602049446343145,-0.38026363,2.6352727,-0.18325958,192.53964,108.578766,18.458172,CSI
3141698859000,1.090008,0.69385555381116,-10.2762620596343,-0.525578078653111,-0.37843102,2.6322184,-0.20738874,192.98016,108.65452,18.53952,CSI
3141703855000,1.095004,0.652999345374674,-10.3094726586535,-0.449122014418688,-0.37110063,2.6380215,-0.22327125,193.41739,108.73951,18.630644,CSI
3141708877000,1.100026,0.611930514556413,-10.3428560910544,-0.37226806033837,-0.3539964,2.658791,-0.2302962,193.85353,108.82925,18.726799,CSI
3141713853000,1.105002,0.571237861798216,-10.3759337413185,-0.296118065216175,-0.3454443,2.6847527,-0.2434298,194.28838,108.925934,18.829788,CSI
3141718846000,1.109995,0.530406186713474,-10.4091243980245,-0.219707911348587,-0.32436943,2.7293458,-0.24281894,194.7308,109.02041,18.931492,CSI
3141723860000,1.115009,0.489402778166528,-10.4424546509233,-0.14297638491316,-0.31795537,2.785851,-0.24770586,195.18016,109.12091,19.039095,CSI
3141728900000,1.120049,0.448186747237808,-10.4759577372038,-0.0658469686318376,-0.31673363,2.8680124,-0.24801129,195.64641,109.22002,19.145943,CSI
3141733852000,1.125001,0.407690361293557,-10.5088758489618,0.00993574355568438,-0.33536503,2.9669726,-0.2510656,196.13031,109.322205,19.25571,CSI
3141738830000,1.129979,0.366981352967531,-10.5419667941015,0.0861163455891016,-0.3323107,3.0821207,-0.2687807,196.63928,109.42871,19.370584,CSI
3141744591000,1.13574,0.319869139836508,-10.5802626830026,0.174279553366225,-0.344528,3.195436,-0.3005457,197.17278,109.54165,19.491285,CSI
3141748853000,1.140002,0.285015424793213,-10.6085940627104,0.239502881181899,-0.34513888,3.314555,-0.3475823,197.73776,109.664406,19.622261,CSI
3141753833000,1.144982,0.244290060899358,-10.6416983027255,0.315714090126539,-0.31856623,3.4089334,-0.39645153,198.32434,109.797195,19.76327,CSI
3141758868000,1.150017,0.203114918890209,-10.6751681518172,0.392766989129805,-0.2724459,3.4257324,-0.408058,198.91818,109.9331,19.906935,CSI
3141763854000,1.155003,0.162340488292868,-10.7083122764589,0.469070018808114,-0.31337386,3.4364223,-0.41141775,199.53331,110.081955,20.06215,CSI
3141768855000,1.160004,0.12144339093681,-10.7415561126669,0.545602600320593,-0.33964106,3.4150422,-0.40591997,200.1385,110.23084,20.217026,CSI
3141773872000,1.165021,0.0804154490381216,-10.774906307879,0.622380037122854,-0.38637227,3.4260378,-0.39736784,200.75165,110.38084,20.371511,CSI
3141778860000,1.170009,0.0396246628729513,-10.8080637273962,0.698713673712385,-0.39522982,3.5054502,-0.39522982,201.37416,110.53115,20.525618,CSI
3141783846000,1.174995,-0.0011497677243901,-10.8412078520379,0.775016703390694,-0.37873647,3.6645806,-0.41874814,202.0195,110.686935,20.68425,CSI
3141788835000,1.179984,-0.0419487316734747,-10.8743719189929,0.851365643435836,-0.28955013,3.6377025,-0.36682457,202.62724,110.82067,20.81987,CSI
3141793865000,1.185014,-0.0830829847630509,-10.9078085308958,0.928342025161045,-0.24251351,3.5182784,-0.31581733,203.24988,110.962204,20.962181,CSI
3141798837000,1.189986,-0.12374292638559,-10.9408595914089,1.0044308064608,-0.20158553,3.3539557,-0.28099802,203.8451,68.90598,21.093605,CSI
3141803846000,1.194995,-0.164705446012964,-10.974156607119,1.08108581561816,-0.1151481,3.2400293,-0.27091873,204.41399,68.78066,21.217009,CSI
3141808872000,1.200021,-0.224822502248325,-11.0299828579426,1.15981043433055,0.03176499,3.137404,-0.24556783,204.93109,68.6682,21.325773,CSI
3141814582000,1.205731,-0.460678949004313,-11.2909304343397,1.2651931033679,0.18509217,3.0714304,-0.20952678,205.41992,68.55997,21.428087,CSI
3141818963000,1.210112,-0.641639911042489,-11.4911425765807,1.34604800232633,0.29138273,3.029586,-0.18784106,205.7049,68.509735,21.46027,CSI
3141823821000,1.21497,-0.842303767144168,-11.7131536669726,1.4357063221483,0.37018433,2.9868257,-0.20005837,205.97142,68.45721,21.485786,CSI
3141828791000,1.21994,-1.0475938792943,-11.9402831686703,1.52743169257135,0.41386122,2.982244,-0.24923302,206.32928,68.44659,21.45973,CSI
3141833853000,1.225002,-1.18318466074499,-12.0032976618417,1.89664397243355,0.46792278,2.8802297,-0.28160888,206.64153,68.42971,21.431744,CSI
3141838808000,1.229957,-1.29102193008596,-12.0079860876396,2.35143586419326,0.4615087,2.6639833,-0.2929099,206.91507,68.40066,21.411768,CSI
3141843839000,1.234988,-1.29001479628095,-11.9917685182921,2.63129715262254,0.4196644,2.4422393,-0.30665436,207.22307,68.4951,21.259077,CSI
3141848783000,1.239932,-1.24694963335018,-11.9678434555331,2.83705284224356,0.3747658,2.2467623,-0.31978795,207.4675,68.57765,21.117323,CSI
3141853858000,1.245007,-1.06741032931488,-11.7794340704122,2.86769600455121,0.364992,2.0882428,-0.32253686,207.8387,68.74764,20.871784,CSI
3141858870000,1.250019,-0.842875708868531,-11.5361884391872,2.83495134492739,0.3680463,2.021353,-0.31123585,208.17017,68.9065,20.636086,CSI
3141863854000,1.255003,-0.608703721027287,-11.2176383932584,2.82200665971108,0.38056904,1.9013181,-0.31215215,208.5521,69.09039,20.366564,CSI
3141868838000,1.259987,-0.369846873968464,-10.8661132167878,2.81749983618166,0.39706242,1.8002199,-0.30390546,208.9112,69.26615,20.101364,CSI
3141873845000,1.264994,-0.13582737914006,-10.4576815982333,2.81264051686888,0.4089743,1.7098118,-0.30604348,209.3328,69.422325,19.852222,CSI
3141878866000,1.270015,0.0944654776841209,-10.007331136441,2.80752295506599,0.40866885,1.6319265,-0.31398472,209.72037,69.567566,19.612703,CSI
3141883999000,1.275148,0.222934934894676,-9.4093568847185,2.78596124232095,0.39003745,1.5781704,-0.33475417,210.18802,69.68236,19.399542,CSI
3141888839000,1.279988,0.302821127617771,-8.79245801072386,2.75933252995021,0.3662137,1.5674802,-0.37812558,210.63963,69.78007,19.202568,CSI
3141893852000,1.285001,0.269660356885764,-8.44422005869765,2.79917870856007,0.32467487,1.575116,-0.41599923,211.17998,69.85249,19.029545,CSI
3141898858000,1.290007,0.16217916983797,-8.2829980868236,2.88223239599511,0.25900686,1.5632042,-0.45540005,211.70644,69.90994,18.87553,CSI
3141903848000,1.294997,0.0813334745402192,-8.17755656436931,2.88545027942597,0.21227567,1.5213599,-0.5012149,212.3206,69.939125,18.74607,CSI
3141908865000,1.300014,0.0143910069786365,-8.1016883029909,2.84528478136727,0.1572978,1.4682146,-0.55680364,212.92311,69.95693,18.635355,CSI
3141913850000,1.304999,0.0135964899416766,-7.96776009741004,2.75497918176157,0.12675454,1.4453071,-0.6151413,213.58623,69.98751,18.50563,CSI
3141918841000,1.30999,0.0797461333139581,-7.77403637631475,2.61322989733096,0.10995574,1.5063937,-0.6921103,214.25557,69.997955,18.399008,CSI
3141923887000,1.315036,0.211773780686077,-7.71284486626309,2.49823243915634,0.1160644,1.676825,-0.77763146,215.00194,70.0188,18.279076,CSI
3141928860000,1.320009,0.413130593692707,-7.79979433312194,2.41585930781205,0.106901415,1.7418822,-0.7883216,215.72893,70.03855,18.164263,CSI
3141933849000,1.324998,0.595419906353836,-7.88451147685479,2.29649953202283,0.070249505,1.7773124,-0.77518797,216.56819,70.05986,18.051756,CSI
3141938833000,1.329982,0.746754078139928,-7.96522277949693,2.1199428859015,0.031154128,1.8713857,-0.77366084,217.43692,70.072945,17.94286,CSI
3141943851000,1.335,0.86361898539579,-7.98267269184702,1.98320816249629,0.009773844,1.981036,-0.77091193,218.41455,70.110794,17.816875,CSI
3141948848000,1.339997,0.944016285798992,-7.9353804003953,1.88862313515169,0.014049901,2.0674734,-0.7724391,219.40047,70.144394,17.692629,CSI
3141954092000,1.345241,1.00094382615704,-7.91874678088076,1.828366396801,0.054061573,2.1526892,-0.7684685,220.49643,70.21066,17.543694,CSI
3141958857000,1.350006,1.02748596496053,-7.93391365512256,1.80940775450769,0.079107046,2.191479,-0.75900006,221.58623,70.272835,17.39734,CSI
3141963886000,1.355035,1.05409616634827,-7.95392842064658,1.80186813806025,0.09621128,2.2800546,-0.7654142,222.76881,70.34566,17.240297,CSI
3141968848000,1.359997,1.06282505716385,-8.02375941045188,1.95025941864438,0.14172074,2.3371704,-0.7678576,223.93298,70.40803,17.084633,CSI
3141973830000,1.364979,1.07158913093314,-8.09387186333578,2.09924880999265,0.18692477,2.3649647,-0.77671516,225.1352,70.47338,16.928661,CSI
3141978865000,1.370014,1.09045293869788,-8.17784297585955,2.37530735091441,0.22785273,2.3307564,-0.786489,226.31635,70.5254,16.779324,CSI
3141984172000,1.375321,1.11293289582724,-8.26901453514673,2.68186164140587,0.27091873,2.2574525,-0.8023715,227.47581,70.56035,16.639954,CSI
3141988838000,1.379987,1.16085522237496,-8.36921594121088,2.91711665764844,0.30176744,2.173764,-0.8206975,228.61407,70.56808,16.514385,CSI
3141993845000,1.384994,1.21227980210588,-8.47674025329044,3.16956455013162,0.31948254,2.0873265,-0.84329945,229.74017,70.53652,16.40885,CSI
3141998849000,1.389998,1.30345761053719,-8.51827145971074,3.35102530288317,0.31673363,1.9795089,-0.8695667,230.82246,70.49229,16.318346,CSI
3142003836000,1.394985,1.39764905785124,-8.55415416115703,3.52595224301277,0.29168814,1.8958203,-0.87964594,231.87328,70.44202,16.23591,CSI
3142008957000,1.400106,1.52024647846754,-8.62750817495784,3.6777966936973,0.23945917,1.8930714,-0.8900307,232.93433,70.36194,16.170444,CSI
3142013834000,1.404983,1.64331264917791,-8.70627008010118,3.81563085012648,0.1863139,1.8698585,-0.9025534,233.95338,70.27853,16.11627,CSI
3142018844000,1.409993,1.82116127482494,-8.68630744914972,3.82000278746249,0.09987647,1.8628336,-0.9282097,235.02032,70.186485,16.072514,CSI
3142024985000,1.416134,2.0466793126042,-8.64708716122041,3.8052951027009,0.035430185,1.853976,-0.96577793,236.06761,70.08909,16.039318,CSI
3142028826000,1.419975,2.23705456533602,-8.56445854187633,3.81781130748071,-0.018936822,1.8170186,-1.0012082,237.13235,69.98307,16.021914,CSI
3142033849000,1.424998,2.52214095984569,-8.41384717544448,3.85008521985911,-0.08277224,1.7519615,-1.0613784,238.17474,69.87019,16.026495,CSI
3142038831000,1.42998,2.7979934911943,-8.40940492275615,3.81690529581535,-0.12186762,1.6505579,-1.0531317,239.23068,69.76108,16.05284,CSI
3142043856000,1.435005,3.07334465627697,-8.46540846613005,3.75623468896863,-0.20097467,1.5650368,-1.0125091,240.25705,69.6588,16.090946,CSI
3142048847000,1.439996,3.34683274879988,-8.52103308005625,3.69597458971052,-0.29016098,1.4761559,-0.9816604,241.18901,69.49184,16.193245,CSI
3142053912000,1.445061,3.62437576395287,-8.57748242278039,3.63482103275954,-0.36651915,1.3762794,-0.9486737,242.07956,69.345436,16.28746,CSI
3142058869000,1.450018,3.79623897472288,-8.60554412697942,3.47674487663302,-0.42638394,1.3341297,-0.93554014,242.96422,69.216934,16.38723,CSI
3142063855000,1.455004,3.90020763493666,-8.61499551830958,3.2499042307304,-0.44898596,1.2623531,-0.92271197,243.79913,69.10092,16.484436,CSI
3142069679000,1.460828,3.95254105830287,-8.5639530216339,2.95076626518819,-0.52687126,1.2064588,-0.90010995,244.5428,68.93316,16.664703,CSI
3142073868000,1.465017,3.96046701211103,-8.50054572221673,2.7209134392275,-0.59620446,1.1707232,-0.87109387,245.26472,68.77322,16.838808,CSI
3142078848000,1.469997,3.96716059339934,-8.43754678052805,2.4771849560231,-0.6786713,1.1658363,-0.8539896,245.94318,68.64124,17.026981,CSI
3142083935000,1.475084,3.97162678166483,-8.38395233480015,2.25387540284195,-0.7535023,1.1710287,-0.8436049,246.60776,68.52423,17.207115,CSI
3142088819000,1.479968,3.96350367032683,-8.3401046432963,2.05305942014885,-0.820392,1.1792754,-0.8426886,247.23659,68.44196,17.3911,CSI
3142093818000,1.484967,3.93252033096753,-8.30912065688707,1.87232311212383,-0.8671232,1.1942415,-0.8237518,247.86241,68.37265,17.563713,CSI
3142098849000,1.489998,3.86965625511824,-8.27296717305558,1.75868456890634,-0.9193522,1.2137892,-0.806953,248.46301,68.33102,17.741367,CSI
3142103837000,1.494986,3.77585536714761,-8.23218421531632,1.71382327280799,-0.97494096,1.2498302,-0.7819075,249.06662,68.29924,17.907362,CSI
3142108844000,1.499993,3.69270050730949,-8.1914309840591,1.67712526780715,-1.0155635,1.2819008,-0.763887,249.65796,68.29111,18.068123,CSI
3142113865000,1.505014,3.66777302529808,-8.15154709092794,1.68460351241058,-1.0888673,1.3164146,-0.73884153,250.25395,68.29807,18.216269,CSI
3142118777000,1.509926,3.64338668958009,-8.11252903017107,1.69191941312597,-1.1618657,1.3671165,-0.72051555,250.86377,68.32698,18.345196,CSI
3142123843000,1.514992,3.61823579854847,-8.07228768330741,1.69946468043546,-1.2443326,1.4175128,-0.6908886,251.47623,68.369446,18.46155,CSI
3142128827000,1.519976,3.57972279315208,-8.03393919657604,1.67954813454579,-1.3154984,1.457219,-0.6609562,252.1017,68.418106,18.574183,CSI
3142133849000,1.524998,3.50831924504036,-7.99823742252018,1.59475643863784,-1.3991868,1.4792101,-0.61575216,252.7288,68.48253,18.672647,CSI
3142138875000,1.530024,3.43798537949473,-7.95892836024314,1.5013110599962,-1.4703526,1.4834863,-0.5705481,253.36609,68.55397,18.762447,CSI
3142143865000,1.535014,3.3744432815747,-7.89992512916706,1.36061054798176,-1.5427402,1.4819591,-0.52015173,253.99979,68.63965,18.838236,CSI
3142148859000,1.540008,3.30911824017398,-7.84137906563859,1.22076645986556,-1.6053538,1.4724907,-0.45998153,254.6269,68.755196,18.894682,CSI
3142153831000,1.54498,3.20556449505734,-7.79430922617635,1.10309176291024,-1.6517797,1.4666874,-0.40042216,255.2461,68.878525,18.939003,CSI
3142159218000,1.550367,3.10041562819789,-7.74804863527088,0.982294659604966,-1.6847663,1.4608842,-0.3399465,255.84486,69.029434,18.965553,CSI
3142163863000,1.555012,3.07531157016554,-7.75223254300226,0.940454691038375,-1.7675385,1.4566082,-0.30757064,256.4348,69.18553,18.986473,CSI
3142168840000,1.559989,3.04841320701655,-7.75671549430023,0.895624223103838,-1.7901406,1.4648548,-0.2501493,257.01654,69.36759,18.978739,CSI
3142173856000,1.565005,3.01080685010799,-7.78029203326134,0.936799942588193,-1.8481728,1.4563028,-0.2049453,257.5847,69.55123,18.970188,CSI
3142178794000,1.569943,2.97250482116631,-7.80582671922246,0.987869332285817,-1.894904,1.4450017,-0.15760323,258.14572,69.73507,18.948603,CSI
3142183861000,1.57501,2.95292644348509,-7.87458950396389,1.11593478779435,-1.9474384,1.396438,-0.09621128,258.69022,69.930145,18.917253,CSI
3142188834000,1.579983,2.94358079466248,-7.96337311898548,1.27948378856947,-1.9895881,1.3151928,-0.02076942,259.2129,70.12677,18.874434,CSI
3142193859000,1.585008,3.00281405512741,-8.25384438222498,1.41603418029832,-2.0247128,1.1829406,0.05467244,259.7176,70.328735,18.818977,CSI
3142198844000,1.589993,3.10171688887508,-8.65934604189973,1.53471750850425,-2.069917,1.039998,0.11881329,260.18652,70.533,18.752886,CSI
3142203850000,1.594999,3.2809837433327,-9.25545979362671,1.54199393290023,-2.0937407,0.93279123,0.15454891,260.65106,70.726364,18.680946,CSI
3142208890000,1.600039,3.49613490949355,-9.93753469499241,1.50079475308232,-2.1261165,0.870483,0.18448131,261.0793,70.92023,18.600174,CSI
3142213851000,1.605,3.8181908398978,-10.6762423742138,1.40372871277516,-2.1688771,0.82741696,0.19975294,261.50012,71.10276,18.519445,CSI
3142218865000,1.610014,4.21928546440645,-11.4689944040881,1.26688469919418,-2.196366,0.84604836,0.22999077,261.91534,71.27944,18.43128,CSI
3142223812000,1.614961,4.61159036244796,-12.1456319000833,1.04821583417985,-2.196977,0.9111055,0.26358834,262.32965,71.44723,18.343575,CSI
3142228863000,1.620012,5.00932401856786,-12.7497836502914,0.756208944629476,-2.158187,1.0522153,0.25961772,262.7689,71.59238,18.262508,CSI
3142233853000,1.625002,5.20812686642188,-12.863757673031,0.536823382961263,-2.042428,1.2663237,0.22876903,263.23444,71.70187,18.20472,CSI
3142238837000,1.629986,5.29575445276299,-12.7016468281623,0.357186586199743,-1.847562,1.5219707,0.21624629,263.75186,71.7954,18.14654,CSI
3142243858000,1.635007,5.15807160292096,-12.3207045638771,0.260785520207196,-1.5745052,1.7864754,0.23762658,264.30994,71.85278,18.114471,CSI
3142248829000,1.639978,4.7538942838488,-11.685568626036,0.265597165843946,-1.3014483,1.89918,0.24740042,264.89578,71.88997,18.09208,CSI
3142253844000,1.644993,4.29632513425594,-11.0859882695199,0.328434739501111,-1.1151345,2.0534234,0.24312437,265.55554,71.90194,18.08883,CSI
3142259000000,1.650149,3.7690527360328,-10.5165339243977,0.459198316811891,-1.054048,2.1001546,0.21685717,266.21152,71.90499,18.090553,CSI
3142263937000,1.655086,3.20671072463804,-9.96726815380161,0.522658171463556,-0.9944886,2.1029036,0.18936823,266.90643,71.92015,18.0776,CSI
3142268830000,1.659979,2.33829944918508,-9.40125022913047,0.251279655980806,-0.96761054,2.1077905,0.17256944,267.6088,71.92905,18.06997,CSI
3142273854000,1.665003,1.44663824994622,-8.82007833999338,-0.0273644604682717,-0.8961393,2.1383338,0.17928895,268.35046,71.97077,18.028717,CSI
3142279164000,1.670313,1.06044104109047,-8.6878023707483,-0.287557993501878,-0.79259765,2.1835377,0.18906279,269.0887,72.00722,17.992447,CSI
3142283783000,1.674932,0.898752545111179,-8.72373316326531,-0.503142617289065,-0.6921103,2.20278,0.1591304,269.81915,72.03338,17.966293,CSI
3142288836000,1.679985,0.940390816510105,-8.73066120058829,-0.561644871316064,-0.6252206,2.1740694,0.10567969,270.48544,72.15239,17.84748,CSI
3142293860000,1.685009,1.05908907327071,-8.72609579134643,-0.557079557415315,-0.589485,2.1062634,0.026572637,271.14108,72.25338,17.746553,CSI
3142298851000,1.69,1.31025373633814,-8.63230005528846,-0.414125915448718,-0.5647449,1.9691241,-0.076052725,271.73846,107.6467,17.6467,CSI
3142303849000,1.694998,1.63625649619391,-8.48847539663462,-0.19359461198718,-0.52442783,1.7550159,-0.17928895,272.28848,107.5714,17.5713,CSI
3142308926000,1.700075,1.94253643407479,-8.46474477115104,-0.044444938995629,-0.45356745,1.4682146,-0.25778514,272.77548,107.534744,17.534391,CSI
3142313942000,1.705091,2.23183329616319,-8.50673933705682,0.062874834191355,-0.36468655,1.1517864,-0.3115413,273.18555,107.52093,17.520155,CSI
3142318850000,1.709999,2.27001570313901,-8.68580745810252,0.139803870758815,-0.25228736,0.8671232,-0.34116822,273.55103,107.56864,17.56783,CSI
3142323847000,1.714996,2.13957383587444,-8.96352211500923,0.198713065702981,-0.13897185,0.643852,-0.40286562,273.83643,107.63909,17.63829,CSI
3142328843000,1.719992,1.97909038601962,-9.26166419148936,0.222192533281842,-0.054061573,0.47647488,-0.46761733,274.07037,107.75262,17.752052,CSI
3142333852000,1.725001,1.75072733622851,-9.60653917021277,0.166266880390557,-0.006414085,0.37384954,-0.5140431,274.25406,107.875046,17.874723,CSI
3142338812000,1.729961,1.46408244557972,-10.0133703633483,0.058160972236914,-0.014966198,0.33658674,-0.4783075,274.45923,107.96964,17.969423,CSI
3142343818000,1.734967,0.987339364342695,-10.6263255503224,-0.214263649520271,-0.10323623,0.38087448,-0.37965274,274.6563,108.05614,18.05596,CSI
3142348799000,1.739948,0.525844234975863,-11.1871544136989,-0.475670454940341,-0.22785273,0.43004912,-0.2565634,274.83295,108.08186,18.08159,CSI
3142353825000,1.744974,0.0786660592039348,-11.6825576065215,-0.725564140862556,-0.29993483,0.5375614,-0.19181168,275.03986,108.09496,18.094591,CSI
3142358823000,1.749972,-0.307442953062426,-12.0791841468394,-0.927645524499411,-0.46822822,0.6646214,-0.058643065,275.22592,107.98068,17.979174,CSI
3142363874000,1.755023,-0.487866294260895,-12.1361601010993,-0.965629386587161,-0.6218608,0.7629707,0.039095376,275.43634,107.860985,17.857464,CSI
3142368825000,1.759974,-0.581417163227178,-12.1371591256111,-0.984634849117031,-0.7324274,0.8344419,0.11484267,275.63336,107.63714,17.628662,CSI
3142373878000,1.765027,-0.30138992755642,-11.8909283463035,-0.921870115953307,-0.81061816,0.9669997,0.20952678,275.88046,107.38878,17.372477,CSI
3142378837000,1.769986,-0.0241982369754712,-11.6375887593522,-0.843643288228052,-0.88056225,1.104139,0.26389378,276.15598,107.12223,17.093786,CSI
3142383873000,1.775022,0.268125205921015,-11.3269950451747,-0.688346478833223,-0.95325524,1.1826351,0.26939157,276.45572,106.854294,16.80933,CSI
3142388894000,1.780043,0.558809896966581,-11.0223135434447,-0.537585321649357,-1.006095,1.2021828,0.26145032,276.817159543025,106.65992011411,16.5917497552111,CSI
3142398841000,1.78999,1.10087870467091,-10.5348671224345,-0.327875158786978,-1.0574077,1.1817188,0.18234327,277.5332,106.27485,16.160706,CSI
3142403753000,1.794902,1.24831364358508,-10.3113366078253,-0.194708069672429,-1.0720685,1.1337659,0.12308934,277.90283,106.14908,16.005987,CSI
3142408768000,1.799917,1.39601081898321,-10.0846550033573,-0.0717713916320384,-1.0708468,1.058324,0.06047566,278.28522,106.09227,15.919399,CSI
3142413766000,1.804915,1.52456877570264,-9.86886125947242,-0.0350405483618225,-1.070236,0.98440933,0.005497787,278.65118,106.05551,15.849863,CSI
3142418903000,1.810052,1.6537822348954,-9.64591201338912,0.00558580294560669,-1.061073,0.9492846,-0.05009095,279.02997,106.06681,15.830635,CSI
3142423828000,1.814977,1.74149174535565,-9.41786734114365,0.0801388639404928,-1.0445796,0.93279123,-0.08277224,279.38925,106.08894,15.821008,CSI
3142428744000,1.819893,1.82904097447699,-9.19023940027894,0.154555685839145,-1.0009027,0.9071349,-0.1133155,279.7452,106.15148,15.853339,CSI
3142433766000,1.824915,1.92179843701695,-9.08195250634382,0.283230463850847,-0.9669997,0.8750645,-0.12889257,280.09088,106.21861,15.890058,CSI
3142438758000,1.829907,2.01440359064407,-8.98934740106538,0.417507953532203,-0.9502009,0.8735373,-0.16676621,280.43396,106.29859,15.941369,CSI
3142443771000,1.83492,2.08964305918489,-8.79538807037773,0.527594481570577,-0.9275989,0.88606006,-0.20616703,280.78476,106.40331,16.022705,CSI
3142448729000,1.839878,2.16044103210736,-8.5829944473161,0.631431462524851,-0.9068295,0.9211848,-0.21746802,281.13806,106.5075,16.10536,CSI
3142453815000,1.844964,2.27655152201275,-8.46554971065521,0.764833842976619,-0.89552844,0.98654735,-0.23304509,281.52472,106.635956,16.220707,CSI
3142458881000,1.85003,2.40208986717494,-8.3713958932631,0.903822743512614,-0.86620694,1.063211,-0.22357668,281.92136,106.75403,16.32973,CSI
3142463829000,1.854978,2.55048785270152,-8.33830141032108,1.07199202682607,-0.8671232,1.1453724,-0.20586158,282.34988,106.888245,16.460592,CSI
3142468808000,1.859957,2.71237577060821,-8.33367546580658,1.25700679359783,-0.8903361,1.2052372,-0.18112154,282.78998,107.012024,16.58321,CSI
3142473820000,1.864969,2.79213336248585,-8.41206199187159,1.50651677042906,-0.91599244,1.2327261,-0.13744467,283.28033,107.14552,16.722395,CSI
3142478846000,1.869995,2.81689568206606,-8.54577924158864,1.79871229661488,-0.958753,1.2461652,-0.110872045,283.7779,107.27265,16.854198,CSI
3142483821000,1.87497,2.70411052990323,-8.71144337529942,2.0323860920092,-0.9786061,1.2605205,-0.10842858,284.3011,107.39229,16.98692,CSI
3142488807000,1.879956,2.52110789621539,-8.89444586567021,2.23826403699339,-1.0051788,1.2880094,-0.10995574,284.82678,107.50311,17.10851,CSI
3142493826000,1.884975,2.29984371152322,-9.09060850563967,2.38852328058124,-1.0439687,1.3249667,-0.11056661,285.40466,107.593025,17.21807,CSI
3142499353000,1.890502,2.02553405684382,-9.31651066009552,2.50685291902246,-1.0552697,1.3655893,-0.10140363,285.986,107.67568,17.320656,CSI
3142503855000,1.895004,1.74776239947427,-9.45272366349271,2.50526423769246,-1.073901,1.4144585,-0.083383106,286.61002,107.71776,17.388985,CSI
3142508864000,1.900013,1.41004656501671,-9.57906340954214,2.45181282423521,-1.0873401,1.4373659,-0.0711658,287.23184,107.754906,17.451347,CSI
3142513848000,1.904997,1.0740162757501,-9.70477259187601,2.39862818764688,-1.0873401,1.4523321,-0.06627888,287.87833,107.74959,17.475016,CSI
3142518841000,1.90999,0.737379190214749,-9.83070877714749,2.34534751138574,-1.0638218,1.4239268,-0.0580322,288.51163,107.7361,17.48915,CSI
3142523903000,1.915052,0.39139242240504,-10.0267541956136,2.0600484035091,-1.0308352,1.389413,-0.04917465,289.16785,107.722694,17.500319,CSI
3142528898000,1.920047,0.0476328816257583,-10.2544390220252,1.66271594237984,-0.9828822,1.3475688,-0.049480084,289.80576,107.70475,17.506794,CSI
3142533868000,1.925017,-0.112678837471264,-10.3665907787356,1.41202858577586,-0.91874135,1.3026701,-0.04886922,290.4288,107.59294,17.415667,CSI
3142538841000,1.92999,-0.108402128922414,-10.3751443744612,1.29228070175108,-0.8332202,1.2229522,-0.03726278,291.02344,107.475174,17.319155,CSI
3142543839000,1.934988,-0.0915743698233536,-10.3762515717003,1.23672243973186,-0.75747293,1.1667526,-0.0067195175,291.55188,107.30645,17.161442,CSI
3142548956000,1.940105,-0.0427429764942477,-10.3584948075913,1.34326362698614,-0.7156286,1.1523973,0.0030543262,292.06512,107.139305,17.006374,CSI
3142553829000,1.944978,0.00646798698735805,-10.3409307133062,1.44379748435826,-0.68508536,1.1285735,0.016493361,292.53647,106.96531,16.842266,CSI
3142558894000,1.950043,0.0896160938172273,-10.3149464059353,1.53733909165417,-0.6704246,1.0720685,0.040927973,292.99066,106.78575,16.67258,CSI
3142563857000,1.955006,0.173943751892644,-10.2919597109344,1.63686853920477,-0.6630942,1.0201449,0.05681047,293.47232,106.614525,16.512938,CSI
3142569393000,1.960542,0.279345741522863,-10.2761490930418,1.77916123868787,-0.6560693,0.98624194,0.05681047,293.9391,106.44176,16.351217,CSI
3142573844000,1.964993,0.360701753810396,-10.2757106296653,1.88997620563217,-0.636827,1.0112875,0.06536258,294.4248,106.27378,16.195555,CSI
3142578825000,1.969974,0.438909410450381,-10.3217155856881,2.00038709130099,-0.6093381,1.0415252,0.08582657,294.89835,106.10345,16.036808,CSI
3142583825000,1.974974,0.5311971756325,-10.3626956727326,2.09495814607515,-0.59620446,1.0815369,0.10262536,295.4037,105.94545,15.891637,CSI
3142588837000,1.979986,0.720057933830415,-10.3674172863466,2.07607198742868,-0.6114761,1.1209377,0.13103059,295.91345,105.77974,15.737483,CSI
3142593831000,1.98498,0.908733895066831,-10.3673558848048,2.06176635925079,-0.59681535,1.16492,0.14294247,296.45935,105.626434,15.596524,CSI
3142598851000,1.99,1.10320068743405,-10.3208524623637,2.09135919744988,-0.5537493,1.244638,0.13958271,297.02203,105.47093,15.45167,CSI
3142603857000,1.995006,1.29712514213331,-10.2744787307422,2.12086950582132,-0.5155703,1.2797627,0.12705997,297.58136,105.343956,15.332808,CSI
3142608917000,2.000066,1.47755408429079,-10.2328783925214,2.13859786831001,-0.47250426,1.2690725,0.12461651,298.1441,105.215576,15.210718,CSI
3142613843000,2.004992,1.65001461000627,-10.1934590731147,2.1533801902653,-0.40133846,1.2250903,0.119729586,298.70056,105.092285,15.091343,CSI
3142618846000,2.009995,1.7855322166138,-10.2157900984141,2.03933773633948,-0.310625,1.1429288,0.118507855,299.2517,74.99323,15.006652,CSI
3142623819000,2.014968,1.91618070691813,-10.2443696075439,1.91277196606087,-0.21563543,1.0528263,0.12675454,299.7797,75.07924,14.917728,CSI
3142628828000,2.019977,2.03087308879249,-10.3002982213173,1.75147383406516,-0.099571034,0.95264435,0.12950343,300.2726,75.13601,14.853273,CSI
3142633876000,2.025025,2.13358633331563,-10.3773332515345,1.56316615455619,0.013439035,0.82253003,0.15485434,300.72232,75.19924,14.776926,CSI
3142643357000,2.034506,2.34306775,-10.5509190687055,1.14279953999581,0.12034045,0.6774496,0.18753563,301.1348,75.23453,14.724762,CSI
3142644115000,2.035264,2.3871644,-10.6125023611227,0.9991053069292,0.32436943,0.63499445,0.19730948,301.53207,75.26434,14.668674,CSI
3142648822000,2.039971,2.660994125,-10.9949199830331,0.106798242226644,0.4007276,0.6169739,0.20586158,301.8554,75.28191,14.628046,CSI
3142653852000,2.045001,2.87430875054914,-11.282188746156,-0.589252135057779,0.47525316,0.59650993,0.23182335,302.15958,75.29974,14.577543,CSI
3142658900000,2.050049,2.8789257590488,-11.2498696866584,-0.607719778560787,0.6102544,0.6105598,0.26175576,302.46307,75.31341,14.521061,CSI
3142663847000,2.054996,2.86222351968015,-11.1796790596924,-0.596776407028624,0.7162395,0.63224554,0.30482176,302.63873,75.32003,14.492104,CSI
3142668845000,2.059994,2.75008203382907,-10.9358935529184,-0.455380716367526,0.81061816,0.6579019,0.35369098,302.81693,75.33042,14.452106,CSI
3142673886000,2.065035,2.64543488944162,-10.7028834294416,-0.34391917035533,0.890947,0.6976081,0.40622538,303.01196,75.34209,14.404868,CSI
3142678907000,2.070056,2.57033115963296,-10.5151239088637,-0.340163987786021,0.9987647,0.7797695,0.45234573,303.2239,75.357185,14.344122,CSI
3142683843000,2.074992,2.49649885325264,-10.3305429501757,-0.336472376321749,1.1499538,0.9120218,0.47861293,303.48996,75.37238,14.265806,CSI
3142688871000,2.08002,2.45821953548515,-10.0868346843778,-0.344635694625087,1.3448198,1.0690142,0.49602258,303.78333,75.383095,14.174568,CSI
3142693887000,2.085036,2.43913636798093,-9.81489913645844,-0.358948117578707,1.5525141,1.1997393,0.49418998,304.10364,75.377396,14.078648,CSI
3142698911000,2.09006,2.45901864017662,-9.60350461410994,-0.664881078866839,1.7611245,1.2586879,0.47219884,304.45865,75.34838,13.978885,CSI
3142703856000,2.095005,2.49896080064993,-9.42728906315737,-1.11834212740325,1.9914207,1.2559389,0.4541783,304.8285,75.289406,13.875257,CSI
3142708964000,2.100113,2.54021955812165,-9.24526499151617,-1.5867504258712,2.2812762,1.3274102,0.4447099,305.24023,75.17851,13.7801895,CSI
3142713903000,2.105052,2.58011325490177,-9.0692632511411,-2.03966126888867,2.5961773,1.4419475,0.47250426,305.65704,75.02992,13.674816,CSI
3142718882000,2.110031,2.71255697724083,-9.06961245785157,-2.05396528593735,2.883895,1.4150693,0.63346726,306.05206,74.86085,13.536733,CSI
3142723868000,2.115017,2.90131060795533,-9.17814603448957,-1.79914782041704,3.0494392,1.1670581,0.8689558,306.40417,74.67163,13.369735,CSI
3142728816000,2.119965,3.05544521008111,-9.7047009212051,-1.94367009177289,3.0925052,1.2027937,1.0595458,306.70514,74.49116,13.212173,CSI
3142733850000,2.124999,3.18865658815402,-10.538346397629,-2.37338438393796,3.2247577,1.5625933,1.103528,307.0204,74.27599,13.025041,CSI
3142738821000,2.12997,3.37988772309672,-11.5302306729573,-2.3232228496676,3.425427,1.8625281,1.0051788,307.35248,74.00282,12.842856,CSI
3142743860000,2.135009,3.69035874340553,-12.8652560710916,-1.34523945448209,3.599829,1.9101756,0.893085,307.70898,73.69684,12.646976,CSI
3142748882000,2.140031,4.32151096648423,-13.7353825678916,0.883869088610894,3.7888918,1.7739527,0.870483,308.0305,73.369934,12.469548,CSI
3142753844000,2.144993,5.28338960145947,-14.1110517902007,4.40525362444618,3.8649445,1.4004086,0.9016371,308.29526,73.00412,12.318114,CSI
3142758856000,2.150005,6.00789847391982,-14.4278503225693,7.30510816861325,3.9895608,0.92179567,1.0885619,308.567,72.553986,12.12518,CSI
3142763860000,2.155009,5.5981204331774,-14.4567759142397,7.18699572189528,4.0604215,0.32925636,1.3469579,308.6866,72.10546,11.932458,CSI
3142768779000,2.159928,5.19530305060108,-14.4852101639254,7.07088958172627,4.0518694,-0.19303341,1.5995506,308.84424,71.25478,11.701598,CSI
3142773866000,2.165015,4.77872813188471,-14.5146155365927,6.95081803567225,3.998113,-0.29565877,1.8490891,308.90955,70.41654,11.420951,CSI
3142778791000,2.16994,4.32121629037067,-14.4281967662725,6.78195331045414,3.9468002,0.047036625,1.9462167,308.928,69.571106,11.132158,CSI
3142783853000,2.175002,3.61787158706151,-13.8452875714002,6.3821065190003,3.8957932,0.56016344,1.9089539,308.9386,68.74066,10.813866,CSI
3142788837000,2.179986,2.97194107649328,-13.3125275818829,5.92780834290941,3.7788124,0.98471475,1.8478674,309.07227,68.00177,10.359953,CSI
3142793829000,2.184978,2.52752881953125,-12.95794353125,5.20918422265625,3.6212091,1.149343,1.8249599,309.25992,67.26987,9.893542,CSI
3142798817000,2.189966,2.11242152725904,-12.6913462963855,4.45394777834337,3.4428365,1.039998,1.8432859,309.54242,66.60269,9.360655,CSI
3142803850000,2.194999,1.84625642600402,-12.8849207317269,3.49575366648594,3.3234124,0.8005389,1.8719965,309.82312,65.94673,8.838545,CSI
3142808870000,2.200019,1.59338764755556,-13.0639053739259,2.55210974317037,3.1630602,0.46944994,1.8646661,310.1363,65.43831,8.333796,CSI
3142813865000,2.205014,1.39968080755556,-13.1772950805926,1.66861740383704,2.9950724,0.005192355,1.840537,310.34213,64.95857,7.876246,CSI
3142818838000,2.209987,1.22574194410682,-13.2498937099204,0.826940828357443,2.8701503,-0.56077427,1.840537,310.3565,64.57982,7.4652305,CSI
3142824595000,2.215744,1.15023575757083,-13.0658471061371,0.104912873410083,2.7980683,-1.0595458,1.8371773,310.27054,64.226074,7.116759,CSI
3142828792000,2.219941,1.09518981960113,-12.9316724325088,-0.421463942103912,2.791654,-1.4065173,1.8231273,309.9729,63.939213,6.8121686,CSI
3142833852000,2.225001,1.09715456897943,-12.4544414601192,-0.474744942617721,2.8334985,-1.6676621,1.8115209,309.57312,63.658794,6.564841,CSI
3142838821000,2.22997,1.11544675394964,-11.9102485752451,-0.387856997157409,2.8964176,-1.756543,1.7941113,309.13663,63.374165,6.3506308,CSI
3142843865000,2.235014,1.18035942424197,-11.5560462966076,0.270030913476434,2.9614747,-1.8729129,1.7928895,308.54984,63.104164,6.195697,CSI
3142848862000,2.240011,1.26177044523166,-11.2782910044031,1.13202983011908,2.9999592,-1.9721785,1.7886134,307.95337,62.827114,6.06107,CSI
3142853829000,2.244978,1.34269270683979,-11.0022032444711,1.98885364820274,3.0656273,-2.0561724,1.758681,307.3409,62.484886,5.963969,CSI
3142858954000,2.250103,1.42618910119083,-10.7173331479035,2.87293298536375,3.1801646,-2.1380284,1.6762142,306.7171,62.12232,5.9003067,CSI
3142863862000,2.255011,1.90876773192624,-10.1612124102865,4.02502571671337,3.3487632,-2.2061398,1.5012014,306.08044,61.71512,5.8903008,CSI
3142868782000,2.259931,2.52633028566392,-9.50957724441833,5.28144597884841,3.551876,-2.381458,1.3283265,305.41245,61.27161,5.931576,CSI
3142873919000,2.265068,3.11220353799682,-8.40615711870694,6.57807875675676,3.796833,-2.6151142,1.0809261,304.93768,60.617374,6.084577,CSI
3142878897000,2.270046,3.62759099402226,-6.9610513690514,7.8210719027027,3.9782598,-2.860682,0.75869465,304.45874,59.927284,6.3275585,CSI
3142883877000,2.275026,4.13821554246697,-5.77375130832183,8.02887272283573,3.9779544,-2.8652635,0.5109888,303.9221,58.99457,6.6944947,CSI
3142888840000,2.279989,4.64434910402287,-4.73336567304279,7.66333177105107,3.8111882,-2.5854871,0.28191432,303.4529,58.065376,7.128659,CSI
3142894395000,2.285544,4.52645446336869,-4.43467105670665,6.55616569316943,3.6596937,-2.2455406,0.26419923,302.85678,56.859524,7.5996275,CSI
3142898892000,2.290041,4.12511720845643,-4.57983539367503,5.34788460939824,3.5763106,-1.7421877,0.36896262,302.39804,55.693657,8.031728,CSI
3142903828000,2.294977,3.6843680348978,-5.047783667692,4.51848532754515,3.5140023,-1.2095132,0.4456262,301.96432,54.51049,8.532151,CSI
3142908887000,2.300036,3.23247157983727,-5.74485794661639,4.01851486910101,3.4950655,-0.8170323,0.54305923,301.60733,53.3603,8.947366,CSI
3142913837000,2.304986,2.88818603148974,-6.28551182444246,4.0176057504609,3.467271,-0.54458636,0.6420194,301.3625,52.420395,9.258552,CSI
3142918848000,2.309997,2.61230299027654,-6.72787613966696,4.37910755520864,3.4608572,-0.40683624,0.675617,301.17783,51.495716,9.521095,CSI
3142923916000,2.315065,2.49266827156436,-6.79449975219802,4.76608650865346,3.4327571,-0.36102137,0.66737026,301.18127,50.804356,9.700899,CSI
3142928894000,2.320043,2.49738840130693,-6.56793332740594,5.1625777520396,3.366173,-0.37140608,0.65301496,301.2006,50.143,9.856639,CSI
3142933849000,2.324998,2.48713538970588,-6.34767995955882,5.36123380625,3.2724051,-0.37782016,0.63255095,301.32608,49.552795,9.954572,CSI
3142938839000,2.329988,2.46401801741486,-6.13037646691176,5.39359822401316,3.1667254,-0.37690386,0.5925393,301.45624,48.994785,10.054283,CSI
3142943863000,2.335012,2.36245203247872,-5.82437645414471,5.48638176734901,3.0778446,-0.34422258,0.56199604,301.52194,48.345894,10.133813,CSI
3142948886000,2.340035,2.17233570733685,-5.41977019010944,5.64724939967572,3.0482175,-0.39522982,0.50976706,301.5832,47.719334,10.238015,CSI
3142953834000,2.344983,1.96500078441733,-5.31215619137285,5.78351367234124,3.016758,-0.42638394,0.5332854,301.62677,47.086758,10.325437,CSI
3142958859000,2.350008,1.73383808795273,-5.50170938716495,5.89909494816025,2.9675834,-0.41141775,0.60139686,301.67297,46.48057,10.411281,CSI
3142963827000,2.354976,1.5696000801063,-5.671461917388,5.97192434123007,2.9022207,-0.42852196,0.63499445,301.68863,45.816986,10.460392,CSI
3142968850000,2.359999,1.49654880235383,-5.8175646635915,5.98562145580866,2.844494,-0.46486846,0.6582073,301.6951,45.18184,10.497332,CSI
3142973821000,2.36497,1.4717285950927,-5.84850171123525,5.99923731935468,2.81334,-0.52534413,0.6554584,301.75092,44.60866,10.488388,CSI
3142978902000,2.370051,1.55843269746689,-5.61182288313027,6.01329741165904,2.7687466,-0.65484756,0.5726862,301.7987,44.06203,10.511656,CSI
3142983873000,2.375022,1.64325971830966,-5.38026798163255,6.02705311306525,2.7546968,-0.840856,0.49021935,301.85968,43.56436,10.543156,CSI
3142988831000,2.37998,1.72786490224416,-5.14931863509752,6.04077284100169,2.7501154,-0.9593639,0.4279111,301.9225,43.081627,10.598306,CSI
3142993832000,2.384981,1.80879770376952,-4.87470114051337,6.02425306101239,2.7149906,-1.0445796,0.3885103,301.96808,42.617107,10.693733,CSI
3142998858000,2.390007,1.86495723177167,-4.36062560337462,5.83417458567582,2.6468792,-1.0830641,0.3359759,302.01654,42.16777,10.815307,CSI
3143003864000,2.395013,1.92089328373721,-3.84859573092802,5.64485249106085,2.5763242,-1.1246029,0.30024028,301.97226,41.592888,11.08073,CSI
3143008876000,2.400025,1.87144433250359,-3.53964205962161,5.64007772992092,2.5124888,-1.144456,0.27977628,301.93774,41.046436,11.3472,CSI
3143013858000,2.405007,1.81413111790851,-3.24829990620975,5.64963002378458,2.411696,-1.1551461,0.25442538,301.9102,40.540104,11.618603,CSI
3143018846000,2.409995,1.75674887896827,-2.95660687906837,5.65919382181588,2.2812762,-1.1609493,0.25289822,301.8156,39.9786,11.892103,CSI
3143023807000,2.414956,1.69967724958123,-2.66649278370983,5.6687058510928,2.13925,-1.1569787,0.23304509,301.73306,39.44315,12.206922,CSI
3143028836000,2.419985,1.64182334428243,-2.37240211941673,5.6783482609363,1.9920316,-1.1224649,0.23548855,301.65634,38.959114,12.503838,CSI
3143033834000,2.424983,1.58432606476693,-2.08012430272615,5.68793123258033,1.8286251,-1.0656544,0.24465153,301.59235,38.529003,12.788946,CSI
3143038839000,2.429988,1.62426858447353,-1.86499333277811,5.78122372861392,1.6603317,-1.03786,0.24129178,301.53244,38.14195,13.083828,CSI
3143043849000,2.434998,1.67183929446758,-1.65568227834622,5.88112201594289,1.59558,-0.97127575,0.2593123,301.48727,37.783203,13.343221,CSI
3143048851000,2.44,1.71624136206262,-1.49255327449355,5.97033632412523,1.4526376,-0.9450085,0.28802297,301.4015,37.328312,13.547408,CSI
3143053833000,2.444982,1.76017471160221,-1.33439317027624,6.05820302320442,1.2944235,-0.9306532,0.30970868,301.32825,36.903446,13.734445,CSI
3143058867000,2.450016,1.67349860073394,-1.19465836275229,6.11037164220183,1.133155,-0.93279123,0.31123585,301.25067,36.477207,13.911612,CSI
3143063798000,2.454947,1.5435263879103,-1.06468609966361,6.14888219928644,0.9960158,-0.9456194,0.3213151,301.17096,36.095608,14.08067,CSI
3143068852000,2.460001,1.42367392393678,-1.01282435471264,6.16146553227969,0.86284715,-0.9483683,0.35033122,301.08383,35.713924,14.259971,CSI
3143073815000,2.464964,1.3098576445977,-0.98550845908046,6.16601827662835,0.7425067,-0.9718866,0.38362336,300.99158,35.37194,14.442231,CSI
3143078812000,2.469961,1.23618693653112,-0.986216382703322,6.20186490460099,0.63499445,-0.9691377,0.40591997,300.9144,35.04027,14.596629,CSI
3143083849000,2.474998,1.18093105614738,-1.00003034077892,6.25251598804887,0.52778757,-0.97433007,0.42058071,300.82968,34.747265,14.7518215,CSI
3143088822000,2.479971,1.16148958356673,-0.957037474364104,6.34290341266076,0.4288274,-1.0103711,0.43004912,300.74872,34.477337,14.895737,CSI
3143093867000,2.485016,1.16609237107745,-0.874188116214156,6.46257459028294,0.33964106,-1.03786,0.4428773,300.66797,34.238655,15.033828,CSI
3143098879000,2.490028,1.10862234275154,-0.787773622950982,6.43815799215122,0.24617869,-1.0845913,0.49938235,300.5754,34.028584,15.172116,CSI
3143103825000,2.494974,0.99112159294999,-0.698473097271284,6.27365716327644,0.06078109,-1.1328496,0.47769663,300.4976,33.86465,15.325486,CSI
3143108905000,2.500054,0.922127094029505,-0.621655856754411,6.20708687503616,0.03970624,-1.1007792,0.47952923,300.41312,33.65715,15.456305,CSI
3143113902000,2.505051,0.908284093467361,-0.561669451923633,6.24861589117732,-0.03848451,-1.1160508,0.4813618,300.32135,33.515568,15.610271,CSI
3143118775000,2.509924,0.914118845786408,-0.535411261581137,6.30234389309293,-0.11942416,-1.1178834,0.473726,300.24323,33.37763,15.751707,CSI
3143123867000,2.515016,0.950191035197411,-0.557956368192326,6.37899716140546,-0.1881465,-1.1343768,0.48502702,300.15872,33.26089,15.89412,CSI
3143128783000,2.519932,0.986291025705329,-0.566202425862069,6.45137519122257,-0.26847526,-1.1468995,0.49205196,300.08206,33.14675,16.039291,CSI
3143133851000,2.525,1.02778599183053,-0.529318030250784,6.52053338785979,-0.3555236,-1.1527027,0.49571714,300.00558,33.054787,16.182724,CSI
3143138855000,2.530004,1.07106851041792,-0.499334433203359,6.58931966426715,-0.4550946,-1.1404854,0.5002986,299.9324,32.978428,16.337389,CSI
3143143943000,2.535092,1.12952897928414,-0.509077831115777,6.66239544111178,-0.5002986,-1.112691,0.50335294,299.86398,32.91172,16.486094,CSI
3143149349000,2.540498,1.20398261116722,-0.514358045426407,6.7424449688116,-0.5900958,-1.0784826,0.5137377,299.7989,32.86523,16.636396,CSI
3143153830000,2.544979,1.3018552867883,-0.503871698795308,6.81584942077869,-0.66614854,-1.0629056,0.514654,299.74042,32.82679,16.782362,CSI
3143158830000,2.549979,1.41106380678505,-0.492170798738291,6.89775574968641,-0.7318166,-1.0574077,0.5140431,299.68686,32.79893,16.93566,CSI
3143163850000,2.554999,1.5282412794476,-0.512755935566819,6.9635817689668,-0.8185594,-1.0891727,0.5155703,299.6321,32.79712,17.090157,CSI
3143168827000,2.559976,1.64792149007719,-0.548216748144704,7.02120550551474,-0.9120218,-1.1093313,0.51007247,299.58514,32.81323,17.23853,CSI
3143173861000,2.56501,1.71112987781701,-0.658030868001614,7.06790448740038,-0.99296147,-1.1172725,0.5140431,299.53223,32.83051,17.413795,CSI
3143178860000,2.570009,1.72320352434177,-0.831891504030062,7.10412552783214,-1.0867293,-1.0974194,0.5308419,299.4818,32.87577,17.58191,CSI
3143183847000,2.574996,1.73524818831837,-1.00533479106224,7.14025962037728,-1.1847731,-1.0836749,0.5534439,299.4221,32.93485,17.779295,CSI
3143188839000,2.579988,1.7473049283567,-1.17895197350953,7.17642994120851,-1.2660183,-1.058324,0.57543504,299.3667,33.01426,17.961763,CSI
3143193861000,2.58501,1.80808803383895,-1.35729665331365,7.16163913529472,-1.3322971,-1.035722,0.59986967,299.31235,33.113388,18.14271,CSI
3143198851000,2.59,1.90538678554413,-1.53729925760969,7.10812477613764,-1.3854424,-0.9987647,0.61300325,299.2649,33.22896,18.307997,CSI
3143203833000,2.594982,1.99696481937173,-1.70908393481675,7.01448446858639,-1.4477507,-0.97585726,0.6404922,299.21768,33.406414,18.50779,CSI
3143208865000,2.600014,2.08573927165018,-1.87728812166958,6.8930036751018,-1.5140295,-0.96974856,0.6630942,299.17365,33.5956,18.693972,CSI
3143213847000,2.604996,2.12846013766088,-2.05725302003358,6.782434358338,-1.5592335,-0.95203346,0.68630713,299.12204,33.82123,18.907986,CSI
3143219492000,2.610641,2.13350220406641,-2.27406208606603,6.66646667306473,-1.6276505,-0.9434814,0.72326446,299.0619,34.06863,19.10716,CSI
3143223815000,2.614964,2.1411987573984,-2.45460356200135,6.610609853252,-1.6945401,-0.9306532,0.74464476,298.99646,34.355022,19.3498,CSI
3143228857000,2.620006,2.15565462914453,-2.68589762314947,6.59254001356934,-1.7336355,-0.91904676,0.7684685,298.92245,34.64879,19.572279,CSI
3143233805000,2.624954,2.16984099435671,-2.91287957764389,6.57480705705411,-1.781283,-0.91324353,0.79076505,298.84308,34.991405,19.82641,CSI
3143238833000,2.629982,2.18047908915251,-3.18451957913068,6.54024176464838,-1.813659,-0.91232723,0.8017606,298.75952,35.33174,20.06237,CSI
3143243861000,2.63501,2.18961872100218,-3.4724182209832,6.49911337360729,-1.8194622,-0.9272934,0.8347474,298.66162,35.67298,20.279795,CSI
3143248848000,2.639997,2.23759423247106,-3.78941771492703,6.47162996316054,-1.8209893,-0.9239337,0.86376345,298.59314,36.050587,20.560814,CSI
3143253863000,2.645012,2.31010714470055,-4.12781113707096,6.45229331444389,-1.8096883,-0.9184359,0.872621,298.51254,36.41531,20.822142,CSI
3143258840000,2.649989,2.40210161055372,-4.38850727373403,6.46508333909134,-1.8020525,-0.9077458,0.87964594,298.39923,36.82615,21.054216,CSI
3143263853000,2.655002,2.50661604140085,-4.60662454072882,6.49689204590629,-1.7864754,-0.9309586,0.8933904,298.27243,37.220787,21.274904,CSI
3143268847000,2.659996,2.64203343513141,-4.76037530495127,6.57053214204154,-1.7684549,-0.9896017,0.89919364,298.08566,37.65557,21.461937,CSI
3143273861000,2.66501,2.80746651295403,-4.85490837946648,6.68397197952554,-1.7482964,-1.0894781,0.89980453,297.8832,38.07429,21.652023,CSI
3143278853000,2.670002,2.94666003562973,-4.93798408977285,6.85100069710995,-1.7327193,-1.2345587,0.8854492,297.64764,38.505997,21.86841,CSI
3143283852000,2.675001,3.05898149347339,-5.00946131327717,7.07564366610856,-1.7281377,-1.4147639,0.8399397,297.39075,38.91897,22.109547,CSI
3143289135000,2.680284,3.04739707005415,-5.13604636921292,7.10488045253336,-1.7217237,-1.5784758,0.7519751,297.1409,39.310802,22.409365,CSI
3143293859000,2.685008,2.96865650439954,-5.2760296985496,7.02176523083543,-1.7168368,-1.6826283,0.66706485,296.873,39.684288,22.729088,CSI
3143298849000,2.689998,2.87660280025799,-5.5799923879738,6.79412474491963,-1.7162259,-1.7369953,0.5888741,296.61768,40.015774,23.08504,CSI
3143303843000,2.694992,2.77694430432626,-6.01659147525303,6.44769302634451,-1.72264,-1.7751744,0.50610185,296.36066,40.32513,23.460583,CSI
3143308954000,2.700103,2.79758306395978,-6.47749159048724,6.05507499010054,-1.7058412,-1.8063285,0.43676865,296.11578,40.662525,23.830147,CSI
3143313887000,2.705036,2.92089552162606,-6.93420455385731,5.64403328968484,-1.6639969,-1.8509218,0.39645153,295.86768,40.976334,24.205875,CSI
3143318849000,2.709998,3.11546177920358,-7.33347796234057,5.25260018636939,-1.6120734,-1.9321668,0.3839288,295.50623,41.376965,24.548635,CSI
3143323861000,2.71501,3.39585685290624,-7.66527865722909,4.88341346538799,-1.5555683,-2.0399845,0.39553526,295.1306,41.752483,24.896563,CSI
3143328851000,2.72,3.68049967672008,-7.94601462299717,4.54234902808671,-1.4947872,-2.1557434,0.4297437,294.6177,42.21272,25.262503,CSI
3143333857000,2.725006,3.97420363117813,-8.15386629081998,4.23960813485391,-1.4074335,-2.2308798,0.46822822,294.08426,42.64407,25.623888,CSI
3143338814000,2.729963,4.22920080937236,-8.30584954839391,3.95467571813187,-1.2986995,-2.382069,0.47800204,293.4166,43.121006,26.054424,CSI
3143343825000,2.734974,4.39146386202451,-8.31599121090448,3.70620996373626,-1.2452488,-2.5485299,0.5143485,292.71042,43.588715,26.46974,CSI
3143348785000,2.739934,4.47353273093923,-8.23589503093923,3.38389315690608,-1.14018,-2.720183,0.54367006,291.9032,44.06026,26.950924,CSI
3143353841000,2.74499,4.42489355384229,-8.00242687929684,2.92668463825213,-1.0186177,-2.808453,0.56077427,291.0655,44.507362,27.419239,CSI
3143358843000,2.749992,4.3658728839132,-7.55876356686874,2.43032467296609,-0.88422745,-2.797152,0.5708536,290.18127,44.94356,27.912514,CSI
3143363820000,2.754969,4.2904953837287,-6.79242454786505,1.86918034141627,-0.76083267,-2.69697,0.569021,289.291,45.345306,28.380573,CSI
3143368826000,2.759975,4.23612625336427,-6.05541424765661,1.35979016211601,-0.6258314,-2.5369234,0.56016344,288.38562,45.73433,28.847979,CSI
3143373834000,2.764983,4.34740378097448,-5.57914601118329,1.27521919465429,-0.5299256,-2.2928827,0.5458081,287.52484,46.0952,29.264654,CSI
3143379222000,2.770371,4.47125089463999,-5.0739173640653,1.19228222788997,-0.44593164,-1.9969184,0.52442783,286.7696,46.394783,29.73546,CSI
3143383860000,2.775009,4.6724424502312,-4.80356630014155,1.30545246970369,-0.3885103,-1.6991217,0.4914411,286.07108,46.669563,30.151,CSI
3143388866000,2.780015,4.88959745827121,-4.5117643540436,1.42760215286874,-0.3622431,-1.4721853,0.464563,285.46503,46.890724,30.54746,CSI
3143398796000,2.789945,5.32035040070775,-3.93294027798434,1.66990066541946,-0.30726522,-1.1759156,0.33261612,284.43567,47.258545,31.232399,CSI
3143403746000,2.794895,5.53249057862564,-3.95237070700334,1.88232860333974,-0.29901853,-1.1111639,0.25870144,283.96597,47.373417,31.528389,CSI
3143408818000,2.799967,5.74878825408359,-4.09984620349155,2.13795309154944,-0.28008172,-1.0986412,0.19181168,283.53006,47.46377,31.822842,CSI
3143413765000,2.804914,5.76549740238612,-4.38621893687636,2.51050484956616,-0.24770586,-1.1343768,0.12675454,283.14566,47.49439,32.13377,CSI
3143418749000,2.809898,5.71372857178071,-4.72506921429698,2.92936120223822,-0.21197024,-1.2345587,0.05681047,282.75705,47.50281,32.464355,CSI
3143423747000,2.814896,5.57603128040787,-5.1408590912288,3.2888673168869,-0.1853976,-1.4138476,0.005497787,282.38055,47.47488,32.82177,CSI
3143428759000,2.819908,5.4012354989075,-5.59033432298408,3.62347664507335,-0.12095132,-1.525636,-0.03573562,282.0027,47.42006,33.19137,CSI
3143433764000,2.824913,5.14881254988275,-6.02572399543195,3.85466328921302,-0.03481932,-1.7321084,-0.044898596,281.64255,47.353863,33.57333,CSI
3143438871000,2.83002,4.86896691372292,-6.46613656664478,4.06110666250821,0.029626964,-1.8805487,-0.03756821,281.26605,47.277817,33.956387,CSI
3143443768000,2.834917,4.56772705670409,-6.96092856545223,4.18367694177081,0.1563815,-1.958434,-0.020463986,280.9292,47.211815,34.316715,CSI
3143448768000,2.839917,4.24315810944715,-7.50356704246982,4.26989072063122,0.30573806,-1.9566014,0.032070424,280.55856,47.147163,34.65871,CSI
3143453835000,2.844984,4.02460374879792,-8.12901274621739,4.17667462185092,0.50915617,-1.8417587,0.10476339,280.20615,47.109745,34.911663,CSI
3143458855000,2.850004,3.84163730695257,-8.77162679987005,4.02940880025991,0.77304995,-1.5457945,0.21410827,279.89624,47.06547,35.107086,CSI
3143463852000,2.855001,3.78246420174466,-9.66514148809524,3.90075603446223,1.1343768,-1.0036516,0.35613444,279.66537,47.060055,35.1643,CSI
3143468847000,2.859996,3.7971921724959,-10.710820952381,3.78293298612479,1.5796975,-0.17348573,0.5467244,279.5968,47.04044,35.103485,CSI
3143474410000,2.865559,3.72273554922384,-12.0744256384577,4.37858604857286,2.1245892,0.90133166,0.818254,279.61127,47.07319,34.82838,CSI
3143478827000,2.869976,3.6337704895343,-13.2224983830746,5.09030634914372,2.659402,2.0650299,1.1545353,279.8715,47.091362,34.374035,CSI
3143483852000,2.875001,3.39361689441006,-14.4883733768213,6.25672805628036,3.0213394,3.0882292,1.5109752,280.2221,47.190323,33.68482,CSI
3143488836000,2.879985,3.08907788265879,-15.7247100838015,7.58397233473003,3.1041117,3.8114936,1.853976,280.7675,47.2986,32.808857,CSI
3143493858000,2.885007,3.21009351561516,-16.7338301041349,8.71641151076908,2.8515189,4.223522,2.1578815,281.4879,47.484726,31.655416,CSI
3143498850000,2.889999,3.64236627928477,-17.5643770837143,9.69266803743777,2.341141,4.232685,2.4107797,282.2181,47.7265,30.40326,CSI
3143503832000,2.894981,4.6364799198835,-16.8900098108738,9.66093742873786,1.7510452,3.7861428,2.5390613,283.0218,48.02776,28.976044,CSI
3143509035000,2.900184,6.05392063175728,-15.1726328693204,8.94979820820388,1.1945469,2.9278772,2.543643,283.65482,48.399723,27.613487,CSI
3143513853000,2.905002,7.04414531342137,-12.7883524623021,8.22810935109113,0.84482664,1.953547,2.4929411,284.16177,48.789898,26.329638,CSI
3143518848000,2.909997,7.81923705843402,-9.69694616699447,7.43061617491805,0.73975784,0.956615,2.3881776,284.42426,49.194424,25.234634,CSI
3143523827000,2.914976,8.26612886387984,-6.73746813735952,6.85326480980989,0.77732605,0.0018325958,2.1517727,284.46222,49.44246,24.629951,CSI
3143528887000,2.920036,8.24576981756118,-3.90761772437769,6.58351292009243,0.8436049,-0.7602218,1.8212948,284.32825,49.655098,24.216621,CSI
3143533849000,2.924998,8.02107762912846,-2.02282560900739,6.27887865506988,0.9092729,-1.0073168,1.6505579,284.12738,49.622204,24.119137,CSI
3143538837000,2.929986,7.60007364408439,-0.976693581260572,5.93442064324757,0.9401216,-1.2382239,1.3286319,283.81763,49.499687,24.25597,CSI
3143544382000,2.935531,6.93779724968072,-0.270766985915283,5.48890986232439,0.98746365,-1.058324,0.96761054,283.56268,49.179268,24.385075,CSI
3143548855000,2.940004,6.08980956577267,-0.439452718118348,5.02844336117497,1.058324,-0.9245446,0.88117313,283.24316,48.837673,24.575684,CSI
3143553797000,2.944946,5.15833204994002,-0.780530809756097,4.58674674334266,1.0882565,-0.6010914,0.7672467,283.10535,48.385303,24.786825,CSI
3143558911000,2.95006,4.20368596601359,-1.39737899512195,4.244053227509,1.1236867,-0.21471913,0.7315111,283.0191,47.9112,24.974636,CSI
3143563783000,2.954932,3.40321410305882,-2.04148220376471,3.94945251388235,1.1258247,0.25167647,0.77518797,283.01633,47.516132,25.032055,CSI
3143568886000,2.960035,2.75160823082353,-2.81286859370588,3.69551782835294,1.0409144,0.7348709,0.90194255,283.10602,47.13742,25.016777,CSI
3143573831000,2.96498,2.17465474942572,-3.61440868781774,3.59653535289023,0.87995136,1.1362094,1.0968086,283.26633,46.906624,24.831491,CSI
3143578859000,2.970008,1.69413018109584,-4.53465864816419,3.7823986721898,0.6597345,1.3854424,1.2666291,283.48798,46.722794,24.571474,CSI
3143583812000,2.974961,1.26740028702429,-5.43420796482794,4.04204738461539,0.46975538,1.4618006,1.3921618,283.82043,46.69848,24.274704,CSI
3143588842000,2.979991,1.00899124601215,-6.32157465116397,4.59299489230769,0.3213151,1.3613132,1.466382,284.14548,46.729366,23.946514,CSI
3143593835000,2.984984,0.763466398838141,-7.11632527564103,5.10175035228365,0.24984388,1.1301007,1.4850134,284.30118,46.88802,23.399857,CSI
3143598850000,2.989999,0.551805932872596,-7.64066602884615,5.49139807073317,0.2706133,0.8371908,1.4660766,284.4088,47.05763,22.88251,CSI
3143603835000,2.994984,0.385563611171861,-8.09466142904405,5.80666000302978,0.33628133,0.54519725,1.4471397,284.45197,47.26876,22.301281,CSI
3143608969000,3.000118,0.355599198516455,-8.34721882831273,5.9008338151837,0.43218717,0.27183503,1.4358387,284.42926,47.457417,21.779783,CSI
3143614473000,3.005622,0.34602527752243,-8.61211094380608,6.00170171128601,0.5503896,0.004886922,1.4492778,284.34323,47.63689,21.24263,CSI
3143618849000,3.009998,0.590098919593893,-8.75723564898473,6.08086081671651,0.63621616,-0.19211712,1.4688255,284.20825,47.792065,20.751404,CSI
3143623872000,3.015021,0.870259318159925,-8.92381732039981,6.17172374783567,0.70249504,-0.34269542,1.5152513,283.9987,47.939423,20.273396,CSI
3143628889000,3.020038,1.165005603761,-9.05402948042154,6.25567996896452,0.75625116,-0.40744713,1.5583172,283.75952,48.06416,19.819834,CSI
3143633851000,3.025,1.47742637431113,-9.13213432524413,6.32919063409069,0.8142834,-0.5036584,1.5903877,283.4706,48.170197,19.39851,CSI
3143638820000,3.029969,1.82009674464267,-9.13705454037792,6.42020913025441,0.8546005,-0.54305923,1.6530013,283.14117,48.265453,19.006264,CSI
3143643823000,3.034972,2.22472262171435,-8.99543578707907,6.54665463431859,0.9251554,-0.5497787,1.7052304,282.79367,48.336266,18.628496,CSI
3143648832000,3.039981,2.6130336614781,-8.71691265302474,6.60290320634747,0.9960158,-0.53878313,1.7318029,282.41403,48.382385,18.294785,CSI
3143653840000,3.044989,2.97987287014006,-8.26431869494388,6.56955421451276,1.0574077,-0.5345071,1.750129,282.02466,48.414722,17.961678,CSI
3143658846000,3.049995,3.31896337317513,-7.71963471963553,6.48043818673275,1.1044444,-0.48716503,1.7507398,281.64087,48.38709,17.682117,CSI
3143663834000,3.054983,3.62030045494142,-7.05478006918995,6.31781195595274,1.1594223,-0.42149702,1.7180585,281.26672,48.337753,17.40962,CSI
3143668806000,3.059955,3.84608161886792,-6.45440648301887,6.14343136981132,1.2263119,-0.3359759,1.6432275,280.91852,48.2067,17.221556,CSI
3143673867000,3.065016,3.97401602004106,-5.9284534006159,5.94916041456643,1.3002267,-0.26511553,1.539075,280.59586,48.052814,17.04461,CSI
3143678822000,3.069971,4.04079868003714,-5.49651786963788,5.82718022228412,1.3478742,-0.19303341,1.4349225,280.3182,47.812767,16.969984,CSI
3143683890000,3.075039,4.01375965303621,-5.19007440289694,5.81366066172702,1.389413,-0.08246681,1.3429873,280.0863,47.548653,16.89979,CSI
3143688799000,3.079948,3.94991619408321,-4.94736685522684,5.84156585375288,1.400714,0.018936822,1.251052,279.88974,47.225964,16.90604,CSI
3143693858000,3.085007,3.75239233577253,-4.88659026309847,6.0137659425047,1.4059063,0.17715092,1.1921035,279.74683,46.894085,16.895947,CSI
3143698782000,3.089931,3.58032438985926,-4.94171267768664,6.15927981955448,1.4056009,0.29626966,1.1557571,279.62476,46.526993,16.866173,CSI
3143703836000,3.094985,3.44949823884798,-5.2574999663622,6.25852739714792,1.4165965,0.42913285,1.1172725,279.5555,46.154114,16.820396,CSI
3143708894000,3.100043,3.30445253804348,-5.55903111783171,6.36124126321214,1.4370605,0.50579643,1.0668762,279.52344,45.754864,16.745634,CSI
3143713861000,3.10501,3.0994180173913,-5.79080920078711,6.47713032796102,1.4376713,0.5510005,1.0690142,279.51245,45.365303,16.651997,CSI
3143719007000,3.110156,2.89191633349962,-6.02988841096643,6.60217781136383,1.4330899,0.5693264,1.0803152,279.5122,45.002766,16.51697,CSI
3143723883000,3.115032,2.75767424451678,-6.24309642736958,6.78379943206223,1.4086553,0.55863625,1.0952814,279.51422,44.651024,16.38185,CSI
3143728839000,3.119988,2.6212296602266,-6.45980252443561,6.96840089887545,1.3768903,0.54244834,1.103528,279.48148,44.32156,16.165916,CSI
3143733848000,3.124997,2.77766371475855,-6.47005517558329,7.40609835268584,1.3765849,0.49357912,1.1163563,279.43365,43.99583,15.960524,CSI
3143738854000,3.130003,3.07681024188823,-6.37901066697414,7.96537240296618,1.3683381,0.47525316,1.1710287,279.37726,43.689396,15.747936,CSI
3143743863000,3.135012,3.04655436096093,-6.40106131584765,8.07681889044544,1.3161092,0.4156938,1.1927143,279.2976,43.403496,15.506195,CSI
3143748880000,3.140029,2.63639201606654,-6.55355747020904,7.6719150885411,1.3295482,0.35979962,1.2162327,279.20123,43.11103,15.262816,CSI
3143753852000,3.145001,2.4180786933825,-6.45522805229105,7.39556975343166,1.3930782,0.35735616,1.1972959,279.13266,42.7294,15.067245,CSI
3143758855000,3.150004,2.30501025386431,-6.2149575260767,7.18827750772861,1.4315627,0.3231477,1.1710287,279.0407,42.358196,14.892095,CSI
3143763984000,3.155133,2.23601273494893,-6.056280960715,7.02159257232125,1.4709635,0.30879238,1.1713341,278.92633,42.039906,14.655755,CSI
3143768849000,3.159998,2.19868757412377,-5.95830246226717,6.89095450943321,1.5066991,0.2883284,1.1438452,278.81372,41.710857,14.44494,CSI
3143773825000,3.164974,2.14928434687065,-5.78155616618319,6.88918139034373,1.565953,0.31031954,1.1282681,278.68225,41.357292,14.21787,CSI
3143778909000,3.170058,2.09124118859527,-5.5493838361216,6.97624597623684,1.6157386,0.3475823,1.1410962,278.54803,41.000656,13.997813,CSI
3143783883000,3.175032,2.09869927304571,-5.50300268261427,7.02151333677915,1.6636915,0.41630468,1.1172725,278.4203,40.6261,13.780769,CSI
3143788837000,3.179986,2.14858567701508,-5.57627330792232,7.04022079524201,1.7055358,0.44043383,1.0815369,278.2895,40.244194,13.5710945,CSI
3143793856000,3.185005,2.19912662605067,-5.6505052958959,7.05917370885223,1.7351627,0.45723262,1.0149527,278.1886,39.810604,13.354426,CSI
3143799484000,3.190633,2.25580015886045,-5.73374451253573,7.08042634838169,1.7895297,0.50976706,0.98807454,278.0965,39.364285,13.130211,CSI
3143803858000,3.195007,2.2998460068544,-5.79843682482831,7.09694359168337,1.8118263,0.58001655,0.9718866,278.0095,38.915047,12.912035,CSI
3143808931000,3.20008,2.35093073179115,-5.87346748332402,7.11610042187757,1.8069394,0.5928447,0.906524,277.93665,38.45809,12.714723,CSI
3143813947000,3.205096,2.42245052592188,-5.89392078411689,7.16755710466156,1.8649716,0.61544675,0.8585711,277.8767,37.983944,12.50532,CSI
3143818842000,3.209991,2.51097947875957,-5.86596416002386,7.24676721523705,1.9086485,0.63529986,0.7641924,277.8423,37.512665,12.319179,CSI
3143824808000,3.215957,2.54192108382195,-5.78605534405219,7.30806495490407,1.9642372,0.6627888,0.70738196,277.77585,37.041878,12.152081,CSI
3143828890000,3.220039,2.52391993373753,-5.70805029769762,7.33206648834996,2.0103576,0.68875057,0.6630942,277.72977,36.56294,11.999717,CSI
3143833800000,3.224949,2.5022673989716,-5.61422257168074,7.36093653470453,2.038152,0.7165449,0.634689,277.69843,36.065224,11.868087,CSI
3143838839000,3.229988,2.4188743056146,-5.43259598796872,7.23294122466413,2.0980167,0.7134906,0.5842926,277.6801,35.5497,11.752475,CSI
3143843793000,3.234942,2.32849663691598,-5.24232742089433,7.08548278716663,2.1484132,0.7489208,0.5207626,277.6819,35.034916,11.631885,CSI
3143848852000,3.240001,2.30942857716987,-4.99500040919507,6.97793937665425,2.2159138,0.80970186,0.47739118,277.6798,34.475998,11.502594,CSI
3143853829000,3.244978,2.30032636508164,-4.74468933915783,6.87781518625036,2.2748623,0.9651671,0.47891834,277.70203,33.913593,11.348854,CSI
3143858865000,3.250014,2.14680395190938,-4.40832989446973,6.61438628847448,2.2574525,0.9443977,0.41447207,277.73627,33.343838,11.233501,CSI
3143863865000,3.255014,1.95731438918678,-4.05303671085279,6.3112028199347,2.3554964,0.9129381,0.2938262,277.8058,32.731537,11.096234,CSI
3143869494000,3.260643,1.71855252163992,-3.73569172941404,6.13939238826146,2.437047,1.0033462,0.25595254,277.8683,32.100864,10.934014,CSI
3143873853000,3.265002,1.52883781558693,-3.50561222815703,6.03848027380584,2.4889705,1.1139128,0.20280726,277.95926,31.452524,10.797823,CSI
3143878858000,3.270007,1.22173427792725,-3.31012045456901,5.86937038249128,2.518292,1.196685,0.14844026,278.08185,30.771654,10.631561,CSI
3143883851000,3.275,0.878652734329846,-3.1433447512008,5.67876948623817,2.5506678,1.2822062,0.10903945,278.22812,30.082964,10.445811,CSI
3143888821000,3.27997,0.526259273475222,-2.97842477849951,5.51654886566634,2.5851817,1.4074335,0.08460484,278.40045,29.354702,10.192052,CSI
3143893829000,3.284978,0.166436021851925,-2.81271663366239,5.36504455577493,2.6111436,1.4694363,0.018020526,278.5921,28.624453,9.947031,CSI
3143898884000,3.290033,-0.161308315296055,-2.75187575691306,5.18087012801609,2.6481009,1.5045611,-0.044898596,278.81046,27.877357,9.613209,CSI
3143903832000,3.294981,-0.465297664612026,-2.74280145465339,4.98577234517426,2.7009406,1.5781704,-0.064446285,279.04315,27.125801,9.260075,CSI
3143908866000,3.300015,-0.743205652677209,-2.69439582736744,4.84040146986047,2.7269025,1.6297885,-0.06627888,279.30096,26.360687,8.833723,CSI
3143913860000,3.305009,-0.996797702187907,-2.61876316072558,4.73362603339535,2.7452285,1.6655241,-0.079107046,279.5681,25.589373,8.399018,CSI
3143918849000,3.309998,-1.26770285181881,-2.51626068790762,4.59499178848251,2.7629435,1.7150042,-0.096516706,279.8502,24.8327,7.880867,CSI
3143923873000,3.315022,-1.56337737734166,-2.37796120704728,4.41377174130241,2.7666087,1.7537941,-0.099265605,280.12872,24.082453,7.3581448,CSI
3143928888000,3.320037,-1.79622301503651,-2.31309179223491,4.11900592251363,2.770274,1.8148806,-0.102319926,280.4344,23.328957,6.760408,CSI
3143933846000,3.324995,-1.94272658632109,-2.34727608804896,3.67461175968323,2.761111,1.8142698,-0.16035213,280.74664,22.583393,6.1772537,CSI
3143939276000,3.330425,-2.11087724138213,-2.11681800870988,3.38888940079738,2.7968466,2.0317378,-0.14874569,281.08948,21.82191,5.448461,CSI
3143943835000,3.334984,-2.25816845516254,-1.71065146951544,3.30854874720916,2.6984973,2.225993,-0.13041973,281.43628,21.106392,4.732838,CSI
3143948846000,3.339995,-2.71185350353385,-1.50869210981735,3.33679075824896,2.674979,2.3512204,-0.071776666,281.7806,20.406012,3.9474711,CSI
3143953835000,3.344984,-3.43749766023427,-1.53714877351598,3.47433115914235,2.6847527,2.437047,-0.0036651916,282.12805,19.730532,3.1199265,CSI
3143958839000,3.349988,-4.15310150995637,-1.47315487465292,3.79963311239587,2.7116308,2.463925,0.03848451,282.48932,18.983194,2.2369225,CSI
3143963851000,3.355,-4.85756862729076,-1.31607778072194,4.31370362421658,2.7739391,2.5014932,0.020463986,282.8503,18.228632,1.3291178,CSI
3143968808000,3.359957,-5.51867245940704,-1.26913345962871,5.02035888639512,2.8072312,2.5189028,-0.05222898,283.24707,17.461645,0.22760808,CSI
3143973858000,3.365007,-6.15296869105015,-1.34060348318094,5.95840303297312,2.8683178,2.4859161,-0.11362094,283.6358,16.675537,-0.86633927,CSI
3143978876000,3.370025,-6.82529251323408,-1.34039650984285,7.19506514061208,2.9452868,2.2901337,-0.15302174,284.07483,15.811025,-2.0964215,CSI
3143983867000,3.375016,-7.58139985778536,-1.19214017586849,9.05815301240695,3.0454686,1.9446895,-0.18753563,284.50317,14.932447,-3.2613418,CSI
3143988803000,3.379952,-8.20516936121978,-0.922630100701174,10.7967799104223,3.1905491,1.5555683,-0.19394971,284.9522,13.982972,-4.5156207,CSI
3143993854000,3.385003,-8.63702276783027,-0.442253658892567,12.4028874562143,3.345098,1.2217305,-0.16157386,285.36368,13.017029,-5.6668043,CSI
3143998882000,3.390031,-9.01784949727768,0.0676372787114337,13.8551284001815,3.4260378,0.93401295,-0.09987647,285.76224,11.919833,-6.8450646,CSI
3144003830000,3.394979,-9.31885033615648,0.617082176521476,15.0639066405525,3.4376442,0.70707655,-0.043066,286.11356,10.824518,-7.903053,CSI
3144009013000,3.400162,-9.6851426935867,1.05791777708752,16.0021492810159,3.3579264,0.54305923,0.052839845,286.4015,9.589806,-8.906631,CSI
3144013859000,3.405008,-10.0921664061758,1.29958820881601,16.4642914843779,3.1816916,0.46731192,0.007330383,286.68332,8.424753,-9.808498,CSI
3144018841000,3.40999,-10.1429348362012,1.69302128473475,16.8301233434885,2.9691105,0.41050145,-0.021380283,286.89853,7.1798983,-10.639781,CSI
3144023807000,3.414956,-8.87563745665773,2.60485715299374,16.8030776255585,2.651766,0.38056904,-0.022907447,287.09772,6.065333,-11.395872,CSI
3144028804000,3.419953,-7.60042903829718,3.52238510983833,16.7758630761232,2.47095,0.4251622,-0.06780604,287.31458,4.9570546,-12.176536,CSI
3144033852000,3.425001,-6.74199330302034,3.95525074888021,16.4635507355661,2.1319196,0.49968776,-0.06963864,287.5022,4.024233,-12.900427,CSI
3144038793000,3.429942,-6.04197928532977,4.21775611972468,16.0649307129649,1.7959439,0.66339964,-0.0693332,287.69116,3.1820345,-13.611157,CSI
3144043834000,3.434983,-5.61109208380971,4.15896204112005,15.616863343862,1.4850134,0.8017606,-0.018020526,287.7893,2.2670383,-14.00138,CSI
3144048791000,3.43994,-5.25692473587831,4.02097464544133,15.1661048573782,1.210735,0.9447031,0.032070424,287.88394,1.4717106,-14.420348,CSI
3144053834000,3.444983,-5.24094879153296,3.86709531465301,14.7324007095496,0.9783007,1.0451905,0.098043874,287.93488,0.7360244,-14.746978,CSI
3144058827000,3.449976,-5.34724979048908,3.70995461098009,14.311818399768,0.7290677,1.1304061,0.16249016,287.96756,0.103712626,-15.098434,CSI
3144063869000,3.455018,-5.64234531552795,3.65191601118012,13.7882223354037,0.50335294,1.2208142,0.2406809,287.9647,-0.433433,-15.432854,CSI
3144068810000,3.459959,-6.02022566903283,3.64258564170364,13.2283996796806,0.2565634,1.2724323,0.2950479,287.94595,-0.8824833,-15.7708845,CSI
3144073843000,3.464992,-6.20185783333333,3.54810399086022,12.3931601290323,0.026572637,1.3222178,0.34116822,287.9068,-1.2424784,-16.162333,CSI
3144078885000,3.470034,-6.27043220440252,3.40605681632177,11.4086260048691,-0.15393804,1.3368785,0.38912117,287.84735,-1.5428882,-16.547514,CSI
3144083889000,3.475038,-6.25046086219689,3.47410544445349,10.6696848363192,-0.25625798,1.3051136,0.46883908,287.76706,-1.8011986,-17.007872,CSI
3144088842000,3.479991,-6.19037459048136,3.63719704149475,10.0473613599349,-0.29565877,1.2067643,0.5412266,287.6714,-2.025513,-17.440634,CSI
3144093854000,3.485003,-6.17590029803566,3.86272929156845,9.49021895799335,-0.37293324,1.1032226,0.593761,287.56012,-2.1974292,-17.906788,CSI
3144098849000,3.489998,-6.21445060809912,4.15667560707162,9.01797735781203,-0.46822822,0.9981538,0.6435465,287.4261,-2.3578975,-18.333218,CSI
3144103834000,3.494983,-6.25123626207906,4.39084664077599,8.55958298243045,-0.57696223,0.8781188,0.713796,287.25928,-2.530962,-18.741089,CSI
3144108883000,3.500032,-6.28663396573939,4.56277839707174,8.10952604204141,-0.6609562,0.7816021,0.7626653,287.08218,-2.6870549,-19.116982,CSI
3144113850000,3.504999,-6.43626981823478,4.66951751843868,7.79321352076901,-0.71837753,0.6969972,0.8219192,286.87952,-2.8738415,-19.47553,CSI
3144118849000,3.509998,-6.67334104680066,4.72994756031654,7.57008765287892,-0.7351763,0.6585127,0.852157,286.66907,-3.0509179,-19.812258,CSI
3144124637000,3.515786,-7.03522038265561,4.70552361704466,7.3456634334399,-0.7538077,0.600786,0.8573494,286.45154,-3.2415504,-20.133856,CSI
3144128905000,3.520054,-7.34966567709062,4.63610049705265,7.19865017141573,-0.7626653,0.5830709,0.8741482,286.21918,-3.4348238,-20.448698,CSI
3144133847000,3.524996,-7.60554447692609,4.50211023816973,7.17715957045366,-0.7556403,0.5891795,0.88361657,285.9838,-3.6374755,-20.797314,CSI
3144138838000,3.529987,-7.75976139958936,4.31518098983183,7.29866353307587,-0.7318166,0.61819565,0.8762862,285.74612,-3.8426697,-21.14073,CSI
3144143825000,3.534974,-7.83236155270079,4.10556912421606,7.46174682848473,-0.6979135,0.6133087,0.8671232,285.50616,-4.0395646,-21.539005,CSI
3144148852000,3.540001,-7.80801268885292,3.86695005510823,7.67601703374469,-0.6750061,0.58032197,0.82253003,285.2769,-4.2358193,-21.930782,CSI
3144153835000,3.544984,-7.69323934410339,3.70036440516963,7.9091465726979,-0.63591075,0.48930305,0.7703011,285.05188,-4.412135,-22.32236,CSI
3144158883000,3.550032,-7.47846488529887,3.60762106494346,8.16785147576737,-0.5757405,0.36651915,0.70646566,284.84427,-4.594081,-22.68899,CSI
3144163852000,3.555001,-7.28981962319801,3.58698100618614,8.33567485059376,-0.5036584,0.22174409,0.6261369,284.6634,-4.7427783,-23.011484,CSI
3144168853000,3.560002,-7.1222823942005,3.63547859845347,8.41944378735156,-0.43401974,0.10934488,0.54519725,284.50476,-4.899146,-23.303528,CSI
3144173825000,3.564974,-6.95433956669831,3.63340108744726,8.48040494272152,-0.3811799,0.02321288,0.47128254,284.37592,-5.0458593,-23.513569,CSI
3144178898000,3.570047,-6.78009641160338,3.52578017510549,8.49577966455696,-0.34116822,-0.024740042,0.40683624,284.27264,-5.198284,-23.700304,CSI
3144183867000,3.575016,-6.62722908168796,3.37116700942518,8.53480875789234,-0.32986724,-0.010079277,0.34788775,284.1941,-5.3568354,-23.843105,CSI
3144188836000,3.579985,-6.4969722325365,3.1540723515146,8.60427886888686,-0.31887165,0.043982297,0.30390546,284.13303,-5.5185213,-23.982239,CSI
3144194361000,3.58551,-6.38780659227669,2.91196049490048,8.72122184253167,-0.32070425,0.079107046,0.26511553,284.09296,-5.6564507,-24.100733,CSI
3144198864000,3.590013,-6.3629776102813,2.71332878708669,8.88793043592696,-0.34208453,0.10781772,0.23090707,284.0652,-5.7863464,-24.231615,CSI
3144203802000,3.594951,-6.33575009238362,2.49550880636618,9.07074345706531,-0.35124752,0.13347405,0.2003638,284.05713,-5.875015,-24.350632,CSI
3144208906000,3.600055,-6.23308239303704,2.30005099333333,9.3019169762963,-0.37232238,0.14049901,0.17898351,284.0578,-5.951556,-24.471169,CSI
3144213794000,3.604943,-6.11749854845432,2.11974027688889,9.5330848585679,-0.39492437,0.14446963,0.16768251,284.06525,-6.022485,-24.596516,CSI
3144218887000,3.610036,-5.84289578756007,1.90942105376734,9.63459702475292,-0.419359,0.15882497,0.17623462,284.0817,-6.040402,-24.71224,CSI
3144223818000,3.614967,-5.53461104460967,1.69961614684015,9.69454115613383,-0.42485678,0.19303341,0.17928895,284.1035,-6.0556874,-24.833174,CSI
3144228984000,3.620133,-5.25685147899316,1.56074765966439,9.7475465796561,-0.42210788,0.21197024,0.1881465,284.13107,-6.0358577,-24.920918,CSI
3144233850000,3.624999,-5.02515109757613,1.48351419919204,9.7909902720116,-0.4175264,0.21319197,0.20677789,284.1549,-6.017397,-25.0111,CSI
3144238830000,3.629979,-4.79127117682031,1.36722694024239,9.75063322988835,-0.39675698,0.19181168,0.21288654,284.19714,-5.9672275,-25.04471,CSI
3144243844000,3.634993,-4.55757289051436,1.22975745294398,9.66356934726596,-0.3894266,0.16249016,0.22235495,284.23346,-5.9184403,-25.074846,CSI
3144248869000,3.640018,-4.27893978141593,1.08966551864307,9.53193146460177,-0.38331795,0.13255776,0.21777347,284.2846,-5.86258,-25.05989,CSI
3144253834000,3.644983,-3.96835957313527,0.949403410804888,9.36662238590392,-0.38026363,0.12156218,0.20280726,284.33698,-5.80854,-25.04214,CSI
3144258919000,3.650068,-3.70020486949776,0.798300919166584,9.22266182237693,-0.36713,0.121256754,0.20341812,284.397,-5.739758,-24.990332,CSI
3144263799000,3.654948,-3.46780898048732,0.649567536610641,9.09716792680259,-0.37140608,0.100792766,0.18967366,284.4676,-5.6646495,-24.931286,CSI
3144268880000,3.660029,-3.22266442711211,0.535262601977258,8.97110800789399,-0.37843102,0.077579886,0.16829337,284.5491,-5.574697,-24.838459,CSI
3144273906000,3.665055,-2.97840318873226,0.444795471053472,8.84897776656329,-0.4007276,0.08093964,0.15515977,284.63208,-5.479987,-24.748583,CSI
3144278889000,3.670038,-2.72199276551724,0.313150570358621,8.84128628965517,-0.39950588,0.086437434,0.12980886,284.73572,-5.3639746,-24.628662,CSI
3144283882000,3.675031,-2.45217902805643,0.143267827410031,8.93622059341693,-0.39736784,0.11301007,0.105374254,284.84192,-5.2422357,-24.517237,CSI
3144288829000,3.679978,-2.23222524359218,0.052166050554775,8.9028392705525,-0.40103304,0.102319926,0.070554934,284.96722,-5.1039658,-24.366209,CSI
3144293864000,3.685013,-2.03997088565597,0.0109686906663186,8.78382466119233,-0.3903429,0.06047566,0.024129177,285.10303,-4.9671044,-24.215954,CSI
3144298778000,3.689927,-1.85233674168407,-0.0292386234333586,8.66767018445035,-0.41508293,0.06841691,0.0036651916,285.25357,-4.792733,-24.029718,CSI
3144303838000,3.694987,-1.65912779408582,-0.0706405382368521,8.54806463859882,-0.34391713,0.113926366,-0.029932396,285.42123,-4.6410213,-23.845663,CSI
3144308845000,3.699994,-1.54816163909774,-0.0894724113788989,8.48356848032986,-0.31031954,0.09132435,-0.070249505,285.59906,-4.471377,-23.64681,CSI
3144313866000,3.705015,-1.56448932706767,-0.07314468833626,8.50456144816881,-0.3036,-0.0033597588,-0.12461651,285.79065,-4.309733,-23.443111,CSI
3144318775000,3.709924,-1.58045280451128,-0.0571811766022799,8.5250861402862,-0.31856623,-0.03604105,-0.13591751,285.9931,-4.142729,-23.198513,CSI
3144323897000,3.715046,-1.59710893233083,-0.0405250130045113,8.5465013924812,-0.30543262,-0.03726278,-0.15271631,286.21323,-3.9798737,-22.939342,CSI
3144328807000,3.719956,-1.64622178831625,-0.032229008540243,8.59898417872058,-0.27916542,-0.02443461,-0.17165314,286.43637,-3.817116,-22.676054,CSI
3144334076000,3.725225,-1.79947982505695,-0.0465969454214123,8.75224176537585,-0.27885997,-0.026572637,-0.204029,286.66653,-3.6496706,-22.411104,CSI
3144338872000,3.730021,-1.94560755374489,-0.0504809553764835,8.86114313643163,-0.2773328,-0.04337143,-0.23151793,286.89532,-3.4962015,-22.150202,CSI
3144343896000,3.735045,-2.13274631780194,-0.00729506824773112,8.81795737957515,-0.27977628,-0.049480084,-0.25473082,287.12997,-3.3408709,-21.894798,CSI
3144348854000,3.740003,-2.31361816115407,0.0352849209339679,8.76518165080309,-0.26908615,-0.021685716,-0.27550024,287.36713,-3.1843662,-21.665258,CSI
3144353823000,3.744972,-2.47403498054729,0.07774817405116,8.65666472099941,-0.2669481,-0.00061086525,-0.30665436,287.6123,-3.023988,-21.435417,CSI
3144358854000,3.750003,-2.63090239158752,0.121242483999806,8.55281682806746,-0.23548855,0.014660766,-0.33505958,287.8515,-2.8833187,-21.25281,CSI
3144363822000,3.754971,-2.75079162360923,0.167353723751696,8.48826075440977,-0.20616703,-0.005497787,-0.3631594,288.0983,-2.7420921,-21.068626,CSI
3144368862000,3.760011,-2.86594248991036,0.213874706291833,8.42723614581673,-0.17745635,-0.03573562,-0.3894266,288.34406,-2.6174653,-20.926962,CSI
3144373871000,3.76502,-2.89938789223108,0.256875908625498,8.4224586374502,-0.1414153,-0.064446285,-0.43066,288.60162,-2.5006387,-20.782095,CSI
3144378900000,3.770049,-2.92872133784032,0.295909205445045,8.40959158937574,-0.116675265,-0.113926366,-0.48472157,288.86505,-2.3961225,-20.65287,CSI
3144383866000,3.775015,-2.90474373815198,0.282830530431754,8.29624283284444,-0.102319926,-0.16584991,-0.5332854,289.13828,-2.297082,-20.51667,CSI
3144388825000,3.779974,-2.88079993693281,0.269770290924924,8.18305385104042,-0.10567969,-0.19303341,-0.5699373,289.42395,-2.205356,-20.381546,CSI
3144398865000,3.790014,-2.83232327546063,0.243328507370061,7.95389124218535,-0.08582657,-0.22082779,-0.68019843,290.0436,-2.0258367,-20.089394,CSI
3144403783000,3.794932,-2.76221368286491,0.209604443001914,7.96308617527954,-0.06994407,-0.21410827,-0.73761976,290.37418,-1.936507,-19.94652,CSI
3144408814000,3.799963,-2.66999677561197,0.165922738622948,8.02618196993049,-0.03145956,-0.2565634,-0.81153446,290.7255,-1.8527805,-19.792376,CSI
3144413782000,3.804931,-2.63989300833908,0.206120566833711,7.95526292768534,-0.0061086523,-0.27885997,-0.86101454,291.08752,-1.7626059,-19.650047,CSI
3144418774000,3.809923,-2.63518621633356,0.281430079359063,7.82817826567884,0.0070249503,-0.21899518,-0.8772025,291.4594,-1.6782337,-19.521444,CSI
3144423770000,3.814919,-2.63699410593015,0.367156406325841,7.85675892876438,-0.030543262,0.03023783,-0.91874135,291.854,-1.5738062,-19.4215,CSI
3144428789000,3.819938,-2.64206590684816,0.458449844974148,7.96326780723858,-0.129198,0.13591751,-0.9807441,292.25824,-1.4557679,-19.29992,CSI
3144433764000,3.824913,-2.65759522210629,0.35647014134471,8.32897332020478,-0.1572978,0.13439035,-1.0369438,292.6679,-1.3618689,-19.226643,CSI
3144438760000,3.829909,-2.6762576570941,0.19783974112628,8.77220514027304,-0.18936823,0.049785517,-1.0937542,293.09448,-1.2371458,-19.160076,CSI
3144443768000,3.834917,-2.76036333301868,-0.0936288986575914,8.94485338036566,-0.17562376,0.035430185,-1.1462886,293.53656,-1.1314064,-19.105944,CSI
3144448766000,3.839915,-2.8697524394376,-0.436064460042727,9.0114384209062,-0.15607607,0.12980886,-1.1759156,293.9866,-1.0186979,-19.059372,CSI
3144453769000,3.844918,-3.03022713057134,-0.681657803948549,9.12557961322166,-0.10262536,0.2574797,-1.1954633,294.45605,-0.8825927,-18.994198,CSI
3144458819000,3.849968,-3.21347455553894,-0.88901680110679,9.26060379310001,-0.047036625,0.3622431,-1.2131784,294.9311,-0.7536588,-18.950262,CSI
3144463782000,3.854931,-3.43545936552771,-0.964119737642369,9.45603480258163,0.016493361,0.38331795,-1.1927143,295.40344,-0.5754975,-18.941837,CSI
3144468777000,3.859926,-3.67609301643888,-0.986821031278474,9.67850762718299,0.07819075,0.3408628,-1.1462886,295.8709,-0.41679806,-18.943918,CSI
3144473833000,3.864982,-3.84913688140981,-1.09083169843578,9.73624198175073,0.13836098,0.27183503,-1.0861185,296.3347,-0.23850232,-18.97061,CSI
3144478783000,3.869932,-3.97272413148501,-1.24531567417026,9.68395503198636,0.18570304,0.2519819,-0.9999864,296.77454,-0.08437165,-18.997677,CSI
3144483793000,3.874942,-4.09780940883385,-1.40167218294395,9.63103430101273,0.23732115,0.3023783,-0.9251554,297.19598,0.049051,-19.058811,CSI
3144488778000,3.879927,-4.22227050815201,-1.55724846961797,9.57837764554297,0.25778514,0.398895,-0.8552113,297.59125,0.16695224,-19.126263,CSI
3144493784000,3.884933,-4.26544655815066,-1.7637164978876,9.57798616779593,0.27458394,0.4877759,-0.79901177,297.97562,0.26586524,-19.204426,CSI
3144498784000,3.889933,-4.25590411096054,-2.00227792674372,9.61138493224392,0.3191771,0.5653558,-0.6945538,298.3232,0.33806556,-19.305473,CSI
3144503824000,3.894973,-4.19224094757726,-1.99569554051889,9.62747530904235,0.42332962,0.655153,-0.6575964,298.68088,0.45149976,-19.491604,CSI
3144508934000,3.900083,-4.09188267268218,-1.82531985943342,9.63214322872949,0.47494772,0.73364913,-0.65179324,299.01678,0.55735815,-19.692667,CSI
3144513937000,3.905086,-3.99362583328882,-1.65851173174838,9.63671340528424,0.5345071,0.74067414,-0.63438356,299.3478,0.6739076,-19.891676,CSI
3144519341000,3.91049,-3.88749352066005,-1.4783336142169,9.64164989021366,0.58368176,0.72784597,-0.61727935,299.67828,0.77601945,-20.102648,CSI
3144523844000,3.914993,-3.89626210025765,-1.25312553757601,9.52777427960425,0.60231316,0.67011917,-0.5714644,300.00577,0.8659482,-20.297256,CSI
3144528858000,3.920007,-4.02987923182521,-0.906710277388437,9.25064161671648,0.6230826,0.6035349,-0.5030475,300.32172,0.93598485,-20.481596,CSI
3144533847000,3.924996,-4.14447695238095,-0.600146545238095,8.97301180952381,0.62125,0.571159,-0.48075095,300.6243,0.9366084,-20.613678,CSI
3144538840000,3.929989,-4.23935217498016,-0.334496570852183,8.69313087867063,0.5748242,0.56046885,-0.4810564,300.9127,0.93891287,-20.731224,CSI
3144543790000,3.934939,-4.2738847391727,-0.104780776736561,8.44955968480747,0.5299256,0.57940567,-0.4978552,301.1913,0.87783414,-20.889118,CSI
3144548851000,3.94,-4.23692834471979,0.0892399227182615,8.24168002630576,0.46181414,0.6114761,-0.5152648,301.47073,0.836651,-21.045435,CSI
3144553864000,3.945013,-4.18054238665526,0.263591573887938,8.08888280667237,0.39370266,0.6215554,-0.552833,301.7524,0.76030684,-21.234901,CSI
3144558916000,3.950065,-4.08948970230967,0.408447950192472,8.02680154884517,0.33169982,0.61086524,-0.5555819,302.0294,0.70025605,-21.424688,CSI
3144564079000,3.955228,-3.9975515206632,0.55260064332261,7.96731842563722,0.27488935,0.5723807,-0.5412266,302.31308,0.62314314,-21.612835,CSI
3144568852000,3.960001,-3.92591163721851,0.639322742184278,7.95977741635734,0.21991149,0.5491679,-0.52778757,302.59814,0.56369436,-21.799358,CSI
3144573830000,3.964979,-3.85119482603316,0.729769548832797,7.95191252128186,0.16065755,0.5204572,-0.49296826,302.86713,0.48459148,-21.953121,CSI
3144578856000,3.970005,-3.85409280682594,0.736192857430965,8.02063353599131,0.13469578,0.54305923,-0.48197266,303.13937,0.41340762,-22.112679,CSI
3144583863000,3.975012,-3.90864461296928,0.686600306391561,8.13965581383804,0.10445796,0.50671273,-0.44135013,303.3914,0.35292578,-22.245121,CSI
3144589497000,3.980646,-4.02791347835305,0.731954500681495,8.25828227969711,0.09621128,0.4700608,-0.38912117,303.64038,0.27125514,-22.361738,CSI
3144593852000,3.985001,-4.13844795388547,0.799064659081874,8.34513083151917,0.10720685,0.44684792,-0.3313944,303.87488,0.18827532,-22.47016,CSI
3144598849000,3.989998,-4.29228867511704,0.773508921971301,8.4353942454712,0.1282817,0.44257188,-0.26633725,304.0918,0.10872216,-22.574259,CSI
3144603831000,3.99498,-4.46709202697944,0.666684534210258,8.51794049949115,0.17134771,0.44043383,-0.23915374,304.30267,0.019202223,-22.670912,CSI
3144608931000,4.00008,-4.70058072932007,0.547874657809455,8.63864549194954,0.2049453,0.4364632,-0.21624629,304.49936,-0.09332518,-22.78024,CSI
3144613878000,4.005027,-4.96294660686084,0.426409004954364,8.77954544774895,0.22418754,0.43004912,-0.22174409,304.697,-0.21147852,-22.886694,CSI
3144618849000,4.009998,-5.19746047751241,0.365818406958884,8.84994530804533,0.24281894,0.41783184,-0.22418754,304.8895,-0.31785047,-23.01844,CSI
3144623835000,4.014984,-5.41659949712466,0.338985059715276,8.88125058874216,0.25228736,0.42149702,-0.23457226,305.0868,-0.42359677,-23.15084,CSI
3144628838000,4.019987,-5.57982507789881,0.340340783862364,8.87966892527741,0.25595254,0.43127087,-0.25411993,305.29315,-0.5053526,-23.320044,CSI
3144633850000,4.024999,-5.68732566631375,0.369659080700397,8.84546456367708,0.25717425,0.45173484,-0.26633725,305.5011,-0.5871188,-23.490396,CSI
3144638833000,4.029982,-5.74177185121079,0.409394540790845,8.7666426404414,0.267559,0.4718934,-0.2773328,305.71793,-0.6628932,-23.702734,CSI
3144643829000,4.034978,-5.75154924832942,0.458281572326556,8.6493139771125,0.2565634,0.5045747,-0.28863382,305.93918,-0.7305734,-23.92045,CSI
3144648847000,4.039996,-5.66962862596861,0.503817488510829,8.53891769203259,0.25870144,0.52320606,-0.30726522,306.1679,-0.80407953,-24.161545,CSI
3144653830000,4.044979,-5.52266279813233,0.54648498292271,8.43461923484999,0.25381452,0.5439755,-0.30573806,306.39423,-0.8725015,-24.407743,CSI
3144659198000,4.050347,-5.3798639954469,0.580207755209344,8.32857811293675,0.24281894,0.5561928,-0.301462,306.62433,-0.9464842,-24.662857,CSI
3144663881000,4.05503,-5.2644474903494,0.602403237671979,8.23979579372464,0.23426682,0.56138515,-0.3109304,306.85873,-1.016873,-24.917088,CSI
3144668847000,4.059996,-5.15549299329551,0.617439798958226,8.15024237699845,0.22968534,0.5656612,-0.31612277,307.08652,-1.0918854,-25.15456,CSI
3144673869000,4.065018,-5.0562774133574,0.625707748844765,8.06342898736462,0.22021692,0.573297,-0.31948254,307.31693,-1.1610801,-25.390299,CSI
3144678791000,4.06994,-4.96133922622222,0.613468946,7.97803323644444,0.20525073,0.55833083,-0.33108896,307.55035,-1.2299025,-25.6017,CSI
3144683852000,4.075001,-4.87236381451208,0.524493485391304,7.88905787363285,0.20189096,0.54733527,-0.35246924,307.7881,-1.2963531,-25.81285,CSI
3144688815000,4.079964,-4.78594314575526,0.442321187158729,7.81786070162113,0.20861048,0.52534413,-0.37110063,308.02762,-1.3597264,-26.003954,CSI
3144693843000,4.084992,-4.70326170922176,0.388821461740821,7.8397469373466,0.21685717,0.4972443,-0.39920044,308.27698,-1.4177758,-26.18727,CSI
3144698820000,4.089969,-4.62141892687743,0.335864394635624,7.86141117664764,0.23426682,0.45937067,-0.42730024,308.53644,-1.4579427,-26.353611,CSI
3144703828000,4.094977,-4.53906637433968,0.282577476399172,7.88321035495177,0.24465153,0.4166101,-0.44348818,308.801,-1.4958668,-26.508018,CSI
3144708954000,4.100103,-4.46087223225505,0.234629984272625,7.90948793330217,0.24648413,0.3735441,-0.46853364,309.07803,-1.5297726,-26.650774,CSI
3144713855000,4.105004,-4.40821411223822,0.212689097113874,7.94898144312827,0.24984388,0.3622431,-0.48197266,309.35608,-1.5657133,-26.788328,CSI
3144718964000,4.110113,-4.35883016908322,0.186349255939633,7.99431831873061,0.25442538,0.3200934,-0.47555858,309.63995,-1.5807334,-26.870426,CSI
3144723827000,4.114976,-4.37634670880113,0.12066235865952,8.08627991218618,0.23243423,0.2932153,-0.47433686,309.92877,-1.587532,-26.952545,CSI
3144728823000,4.119972,-4.39434231489422,0.0531789659366243,8.18075659754584,0.22999077,0.28069258,-0.4896085,310.2207,-1.5939081,-27.01226,CSI
3144733851000,4.125,-4.42913942627127,-0.0314057004139487,8.23824714583138,0.22571471,0.2593123,-0.5149594,310.51447,-1.5934193,-27.061148,CSI
3144738842000,4.129991,-4.46508100634458,-0.116767015012313,8.29215946902904,0.22785273,0.23518312,-0.5222898,310.8061,-1.5947281,-27.105055,CSI
3144743863000,4.135012,-4.44963057480999,-0.183341351350311,8.32582963962097,0.22449298,0.23182335,-0.52503866,311.11102,-1.5752374,-27.143618,CSI
3144748783000,4.139932,-4.42172546731813,-0.243802556798934,8.3537353784424,0.22021692,0.24251351,-0.5122105,311.41153,-1.5579959,-27.178911,CSI
3144753832000,4.144981,-4.42473685407737,-0.307718249072477,8.38021084499778,0.2171626,0.27855456,-0.4841107,311.71115,-1.5241427,-27.223108,CSI
3144758997000,4.150146,-4.43793311903957,-0.373699854065807,8.40660355864829,0.20555615,0.2883284,-0.47769663,312.01184,-1.487022,-27.262436,CSI
3144763870000,4.155019,-4.45265452741862,-0.390633596827143,8.41672594253401,0.20311269,0.2968805,-0.49632803,312.3099,-1.439221,-27.306236,CSI
3144768851000,4.16,-4.46966582619593,-0.368761944371084,8.41429570986805,0.19486602,0.27397305,-0.5045747,312.60092,-1.3904699,-27.342978,CSI
3144773851000,4.165,-4.48674201448877,-0.34680686260431,8.41185620709155,0.1872302,0.29443705,-0.4813618,312.8899,-1.3296881,-27.394531,CSI
3144778890000,4.170039,-4.50395139705028,-0.324680531199755,8.40939767619339,0.16401732,0.3182608,-0.4700608,313.18344,-1.2618606,-27.439943,CSI
3144783879000,4.175028,-4.61004467242564,-0.372816703282615,8.32042447030529,0.16157386,0.34269542,-0.47250426,313.4747,-1.1992117,-27.49073,CSI
3144788834000,4.179983,-4.77308168297831,-0.465980684297634,8.17601980651811,0.15760323,0.3390302,-0.4978552,313.7678,-1.1303543,-27.539423,CSI
3144793846000,4.184995,-4.83521387402443,-0.459643920419025,8.0556404651971,0.18234327,0.3313944,-0.5662721,314.0712,-1.0723356,-27.599426,CSI
3144798908000,4.190057,-4.81595942535002,-0.372999077305134,7.95455497406414,0.21777347,0.35827246,-0.5766568,314.3619,-1.0218085,-27.666967,CSI
3144803827000,4.194976,-4.78218985309354,-0.37831241887792,7.90536897061871,0.23976462,0.3827071,-0.55863625,314.67426,-0.95031226,-27.778214,CSI
