timestamp,rel_time,acc_x,acc_y,acc_z,gyro_x,gyro_y,gyro_z,azimuth,pitch,roll,label
2250570637000,0,1.1724552501364,9.82044862713926,0.459910352184286,0.0106901415,0.01038471,-0.0143553335,153.0063,-77.797104,11.935479,STD
2250575535000,0.004898,1.17269004776776,9.81903984870631,0.465428100198822,0.01160644,0.023823744,-0.018020526,153.01271,-77.88902,11.851839,STD
2250580564000,0.009927,1.1729311252051,9.81759339163417,0.471093423752334,-0.00061086525,0.036651913,-0.022907447,153.01884,-77.9804,11.768116,STD
2250585567000,0.01493,1.17317095626874,9.81615441276523,0.476729457504217,0.0067195175,0.043066,-0.021380283,153.02203,-78.07023,11.686789,STD
2250590536000,0.019899,1.17340915745907,9.81472521308509,0.482327189207817,0.0061086523,0.03726278,-0.013744468,153.02425,-78.156624,11.607495,STD
2250595574000,0.024937,1.17365066633346,9.81327616740416,0.488002651538816,0.015577064,0.039095376,-0.016187929,153.02177,-78.24454,11.527217,STD
2250600607000,0.02997,1.17389193552061,9.81182855983922,0.493672481215655,0.016798794,0.029932396,-0.013133603,153.02336,-78.32648,11.45244,STD
2250605574000,0.034937,1.17413004083603,9.81039993540548,0.499267959857591,0.01038471,0.035430185,-0.0076358155,153.01945,-78.40677,11.378991,STD
2250610554000,0.039917,1.17436876933831,9.80896757187014,0.504878083400341,0.01282817,0.03634648,-0.008246681,153.01888,-78.48674,11.306295,STD
2250615611000,0.044974,1.17461118902426,9.80751306134841,0.510574949817146,0.0070249503,0.03268129,-0.0106901415,153.01738,-78.563255,11.236043,STD
2250620573000,0.049936,1.17484905465244,9.80608587503066,0.516164795804922,0.01282817,0.037873644,-0.0061086523,153.01234,-78.63712,11.168891,STD
2250625534000,0.054897,1.17508687234316,9.80465897633611,0.521753515261867,0.002443461,0.041233405,-0.011911872,153.00847,-78.71187,11.099502,STD
2250630580000,0.059943,1.17532876471716,9.80320762966958,0.527437989839521,-0.0070249503,0.033292156,-0.018020526,153.0058,-78.78427,11.032693,STD
2250635566000,0.064929,1.17556778084414,9.80177354039504,0.533054872567263,0.0015271631,0.024129177,-0.01282817,153.00194,-78.85403,10.968751,STD
2250640551000,0.069914,1.17580674903367,9.8003397387437,0.538670628764172,-0.008552114,0.01985312,-0.016798794,152.99861,-78.92516,10.901814,STD
2250645574000,0.074937,1.17604753884631,9.79889500741076,0.544329193132693,-0.011911872,0.015271631,-0.019242255,152.9974,-78.99374,10.838179,STD
2250650599000,0.079962,1.17628842453386,9.79744970083143,0.549990010562878,-0.0009162979,0.034208454,-0.012217305,152.98999,-79.05952,10.777232,STD
2250656300000,0.085663,1.17656171593777,9.79580996096898,0.556412362835412,-0.021685716,0.023823744,-0.010079277,152.99196,-79.12422,10.715805,STD
2250660546000,0.089909,1.17676525835156,9.79458871286234,0.561195612747564,-0.024740042,0.027183503,-0.010995574,152.98395,-79.1879,10.656386,STD
2250665627000,0.09499,1.17700882853632,9.79312729938381,0.566919515904333,-0.015271631,0.016798794,-0.008552114,152.98247,-79.24834,10.599946,STD
2250670547000,0.09991,1.17724468079158,9.79171219324046,0.572462047597171,-0.0033597588,0.018936822,-0.007941248,152.976,-79.30826,10.5437355,STD
2250675558000,0.104921,1.17748489535482,9.79027091338592,0.578107093595709,0.002443461,0.021991149,-0.007941248,152.97182,-79.36659,10.489253,STD
2250680570000,0.109933,1.17772515785551,9.78882934590819,0.58375326612508,-0.0030543262,0.017715093,0.00030543262,152.96864,-79.42126,10.43842,STD
2250685572000,0.114935,1.17796494098169,9.78739065466245,0.589388173346131,-0.009773844,0.01863139,0.0030543262,152.9627,-79.476524,10.386972,STD
2250690534000,0.119897,1.17820280660987,9.7859634683447,0.594978019333907,-0.004276057,0.023823744,0.0067195175,152.95628,-79.5284,10.339119,STD
2250695567000,0.12493,1.17844407579701,9.78451586077977,0.600647849010747,-0.013744468,0.010995574,0.009468411,152.95448,-79.57773,10.29287,STD
2250700602000,0.129965,1.17868544085906,9.78306767796844,0.60631993174925,-0.013439035,0.009773844,0.013133603,152.94775,-79.62927,10.24348,STD
2250705571000,0.134934,1.17892364204938,9.78163847828829,0.61191766345285,-0.015577064,0.014049901,0.018325957,152.94278,-79.677986,10.196415,STD
2250710525000,0.139888,1.17916112417796,9.78021359295615,0.617498497193971,-0.023823744,0.01863139,0.020158553,152.93773,-79.725334,10.150437,STD
2250715598000,0.144961,1.17940431086311,9.77875448046322,0.623213388104086,-0.015271631,0.013133603,0.018020526,152.9341,-79.77202,10.105786,STD
2250720538000,0.149901,1.17964112186738,9.77733362185587,0.628778450413561,-0.00580322,0.005497787,0.020463986,152.92947,-79.815636,10.063854,STD
2250726273000,0.155636,1.17991604314461,9.77568410280463,0.635239104734379,-0.015577064,0.0030543262,0.023823744,152.9247,-79.85821,10.022466,STD
2250730583000,0.159946,1.18012265355521,9.7744444468132,0.640094452619771,-0.01160644,-0.009468411,0.017104227,152.92484,-79.90306,9.979874,STD
2250735583000,0.164946,1.1803623408065,9.77300633081386,0.645727106779159,-0.0076358155,-0.002443461,0.016798794,152.91963,-79.943855,9.940773,STD
2250740518000,0.169881,1.18059891212352,9.77158691032251,0.651286536434474,0.002443461,-0.0036651916,0.016493361,152.92015,-79.98608,9.9007635,STD
2250745563000,0.174926,1.18084075656006,9.77013585127918,0.656969884481297,0.0021380284,-0.018325957,0.01160644,152.92224,-80.028534,9.8602295,STD
2250750595000,0.179958,1.18108197780976,9.76868853133744,0.662638587627304,0.00030543262,-0.018936822,0.01282817,152.92024,-80.06885,9.822054,STD
2250755555000,0.184918,1.18131974756303,9.7672619202661,0.668226180553417,-0.00030543262,-0.014660766,0.010995574,152.92072,-80.11056,9.782505,STD
2250760519000,0.189882,1.18155770906611,9.76583415870195,0.673818279602857,0.01038471,-0.024129177,0.010995574,152.92494,-80.150925,9.74474,STD
2250765617000,0.19498,1.18180209418752,9.76436785562903,0.679561333783769,-0.0009162979,-0.020158553,0.005497787,152.9237,-80.19158,9.705541,STD
2250770586000,0.199949,1.18204029537785,9.76293865594888,0.685159065487368,-0.00061086525,-0.017715093,0.008246681,152.92517,-80.22997,9.669552,STD
2250775539000,0.204902,1.18227772956897,9.76151405823994,0.690738772697658,-0.0018325958,-0.014049901,-0.0012217305,152.9249,-80.27201,9.629256,STD
2250780561000,0.209924,1.18251847144416,9.7600696145302,0.696396210535347,-0.0033597588,-0.0061086523,0.01038471,152.92215,-80.30647,9.596495,STD
2250785580000,0.214943,1.182759069507,9.75862603369007,0.70205026878054,-0.008857546,0.006414085,0.004886922,152.91685,-80.34742,9.556868,STD
2250790536000,0.219899,1.18299664751047,9.75720057311152,0.707633355583325,-0.003970624,0.013439035,0.004581489,152.91052,-80.383224,9.522734,STD
2250795610000,0.224973,1.18323988213308,9.75574117299539,0.713349373024272,-0.011301007,0.017104227,0.009468411,152.90137,-80.41767,9.489161,STD
2250800603000,0.229966,1.18347923382221,9.75430507035845,0.718974141467837,-0.010995574,0.0070249503,0.004581489,152.89415,-80.45477,9.453422,STD
2250805554000,0.234917,1.18371657213843,9.7528810478959,0.724551595616462,-0.004581489,0.011911872,0.0009162979,152.88142,-80.48944,9.419944,STD
2250810512000,0.239875,1.18395424601681,9.75145501207096,0.730136935480911,-0.005497787,0.008246681,0.013744468,152.87392,-80.519844,9.390582,STD
2250815595000,0.244958,1.18419791207647,9.74999302334603,0.735863091699345,-0.0015271631,0.0021380284,0.01740966,152.86568,-80.55365,9.35819,STD
2250820548000,0.249911,1.18443534626759,9.74856842563709,0.741442798909634,-0.0015271631,0.007941248,0.01740966,152.85492,-80.58407,9.328932,STD
2250825542000,0.254905,1.18467474589417,9.74713203537694,0.747068693884031,-0.004886922,0.010995574,0.016798794,152.8466,-80.613075,9.30114,STD
2250830543000,0.259906,1.18491448108291,9.74569363175441,0.75270247457425,-0.0012217305,0.011911872,0.016798794,152.83714,-80.64164,9.274008,STD
2250835608000,0.264971,1.18515728426846,9.74423682024707,0.75840835323771,-0.004581489,-0.0009162979,0.0061086523,152.83083,-80.67247,9.244215,STD
2250840534000,0.269897,1.18539342414843,9.74281998836453,0.763957644115539,-0.0076358155,-0.0018325958,0.018325957,152.8206,-80.69644,9.221389,STD
2250845631000,0.274994,1.18563776133239,9.7413539729148,0.769699571765619,-0.0027488936,0.009162978,0.018020526,152.81067,-80.72658,9.192489,STD
2250850587000,0.27995,1.18587533933586,9.73992851233625,0.775282658568404,-0.005192355,0.014966198,0.018936822,152.80232,-80.75199,9.167958,STD
2250855544000,0.284907,1.18611296527678,9.73850276413451,0.780866871902021,-0.0036651916,0.028710667,0.01740966,152.78848,-80.778046,9.142978,STD
2250860528000,0.289891,1.18635188552886,9.73706925010637,0.786481501568098,-0.00030543262,0.029932396,0.020463986,152.77657,-80.80206,9.120044,STD
2250865894000,0.295257,1.18660911788694,9.73552586401588,0.792526466011953,-0.004886922,0.015577064,0.013133603,152.76538,-80.8288,9.094116,STD
2250870555000,0.299918,1.18683255434259,9.73418525228129,0.797777226219335,0.015577064,0.012217305,0.0106901415,152.7507,-80.85391,9.0707655,STD
2250875570000,0.304933,1.18707296065563,9.73274282193396,0.8034267783412,0.025350908,0.019547688,0.01160644,152.73715,-80.879135,9.046746,STD
2250880568000,0.309931,1.18731255203202,9.73130528118102,0.809057179438924,0.024740042,0.015882496,0.0076358155,152.72775,-80.90633,9.021136,STD
2250885572000,0.314935,1.18755234211251,9.72851092356516,0.812051610767642,0.03726278,0.014049901,0.0021380284,152.71571,-80.93407,8.995689,STD
2250890531000,0.319894,1.18778931780785,9.71571421622107,0.795463300711356,0.0421497,0.018325957,0.009773844,152.7029,-80.95843,8.973261,STD
2250895586000,0.324949,1.18803088105446,9.70266978072513,0.778553861845753,0.04550946,0.035430185,0.014049901,152.68742,-80.97381,8.955555,STD
2250900636000,0.329999,1.18827220536611,9.68963824773709,0.761661148438969,0.058948494,0.03176499,0.007330383,152.67697,-80.99037,8.93731,STD
2250905557000,0.33492,1.18850736515573,9.67693959945311,0.745199951869705,0.0571159,0.03359759,0.008246681,152.66019,-81.00287,8.922627,STD
2250910556000,0.339919,1.18874625233077,9.66403967204575,0.72847783814287,0.050701816,0.025045475,0.01282817,152.64777,-81.01627,8.907454,STD
2250915614000,0.344977,1.18898795893836,9.65098749504506,0.711558364001976,0.054367006,-0.0061086523,0.00580322,152.6417,-81.032745,8.889637,STD
2250920546000,0.349909,1.1892236443849,9.63826046124368,0.695060371423311,0.0729984,-0.044898596,0.015271631,152.6404,-81.043335,8.878202,STD
2250925553000,0.354916,1.18946291385587,9.62533988982366,0.678311496962366,0.087964594,-0.04734206,0.019547688,152.6377,-81.05709,8.863562,STD
2250930567000,0.35993,1.18970251783579,9.61240125489257,0.661539206859076,0.103847094,-0.035430185,0.02443461,152.64183,-81.06845,8.852234,STD
2250935684000,0.365047,1.18994704387593,9.59919682829855,0.644422372304123,0.113926366,-0.015882496,0.026572637,152.6442,-81.07946,8.841546,STD
2250940535000,0.369898,1.19017885857609,9.5866788151253,0.628195332158319,0.09407325,0.0061086523,0.033292156,152.6422,-81.08707,8.833646,STD
2250945566000,0.374929,1.19041927493488,9.57369631166732,0.611366175495045,0.07544186,-0.009468411,0.043982297,152.64531,-81.093216,8.827718,STD
2250950646000,0.380009,1.1906620328563,9.56058736363183,0.594373109335349,0.08032878,-0.023518313,0.0421497,152.64175,-81.101074,8.820049,STD
2250955658000,0.385021,1.19090154126224,9.5476538897039,0.577607509415586,0.07788532,-0.046120327,0.04734206,152.64513,-81.10288,8.817641,STD
2250960555000,0.389918,1.19113555416405,9.53501717345788,0.561226595048651,0.09407325,-0.05681047,0.046120327,152.64911,-81.10786,8.8129425,STD
2250965600000,0.394963,1.19137663954073,9.52199854297776,0.544350607100686,0.10354166,-0.044898596,0.057726767,152.65285,-81.10731,8.813462,STD
2250970559000,0.399922,1.19161361523607,9.50920183563366,0.5277622970444,0.09621128,-0.03481932,0.06963864,152.65997,-81.1069,8.813856,STD
2250975548000,0.404911,1.19185202454118,9.49632771324212,0.511073634235203,0.090713486,-0.03573562,0.06872234,152.66669,-81.10729,8.813848,STD
2250981348000,0.410711,1.19212918909713,9.48136080406774,0.491672102005629,0.07391469,-0.027488936,0.07086037,152.66765,-81.10282,8.817885,STD
2250985646000,0.415009,1.19233457759049,9.47026980826921,0.477294897605162,0.056505036,-0.029626964,0.07422013,152.67184,-81.098114,8.821977,STD
2250990664000,0.420027,1.19257437271838,9.4573208513318,0.460509227134816,0.03573562,-0.013744468,0.086132,152.66833,-81.08971,8.82886,STD
2250995558000,0.424921,1.19280824225921,9.44469187659052,0.444138348043172,0.028710667,-0.0033597588,0.081855945,152.66716,-81.0849,8.832017,STD
2251000682000,0.430045,1.1930531028083,9.43146938648544,0.426998097845873,0.0033597588,0.0125227375,0.08582657,152.6598,-81.07304,8.840644,STD
2251005563000,0.434926,1.19328635111823,9.41887395826472,0.410670704947157,-0.0030543262,0.020158553,0.082161374,152.6521,-81.06517,8.845702,STD
2251010538000,0.439901,1.19352409140545,9.40603596289532,0.394028873422652,-0.0012217305,0.021991149,0.089186326,152.64172,-81.05265,8.854737,STD
2251015584000,0.444947,1.19376522456912,9.39301475191361,0.377149540382923,0.013439035,0.013133603,0.09162979,152.63266,-81.0429,8.861296,STD
2251020550000,0.449913,1.19400253477341,9.38019998105845,0.360537814684291,0.030543262,0.0061086523,0.0888809,152.62291,-81.033035,8.86818,STD
2251025519000,0.454882,1.19423998833867,9.36737746869854,0.343916053710368,0.03726278,-0.008552114,0.09468412,152.61816,-81.02046,8.878124,STD
2251030598000,0.459961,1.1944826984731,9.35427110116463,0.326926332642436,0.035124753,-0.03359759,0.102319926,152.6187,-81.00871,8.88774,STD
2251035561000,0.464924,1.19471986531641,9.34146407181422,0.310324642219095,0.027794369,-0.06536258,0.10567969,152.62556,-80.99681,8.897733,CSI
2251040552000,0.469915,1.1949583701955,9.32858478841951,0.29362928922637,0.0067195175,-0.09682214,0.12370021,152.63945,-80.978134,8.9140625,CSI
2251045548000,0.474911,1.19519711400956,9.31569260251689,0.276917210774827,-0.013744468,-0.12889257,0.15332718,152.66246,-80.95512,8.934726,CSI
2251051560000,0.480923,1.1954844094079,9.30017862700718,0.256806519091345,-0.026267206,-0.16401732,0.18051068,152.69505,-80.92734,8.9598675,CSI
2251055544000,0.484907,1.19567479278565,9.28989790870533,0.243479673504686,-0.021685716,-0.17562376,0.22968534,152.72935,-80.885185,8.999503,CSI
2251060526000,0.489889,1.19591286758181,9.27704184982485,0.226814426337834,-0.036957346,-0.19700404,0.2782491,152.77591,-80.83452,9.046617,CSI
2251065600000,0.494963,1.19615533878127,9.26394838479886,0.209841430728721,-0.047036625,-0.21624629,0.33261612,152.82425,-80.76952,9.108782,CSI
2251070558000,0.499921,1.19639226668962,9.25115425795635,0.193256465764199,-0.049480084,-0.22785273,0.3933972,152.87561,-80.68967,9.185774,CSI
2251075566000,0.504929,1.19663158394759,9.23823110603475,0.176504246211491,-0.0693332,-0.24190263,0.46211955,152.93219,-80.59224,9.27946,CSI
2251080573000,0.509936,1.19687085341856,9.22531053461473,0.159755371750546,-0.106901415,-0.27152961,0.53878313,152.99557,-80.4761,9.391366,CSI
2251085773000,0.515136,1.20189987809976,9.20972545450838,0.143872742655585,-0.12034045,-0.31306845,0.6102544,153.0655,-80.34425,9.519645,CSI
2251090535000,0.519898,1.26110385144443,9.1707098026143,0.14659476422526,-0.13500121,-0.35246924,0.6844745,153.14223,-80.19055,9.668496,CSI
2251095580000,0.524943,1.32382624655654,9.12937549690124,0.14947855230149,-0.12461651,-0.37018433,0.7678576,153.22491,-80.027336,9.834098,CSI
2251100601000,0.529964,1.38625025961064,9.08823782614102,0.152348621663384,-0.12156218,-0.43310347,0.80939645,153.33122,-79.856895,10.00648,CSI
2251105545000,0.534908,1.44771696356194,9.04773102585452,0.15517467681678,-0.118202426,-0.5222898,0.8888089,153.44873,-79.656105,10.210275,CSI
2251110515000,0.539878,1.50950691474275,9.00701120436911,0.158015593910708,-0.16187929,-0.6417139,0.9663888,153.59206,-79.44556,10.422449,CSI
2251115606000,0.544969,1.57280120879939,8.96530001499642,0.160925676189417,-0.22510384,-0.75747293,1.0409144,153.7583,-79.2165,10.653102,CSI
2251120598000,0.549961,1.63486467686672,8.92439994480423,0.163779168771487,-0.33628133,-0.83658,1.0809261,153.9463,-78.975174,10.892574,CSI
2251125532000,0.554895,1.69620705496051,8.88397507574808,0.16659950779391,-0.44929138,-0.9138544,1.1096367,154.16447,-78.717255,11.146823,CSI
2251130554000,0.559917,1.75864350060035,8.84282921186483,0.169470148768901,-0.5503896,-0.9966267,1.1175779,154.40424,-78.4535,11.403308,CSI
2251135588000,0.564951,1.82122913726921,8.80158503050515,0.17234764910106,-0.5684101,-1.0861185,1.1081096,154.6652,-78.18902,11.660057,CSI
2251140533000,0.569896,1.88270827380626,8.76107003709562,0.175174275867554,-0.54458636,-1.1527027,1.0656544,154.9402,-77.93236,11.906934,CSI
2251145582000,0.574945,1.94548039926137,8.71970295889042,0.178060350396174,-0.462425,-1.2043208,1.0161743,155.23294,-77.685455,12.146756,CSI
2251150663000,0.580026,2.00865036746051,8.67807370074808,0.18096471654391,-0.36377025,-1.2226468,0.9654725,155.53117,-77.455666,12.371687,CSI
2251155568000,0.584931,2.06963220056753,8.63788643225996,0.183768478786509,-0.28160888,-1.221425,0.9275989,155.83408,-77.24195,12.583876,CSI
2251160535000,0.589898,2.13138485399109,8.59719119014365,0.186607681041144,-0.21594086,-1.20371,0.8622363,156.13298,-77.056564,12.771186,CSI
2251165604000,0.594967,2.19440563116122,8.55566024947774,0.189505187831712,-0.1685988,-1.1594223,0.8151997,156.41853,-76.88183,12.950136,CSI
2251170562000,0.599925,2.25604639131302,8.51503874546874,0.192339245568471,-0.13713925,-1.0757337,0.7538077,156.68272,-76.73367,13.103473,CSI
2251175530000,0.604893,2.31781147732233,8.4743353102294,0.195179019436204,-0.09682214,-0.9779953,0.7012733,156.92497,-76.600365,13.243241,CSI
2251180570000,0.609933,2.38047170950569,8.43304197013151,0.198059949446948,-0.06078109,-0.8790351,0.63621616,157.13828,-76.49042,13.3592205,CSI
2251185565000,0.614928,2.44257247533027,8.39211732057021,0.20091515686831,-0.0290161,-0.7666359,0.58032197,157.31512,-76.395424,13.460062,CSI
2251190649000,0.620012,2.50577974128666,8.35046348305877,0.203821237855338,-0.011301007,-0.63804877,0.5149594,157.45523,-76.32339,13.537079,CSI
2251195563000,0.624926,2.56687346766543,8.31020247646333,0.206630144615813,-0.011301007,-0.5644395,0.48624873,157.57567,-76.25817,13.6068735,CSI
2251200688000,0.630051,2.6305904696376,8.26821272090744,0.209559661739833,-0.013744468,-0.47158796,0.44257188,157.65118,-76.216995,13.651319,CSI
2251205605000,0.634968,2.69172149377363,8.2279271349429,0.2123702833396,0.00061086525,-0.3894266,0.39858958,157.70673,-76.1853,13.686062,CSI
2251210559000,0.639922,2.75331252358243,8.18733840342605,0.21520205462397,0.029932396,-0.3203988,0.34483343,157.73819,-76.16975,13.704124,CSI
2251215586000,0.644949,2.81581113215103,8.14615157392762,0.218075553664448,0.06627888,-0.27214047,0.28252518,157.75143,-76.17029,13.706103,CSI
2251220627000,0.64999,2.87848379692014,8.1048500407067,0.220957055288289,0.100792766,-0.26328292,0.1994475,157.75635,-76.1932,13.686215,CSI
2251225524000,0.654887,2.93936616934115,8.06472831720286,0.223756244626109,0.07727446,-0.172264,0.14660765,157.72295,-76.22427,13.655981,CSI
2251230601000,0.659964,3.00248640719729,8.02313183155266,0.226658324321456,0.062308256,-0.113926366,0.1337795,157.69661,-76.268555,13.614175,CSI
2251235555000,0.664918,3.06407743700609,7.98254310003581,0.229490095605825,0.09132435,-0.06963864,0.108123146,157.64844,-76.33144,13.553647,CSI
2251240574000,0.669937,3.12647658488868,7.94142181552167,0.232359021741524,0.14782938,-0.049480084,0.08460484,157.59094,-76.39708,13.49053,CSI
2251245572000,0.674935,3.18861464847051,7.90047258659126,0.235215944002179,0.19700404,-0.018936822,0.0720821,157.51831,-76.46684,13.423568,CSI
2251250691000,0.680054,3.25225705492818,7.85853198977359,0.238142031447614,0.2669481,0.025045475,0.074830994,157.43669,-76.54078,13.354821,CSI
2251255611000,0.684974,3.31342537682146,7.81822182443993,0.240954367886674,0.34269542,0.07422013,0.08674286,157.34552,-76.61657,13.285656,CSI
2251260578000,0.689941,3.37517803024502,7.77752658232362,0.24379357014131,0.41080686,0.10476339,0.07360926,157.24818,-76.69982,13.210556,CSI
2251265573000,0.694936,3.43727879606959,7.73660193276233,0.246648777562672,0.4801401,0.10354166,0.067500606,157.1469,-76.77923,13.141141,CSI
2251270554000,0.699917,3.49920550569367,7.69579198692352,0.24949598240067,0.5354234,0.07727446,0.056505036,157.04555,-76.86426,13.066878,CSI
2251275520000,0.704883,3.56094572653148,7.65510493793025,0.252334613042209,0.5928447,0.06291912,0.035124753,156.9424,-76.95463,12.988151,CSI
2251280585000,0.709948,3.6239167733586,7.61360676975648,0.255229833380387,0.6435465,0.07819075,0.016798794,156.8392,-77.04675,12.907548,CSI
2251285575000,0.714938,3.68595537625443,7.57272308581035,0.258082182736262,0.68233645,0.09254608,0.016798794,156.74115,-77.13868,12.82669,CSI
2251290534000,0.719897,3.67399357948323,7.67008158003974,0.222524645763112,0.7144069,0.09896017,0.035430185,156.64162,-77.22905,12.74644,CSI
2251295583000,0.724946,3.64608942242317,7.79868336696843,0.178120637889962,0.72509706,0.15454891,0.047036625,156.52415,-77.319336,12.664431,CSI
2251300619000,0.729982,3.61825711207371,7.92695403422389,0.133830960003412,0.73731434,0.2180789,0.08460484,156.49101,-77.12483,12.865036,CSI
2251305558000,0.734921,3.59096088871866,8.05275403930227,0.0903943597091973,0.7302894,0.28130344,0.12889257,156.4419,-76.92693,13.067256,CSI
2251310585000,0.739948,3.56317831839961,8.1807954698609,0.0461838333518336,0.7247916,0.35460728,0.16768251,156.37169,-76.72242,13.274764,CSI
2251315569000,0.744932,3.53563339489251,8.30774165842349,0.00235147541169031,0.6750061,0.43004912,0.19272798,156.28323,-76.511894,13.486904,CSI
2251320566000,0.749929,3.50801662467482,8.43501896665931,-0.0415952125150545,0.6264423,0.4841107,0.22296582,156.18086,-76.29235,13.707321,CSI
2251325559000,0.754922,3.48042196113732,8.56219439191875,-0.0855067219843835,0.58551437,0.5534439,0.26358834,156.05362,-76.066574,13.933391,CSI
2251330585000,0.759948,3.45264491748831,8.69021035173327,-0.129708453727393,0.54336464,0.623388,0.29626966,155.91249,-104.161255,14.161248,CSI
2251335572000,0.764935,3.42508341397108,8.81723295252815,-0.173567195510598,0.49235737,0.7086037,0.33200526,155.74901,-104.396805,14.396765,CSI
2251340579000,0.769942,3.39741137705293,8.9447649682049,-0.217601829580883,0.41416663,0.8072584,0.39675698,155.5639,-104.64491,14.644891,CSI
2251345571000,0.774934,3.36982224018547,9.07191492272025,-0.261504544435858,0.37568212,0.88086766,0.42943826,155.36449,-104.88879,14.888782,CSI
2251350565000,0.779928,3.34222204997792,9.19911581872378,-0.305424848519541,0.3182608,0.89980453,0.43890667,155.15613,-74.86115,15.1388035,CSI
2251355564000,0.784927,3.31459422642014,9.32644406844778,-0.349389125674994,0.2947425,0.9098838,0.43860126,154.93304,-74.61028,15.389444,CSI
2251360552000,0.789915,3.28702719623286,9.45349213998675,-0.393256662072553,0.27916542,0.9428705,0.44104472,154.70212,-74.36154,15.637609,CSI
2251365590000,0.794953,3.25918383254331,9.5818137487304,-0.43756392918781,0.28802297,1.0149527,0.4437936,154.46117,-74.11835,15.879858,CSI
2251370577000,0.79994,3.23162232902607,9.70883634952528,-0.481422670971015,0.30787608,1.1053606,0.45051312,154.20967,-73.87883,16.118013,CSI
2251376155000,0.805518,3.20079456351191,9.85091216007949,-0.530479029837411,0.3323107,1.1914927,0.46975538,153.94295,-73.640564,16.35452,CSI
2251380560000,0.809923,3.1764495819612,9.96311078781188,-0.569219306066611,0.32375857,1.2675453,0.47769663,153.65765,-73.40916,16.583519,CSI
2251385557000,0.81492,3.14883281174351,10.0903880960477,-0.613165993993356,0.2843578,1.3439035,0.4801401,153.35223,-73.179504,16.81002,CSI
2251390536000,0.819899,3.12131552158664,10.2172069308898,-0.656954378861729,0.21746802,1.3720033,0.473726,153.0446,-72.955475,17.029896,CSI
2251395572000,0.824935,3.09348321123718,10.3454775981453,-0.701244056748279,0.17959438,1.3756685,0.43951756,152.72798,-72.74423,17.236055,CSI
2251400608000,0.829971,3.06565090088771,10.4737482654008,-0.745533734634828,0.0711658,1.2794572,0.38087448,152.43971,-72.54534,17.427483,CSI
2251405565000,0.834928,3.03825519747185,10.6000067438728,-0.789128637987415,-0.039095376,1.0876455,0.30085114,152.18607,-72.36637,17.597816,CSI
2251410572000,0.839935,3.0105831605537,10.7275387595496,-0.833163272057699,-0.13347405,0.88025683,0.20555615,151.97278,-72.21078,17.742693,CSI
2251415626000,0.844989,2.98265137014342,10.8562679001987,-0.87761125300262,-0.21685717,0.77366084,0.13133603,151.79262,-72.07276,17.867313,CSI
2251420539000,0.849902,2.95549884020956,10.9814056659307,-0.920819193323632,-0.2602286,0.81031275,0.13316862,151.63608,-71.9406,17.983929,CSI
2251425562000,0.854925,2.92773837657069,11.1093452135129,-0.964994541223579,-0.29749137,0.89980453,0.172264,151.49957,-71.81779,18.088139,CSI
2251430573000,0.859936,2.90004423297236,11.236979112166,-1.00906435375128,-0.33200526,0.9932669,0.21288654,151.35458,-71.69341,18.190767,CSI
2251435565000,0.864928,2.8724550961049,11.3641290666814,-1.05296706860625,-0.32284227,1.0778717,0.26419923,151.18903,-71.55587,18.304398,CSI
2251440531000,0.869894,2.84500965265862,11.4906167818503,-1.09664112348803,-0.28863382,1.176221,0.28680122,150.99579,-71.41585,18.417412,CSI
2251446048000,0.875411,2.81451901401724,11.6311388770148,-1.14516101087883,-0.23732115,1.246776,0.30573806,150.78995,-71.265,18.540154,CSI
2251450603000,0.879966,2.78934503195969,11.7471581163612,-1.18522047926113,-0.17959438,1.2928963,0.31581733,150.56714,-71.11407,18.662445,CSI
2251455551000,0.884914,2.76199906857424,11.8731873581365,-1.22873623108453,-0.15393804,1.2541064,0.3100141,150.35443,-70.965645,18.782312,CSI
2251460520000,0.889883,2.73453704511783,11.9997514855376,-1.27243666980936,-0.105068825,1.1527027,0.3155119,150.15222,-70.81766,18.905155,CSI
2251465586000,0.894949,2.70653893466699,12.1287862751159,-1.31699018612653,-0.04337143,1.0442741,0.2938262,149.96999,-70.6838,19.016068,CSI
2251470560000,0.899923,2.67904927786035,12.2554777562376,-1.36073459792313,0.030543262,0.9147707,0.2770274,149.82942,-70.553,19.129019,CSI
2251475540000,0.904903,2.65152646103344,12.3823220618238,-1.40453177740586,0.064446285,0.8313876,0.26053402,149.71213,-70.43212,19.234232,CSI
2251480561000,0.909924,2.62377705073466,12.5102106679179,-1.4486895360771,0.00030543262,0.89461213,0.22999077,149.59329,-70.321144,19.327744,CSI
2251485909000,0.915272,2.59871956592414,12.6398622681258,-1.49163622568134,-0.084910266,1.0192287,0.19639318,149.48398,-70.21852,19.413712,CSI
2251490530000,0.919893,2.67818363378008,12.6043241671621,-1.43689431191094,-0.18417588,1.0919216,0.17195857,149.3745,-70.11972,19.491188,CSI
2251495591000,0.924954,2.76521407035633,12.5654022175891,-1.37694001076573,-0.22418754,1.1951579,0.12186762,149.12529,-70.36674,19.252102,CSI
2251500652000,0.930015,2.85224450693258,12.526480268016,-1.31698570962053,-0.27275133,1.2388347,0.08124508,148.87558,-70.602234,19.018114,CSI
2251505556000,0.934919,2.93657512557909,12.4887657371514,-1.25889128306133,-0.31398472,1.1734722,0.070249505,148.63165,-70.832344,18.787706,CSI
2251510547000,0.93991,3.02240182167711,12.4503821271298,-1.19976622536212,-0.36254853,1.0424415,0.10262536,148.39815,-71.04969,18.56747,CSI
2251515744000,0.945107,3.11177095403964,12.4104142607139,-1.1382008226647,-0.3915646,0.93554014,0.17256944,148.1801,-71.249886,18.364191,CSI
2251520546000,0.949909,3.19434755084643,12.3734841674813,-1.08131472226966,-0.4007276,0.91751957,0.2837469,147.97635,-71.419945,18.19068,CSI
2251525537000,0.9549,3.28017424694445,12.3351005574598,-1.02218966457045,-0.37659842,0.9828822,0.42241332,147.78044,-71.55591,18.052502,CSI
2251530572000,0.959935,3.36675757991451,12.2963785625773,-0.962543368133754,-0.33017266,1.0112875,0.5821546,147.60126,-71.649704,17.959013,CSI
2251535572000,0.964935,3.45273904264544,12.2579257374706,-0.903311693420055,-0.2761111,1.061073,0.7467828,147.39644,-71.70051,17.909409,CSI
2251540539000,0.969902,3.53815302772236,12.2197267010095,-0.844470947759467,-0.19822577,1.0592403,0.86742866,147.19998,-71.71963,17.89645,CSI
2251545595000,0.974958,3.62509748283588,12.1808432042616,-0.784575878288975,-0.11362094,1.0064005,0.9560041,147.00537,-71.70295,17.923132,CSI
2251550650000,0.980013,3.71202474165686,12.1419673980787,-0.724692655153426,-0.042760566,0.9184359,1.0045679,146.82451,-71.66587,17.974312,CSI
2251555593000,0.984956,3.79702601571266,12.1039529351782,-0.666136221531463,0.0061086523,0.82833326,1.0250319,146.6631,-71.614235,18.04386,CSI
2251560526000,0.989889,3.881855326843,12.0660153779279,-0.607698251258928,0.04642576,0.70157874,1.026559,146.5423,-71.5566,18.123777,CSI
2251565575000,0.994938,3.9686794079087,12.0271857151351,-0.547886106133035,0.095294975,0.5537493,1.0128145,146.45813,-71.499344,18.206533,CSI
2251570593000,0.999956,4.05497040390547,11.9885944598579,-0.488441197390368,0.14477506,0.3472769,1.0054842,146.43228,-71.440475,18.293928,CSI
2251575520000,1.004883,4.13969653728054,11.9507030459978,-0.430074305127489,0.19425514,0.13255776,1.0149527,146.45537,-71.38125,18.383865,CSI
2251580575000,1.009938,4.22662379610151,11.9118272398149,-0.37019108199194,0.2657264,-0.076358154,0.97066486,146.54079,-71.34017,18.45841,CSI
2251585803000,1.015166,4.31652601353298,11.8716209658832,-0.308258442911297,0.33750305,-0.23182335,0.883922,146.67511,-71.30783,18.524548,CSI
2251590536000,1.019899,4.39791606615408,11.8352215216372,-0.252189739627309,0.36041048,-0.30176744,0.82344633,146.84547,-71.27823,18.586025,CSI
2251595550000,1.024913,4.48413827698067,11.7966610286202,-0.192792216224412,0.35643986,-0.321926,0.70738196,147.047,-71.28681,18.60727,CSI
2251600716000,1.030079,4.57297432427427,11.7569315697199,-0.131594049910219,0.3368922,-0.269697,0.59528816,147.24524,-71.30767,18.611897,CSI
2251605584000,1.034947,4.65668587638911,11.719493899196,-0.073926091408962,0.32467487,-0.2144137,0.49480084,147.44604,-71.35396,18.587103,CSI
2251610575000,1.039938,4.74251257248713,11.6811102891744,-0.0148010337097483,0.3231477,-0.25503623,0.44226643,147.65703,-71.41366,18.545183,CSI
2251615617000,1.04498,4.82921627950501,11.6423344603368,0.0449281870715454,0.30970868,-0.27122417,0.47861293,147.8406,-71.47143,18.50091,CSI
2251620542000,1.049905,4.91390802029498,11.6044584276066,0.103271386664539,0.2742785,-0.23487769,0.4596761,148.01747,-71.554924,18.427612,CSI
2251625539000,1.054902,4.99983789414828,11.566028674195,0.162467522373409,0.2501493,-0.22021692,0.40622538,148.20193,-71.633705,18.356619,CSI
2251630553000,1.059916,5.08606010497486,11.5274681811779,0.221865045776306,0.24098633,-0.269697,0.35246924,148.39127,-71.71384,18.281805,CSI
2251635686000,1.065049,5.17432867461444,11.4879925109233,0.282672283037389,0.1881465,-0.35643986,0.35094208,148.58394,-71.79005,18.20857,CSI
2251640667000,1.07003,5.259983407787,11.449685806552,0.341678877387175,0.112399206,-0.32253686,0.42577308,148.75143,-71.85589,18.143974,CSI
2251645579000,1.074942,5.34445159677387,11.4119097511672,0.399868074625913,0.07147124,-0.31948254,0.47647488,148.95036,-108.07462,18.074432,CSI
2251650653000,1.080016,5.43170558515323,11.3728878242488,0.459976378125374,0.042455133,-0.3115413,0.4361578,149.13394,-108.00332,18.002075,CSI
2251655569000,1.084932,5.51624255931028,11.3350810066039,0.518212960703882,0.06078109,-0.2602286,0.33475417,149.30006,-107.931435,17.928328,CSI
2251660557000,1.08992,5.60201766653067,11.2967204682774,0.577302479398268,0.07269296,-0.19822577,0.19792034,149.45702,-107.84016,17.834723,CSI
2251665607000,1.09497,5.68885894388891,11.2578831149196,0.637126470859104,0.03023783,-0.21746802,0.02321288,149.61931,-107.711555,17.703438,CSI
2251670555000,1.099918,5.77394619940745,11.219830199194,0.69574213615578,0.024129177,-0.23854288,-0.113926366,149.75996,-107.55844,17.546885,CSI
2251675543000,1.104906,5.85972130662783,11.1814696608675,0.754831654850166,0.067500606,-0.23426682,-0.10873401,149.89522,-107.40078,17.385193,CSI
2251680561000,1.109924,5.9460123026246,11.1428784055904,0.814276563592834,0.11575896,-0.23518312,-0.03145956,150.03441,-107.22988,17.20964,CSI
2251685551000,1.114914,6.03182180243007,11.1045024861338,0.873389774957105,0.11636983,-0.27305678,0.016798794,150.17961,-107.05723,17.031734,CSI
2251690530000,1.119893,6.00443125702689,11.038318331929,0.853453781732875,0.10934488,-0.41538838,0.2144137,150.3539,-106.95447,16.922094,CSI
2251695558000,1.124921,5.95969617051827,10.967268468373,0.821397619403827,0.111177474,-0.4718934,0.36102137,150.51031,-106.85515,16.815357,CSI
2251701528000,1.130891,5.90657992818406,10.8829073535303,0.783335708285209,0.1001819,-0.37873647,0.3817908,150.69211,-107.07433,17.040596,CSI
2251705576000,1.134939,5.87056409083583,10.8257057131814,0.757527564866755,0.063224554,-0.29993483,0.30665436,150.89212,-107.30305,17.27483,CSI
2251710550000,1.139913,5.82630945275034,10.7554189149858,0.725815681130741,0.071776666,-0.15027285,0.16768251,151.04022,-107.51547,17.492397,CSI
2251715611000,1.144974,5.78128075887204,10.6839027337096,0.693549126328173,0.08552113,-0.13927728,0.0061086523,151.20404,-107.69563,17.677229,CSI
2251720542000,1.149905,5.73740870008644,10.6142235616343,0.662111390360684,0.122783914,-0.24312437,-0.058643065,151.35646,-107.86128,17.846651,CSI
2251725561000,1.154924,5.69275368831502,10.5433008756384,0.630112607797142,0.15515977,-0.25411993,-0.07147124,151.47641,-107.993744,17.982605,CSI
2251730571000,1.159934,5.64817875128078,10.4725053672026,0.598171204999106,0.14782938,-0.31337386,-0.12034045,151.64032,-108.09581,18.087229,CSI
2251735567000,1.16493,5.60372837494883,10.4019076905268,0.566319059614078,0.1600467,-0.40683624,-0.18875736,151.8162,-108.18751,18.180601,CSI
2251740533000,1.169896,5.5595449144075,10.3317339390513,0.534658180114068,0.18600847,-0.33292156,-0.17195857,151.9576,-108.288414,18.28318,CSI
2251745563000,1.174926,5.51479203351285,10.2606558138153,0.502589266726019,0.1777618,-0.28924468,-0.1441642,152.13356,-108.37201,18.3681,CSI
2251750611000,1.179974,5.46987900314382,10.1893233334592,0.470405593806959,0.17104226,-0.33414328,-0.13072516,152.31187,-108.45555,18.452593,CSI
2251755561000,1.184924,5.42583789769082,10.1193756754238,0.438846722778959,0.16249016,-0.41905355,-0.15393804,152.4873,-108.53545,18.533352,CSI
2251760552000,1.189915,5.38143200732398,10.0488486529481,0.407026455041434,0.15485434,-0.35430184,-0.12492194,152.62918,-108.63306,18.631802,CSI
2251765617000,1.19498,5.3363677246736,9.97727594831184,0.374734398120864,0.1133155,-0.31642818,-0.11759156,152.80229,-108.716896,18.716265,CSI
2251771358000,1.200721,5.28528893954114,9.89615079583077,0.338132483257884,0.11056661,-0.3304781,-0.11362094,152.96954,-108.80718,18.806927,CSI
2251775556000,1.204919,5.2479385232398,9.83682952948073,0.31136801041434,0.098043874,-0.38789943,-0.12492194,153.13684,-108.894264,18.894238,CSI
2251780561000,1.209924,5.20340807217066,9.76610467524493,0.279458485263806,0.057726767,-0.45814893,-0.15882497,153.31062,-71.0248,18.97515,CSI
2251785566000,1.214929,5.15887762110153,9.69537982100912,0.247548960113273,0.04550946,-0.49113566,-0.16676621,153.48851,-70.94033,19.059355,CSI
2251790537000,1.2199,5.1146496745951,9.62513541533356,0.21585620296576,-0.004276057,-0.5366451,-0.16371189,153.68916,-70.86255,19.136534,CSI
2251795564000,1.224927,5.0699234852795,9.5540996826176,0.183806416166213,-0.0711658,-0.58123827,-0.160963,153.89706,-70.78711,19.210985,CSI
2251800724000,1.230087,5.02401396929214,9.48118454818068,0.150908683943085,-0.115453534,-0.634689,-0.16707164,154.11885,-70.71316,19.283594,CSI
2251805611000,1.234974,4.98053338699946,9.41212713306572,0.119751471273623,-0.13591751,-0.6630942,-0.17440203,154.34386,-70.63826,19.3566,CSI
2251810558000,1.239921,4.93651897312553,9.34222186755033,0.0882117268341249,-0.17867808,-0.6792821,-0.16310102,154.57843,-70.5588,19.433382,CSI
2251815614000,1.244977,4.89153476521234,9.27077634047416,0.0559770496790604,-0.21624629,-0.68600166,-0.16432275,154.81577,-70.48423,19.504704,CSI
2251820546000,1.249909,4.84765380923372,9.20108303755887,0.0245329381820711,-0.25411993,-0.6765333,-0.16890424,155.05006,-70.40625,19.578506,CSI
2251825554000,1.254917,4.80309666658552,9.13031579080305,-0.00739571355696417,-0.29749137,-0.63071835,-0.18478674,155.27246,-70.330475,19.648865,CSI
2251830568000,1.259931,4.7584861407792,9.05946375900717,-0.0393626184730033,-0.3109304,-0.5644395,-0.20097467,155.48297,-70.25501,19.717974,CSI
2251835565000,1.264928,4.71402686725423,8.98885195149143,-0.071221139387532,-0.34300083,-0.5119051,-0.21930063,155.68141,-70.18256,19.782194,CSI
2251840741000,1.270104,4.66797499617853,8.9157107236144,-0.104220880082669,-0.33658674,-0.46670106,-0.2415972,155.86003,-70.115,19.84074,CSI
2251845561000,1.274924,4.62509052581825,8.84760007477991,-0.134950932275591,-0.355829,-0.43768495,-0.26908615,156.02612,-70.051636,19.892864,CSI
2251850690000,1.280053,4.57945682281453,8.77512299638322,-0.167651023084199,-0.38453966,-0.4196644,-0.2910773,156.18051,-69.991455,19.940496,CSI
2251855605000,1.284968,4.53572711911727,8.70566991774806,-0.198986750579678,-0.41355577,-0.41538838,-0.32284227,156.32936,-69.93978,19.978045,CSI
2251860547000,1.28991,4.49175719120844,8.6358353064327,-0.230494617371674,-0.4364632,-0.44073927,-0.3475823,156.48079,-69.89,20.012268,CSI
2251865603000,1.294966,4.44677298329524,8.56438977935653,-0.262729294526738,-0.48258355,-0.4981606,-0.37598756,156.64,-69.846794,20.037731,CSI
2251870554000,1.299917,4.40272298064923,8.49442799048111,-0.294294541084239,-0.51343226,-0.5375614,-0.43218717,156.80083,-69.81608,20.04949,CSI
2251875555000,1.304918,4.35822811835218,8.42375965960533,-0.32617856411677,-0.5149594,-0.5183192,-0.42424592,156.9593,-69.77229,20.072895,CSI
2251880565000,1.309928,4.31365318131794,8.35296415116949,-0.358119966914807,-0.5540548,-0.5299256,-0.44012842,157.1384,-69.746124,20.076097,CSI
2251885531000,1.314894,4.26946972077661,8.28279039969397,-0.389780846414817,-0.5564982,-0.54336464,-0.46028697,157.31044,-69.7176,20.081835,CSI
2251890547000,1.31991,4.26907033353894,8.26651893600617,-0.385257875589823,-0.56138515,-0.5552765,-0.4859433,157.48418,-69.69089,20.083431,CSI
2251895599000,1.324962,4.29704748766384,8.28517033962991,-0.35728060461064,-0.5549711,-0.5681047,-0.50335294,157.66063,-69.66531,20.0837,CSI
2251900691000,1.330054,4.37641486239417,8.36327267624049,-0.388364094283571,-0.56199604,-0.5693264,-0.5204572,157.82352,-69.70701,20.03003,CSI
2251905577000,1.33494,4.491753209731,8.48362609859608,-0.46358477903976,-0.58551437,-0.58093286,-0.52534413,157.99173,-69.7471,19.977814,CSI
2251910750000,1.340113,4.5982834644614,8.67053385382994,-0.570561746526453,-0.602924,-0.57360244,-0.5320636,158.1398,-69.783066,19.928558,CSI
2251915616000,1.344979,4.69185003498645,8.87170174841883,-0.682841411329184,-0.61575216,-0.54641896,-0.52442783,158.28358,-69.81286,19.884388,CSI
2251920539000,1.349902,4.67921524432897,9.04864325682023,-0.737714635025482,-0.6258314,-0.51068336,-0.528093,158.41216,-69.833405,19.851185,CSI
2251925549000,1.354912,4.61688487658639,9.21645497661637,-0.766482408484061,-0.63255095,-0.4783075,-0.514654,158.53175,-69.844376,19.826767,CSI
2251930562000,1.359925,4.50967066094816,9.29741020346799,-0.727612986987641,-0.64751714,-0.4654793,-0.5158757,158.64192,-69.85725,19.803244,CSI
2251935613000,1.364976,4.38028502388858,9.33756476830843,-0.656227677315071,-0.64751714,-0.47067168,-0.50854534,158.74629,-69.86282,19.787386,CSI
2251940615000,1.369978,4.18906534301463,9.36981391286835,-0.56940074249205,-0.6569856,-0.462425,-0.505491,158.82718,-69.88653,19.752165,CSI
2251945562000,1.374925,3.94299294220903,9.39492332011872,-0.468963045321179,-0.66859204,-0.5018258,-0.48808134,158.92265,-69.90257,19.72573,CSI
2251950608000,1.379971,3.70396247626728,9.35773221774194,-0.39885524531106,-0.69027776,-0.5174029,-0.47861293,158.9817,-69.93557,19.678078,CSI
2251955558000,1.384921,3.47640295437788,9.28491266129032,-0.348792163801843,-0.71868294,-0.56596667,-0.48258355,159.06158,-69.96487,19.634645,CSI
2251960531000,1.389894,3.29258992361748,9.19366776810266,-0.3073073363978,-0.7348709,-0.6243043,-0.49357912,159.1101,-70.021774,19.559422,CSI
2251965616000,1.394979,3.14380279254507,9.08455699816682,-0.272590302896425,-0.754724,-0.6765333,-0.5112942,159.17061,-70.0777,19.484106,CSI
2251970570000,1.399933,3.125058275476,9.04601528897263,-0.239288149845299,-0.80939645,-0.72692966,-0.5345071,159.21384,-70.16029,19.377186,CSI
2251975528000,1.404891,3.19568760116025,9.05543273562079,-0.206327755247917,-0.86132,-0.7626653,-0.5366451,159.26694,-70.23801,19.274635,CSI
2251980570000,1.409933,3.33080536,9.1252433430575,-0.274777784639551,-0.88147855,-0.829555,-0.5403103,159.30759,-70.32752,19.15842,CSI
2251985607000,1.41497,3.51573042,9.24251289789621,-0.423619891284712,-0.9266826,-0.8518516,-0.5360342,159.34407,-70.40714,19.046625,CSI
2251990563000,1.419926,3.69632280463872,9.38695355575379,-0.571814796824264,-0.960891,-0.8564331,-0.5186246,159.37593,-70.463135,18.95765,CSI
2251995560000,1.424923,3.87656874023194,9.57194310000991,-0.723600873396769,-0.9825767,-0.84329945,-0.4978552,159.40762,-70.51162,18.873682,CSI
2252000603000,1.429966,3.99181319483461,9.67429044621039,-0.84350956936128,-1.0082331,-0.8185594,-0.47678033,159.43977,-70.531044,18.82501,CSI
2252005545000,1.434908,4.01061861674779,9.65548512247939,-0.914029970263236,-1.0012082,-0.8213083,-0.47158796,159.47485,-70.54811,18.779879,CSI
2252010516000,1.439879,4.04312583779677,9.70644602260209,-0.966375306647673,-0.9957104,-0.7669413,-0.44593164,159.49373,-70.53987,18.765034,CSI
2252015584000,1.444947,4.09843658442545,9.87237802184235,-0.989421471130105,-1.003957,-0.700357,-0.39645153,159.50769,-70.52239,18.7591,CSI
2252020555000,1.449918,4.15481139103276,9.97727479576161,-1.02697382842865,-1.0057896,-0.66981375,-0.3622431,159.5023,-70.499054,18.763056,CSI
2252026325000,1.455688,4.22640280219323,9.93125202415325,-1.1139060388673,-1.0201449,-0.625526,-0.34208453,159.47102,-70.464355,18.775208,CSI
2252030575000,1.459938,4.26457125277306,9.87446372249426,-1.17748602748076,-1.0274754,-0.6044512,-0.31429017,159.42174,-70.41874,18.800686,CSI
2252035539000,1.464902,4.21231442563206,9.65593611062257,-1.24874504860598,-1.0458013,-0.57971114,-0.2941316,159.35733,-70.368324,18.828032,CSI
2252040563000,1.469926,4.15110854024299,9.44526501250165,-1.31643727841704,-1.0528263,-0.54061574,-0.27275133,159.30142,-70.304474,18.87314,CSI
2252045541000,1.474904,4.03148978818066,9.31095608755558,-1.3521130400405,-1.0592403,-0.45875978,-0.24740042,159.22424,-70.2337,18.922358,CSI
2252050682000,1.480045,3.90795423085795,9.17224934124224,-1.38895697143989,-1.0546589,-0.37873647,-0.24617869,159.16603,-70.16942,18.9667,CSI
2252055540000,1.484903,3.79121901641062,9.04117807619844,-1.42377273077431,-1.0170907,-0.33658674,-0.19547687,159.09232,-70.08793,19.03034,CSI
2252060536000,1.489899,3.67116773370604,8.90638350226703,-1.45957749274112,-1.0155635,-0.29352075,-0.16676621,158.99506,-70.01068,19.084932,CSI
2252065575000,1.494938,3.6754346174682,8.93761161108903,-1.44158726422893,-1.0112875,-0.25595254,-0.16890424,158.9059,-69.936554,19.137821,CSI
2252070563000,1.499926,3.77036531754769,9.08950077086645,-1.3846289036566,-1.0045679,-0.2180789,-0.15088372,158.80241,-69.85081,19.202263,CSI
2252075536000,1.504899,3.86046311709091,9.21870175122995,-1.3052604273369,-1.0125091,-0.16890424,-0.14110987,158.67159,-69.7988,19.231983,CSI
2252080571000,1.509934,3.948134368,9.33215914882353,-1.20727485776471,-1.0115929,-0.1432479,-0.11881329,158.53596,-69.740715,19.269453,CSI
2252085547000,1.51491,3.9184179361934,9.42536597840087,-1.2240294575052,-1.0152581,-0.1469131,-0.08368854,158.40317,-69.66797,19.318323,CSI
2252090544000,1.519907,3.83781359821659,9.51071179753295,-1.29040955005449,-1.0125091,-0.14110987,-0.043676864,158.25957,-69.58971,19.372993,CSI
2252096342000,1.525705,3.6117665184386,9.5815947425461,-1.29635177337191,-1.024421,-0.1301143,-0.018325957,158.1182,-69.49343,19.439348,CSI
2252100596000,1.529959,3.40798790243233,9.62554704050608,-1.28036910818949,-1.0418307,-0.13591751,-0.0106901415,157.98013,-69.39261,19.51101,CSI
2252105531000,1.534894,3.08255796904262,9.55811610668979,-1.23776446911563,-1.0500773,-0.13439035,0.038179077,157.8257,-69.299324,19.57917,CSI
2252110533000,1.539896,2.70220040177056,9.42258642137447,-1.18092943242676,-1.0891727,-0.090713486,0.05131268,157.66212,-69.21091,19.63677,CSI
2252115564000,1.544927,2.22984550336465,9.23447777758357,-1.07188257408783,-1.1206323,-0.043982297,0.06719518,157.46184,-69.15269,19.661242,CSI
2252120563000,1.549926,1.64932726274853,8.98344267675333,-0.899296058313306,-1.14018,-0.04917465,0.09407325,157.2645,-69.08662,19.691912,CSI
2252125523000,1.554886,1.44084651925057,8.84557025514874,-0.68859871332952,-1.1847731,-0.07147124,0.10781772,156.99179,-69.067184,19.660173,CSI
2252130582000,1.559945,1.46394383524027,8.7762781624714,-0.448385951731503,-1.2385293,-0.14782938,0.14508049,156.73755,-69.031746,19.64461,CSI
2252135560000,1.564923,2.11042033997915,9.3415522009855,-0.0833054224163745,-1.3029755,-0.25595254,0.15118915,156.35924,-69.04463,19.556072,CSI
2252140559000,1.569922,3.33529509239079,10.4938413597081,0.402107918023311,-1.3408492,-0.550695,0.12889257,156.06564,-69.05192,19.480288,CSI
2252145573000,1.574936,3.74289646224832,10.7945172038591,0.499753460274748,-1.3292428,-0.79381937,0.069027774,155.81099,-69.04009,19.407051,CSI
2252150660000,1.580023,2.95614624874161,9.8493957067953,0.0297467580924916,-1.3613132,-0.57879484,0.121256754,155.50705,-68.994064,19.353546,CSI
2252155578000,1.584941,2.55655102545066,9.41565073239175,-0.130917132886081,-1.4782939,-0.5537493,0.20738874,155.42345,-68.773415,19.468557,CSI
2252160650000,1.590013,2.49787629896859,9.43821788050548,-0.00905444824010405,-1.5265522,-0.56107974,0.26419923,155.28561,-68.55246,19.580786,CSI
2252166225000,1.595588,2.4636905047619,9.47682104761905,0.101354539702381,-1.5723672,-0.5858198,0.2782491,155.10846,-68.402435,19.626715,CSI
2252170571000,1.599934,2.46811448146259,9.52106081462585,0.16329025508716,-1.6102408,-0.6020077,0.29749137,154.93065,-68.23217,19.689386,CSI
2252175520000,1.604883,2.44507233792094,9.6038550204978,0.321250681551977,-1.632232,-0.6291912,0.30573806,154.72726,-68.05522,19.744192,CSI
2252180591000,1.609954,2.38818928018546,9.727101356857,0.58670536016203,-1.6615535,-0.65270954,0.34422258,154.5286,-67.8605,19.812975,CSI
2252185527000,1.61489,2.32914194719177,9.6365571629644,0.693463346879426,-1.6804903,-0.6924158,0.36132678,154.33278,-67.663666,19.878567,CSI
2252190542000,1.619905,2.26391853745271,9.24521689911728,0.586310684312736,-1.7238617,-0.73823065,0.3408628,154.14957,-67.46055,19.945269,CSI
2252195572000,1.624935,2.29038859978983,9.03592809247583,0.625414981023539,-1.7583756,-0.75808376,0.34147367,153.96289,-67.24402,20.001413,CSI
2252200634000,1.629997,2.48397382105927,9.15819273392182,0.931075765441362,-1.7947221,-0.7806858,0.29657507,153.79776,-67.037796,20.041775,CSI
2252205536000,1.634899,2.77561185534476,9.17352846041591,1.13090523166727,-1.8020525,-0.84665924,0.32834008,153.63501,-66.79653,20.12729,CSI
2252210546000,1.639909,3.20009557479022,9.06412548704852,1.21842761036118,-1.8203784,-0.95081174,0.33964106,153.49759,-66.565506,20.198221,CSI
2252215552000,1.644915,3.5604679304109,8.83916525382909,1.23358811438154,-1.8558086,-1.1221595,0.26389378,153.40672,-66.29664,20.288155,CSI
2252220538000,1.649901,3.73700214002324,8.28434358762016,1.04192255081335,-1.81091,-1.0861185,0.22113322,153.2848,-66.026825,20.383999,CSI
2252225516000,1.654879,4.05698501923153,7.87866768152109,0.880328379243415,-1.8484782,-0.95081174,0.3042109,153.199,-65.62864,20.597692,CSI
2252230559000,1.659922,4.64047595039612,7.73518639096851,0.770325981575559,-1.856114,-0.829555,0.32162055,153.11568,-65.27159,20.777878,CSI
2252236024000,1.665387,5.11701994612476,7.69167858147448,0.861604855387524,-1.813048,-0.7086037,0.32375857,153.06143,-64.855736,21.039307,CSI
2252240520000,1.669883,5.31887654365974,7.79260679525142,1.19369158603403,-1.7397442,-0.54733527,0.321926,152.95964,-64.44514,21.290606,CSI
2252245588000,1.674951,5.54641418518715,7.90637552021172,1.56802778508129,-1.6685784,-0.3381139,0.3378085,152.93755,-63.956127,21.646242,CSI
2252250650000,1.680013,5.83650500188282,7.90808865882824,1.85208444859289,-1.6001616,-0.15790866,0.39767328,152.87335,-63.474987,21.999298,CSI
2252255521000,1.684884,6.14017675238858,7.86604190388583,2.09034986483726,-1.5409076,0.10415252,0.3827071,152.7282,-63.024563,22.309572,CSI
2252260546000,1.689909,6.33375362914803,7.6993005586673,2.27641747731556,-1.5219707,0.30970868,0.39095375,152.4916,-62.474934,22.675402,CSI
2252265593000,1.694956,6.47638631722037,7.47844970000952,2.43745453973346,-1.5027285,0.3915646,0.36041048,152.2208,-61.95676,23.008492,CSI
2252270552000,1.699915,6.88852794857021,7.42716218734528,2.49030997682458,-1.4553864,0.5467244,0.36102137,151.87498,-61.36589,23.384281,CSI
2252275528000,1.704891,7.47835809795134,7.48309419007682,2.4750557653009,-1.4257594,0.6969972,0.45875978,151.50291,-60.770554,23.762455,CSI
2252280546000,1.709909,7.62881354244507,6.64612207536541,2.42364128744555,-1.3634512,0.8717047,0.48624873,151.07126,-60.146877,24.148535,CSI
2252285587000,1.71495,7.61012168425128,5.46385499374697,2.35821949099797,-1.2886202,0.9877691,0.4016439,150.61778,-59.545486,24.511915,CSI
2252290585000,1.719948,8.12143368799622,4.64298695221172,3.19310384952741,-1.1728612,1.4117095,0.33322698,150.08218,-58.887405,24.931976,CSI
2252295636000,1.724999,8.90325639905482,3.98918169293006,4.48699818185255,-1.1050552,1.7971655,0.30115658,149.53098,-58.25975,25.316462,CSI
2252300686000,1.730049,9.61219789339256,3.150354638201,5.95058251693504,-0.9459248,2.0088303,0.23396139,148.95616,-57.576176,25.741161,CSI
2252306260000,1.735623,10.3334312473626,2.06850514886174,7.70920582398668,-0.71929383,2.084883,0.14080444,148.31813,-56.938995,26.114948,CSI
2252310587000,1.73995,10.665195703151,1.12114964480761,8.76848324958403,-0.4908302,2.084883,0.012217305,147.51025,-56.00197,26.647478,CSI
2252315613000,1.744976,10.7302674025062,-0.130229056671173,9.56936505990017,-0.28893927,2.0286834,-0.093767814,146.7108,-55.135822,27.13686,CSI
2252320537000,1.7499,10.2925170462442,-1.09861207922283,9.59788820846832,-0.09712757,1.9172006,-0.17592919,145.9026,-53.96152,27.760473,CSI
2252325557000,1.75492,9.25958811128829,-1.78454135279396,8.74249423834662,0.07147124,1.7913623,-0.1872302,145.11028,-52.865505,28.3429,CSI
2252330547000,1.75991,8.14435008806828,-2.36670205998687,7.8766067276711,0.19761491,1.7614299,-0.118202426,144.32445,-51.61649,28.968706,CSI
2252335571000,1.764934,5.96489341398326,-1.76261345115707,6.81846463648449,0.26389378,1.8191566,-0.037873644,143.5275,-50.432144,29.551853,CSI
2252340619000,1.769982,3.77502532266535,-1.1556390687182,5.75526772639094,0.32528573,1.8362609,0.020463986,142.74323,-49.43229,30.013014,CSI
2252345632000,1.774995,2.51023972868418,0.320738336459001,5.17513633902924,0.3381139,1.7403551,0.116980694,141.94487,-48.425648,30.48931,CSI
2252370485000,1.799848,-1.39147085869397,9.91445140614733,3.53738139771309,0.084910266,1.8295414,1.0021244,137.99693,-46.35462,30.217693,CSI
2252375446000,1.804809,-1.61839356882851,10.8923859798422,4.13384838251047,-0.016493361,1.6722436,1.1600331,137.33206,-46.70511,29.614103,CSI
2252380473000,1.809836,-1.60432913014899,11.4690282594216,5.14648875068653,-0.16676621,1.3530666,1.2421945,136.69344,-47.01118,29.06905,CSI
2252385452000,1.814815,-1.67645843732458,11.6000813362948,6.20084957148915,-0.33322698,0.8735373,1.2168436,136.13849,-47.407806,28.465305,CSI
2252390447000,1.81981,-1.79719583247855,11.4841731303382,7.28748602701666,-0.45845437,0.23976462,1.0714576,135.72418,-47.778084,27.941982,CSI
2252395471000,1.824834,-1.53867609926478,11.2330095489987,7.65225970148012,-0.61178154,-0.39187005,0.8530733,135.39883,-48.08574,27.385511,CSI
2252400553000,1.829916,-1.07726617208281,10.9081391223759,7.63813481909645,-0.7275405,-0.9300423,0.6206391,135.2531,-48.387547,26.897724,CSI
2252405455000,1.834818,-0.592753376267888,10.5245649868346,7.65698870852891,-0.79198676,-1.3130548,0.40408736,135.18251,-48.568275,26.388206,CSI
2252410455000,1.839818,-0.0719768116809769,10.086016522801,7.69810271348979,-0.8258898,-1.6762142,0.20799962,135.29518,-48.752644,25.934494,CSI
2252415514000,1.844877,0.304007769133509,9.55992634986807,7.44283966565699,-0.8323039,-1.9147571,0.12492194,135.49985,-48.841534,25.631123,CSI
2252420593000,1.849956,0.529884975602111,8.94903119841689,6.88841382788391,-0.7632761,-2.1206186,0.004581489,135.8364,-48.972008,25.339787,CSI
2252425475000,1.854838,0.909751902747663,7.86094738598131,5.97760132341122,-0.6356053,-2.157576,-0.07513642,136.18942,-48.993717,25.191936,CSI
2252430498000,1.859861,1.40428210101682,6.42231418093458,4.79972035743925,-0.48472157,-2.0720549,-0.12736541,136.582,-49.048237,25.043058,CSI
2252435472000,1.864835,1.95761248839421,5.83464188110898,3.91784541527876,-0.33261612,-1.8655825,-0.09254608,136.97134,-49.089733,24.990868,CSI
2252440475000,1.869838,2.58785218832338,6.21278576181322,3.36032558337549,-0.23365596,-1.4834863,-0.115453534,137.31035,-49.17045,24.873339,CSI
2252445498000,1.874861,3.22061133538399,6.59244131103916,2.80057700938986,-0.17165314,-1.0268645,-0.05009095,137.58199,-49.14451,25.010668,CSI
2252450625000,1.879988,3.86647160752808,6.97995753657796,2.22923897657594,-0.12736541,-0.65118235,0.030848695,137.77303,-49.137688,25.096128,CSI
2252456130000,1.885493,4.07504771522763,7.68073086381476,2.18657518010204,-0.07941248,-0.3203988,0.112704635,137.84448,-49.134033,25.132042,CSI
2252460568000,1.889931,3.96245454050236,8.41050187617739,2.48265374617347,-0.03176499,-0.16249016,0.18509217,137.84877,-49.12678,25.152294,CSI
2252465536000,1.894899,3.89099734439252,9.15669702102804,2.78127365070093,0.03604105,0.12522738,0.22357668,137.72339,-49.18565,25.47331,CSI
2252470598000,1.899961,3.87683911962617,9.84101121806854,3.05028011838006,0.053450707,0.2932153,0.2443461,137.57866,-49.229187,25.791672,CSI
2252475532000,1.904895,3.87313434285714,10.4010954285714,3.36693166428571,0.057421334,0.44776422,0.20463985,137.45181,-49.39665,25.899563,CSI
2252480570000,1.909933,3.88278778791517,10.8306741368547,3.76272316366547,0.02443461,0.5335908,0.18875736,137.289,-49.546967,25.998434,CSI
2252485601000,1.914964,3.71254816760179,11.145174975453,4.05420576432885,-0.0125227375,0.49877146,0.18753563,137.15648,-49.7698,25.999006,CSI
2252490596000,1.919959,3.31647639115527,11.3129234821742,4.21263445544516,-0.07360926,0.48502702,0.20341812,136.99199,-49.97396,25.982794,CSI
2252495571000,1.924934,2.96085552362266,11.568418246208,4.39049122423916,-0.15485434,0.43035457,0.18845193,136.85109,-50.182194,25.911215,CSI
2252500624000,1.929987,2.66252188415696,11.9709315531852,4.6035867516391,-0.23335053,0.38362336,0.15241088,136.70972,-50.37241,25.840515,CSI
2252505509000,1.934872,2.38128126426429,11.9973984711232,4.78908072521041,-0.29260445,0.28191432,0.1469131,136.59824,-50.592167,25.686193,CSI
2252510544000,1.939907,2.10606276735997,11.2836963539712,4.93835164641579,-0.38789943,0.16279559,0.12095132,136.51122,-50.791683,25.532225,CSI
2252515522000,1.944885,1.84279280483888,10.6383473274585,4.93674140300344,-0.5018258,0.03145956,0.016493361,136.47209,-51.045288,25.282455,CSI
2252520550000,1.949913,1.60175570737303,10.1562728179164,4.51492665285223,-0.6453791,0.025961773,-0.046731193,136.42615,-51.25997,25.043146,CSI
2252526002000,1.955365,1.27766645574546,9.79868466237181,4.30360508566921,-0.75533485,0.061086524,-0.09437868,136.37454,-51.3913,24.789509,CSI
2252530596000,1.959959,0.926748517012885,9.70227871268297,4.43086093925848,-0.7703011,0.014049901,-0.10751228,136.35155,-51.512966,24.547958,CSI
2252535573000,1.964936,0.545211332966993,9.59068041487544,4.57151999487364,-0.7492262,-0.076052725,-0.118507855,136.35701,-51.638214,24.30979,CSI
2252540544000,1.969907,0.147029261519921,9.38944857658063,4.74706259573703,-0.7678576,-0.15088372,-0.118202426,136.37117,-51.748802,24.080437,CSI
2252546689000,1.976052,-0.330250931632965,9.15838872914189,4.96039037580289,-0.80970186,-0.2648101,-0.105068825,136.4031,-51.867863,23.791634,CSI
2252550694000,1.980057,-0.486669415396772,9.19097588632116,5.06141073319456,-0.86345804,-0.4260785,-0.074830994,136.4654,-51.972946,23.530214,CSI
2252555603000,1.984966,-0.678394343435854,9.23091854664401,5.18523318873407,-0.9053023,-0.59040123,-0.0290161,136.52783,-52.05755,23.220066,CSI
2252560592000,1.989955,-0.828102636184416,9.21627424533222,5.05103696777928,-0.95447695,-0.6417139,-0.020158553,136.60522,-52.125725,22.920412,CSI
2252565599000,1.994962,-0.933137818233024,9.14625092990508,4.6559043949202,-1.0051788,-0.64721173,-0.016187929,136.70848,-52.173206,22.652687,CSI
2252570597000,1.99996,-0.884857377176518,9.33452003644169,4.66990181931909,-1.0873401,-0.63285637,-0.007330383,136.80972,-52.207695,22.347136,CSI
2252575594000,2.004957,-0.727187159904153,9.70719515894569,4.97568653905751,-1.1710287,-0.7141015,-0.008552114,136.93974,-52.22706,22.060492,CSI
2252580582000,2.009945,-0.449629538698368,10.0263515292308,5.14306673969231,-1.2409728,-0.84513205,-0.02687807,137.11209,-52.27686,21.782743,CSI
2252585539000,2.014902,-0.0866716713016317,10.3052094707692,5.20946156030769,-1.3136657,-0.9468411,-0.02565634,137.29498,-52.300194,21.52156,CSI
2252590558000,2.019921,0.324874836055237,10.6718744535735,5.25618630791922,-1.3643675,-1.0051788,-0.03604105,137.49976,-52.307034,21.26873,CSI
2252595649000,2.025012,0.802680914634726,11.1593334199168,5.27549158956642,-1.4132367,-1.0619892,-0.043676864,137.73001,-52.292976,21.037502,CSI
2252600553000,2.029916,1.23340643854819,11.3113000901126,5.23778225744681,-1.4498887,-1.1279627,-0.040011674,137.99399,-52.261093,20.877264,CSI
2252605457000,2.03482,1.62225407416964,11.0128817518051,5.12022350523732,-1.4672983,-1.1866057,-0.07666359,138.27792,-52.22746,20.717894,CSI
2252610435000,2.039798,2.03739034713103,10.7269526054286,4.93406034134318,-1.4822645,-1.1695015,-0.15668693,138.59526,-52.20731,20.616535,CSI
2252615512000,2.044875,2.50803007102086,10.4746513918771,4.58957152821076,-1.4880677,-1.1023064,-0.18692477,138.91081,-52.1802,20.52341,CSI
2252620440000,2.049803,2.95000691870339,10.1927113275331,4.37466754309436,-1.4584408,-0.94806284,-0.17989981,139.20692,-52.10848,20.507282,CSI
2252625442000,2.054805,3.36440259976136,9.82118363696928,4.43182557664313,-1.4031575,-0.81061816,-0.17287487,139.49292,-52.046017,20.477367,CSI
2252630466000,2.059829,3.73563041541319,9.48619590064996,4.47966022831941,-1.3515394,-0.72173727,-0.15760323,139.77515,-51.967087,20.557295,CSI
2252635448000,2.064811,3.99651107475498,9.24500398400908,4.50427160642732,-1.3106114,-0.56382865,-0.12950343,139.99832,-51.89605,20.60889,CSI
2252640440000,2.069803,4.10457296448276,8.98726473517241,4.74902609606897,-1.2730432,-0.4202753,-0.11178834,140.1807,-51.75359,20.749197,CSI
2252645448000,2.074811,3.92974121748769,8.69902892512315,5.40110188862069,-1.2186762,-0.46211955,-0.13225232,140.37012,-51.62878,20.888746,CSI
2252650624000,2.079987,3.88553176068318,8.42154086271244,5.93176725678532,-1.2333369,-0.3811799,-0.112704635,140.4753,-51.44161,21.0612,CSI
2252655528000,2.084891,4.08805124565824,8.19519528523717,6.17796737921705,-1.2229522,-0.2883284,-0.04153884,140.58131,-51.27065,21.242271,CSI
2252660879000,2.090242,4.29761240214036,7.96070029560609,6.4608647225355,-1.2070698,-0.07574729,0.037873644,140.57361,-50.995674,21.329899,CSI
2252665558000,2.094921,4.24689123325787,8.01142141634081,7.00035390401317,-1.174083,0.008246681,0.07238753,140.57184,-50.727722,21.42799,CSI
2252670746000,2.100109,4.19591678075079,8.03721113090909,7.57076491205789,-1.1731668,0.20219639,0.1282817,140.44382,-50.357628,21.539639,CSI
2252675523000,2.104886,4.2124698743555,7.69373614545454,7.76112462428765,-1.1548407,0.37568212,0.14630222,140.30298,-50.006504,21.637945,CSI
2252680573000,2.109936,4.22996895802804,7.33063196363636,7.96236317290819,-1.1786644,0.4981606,0.2761111,140.06258,-49.56932,21.704405,CSI
2252685604000,2.114967,4.2732565170333,6.43442850778002,8.12964862608476,-1.1612549,0.5842926,0.29718593,139.80891,-49.169006,21.725622,CSI
2252690546000,2.119909,4.32101478823411,5.44582958105954,8.28725130005046,-1.0885619,0.6395759,0.29535335,139.51932,-48.767075,21.754929,CSI
2252695600000,2.124963,4.2005731897014,5.43715460756217,8.53126575677175,-1.0693196,0.71593404,0.2864958,139.17249,-48.286613,21.778358,CSI
2252700668000,2.130031,4.04801697241379,5.6166324137931,8.79150851724138,-1.0525209,0.77213365,0.27947086,138.82402,-47.83171,21.793535,CSI
2252705523000,2.134886,3.80267709755456,5.5706673650802,9.04314461504076,-0.9969321,0.81306165,0.2660318,138.41345,-47.256256,21.839266,CSI
2252711244000,2.140607,3.46171723139627,5.40258830638969,9.34088432947673,-0.9633345,0.79412484,0.23915374,138.01567,-46.692078,21.877874,CSI
2252715552000,2.144915,3.17656773863636,5.24266620475986,9.64307949914237,-0.9401216,0.77182823,0.23243423,137.60089,-46.150234,21.854452,CSI
2252720560000,2.149923,2.80637410227273,5.01129510150086,10.1006801303602,-0.93126404,0.6918049,0.22204952,137.21907,-45.62689,21.836094,CSI
2252725523000,2.154886,2.58445059284388,4.90578361785121,10.469110843973,-0.9108001,0.6389651,0.22693644,136.80873,-45.086994,21.747269,CSI
2252730588000,2.159951,2.48960932199628,4.91052577299834,10.7678606763124,-0.89675015,0.57360244,0.25870144,136.42603,-44.553936,21.677998,CSI
2252735531000,2.164894,2.51769757534197,5.00531650455955,11.003673518603,-0.8738427,0.5360342,0.2938262,136.0084,-43.98125,21.540615,CSI
2252740549000,2.169912,2.67546073146088,5.19813811947839,11.1833482114718,-0.86590147,0.49754974,0.35124752,135.605,-43.409546,21.42671,CSI
2252745562000,2.174925,2.8217723220693,5.33766092964712,11.3597750662559,-0.8558222,0.45753807,0.41599923,135.19029,-42.82107,21.295753,CSI
2252750717000,2.18008,2.94423556136673,5.34951227340962,11.5335934822757,-0.88056225,0.453262,0.4783075,134.7745,-42.22842,21.176233,CSI
2252755640000,2.185003,3.06118736099064,5.36083024922782,11.6995892266144,-0.88117313,0.45662177,0.5140431,134.36961,-41.64808,21.081602,CSI
2252760569000,2.189932,3.1257597101902,5.40503967361941,11.8436621376459,-0.8723156,0.46670106,0.5717699,133.95502,-41.064346,21.002583,CSI
2252765582000,2.194945,3.17869561752274,5.45797553488928,11.9848248642837,-0.8604037,0.48838675,0.63041294,133.53757,-40.48827,20.926554,CSI
2252770563000,2.199926,3.17094502374415,5.55182279860635,11.982629176079,-0.8549059,0.50243664,0.6844745,133.10541,-39.890747,20.874548,CSI
2252775536000,2.204899,3.12636584146646,5.6707008248986,11.8934710184087,-0.850019,0.49541172,0.72234815,132.67181,-39.30372,20.828716,CSI
2252780559000,2.209922,3.10565840198486,5.72818876509106,11.8588599598936,-0.8384125,0.40561453,0.75411314,132.2452,-38.716927,20.804422,CSI
2252785615000,2.214978,3.09575042146511,5.75791281010845,11.8489517724575,-0.7993172,0.21746802,0.7761043,131.84103,-38.14836,20.806181,CSI
2252790611000,2.219974,2.97896908350217,5.84146426628075,11.7806782344428,-0.7901542,0.017715093,0.80939645,131.4653,-37.608875,20.828676,CSI
2252795646000,2.225009,2.82544909175109,5.94381073314038,11.6922881172214,-0.7849618,-0.15057829,0.8231409,131.1251,-37.08986,20.88339,CSI
2252800629000,2.229992,2.55336902276456,6.0628159840443,11.4740643062961,-0.782213,-0.28160888,0.82650065,130.81772,-36.58629,20.972797,CSI
2252805546000,2.234909,2.22984837243642,6.18836143445447,11.1988297858901,-0.7819075,-0.41813725,0.79198676,130.5527,-36.09728,21.092955,CSI
2252810528000,2.239891,2.60901313729309,6.09581949970789,10.3109381148978,-0.83077675,-0.5326745,0.75655663,130.32385,-35.636333,21.207687,CSI
2252815680000,2.245043,3.29602165203505,5.90845344993184,9.13870009347614,-0.8671232,-0.6417139,0.71837753,130.1306,-35.192486,21.342314,CSI
2252820536000,2.249899,3.75457775740516,5.7428376591481,8.38278553266847,-0.8680395,-0.6945538,0.68630713,129.98058,-34.812355,21.437359,CSI
2252825543000,2.254906,4.13446798031503,5.5774736556063,7.774961213347,-0.8362745,-0.7156286,0.6835582,129.848,-34.439495,21.546305,CSI
2252830552000,2.259915,4.41928812898859,5.4255526932895,7.13135207522723,-0.7687739,-0.6591236,0.6948592,129.77106,-34.133293,21.830944,CSI
2252835575000,2.264938,4.61464504235158,5.28601217965577,6.45225432604912,-0.7101309,-0.5137377,0.73364913,129.67572,-33.83437,22.098963,CSI
2252840526000,2.269889,4.73729363079987,5.1688260789536,6.04941673840026,-0.6423248,-0.3118467,0.7806858,129.58107,-33.574207,22.461641,CSI
2252845550000,2.274913,4.77355118274303,5.07559201853806,5.97690163451394,-0.5235115,-0.16249016,0.8023715,129.467,-33.343025,22.799465,CSI
2252851255000,2.280618,4.69838637188739,5.0512489666931,5.97143230556106,-0.4465425,-0.04550946,0.8390234,129.34007,-33.15049,23.206776,CSI
2252855561000,2.284924,4.59210346712926,5.06760015654243,6.00004684511301,-0.41447207,-0.015271631,0.86437434,129.20119,-32.976067,23.59634,CSI
2252860538000,2.289901,4.44008278049553,5.18287238861039,6.09787549068472,-0.40683624,0.07544186,0.8863655,129.02066,-32.803497,23.962177,CSI
2252865582000,2.294945,4.26380275502737,5.37306950421588,6.24632206246999,-0.35796702,0.13927728,0.9056077,128.83614,-32.646664,24.326178,CSI
2252870542000,2.299905,4.12066914521277,5.53270915135025,6.49468248716244,-0.32834008,0.19058995,0.9282097,128.63103,-32.488018,24.642134,CSI
2252875549000,2.304912,4.0078545106383,5.66514368674304,6.85274572831424,-0.32895094,0.21594086,0.929126,128.42188,-32.335342,24.94482,CSI
2252880547000,2.30991,4.016710549233,5.76382414790159,7.0935862498987,-0.3304781,0.18081611,0.91965765,128.21835,-32.212208,25.189087,CSI
2252885635000,2.314998,4.13423790043415,5.83434044081042,7.23461913024602,-0.35308012,0.09040806,0.8888089,128.02805,-32.088043,25.433447,CSI
2252890517000,2.31988,4.29082648210536,5.80785318381971,7.23601032279688,-0.37201694,0.017104227,0.85154617,127.8237,-31.958717,25.621092,CSI
2252895578000,2.324941,4.50555594321487,5.66781190667437,7.07729701184629,-0.43799037,-0.03940081,0.8393288,127.63656,-31.814901,25.82144,CSI
2252900640000,2.330003,4.73566428149005,5.46346302595013,6.80756692570883,-0.4914411,-0.086437434,0.8042041,127.476,-31.673609,26.03089,CSI
2252905562000,2.334925,4.98210757441182,5.16962680159863,6.38103019643073,-0.54336464,-0.11942416,0.7699956,127.32804,-31.52027,26.244345,CSI
2252910517000,2.33988,5.15667073348919,4.74545045856224,5.98941088521333,-0.55833083,-0.112399206,0.71837753,127.19136,-31.353676,26.514128,CSI
2252915579000,2.344942,5.21805919423339,4.10795753319696,5.64941474710695,-0.5479461,-0.08674286,0.67011917,127.06718,-31.18749,26.77704,CSI
2252920728000,2.350091,5.34904580176481,3.63520306676568,5.27565078657173,-0.49510628,-0.04550946,0.5879578,126.971504,-31.024742,27.12568,CSI
2252925538000,2.354901,5.58246695762712,3.47824754745763,4.88124965508475,-0.43860126,0.047647487,0.5516113,126.86374,-30.86732,27.44999,CSI
2252930670000,2.360033,5.82216345738342,3.32062038120765,4.45897299375249,-0.33964106,0.1600467,0.56046885,126.70661,-30.65968,27.838211,CSI
2252935635000,2.364998,5.94060893471503,3.2874555070546,4.03256849370267,-0.23487769,0.27916542,0.589485,126.53656,-30.470387,28.195313,CSI
2252940695000,2.370058,6.04808850940106,3.2522547631876,3.6177345878696,-0.115453534,0.42394048,0.6267477,126.35193,-30.312037,28.689056,CSI
2252945592000,2.374955,5.98882961167551,3.20089698582259,3.45971036557998,0.009162978,0.5390886,0.67256266,126.143,-30.171682,29.160427,CSI
2252950653000,2.380016,5.9275861398787,3.14781924205206,3.29639392918878,0.12156218,0.57604593,0.72418076,125.954575,-30.09196,29.780346,CSI
2252955635000,2.384998,5.83726011030372,3.08490073192355,3.26833787897625,0.2565634,0.64721173,0.7443393,125.73893,-30.037895,30.355192,CSI
2252960540000,2.389903,5.73503590053931,3.01823273674898,3.29944970597029,0.31948254,0.6630942,0.77763146,125.51443,-29.975782,30.932585,CSI
2252965578000,2.394941,5.61949331254012,3.00236578902204,3.41727037103574,0.4251622,0.64751714,0.8045095,125.27105,-29.953876,31.553465,CSI
2252970549000,2.399912,5.49724298711748,3.02783458465654,3.60064575279264,0.5161811,0.6044512,0.84391034,125.02503,-29.926683,32.170246,CSI
2252975544000,2.404907,5.33904911542249,3.11351092260193,3.74571135499311,0.5946773,0.5656612,0.88361657,124.76401,-29.894245,32.732094,CSI
2252980569000,2.409932,5.16369274847351,3.22725551414221,3.87367406377782,0.64873886,0.54519725,0.9309586,124.501366,-29.861078,33.29581,CSI
2252985529000,2.414892,5.00552106416132,3.27870646426131,4.06008329144238,0.6786713,0.5271767,0.96944314,124.18188,-29.806175,33.789303,CSI
2252990561000,2.419924,4.8529306223648,3.29878427424381,4.28093794335472,0.70402217,0.49388456,1.0085385,123.86285,-29.74826,34.289845,CSI
2252995559000,2.424922,4.69569342194772,3.41260966253794,4.63753717127319,0.71685034,0.46731192,1.0403035,123.518814,-29.696413,34.701374,CSI
2253000776000,2.430139,4.51454884472175,3.81281281463744,5.42109287338954,0.7333437,0.45875978,1.0616838,123.17549,-29.64205,35.114365,CSI
2253005621000,2.434984,4.34632084459528,4.18447934174536,6.14877686356661,0.72692966,0.48441613,1.0754282,122.791824,-29.569653,35.420742,CSI
2253010526000,2.439889,4.27800462504378,4.44927183285902,6.6260118982049,0.6918049,0.52503866,1.0714576,122.40981,-29.492527,35.72159,CSI
2253015652000,2.445015,4.23138543876231,4.69855847552743,7.07273965719644,0.6417139,0.57360244,1.044885,122.02728,-29.411497,36.008553,CSI
2253020534000,2.449897,4.3322143254571,4.77308416244726,7.2568622387248,0.57757306,0.61422503,1.0216721,121.598755,-29.349606,36.07295,CSI
2253025550000,2.454913,4.43581073997187,4.84965541308017,7.44603857402719,0.4914411,0.6398814,1.0021244,121.15958,-29.294119,36.049004,CSI
2253030600000,2.459963,4.69253553009064,4.87551334712375,7.49244823923539,0.41141775,0.74281216,0.945314,120.71654,-29.239855,35.98758,CSI
2253035566000,2.464929,4.95715202433815,4.8968533762003,7.52659237489006,0.37659842,0.8393288,0.852157,120.28986,-29.189703,35.912098,CSI
2253040549000,2.469912,5.05899264377953,4.90640969004169,7.5462007480315,0.40408736,0.8671232,0.79504114,119.840675,-29.127958,35.824898,CSI
2253045572000,2.474935,5.09018586929134,4.91086594488189,7.55956904724409,0.4071417,0.8872818,0.77182823,119.39529,-29.067585,35.70848,CSI
2253050674000,2.480037,5.14737613290384,4.8213007215419,7.50556379925461,0.37048978,0.9275989,0.7632761,118.952644,-28.993145,35.630848,CSI
2253055610000,2.484973,5.22288116461506,4.66022344670429,7.39985708073688,0.3268129,0.91874135,0.7519751,118.52913,-28.925116,35.55635,CSI
2253060548000,2.489911,5.26578126977354,4.45901884138125,7.37635840037432,0.23426682,0.89369583,0.7415904,118.098206,-28.836788,35.482056,CSI
2253065594000,2.494957,5.2929145930189,4.23290718472768,7.39444731401834,0.19211712,0.7965683,0.74220127,117.69006,-28.752499,35.427296,CSI
2253070571000,2.499934,5.46911111125799,4.09761752894138,7.36743360056344,0.14508049,0.68936145,0.7171558,117.28862,-28.628313,35.414204,CSI
2253075546000,2.504909,5.77886046546755,4.04083024077365,7.30032128720338,0.09407325,0.625526,0.72356987,116.89479,-28.491446,35.418243,CSI
2253080551000,2.509914,5.95966631534681,4.11354449939924,7.31959894418351,0.049480084,0.6010914,0.7684685,116.48178,-28.297693,35.459114,CSI
2253085630000,2.514993,6.07920912856363,4.25079733162206,7.38158401070453,-0.021685716,0.6093381,0.80573124,116.08096,-28.091742,35.50481,CSI
2253090528000,2.519891,6.29079405773355,4.3682672413178,7.39607269360693,-0.073303826,0.57848936,0.83291477,115.67606,-27.848608,35.64643,CSI
2253095576000,2.524939,6.61481355973397,4.47295036253867,7.36117840661992,-0.13347405,0.5665775,0.8359691,115.26774,-27.59129,35.77926,CSI
2253100663000,2.530026,6.91926726238086,4.5338769652606,7.29636361660921,-0.16890424,0.50335294,0.83169305,114.88188,-27.34148,35.94267,CSI
2253106319000,2.535682,7.23782858698033,4.56133913358345,7.19749975329548,-0.18845193,0.4392121,0.82711154,114.50346,-27.08728,36.10441,CSI
2253110530000,2.539893,7.29791126340638,4.48769738718128,7.32854469516932,-0.18845193,0.39492437,0.8246681,114.15239,-26.833803,36.338696,CSI
2253115613000,2.544976,7.26397191039841,4.34224273507968,7.60975736683267,-0.17348573,0.34422258,0.850019,113.81341,-26.580347,36.585728,CSI
2253120557000,2.54992,7.30570686916409,4.30486034063963,7.61368538370031,-0.10323623,0.32162055,0.8558222,113.487015,-26.33422,36.905598,CSI
2253125570000,2.554933,7.40615296498954,4.34790861034174,7.40800974020125,-0.12583824,0.33628133,0.8888089,113.15225,-26.06669,37.22607,CSI
2253130551000,2.559914,7.32084866856228,4.5164169383719,7.28420370670441,-0.129198,0.3472769,0.93370754,112.76672,-25.775537,37.506523,CSI
2253135610000,2.564973,7.08230087685869,4.7907468386345,7.22456683142951,-0.10751228,0.3313944,0.9624182,112.38369,-25.488096,37.7832,CSI
2253140615000,2.569978,6.83886705482848,5.00102821865091,7.20681371173249,-0.0983493,0.28221974,1.0256428,112.00651,-25.199295,38.12338,CSI
2253145590000,2.574953,6.54586670770635,4.79043417882195,7.47234519414817,-0.061086524,0.23396139,1.0436633,111.642296,-24.92967,38.454002,CSI
2253150811000,2.580174,6.22672872172581,4.64530412720968,7.73271996848387,-0.06352998,0.10140363,1.0305296,111.34547,-24.7341,38.739906,CSI
2253155545000,2.584908,5.81723684364516,5.29610379074194,7.78025032109677,-0.0983493,0.04428773,1.0326678,111.037254,-24.536346,39.0167,CSI
2253160552000,2.589915,5.38413041492742,5.98443372637903,7.83052165095161,-0.09468412,-0.025961773,1.0690142,110.68774,-24.30661,39.241085,CSI
2253165569000,2.594932,5.08908628177507,6.60756923018246,7.89414769442326,-0.12858713,0.022296581,1.0858129,110.335365,-24.069746,39.441998,CSI
2253170552000,2.599915,4.90707554205752,7.17327816111741,7.9679356974848,-0.2519819,0.08582657,1.0968086,109.9878,-23.813457,39.654617,CSI
2253176144000,2.605507,4.88604484113346,7.5247966928702,8.18144681535649,-0.38789943,0.1695151,1.1218541,109.733284,-23.729025,39.687416,CSI
2253180546000,2.609909,4.94598786676823,7.68321772516758,8.4040927415194,-0.54611355,0.23090707,1.1554517,109.46726,-23.611818,39.71234,CSI
2253185594000,2.614957,5.05629905540141,7.77946523054167,8.48826222095277,-0.6719518,0.25381452,1.2238685,109.24767,-23.568304,39.662426,CSI
2253190521000,2.619884,5.18625866960114,7.82759834652657,8.47863539671529,-0.795652,0.28496864,1.244638,109.02086,-23.494984,39.59545,CSI
2253195556000,2.624919,5.28954775485275,7.76157984335988,8.54214632172624,-0.9025534,0.27916542,1.276403,108.77622,-23.397743,39.5183,CSI
2253200693000,2.630056,5.38066832517133,7.63856672376366,8.64237919170217,-0.945314,0.26175576,1.3185526,108.52027,-23.281948,39.443836,CSI
2253205540000,2.634903,5.43746036793224,7.44164760535436,8.75168829117991,-0.9923506,0.21288654,1.3759739,108.26147,-23.133995,39.409588,CSI
2253210542000,2.639905,5.47010455356308,7.16650264199766,8.87760166209112,-1.0757337,0.13408493,1.4373659,107.99964,-22.96134,39.395397,CSI
2253215571000,2.644934,5.43985951098405,6.86096379967901,8.9946567291604,-1.1759156,0.06994407,1.491733,107.69537,-22.73113,39.41031,CSI
2253220534000,2.649897,5.33973699744207,6.52722159002909,9.09954733704484,-1.2568552,-0.013133603,1.5418239,107.39482,-22.479174,39.457287,CSI
2253225539000,2.654902,5.41096859672557,6.15669020141372,9.20008475051975,-1.3176364,-0.089491755,1.5815301,107.03492,-22.146366,39.53055,CSI
2253230537000,2.6599,5.67467310389813,5.74869421355509,9.29462072557173,-1.3579534,-0.19730948,1.6258179,106.68304,-21.79582,39.637527,CSI
2253235584000,2.664947,5.85520564783954,5.35644913731165,9.23887419568905,-1.4068227,-0.27366763,1.676825,106.26156,-21.368174,39.74914,CSI
2253240533000,2.669896,5.96398709764495,4.9875382023351,9.06387783225227,-1.462106,-0.3222314,1.724778,105.845924,-20.930292,39.88198,CSI
2253245940000,2.675303,6.10546788176447,4.54049096927924,8.8300084428909,-1.4819591,-0.44165558,1.7629571,105.38389,-20.405836,40.103676,CSI
2253250738000,2.680101,6.24572349397401,4.11519995313115,8.5947410923592,-1.5467108,-0.4810564,1.7760907,104.9136,-19.866135,40.312874,CSI
2253255592000,2.684955,6.34607685353855,3.76308477840603,8.33355252197526,-1.5500705,-0.5235115,1.7983873,104.41552,-19.275097,40.6094,CSI
2253260547000,2.68991,6.41227193026132,3.47182616434483,8.04670691302892,-1.5790867,-0.6056729,1.8219056,103.92899,-18.673706,40.917892,CSI
2253265573000,2.694936,6.54914440692234,3.20556821585301,7.77950691052238,-1.527774,-0.65057147,1.8307631,103.38616,-18.01929,41.304314,CSI
2253270555000,2.699918,6.80398709195599,2.99150049454118,7.55524538175409,-1.4401149,-0.6936375,1.8393153,102.85029,-17.37406,41.70114,CSI
2253275538000,2.704901,6.91015910657868,2.72316637782444,7.2418632834933,-1.3814718,-0.7287622,1.861001,102.28973,-16.692194,42.174892,CSI
2253280595000,2.709958,6.8617389130174,2.39390875824835,6.83029138542291,-1.3469579,-0.73823065,1.9159788,101.71719,-16.02666,42.642696,CSI
2253285771000,2.715134,6.83388473190528,2.1430613029229,6.58364234445472,-1.3231341,-0.7156286,1.949271,101.13464,-15.340768,43.196545,CSI
2253290543000,2.719906,6.82684199334258,1.98577280499307,6.50617185256588,-1.3078625,-0.68630713,1.9547688,100.54189,-14.666625,43.735523,CSI
2253295643000,2.725006,6.81931517719217,1.81767319488365,6.42337648193867,-1.2690725,-0.70157874,1.9599612,99.905495,-13.955734,44.357323,CSI
2253302853000,2.732216,6.81532484171947,1.54997294886484,6.31733084431538,-1.212262,-0.743423,1.9547688,99.268295,-13.264305,44.957344,CSI
2253305596000,2.734959,6.87311512557198,1.18011472186906,6.37512115230553,-1.1756102,-0.73731434,1.9394971,98.62682,-12.589296,45.527847,CSI
2253310586000,2.739949,6.97824582787751,0.50727748063358,6.48025189852165,-1.1545353,-0.75900006,1.9104811,97.938385,-11.878677,46.141026,CSI
2253315606000,2.744969,7.06580337347614,-0.0430406145043817,6.61491948005842,-1.1224649,-0.8249735,1.9043725,97.24827,-11.18747,46.743767,CSI
2253320533000,2.749896,7.11634249575463,-0.337084953187926,6.80329173917235,-1.0961977,-0.8979719,1.8866574,96.57426,-10.519348,47.329975,CSI
2253325556000,2.754919,7.16000602187177,-0.556681004374355,7.00817385744861,-1.0650436,-0.9669997,1.8591684,95.72029,-9.719305,47.938354,CSI
2253330549000,2.759912,7.18244897803436,-0.561169595606871,7.24606928651084,-1.0430524,-1.0290025,1.8335121,94.87404,-8.939698,48.538643,CSI
2253335565000,2.764928,7.20106305329027,-0.562247871295922,7.49320750633831,-1.0134255,-1.1557571,1.8264871,93.95207,-8.1212435,49.125267,CSI
2253340550000,2.769913,7.19624458891805,-0.542974416310053,7.7871279967501,-0.9611965,-1.2311989,1.8029687,93.04232,-7.334797,49.686974,CSI
2253345586000,2.774949,7.20647439554523,-0.485392306955743,8.05618649317258,-0.93554014,-1.3084733,1.7363845,92.09902,-6.5596404,50.19919,CSI
2253350562000,2.779925,7.29185129858609,-0.238491352588127,8.18309834674608,-0.9016371,-1.2855659,1.6991217,91.14779,-5.8090196,50.68142,CSI
2253360557000,2.78992,7.46334288739105,0.257444145583963,8.43801876002324,-0.8717047,-1.2391402,1.7253889,89.24887,-4.375442,51.500183,CSI
2253365842000,2.795205,7.55445437570589,0.513062402724086,8.54144251449687,-0.7809912,-1.2284501,1.7980819,88.27943,-3.7041717,51.862293,CSI
2253370475000,2.799838,7.63853511677089,0.672815586867538,8.32703654576464,-0.72021013,-1.1646146,1.9016235,87.29312,-3.0358512,52.182667,CSI
2253375450000,2.804813,7.72882255186659,0.844361473142884,8.09680350142126,-0.6942484,-1.102001,2.0244074,86.34396,-2.4332707,52.46924,CSI
2253380480000,2.809843,7.51845450452511,0.913584505091994,7.69862683421183,-0.64476824,-0.9605856,2.1600194,85.34295,-1.8312088,52.701633,CSI
2253385463000,2.814826,7.27640757155644,0.970536750850323,7.28572321352561,-0.53969944,-0.8668178,2.182927,84.34699,-1.2534395,52.914703,CSI
2253390436000,2.819799,6.75659043263869,1.11356313704139,7.32707526386851,-0.43218717,-0.8686504,2.126422,82.43856,-0.71797234,53.156536,CSI
2253395573000,2.824936,6.18381543523139,1.27239987061931,7.4281531898053,-0.3454443,-0.97402465,2.1111503,82.18903,-0.19376256,53.388348,CSI
2253400594000,2.829957,5.70466794762763,0.91678517024024,7.35342609039039,-0.24220806,-0.9975429,2.0384574,81.90267,0.26440609,53.62086,CSI
2253405518000,2.834881,5.24679519335335,0.491954526116116,7.25429892202202,-0.24404067,-0.8381071,2.0280726,81.59468,0.7274619,53.81834,CSI
2253410502000,2.839865,5.59161057545606,0.0778764287925159,7.0785798840294,-0.19822577,-0.4886922,2.1591032,81.210175,1.1459566,53.860683,CSI
2253415646000,2.845009,6.08539353345139,-0.346777033328433,6.88435856521884,-0.07819075,-0.35430184,2.2519548,80.81108,1.5336018,53.911224,CSI
2253420581000,2.849944,6.55911415897761,-0.754176884721684,6.69802843140662,0.009468411,-0.44012842,2.283109,80.34649,2.015239,53.86527,CSI
2253425523000,2.854886,6.44396565591555,-0.889236968116365,6.82441781577155,0.08368854,-0.46639562,2.282498,79.83798,2.48323,53.756176,CSI
2253431029000,2.860392,6.22336014280016,-0.996974645450477,7.0142411567912,0.06963864,-0.56016344,2.2342396,79.32696,2.9383752,53.6846,CSI
2253435546000,2.864909,6.34898556555173,-0.953486641557951,7.16391102811424,0.08399397,-0.5534439,2.2864685,78.764915,3.5053387,53.72113,CSI
2253440837000,2.8702,6.49509694233845,-0.90562580306462,7.3129028194687,0.06566802,-0.48930305,2.3044891,78.22648,4.0505466,53.758213,CSI
2253445607000,2.87497,6.15077568275577,-1.09878170689769,7.14074216775439,0.029321533,-0.5109888,2.3112087,77.639984,4.621783,53.738804,CSI
2253450578000,2.879941,5.79194528833532,-1.30007688466587,6.9613269476974,-0.00061086525,-0.5674938,2.214081,77.065605,5.1558294,53.69921,CSI
2253455519000,2.884882,5.41370971918599,-1.78393124768698,6.82461154252596,-0.06994407,-0.6545421,2.0748038,76.512566,5.6830254,53.6676,CSI
2253460516000,2.889879,5.02717245318368,-2.32608724416238,6.69409265970838,-0.049785517,-0.79504114,1.9055941,75.985756,6.1600156,53.6655,CSI
2253465709000,2.895072,4.91196481818182,-2.7414989426787,6.28565516745316,-0.049785517,-0.89736104,1.7867808,75.7182743945946,6.40644907711712,53.6658586756757,CSI
2253470506000,2.899869,4.82543192207792,-3.11495735307822,5.88942482214732,0.067500606,-0.9560041,1.7003434,75.47119,6.6340904,53.66619,CSI
2253475507000,2.90487,4.98400167665289,-3.20639196952971,5.58615221507281,0.1572978,-0.9074403,1.6197093,74.972145,7.090095,53.641968,CSI
2253480510000,2.909873,5.1678464214876,-3.26767345269579,5.29388624832743,0.20647246,-0.77457714,1.6303993,74.41316,7.61824,53.586067,CSI
2253485523000,2.914886,5.54275570583942,-3.08692127052068,5.19215507815085,0.24831672,-0.5348125,1.7104226,73.813194,8.211039,53.51946,CSI
2253490498000,2.919861,5.94153282262774,-2.87362193426764,5.11796390783455,0.24678956,-0.34238997,1.8078557,73.207596,8.801083,53.41577,CSI
2253495555000,2.924918,6.4309273785829,-2.33067112961867,5.10779835258307,0.2657264,-0.22785273,1.8710803,72.60917,9.394281,53.336662,CSI
2253501619000,2.930982,7.03980102092669,-1.594130572994,5.11270851597193,0.27366763,-0.13561209,1.9807305,71.980034,10.013109,53.18926,CSI
2253505568000,2.934931,7.34219845251989,-1.21425773584792,5.19511353885057,0.26725355,-0.12156218,2.043955,60.139854,10.5825815,53.107277,CSI
2253510557000,2.93992,7.64213527984085,-0.821382605216622,5.3683167091954,0.23182335,-0.16340645,1.9898936,70.90956,10.987704,53.132504,CSI
2253515611000,2.944974,7.80377303264076,-0.508382603536875,5.59759275003965,0.20922135,-0.1853976,1.96271,70.4206,11.40331,53.13319,CSI
2253520605000,2.949968,7.43966900739096,-0.512175350499604,6.02238056827914,0.20158553,-0.21960606,1.890628,57.475544,11.7903185,53.150585,CSI
2253525587000,2.95495,7.07643988168121,-0.515958983933386,6.44614767089611,0.18387043,-0.16279559,1.7898352,56.784916,12.062401,53.175316,CSI
2253530595000,2.959958,6.51977193422109,-0.712294997004862,6.43639037858804,0.12583824,-0.11178834,1.6902641,56.133434,12.319698,53.21316,CSI
2253535611000,2.964974,5.8750105655464,-0.9965992794145,6.2282393135278,0.023518313,-0.1001819,1.6450601,55.518063,12.570715,53.24698,CSI
2253540563000,2.969926,5.50002793592341,-1.13078067334325,5.9405612625151,-0.0720821,-0.05375614,1.6230689,54.97687,12.81599,53.09748,CSI
2253545585000,2.974948,5.18711490634817,-1.22912472700995,5.62764813958546,-0.1337795,0.06352998,1.5506815,54.504715,13.044496,52.937622,CSI
2253550625000,2.979988,5.00084267875874,-1.35942099847028,5.32907851263112,-0.21533,0.21685717,1.5005904,53.957764,13.371053,52.684887,CSI
2253555545000,2.984908,4.88757870935315,-1.5035753319493,5.0459181590472,-0.25320363,0.31337386,1.4712689,53.459213,13.681894,52.424004,CSI
2253560542000,2.989905,4.89547417447798,-1.59320150796635,4.93241089831766,-0.24129178,0.3924809,1.3949108,52.973118,14.015794,52.137104,CSI
2253565576000,2.994939,4.93364106079169,-1.66953547986145,4.86084789307274,-0.20708331,0.5009095,1.3414601,52.527843,14.344229,51.820637,CSI
2253570782000,3.000145,5.2121011056817,-1.50255376761028,5.00098625122537,-0.19761491,0.56413406,1.2751812,52.086044,14.687635,51.52899,CSI
2253575548000,3.004911,5.52256698426528,-1.29253268582575,5.17904772028609,-0.19333886,0.55833083,1.2009611,51.69086,15.006123,51.237507,CSI
2253580569000,3.009932,5.81634328584853,-1.11018246479985,5.38254183480549,-0.19120082,0.46639562,1.1588113,51.29451,15.326671,50.973995,CSI
2253585614000,3.014977,6.10236520419094,-0.937661337051306,5.59138312262733,-0.17012598,0.30726522,1.1658363,50.90603,15.632285,50.735634,CSI
2253590624000,3.019987,6.07286387525033,-0.91592037786215,5.6679362653538,-0.12950343,0.16829337,1.183246,50.598957,15.854706,50.5564,CSI
2253595632000,3.024995,5.88876931049733,-0.967947120852804,5.67994242716956,-0.076358154,0.15302174,1.1432343,50.31354,16.055431,50.39507,CSI
2253600700000,3.030063,5.66890372278226,-1.02026933080433,5.70920986162988,-0.061086524,0.12889257,1.1362094,50.007523,16.216858,50.273304,CSI
2253605591000,3.034954,5.37565573185484,-1.06997240562394,5.77879409371817,-0.035124753,0.03481932,1.1866057,49.683662,16.368,50.173477,CSI
2253610543000,3.039906,5.13448474280936,-1.24622239531773,5.81183192526604,0.014660766,-0.019547688,1.2296717,49.35194,16.530756,50.03,CSI
2253615578000,3.044941,4.98299018093646,-1.63717583177258,5.78251053872504,0.058948494,0.0571159,1.2183707,49.03596,16.685236,49.87979,CSI
2253620576000,3.049939,4.84706352410517,-1.93843812894156,5.79511618013626,0.05955936,0.15088372,1.1847731,48.698647,16.862118,49.679546,CSI
2253625534000,3.054897,4.73315450890509,-2.11157975782554,5.86801776336244,0.06383542,0.17654006,1.1450669,48.37678,17.02265,49.48258,CSI
2253630536000,3.059899,4.66344722729569,-2.24051517968482,5.92606592962926,0.056199603,0.15271631,1.1129965,47.98952,17.265833,49.235157,CSI
2253635603000,3.064966,4.69285978280634,-2.26992758163451,5.95057630724316,0.057726767,0.109650314,1.105666,47.61836,17.498304,48.9917,CSI
2253640564000,3.069927,4.63582251608827,-2.38539748059687,5.96160266376981,0.07452556,0.06963864,1.0806206,47.22648,17.758392,48.71487,CSI
2253645558000,3.074921,4.4126597980558,-2.66900022077379,5.9476549028677,0.0852157,0.030848695,1.0360274,46.84617,18.007883,48.455956,CSI
2253650581000,3.079944,4.23972899812071,-2.86561796404048,5.9796894681966,0.09987647,0.04153884,0.9618073,46.49387,18.240019,48.204433,CSI
2253655556000,3.084919,4.1966816734008,-2.83978958718829,6.12605003062884,0.1020145,0.03268129,0.8888089,46.15466,18.457924,47.976994,CSI
2253660596000,3.089959,4.15561862998811,-2.81665406062017,6.27360461101644,0.08857546,-0.007941248,0.82253003,45.76897,18.735548,47.70669,CSI
2253665591000,3.094954,4.14614045171389,-2.83087140225877,6.41103747846245,0.09773844,-0.045814894,0.77396625,45.41194,18.991247,47.44904,CSI
2253670677000,3.10004,4.14686074458489,-2.85899924813751,6.54429708878675,0.08307768,-0.057726767,0.70432764,45.1082,19.22007,47.17966,CSI
2253675521000,3.104884,4.27568512252226,-3.05445661950589,6.58871934725654,0.06811147,-0.042760566,0.6215554,44.832066,19.429125,46.9255,CSI
2253681119000,3.110482,4.4142047031054,-3.26533935338863,6.63180423275339,0.020158553,-0.021380283,0.5119051,44.601086,19.620155,46.66523,CSI
2253685587000,3.11495,4.40554814518511,-3.2610110970261,6.57120846289703,-0.024740042,0.0125227375,0.4297437,44.401108,19.79734,46.41009,CSI
2253690912000,3.120275,4.39329956029171,-3.26459422727194,6.49707274315181,-0.07452556,0.064446285,0.4098906,44.18911,20.007769,46.15426,CSI
2253695560000,3.124923,4.35104167079486,-3.41057632638302,6.40103203415034,-0.10293079,0.09101892,0.41508293,44.004826,20.206005,45.908638,CSI
2253700641000,3.130004,4.30484710613619,-3.57015787663761,6.29604433138863,-0.110872045,0.17592919,0.3484986,43.874924,20.388739,45.661293,CSI
2253705522000,3.134885,4.31540872992469,-3.75127849736425,6.16323514978201,-0.1591304,0.21655174,0.29229903,43.740616,20.583849,45.42045,CSI
2253710558000,3.139921,4.35364001395164,-3.95199283830757,6.01030981407055,-0.20555615,0.27000242,0.20738874,43.663883,20.75595,45.173527,CSI
2253715552000,3.144915,4.34545474232225,-4.14551176536547,5.90130999454292,-0.26267207,0.29535335,0.15302174,43.542343,20.983862,44.921864,CSI
2253720680000,3.150043,4.3112216400717,-4.3411295946425,5.81328201732723,-0.2773328,0.29535335,0.10048734,43.46016,21.19077,44.679638,CSI
2253725517000,3.15488,4.27792469840226,-4.5156396519675,5.71544846732402,-0.30634892,0.29260445,0.030543262,43.350826,21.44507,44.458286,CSI
2253730589000,3.159952,4.24244690813476,-4.69302883483977,5.60458018751027,-0.30543262,0.28252518,-0.0125227375,43.25438,21.686638,44.246174,CSI
2253735603000,3.164966,4.17098012982494,-4.8788984761444,5.49496067341524,-0.29565877,0.21380283,-0.041233405,43.120136,21.966557,44.05241,CSI
2253740551000,3.169914,4.05762858910514,-5.07468734451452,5.3867616808742,-0.2843578,0.23762658,-0.105068825,43.035675,22.22442,43.853237,CSI
2253745569000,3.174932,4.09402369412637,-5.10080585219566,5.45773646985362,-0.27275133,0.2565634,-0.16554448,42.899055,22.523043,43.674564,CSI
2253750625000,3.179988,4.22859948126737,-5.0155744516398,5.64614240322401,-0.2501493,0.22968534,-0.21930063,42.783676,22.799856,43.512253,CSI
2253756160000,3.185523,4.33716376636597,-4.94282391009928,5.84384677603689,-0.20586158,0.19058995,-0.26419923,42.64689,23.107695,43.339947,CSI
2253760571000,3.189934,4.39464338888273,-4.90024641193872,5.99499700565439,-0.17806722,0.10629055,-0.3136793,42.52089,23.39635,43.19606,CSI
2253765551000,3.194914,4.45953763511566,-4.85217659991433,6.16564496382603,-0.14752395,0.008857546,-0.3662137,42.438282,23.620079,43.074615,CSI
2253770576000,3.199939,4.52501827513985,-4.80367242211863,6.33783492161971,-0.12980886,-0.027794369,-0.41080686,42.368675,23.82773,42.96726,CSI
2253775532000,3.204895,4.62340618958376,-4.74177167924873,6.44919662751269,-0.0983493,-0.0580322,-0.46731192,42.300835,24.010454,42.89246,CSI
2253780598000,3.209961,4.76132004198985,-4.66296364603046,6.49845151969543,-0.06688975,-0.122478485,-0.51893,42.233967,24.177542,42.841885,CSI
2253785594000,3.214957,4.91340333165956,-4.65690322772392,6.51698904967042,-0.038789943,-0.21105394,-0.5516113,42.22707,24.275873,42.796143,CSI
2253790656000,3.220019,5.08257761903839,-4.71799405029081,6.50759049177976,-0.01282817,-0.26083946,-0.59895337,42.23729,24.35233,42.76832,CSI
2253795571000,3.224934,5.34132267006505,-4.72074000540829,6.52781416315176,0.021380283,-0.27885997,-0.65484756,42.26603,24.383354,42.784233,CSI
2253800677000,3.23004,5.72590674871347,-4.65426850200019,6.58478956752112,0.06291912,-0.38331795,-0.6951646,42.27556,24.400126,42.837307,CSI
2253805524000,3.234887,6.05237748180075,-4.58446657193403,6.56673607536677,0.11942416,-0.52626044,-0.7367035,42.276108,24.39749,42.938168,CSI
2253810544000,3.239907,6.32896523383834,-4.50149028964426,6.43305201687602,0.18478674,-0.6789767,-0.7968737,42.270794,24.371836,43.07386,CSI
2253815547000,3.24491,6.60669845990521,-4.39512788672986,6.2731442371564,0.22266038,-0.7837401,-0.8368854,42.263596,24.293354,43.297234,CSI
2253820560000,3.249923,6.88984510701422,-4.23332968199052,6.05067189042654,0.26511553,-0.86498517,-0.8604037,42.24188,24.192785,43.553055,CSI
2253826123000,3.255486,7.1396908443324,-4.08199091580529,5.81768583940657,0.34422258,-0.87109387,-0.8677341,42.213802,24.047,43.889202,CSI
2253830568000,3.259931,7.28003250650635,-3.98705406876757,5.64432265022787,0.42577308,-0.8695667,-0.8790351,42.178276,23.888252,44.23881,CSI
2253835569000,3.264932,7.4090753027655,-3.84422299479798,5.4553831086666,0.47219884,-0.8518516,-0.8872818,42.136242,23.688835,44.664234,CSI
2253840539000,3.269902,7.48247413488229,-3.63381280501696,5.27922601377609,0.5842926,-0.88178396,-0.8713993,42.0796,23.467686,45.08798,CSI
2253845604000,3.274967,7.56737705608191,-3.42361542467145,5.18629340525672,0.6618725,-0.8536842,-0.82833326,42.026505,23.230154,45.546383,CSI
2253850602000,3.279965,7.66612039746332,-3.22247177771241,5.22286495660147,0.75594574,-0.8167268,-0.80970186,41.971893,22.970835,45.999386,CSI
2253855633000,3.284996,7.7655157056846,-3.02000005145171,5.25967797677262,0.8197812,-0.7742717,-0.77763146,41.91767,22.68353,46.477737,CSI
2253860616000,3.289979,7.81070165631365,-2.86009990173844,5.35802216889729,0.8915578,-0.75136423,-0.74220127,41.86048,22.387577,46.936993,CSI
2253865610000,3.294973,7.84201078156823,-2.71051133012074,5.47282241591504,0.93218035,-0.73731434,-0.7089091,41.801346,22.09734,47.37291,CSI
2253870783000,3.300146,7.87243788209006,-2.55446896940529,5.62325764523891,0.9935723,-0.7443393,-0.6933321,41.801754,21.733353,47.833084,CSI
2253875549000,3.304912,7.87636053437607,-2.39756615469233,6.14103750721898,1.0567969,-0.79809546,-0.6780604,41.783108,21.37622,48.28568,CSI
2253880554000,3.309917,7.88047989541079,-2.23279515434857,6.68478241053627,1.1304061,-0.8762862,-0.66431594,41.819996,20.963303,48.73459,CSI
2253885655000,3.315018,7.73761433558648,-2.11146316779324,6.99151466441352,1.1688906,-0.9443977,-0.66156703,41.8453,20.554955,49.18384,CSI
2253890585000,3.319948,7.54049960596421,-2.01290580298211,7.18862939403579,1.1826351,-0.9783007,-0.6646214,41.858067,20.148472,49.632973,CSI
2253896025000,3.325388,7.32125304037523,-1.90152437782364,7.2812894891182,1.1630874,-0.93309665,-0.66950834,42.007626,19.68264,50.001457,CSI
2253900697000,3.33006,7.13237608908068,-1.80498727133208,7.31906475666041,1.1093313,-0.8570439,-0.6737844,42.157036,19.230175,50.36208,CSI
2253905526000,3.334889,6.89584082530652,-1.75436856949485,7.32807016949485,1.063211,-0.7452556,-0.68569624,42.383896,18.769518,50.65344,CSI
2253910541000,3.339904,6.61789737518391,-1.74023586169691,7.31393746169691,1.0067059,-0.6282749,-0.700357,42.630592,18.327562,50.91837,CSI
2253915554000,3.344917,6.43007105798663,-1.73073065289933,7.29641821159733,0.9431759,-0.54336464,-0.72234815,42.935677,17.886362,51.13542,CSI
2253920556000,3.349919,6.32680924811382,-1.72556756240569,7.27576584962276,0.89949906,-0.50854534,-0.74464476,43.25865,17.45642,51.33197,CSI
2253925525000,3.354888,6.34489684309781,-1.60550026425528,7.18472333548707,0.8564331,-0.5152648,-0.75625116,43.595787,17.054632,51.48049,CSI
2253930584000,3.359947,6.42651749876127,-1.42305410456843,7.05509040852245,0.8228355,-0.52564955,-0.7770206,43.948505,16.65851,51.620743,CSI
2253935591000,3.364954,6.5903545405958,-1.23008942212971,6.96118045510223,0.7516697,-0.50793445,-0.7837401,44.301586,16.287394,51.74196,CSI
2253940543000,3.369906,6.79656646769359,-1.03265248576187,6.88659332023314,0.6762278,-0.44532076,-0.7648033,44.65545,15.930517,51.849247,CSI
2253945536000,3.374899,7.00643329552645,-0.808929944871537,6.78740676910831,0.6068946,-0.39645153,-0.73792523,45.03077,15.55521,51.993156,CSI
2253950626000,3.379989,7.22253613048867,-0.553535566483627,6.65970941323929,0.5390886,-0.33444872,-0.7098254,45.408527,15.203639,52.110317,CSI
2253955524000,3.384887,7.39110598611375,-0.363871288491535,6.57829421055735,0.47983465,-0.25961772,-0.66798115,45.81735,14.82713,52.259045,CSI
2253960533000,3.389896,7.52341904983831,-0.226996004318052,6.53723165389005,0.43188173,-0.20158553,-0.623388,46.2167,14.474319,52.387245,CSI
2253965694000,3.395057,7.61265603549217,-0.132813240896848,6.50138964904568,0.3827071,-0.14630222,-0.59131753,46.654724,14.090124,52.55068,CSI
2253970563000,3.399926,7.63265569054257,-0.107813522766459,6.47638994971049,0.31703907,-0.09621128,-0.5696318,47.082336,13.731974,52.69084,CSI
2253975515000,3.404878,7.71844822641992,-0.132617893146176,6.43977796707353,0.26389378,-0.04153884,-0.56199604,47.53835,13.357747,52.844284,CSI
2253980578000,3.409941,7.86640639002855,-0.204210634883355,6.39204951112314,0.19761491,0.0061086523,-0.5476407,47.983433,13.010545,52.977787,CSI
2253985628000,3.414991,7.98937735802048,-0.303969068464164,6.3590137079961,0.14477506,0.015577064,-0.5311473,48.423565,12.674338,53.108566,CSI
2253990538000,3.419901,8.08566832320819,-0.427771819385666,6.34067257176987,0.09437868,0.016187929,-0.53878313,48.868176,12.353074,53.22546,CSI
2253995546000,3.424909,8.10443442258544,-0.595002873358098,6.33870485280832,0.053145275,0.05497787,-0.535118,49.27448,12.063156,53.345596,CSI
2254000720000,3.430083,8.02099156404161,-0.820789724214958,6.35833847864289,-0.028710667,0.116980694,-0.5360342,49.683685,11.791396,53.45611,CSI
2254005570000,3.434933,7.8938383801948,-1.02216865888799,6.4062152114448,-0.12583824,0.19853121,-0.54550266,50.053818,11.559571,53.559383,CSI
2254010540000,3.439903,7.70066976939935,-1.21533724447037,6.49314104596185,-0.22571471,0.3136793,-0.55680364,63.851192,11.346005,53.633446,CSI
2254015547000,3.44491,7.55484065638573,-1.35283646074811,6.55761874398737,-0.3549127,0.39003745,-0.5833763,64.04054,11.198531,53.67254,CSI
2254020598000,3.449961,7.46691604917249,-1.42225062433751,6.594639582914,-0.4746423,0.40469822,-0.6062838,64.24181,11.067556,53.696404,CSI
2254025522000,3.454885,7.38396816483774,-1.53226385283111,6.6343264700614,-0.56138515,0.45081854,-0.6218608,64.44325,10.991001,53.645004,CSI
2254030587000,3.45995,7.3036047157587,-1.72135470162752,6.6815993426859,-0.6081163,0.59986967,-0.6542367,64.66336,10.920499,53.565594,CSI
2254035584000,3.464947,7.25403466738818,-1.87467390304569,6.65771347998276,-0.73548174,0.6704246,-0.7128797,64.90458,10.887111,53.47804,CSI
2254040596000,3.469959,7.267826043923,-1.95742278629442,6.48302135045494,-0.79412484,0.7461719,-0.7415904,65.140076,10.851768,53.350483,CSI
2254045550000,3.474913,7.28722689148722,-1.99021013099973,6.29236581544946,-0.80970186,0.8368854,-0.7654142,65.38314,10.858566,53.18095,CSI
2254050620000,3.479983,7.32726990294145,-1.85228410974068,6.03431057399432,-0.8008443,0.93676186,-0.77579886,53.26052,10.86897,52.992744,CSI
2254055707000,3.48507,7.3750331120085,-1.70592709300551,5.78856480813448,-0.7965683,1.0213667,-0.75777835,53.58848,10.908589,52.815933,CSI
2254060540000,3.489903,7.51365033156217,-1.46893654203459,5.71702062652884,-0.7669413,1.0351112,-0.7150178,53.907837,10.94709,52.633324,CSI
2254065903000,3.495266,7.67186900934872,-1.20307772697047,5.64427942992372,-0.70280045,0.99387777,-0.68630713,54.22533,10.959694,52.50826,CSI
2254070577000,3.49994,7.90386432028163,-0.909800407256014,5.72307038165461,-0.6435465,0.9233228,-0.6426302,54.508575,10.982712,52.38489,CSI
2254075539000,3.504902,8.15015459260708,-0.59845208452963,5.8067162315666,-0.59437186,0.8524625,-0.54611355,54.792618,10.964472,52.312225,CSI
2254081259000,3.510622,8.40088821686282,-0.239133767513023,6.01539343160332,-0.55741453,0.7996226,-0.46181414,55.049038,10.947091,52.25204,CSI
2254085554000,3.514917,8.5873846909126,0.0306908666689176,6.17808178342659,-0.54428095,0.78801614,-0.3848451,55.25694,10.947052,52.19283,CSI
2254090537000,3.5199,8.69866580801786,0.284932944305274,6.44817791154311,-0.571159,0.7370089,-0.3036,55.497143,10.892761,52.183308,CSI
2254095531000,3.524894,8.79208579890243,0.529604284988373,6.73288631141289,-0.6010914,0.7079928,-0.23335053,55.704872,10.853744,52.164974,CSI
2254100638000,3.530001,8.82523564236396,0.380152210272802,6.8186865,-0.6618725,0.67164636,-0.1853976,55.978233,10.759924,52.16676,CSI
2254105541000,3.534904,8.83203701313312,0.0763531970711216,6.8186865,-0.7281514,0.6722572,-0.14385876,56.2191,10.689554,52.159855,CSI
2254110535000,3.539898,8.83896461778765,-0.233084345643378,6.8186865,-0.8005389,0.6591236,-0.11728613,56.544964,10.572275,52.14073,CSI
2254115715000,3.545078,8.84615023895515,-0.554046794834629,6.8186865,-0.82527894,0.66248333,-0.106901415,56.854843,10.467849,52.113766,CSI
2254120560000,3.549923,8.76811023671836,-0.879405751035518,6.6973977921961,-0.8032878,0.66737026,-0.101098195,57.15023,10.375333,52.088306,CSI
2254125528000,3.554891,8.62530670455228,-1.23165593828914,6.48319149984992,-0.7693848,0.6789767,-0.10262536,57.43946,10.288814,52.059055,CSI
2254130594000,3.559957,8.41300766422441,-1.52871858907264,6.25908366522922,-0.68875057,0.68294734,-0.11728613,57.56704,10.319549,52.01056,CSI
2254135601000,3.564964,8.15202158875863,-1.77464724141721,6.03323086081223,-0.5815437,0.6960809,-0.10842858,57.685944,10.344922,51.954952,CSI
2254140548000,3.569911,7.86761694563969,-1.90114773469728,5.91929288935382,-0.48533243,0.7290677,-0.10415252,57.7065,10.435057,51.90124,CSI
2254145566000,3.574929,7.56509565265691,-1.96788039881503,5.86145795404555,-0.37812558,0.73853606,-0.09040806,57.718704,10.507548,51.849194,CSI
2254151500000,3.580863,7.15799659798866,-1.90046897800364,5.84970359813844,-0.29229903,0.7467828,-0.053145275,57.650963,10.631256,51.784523,CSI
2254155541000,3.584904,6.85575093898577,-1.78039874975928,5.87040534672087,-0.17104226,0.7663304,-0.039095376,57.593292,10.72608,51.71565,CSI
2254160560000,3.589923,6.61309092073932,-1.59493143494959,5.94890267954873,-0.15149458,0.799928,-0.020463986,57.519928,10.85114,51.600693,CSI
2254165577000,3.59494,6.45162762714354,-1.3873359231493,6.05962018628901,-0.12186762,0.79045963,-0.008857546,57.442974,10.953487,51.493706,CSI
2254170561000,3.599924,6.26208701104426,-1.39047015558842,6.21287944732817,-0.09010262,0.77121735,0.015577064,57.41996,11.031754,51.32861,CSI
2254175531000,3.604894,6.04851816390985,-1.57006206350194,6.40217912456659,-0.09010262,0.73975784,0.029321533,57.394188,11.109769,51.1729,CSI
2254180606000,3.609969,5.9226264638679,-1.84946819062413,6.6305942720403,-0.06841691,0.6985244,0.01160644,57.439087,11.13183,50.99335,CSI
2254185749000,3.615112,5.86289185511708,-2.20328120908667,6.88791268261965,-0.059253927,0.559858,-0.029626964,57.469223,11.153601,50.853592,CSI
2254190552000,3.619915,5.88459534882188,-2.36852647824106,7.02181134936488,-0.064751714,0.38240165,-0.087659165,57.490223,11.199449,50.674076,CSI
2254195575000,3.624938,6.00587043093183,-2.33121089227189,7.02647587675749,-0.074830994,0.22235495,-0.15485434,57.515453,11.23275,50.53566,CSI
2254200595000,3.629958,6.18127498090664,-2.26683266460874,7.03721932207232,-0.06505715,0.108123146,-0.19272798,57.481888,11.323188,50.37179,CSI
2254205539000,3.634902,6.44190478459795,-2.15951467337291,7.05766074765245,-0.029626964,0.009162978,-0.23487769,57.45963,11.3936615,50.25643,CSI
2254210655000,3.640018,6.67545263378806,-2.03808771425465,7.07660288451957,-0.0021380284,-0.098043874,-0.26358834,57.439697,11.445684,50.197144,CSI
2254215600000,3.644963,6.86973186320186,-1.91168916855971,7.09298803643238,0.018936822,-0.14874569,-0.2660318,57.420803,11.488397,50.151962,CSI
2254221193000,3.650556,7.08946972571174,-1.76872717339858,7.1115203225089,0.047647487,-0.24617869,-0.2724459,57.41517,11.489463,50.188732,CSI
2254225644000,3.655007,7.26434067619118,-1.65495570183373,7.12626861596975,0.070554934,-0.2761111,-0.26542094,57.40702,11.490251,50.219448,CSI
2254230682000,3.660045,7.38992910328202,-1.5413262595411,7.14625073247168,0.086437434,-0.28985557,-0.26175576,57.399876,11.482634,50.2729,CSI
2254235696000,3.665059,7.44106646647304,-1.44370015046955,7.16949503259754,0.0983493,-0.30482176,-0.24220806,57.378574,11.476899,50.331562,CSI
2254240568000,3.669931,7.44858553372945,-1.35955947054862,7.17291279693008,0.1020145,-0.29352075,-0.22082779,57.414047,11.406905,50.44864,CSI
2254245539000,3.674902,7.39672694721727,-1.28884303272925,7.14934066739949,0.089186326,-0.2874121,-0.20555615,57.44028,11.342041,50.56718,CSI
2254250766000,3.680129,7.34166617836493,-1.22560946330102,7.12239135960367,0.089186326,-0.26175576,-0.17623462,57.48218,11.260339,50.678417,CSI
2254255524000,3.684887,7.29085006897143,-1.18261117607446,7.09502855344428,0.08002335,-0.24587326,-0.16310102,57.523052,11.183879,50.78805,CSI
2254260647000,3.69001,7.23643273979381,-1.13855002193814,7.05968983892783,0.073303826,-0.22724187,-0.14202617,57.566563,11.104496,50.883495,CSI
2254265556000,3.694919,7.18796623340206,-1.12401007002062,6.95306367669072,0.073303826,-0.21655174,-0.12308934,57.605446,11.029589,50.97367,CSI
2254270575000,3.699938,7.14111580747073,-1.10772741854674,6.84850788832931,0.08368854,-0.18325958,-0.09865474,57.6547,10.951442,51.046947,CSI
2254275519000,3.704882,7.11471855937558,-1.08133026233042,6.77811551769188,0.08857546,-0.1414153,-0.079107046,57.699432,10.878917,51.112034,CSI
2254281164000,3.710527,7.08571566751246,-1.05045858770899,6.70040100253737,0.08857546,-0.093462385,-0.06078109,57.73913,10.811368,51.173115,CSI
2254285591000,3.714954,7.07398011450452,-1.0191638600203,6.66519434351356,0.10598512,-0.056505036,-0.042455133,57.773636,10.74559,51.222767,CSI
2254290718000,3.720081,7.06038892853848,-0.982920790478871,6.62442078561543,0.115453534,-0.018020526,-0.021685716,57.80741,10.68338,51.265076,CSI
2254295541000,3.724904,7.0476036174571,-0.948826715113489,6.58606485237129,0.13103059,0.028099801,-0.0009162979,57.838306,10.622345,51.29278,CSI
2254300629000,3.729992,7.03411581675586,-0.912859338903857,6.54560145026758,0.13958271,0.07147124,0.015271631,57.86605,10.565594,51.308792,CSI
2254305559000,3.734922,6.98660377439334,-0.884944023212509,6.52832686837242,0.14630222,0.10751228,0.02687807,57.891117,10.511064,51.31258,CSI
2254310564000,3.739927,6.9184704232917,-0.860610616744847,6.52346024399431,0.14508049,0.14355333,0.038179077,57.914192,10.460914,51.303207,CSI
2254315566000,3.744929,6.88330497703549,-0.834341803131524,6.52780332713987,0.13347405,0.15821409,0.053145275,57.949238,10.401454,51.301956,CSI
2254320575000,3.749938,6.86509646823876,-0.807029096975707,6.53690760530461,0.13225232,0.18295415,0.0580322,57.98862,10.341715,51.288303,CSI
2254325542000,3.754905,6.83651632522452,-0.797434639174151,6.55375735923467,0.12370021,0.19761491,0.067500606,58.027466,10.2869425,51.26495,CSI
2254330579000,3.759942,6.79884483627489,-0.80214357037583,6.57730203982819,0.1160644,0.20158553,0.07696902,58.064682,10.234279,51.238132,CSI
2254335567000,3.76493,6.7585651851904,-0.806875547722295,6.5864191616598,0.11209377,0.20433442,0.08155051,58.112286,10.177632,51.20513,CSI
2254340553000,3.769916,6.71538726679393,-0.81167308864463,6.58162152054657,0.09712757,0.20433442,0.07849618,58.157806,10.125575,51.172577,CSI
2254345548000,3.774911,6.6797362963464,-0.826071677397057,6.58890051102005,0.0870483,0.19058995,0.0693332,58.202744,10.075105,51.134556,CSI
2254350554000,3.779917,6.65133220192555,-0.849741817047497,6.6078366563543,0.083383106,0.15454891,0.07269296,58.239372,10.029093,51.103024,CSI
2254355540000,3.784903,6.64129374503311,-0.880178296688742,6.61072369205298,0.089186326,0.14110987,0.06505715,58.28392,9.981441,51.066032,CSI
2254360570000,3.789933,6.6508166382821,-0.918269695670653,6.59643947647524,0.07238753,0.106901415,0.058948494,58.318108,9.940243,51.04515,CSI
2254365642000,3.795005,6.63785526825677,-0.943033459408127,6.59785586587161,0.07880162,0.08979719,0.048258353,58.3527079983907,9.89893798290083,51.02130874311,CSI
2254370512000,3.799875,6.60123227552022,-0.952189159790931,6.61616736223989,0.067500606,0.074830994,0.03940081,58.38593,9.859278,50.998417,CSI
2254375497000,3.80486,6.57264493910364,-0.953045954607088,6.65495894885108,0.06169739,0.051923547,0.023823744,58.421814,9.821215,50.99135,CSI
2254380504000,3.809867,6.55658309224895,-0.941802655100154,6.72241868886916,0.055283304,0.024740042,0.017715093,58.454174,9.786024,50.98988,CSI
2254385496000,3.814859,6.54056936356937,-0.930593038335901,6.789676332602,0.048563786,-0.004581489,0.016493361,58.48694,9.752497,50.98724,CSI
2254390469000,3.819832,6.52461658457828,-0.919426086379045,6.85667798770684,0.04550946,-0.029932396,0.007330383,58.522186,9.716906,50.99225,CSI
2254395456000,3.824819,6.50861889529041,-0.908227697195686,6.92386826601126,0.040927973,-0.054367006,0.0027488936,58.54867,9.685051,51.00475,SIT
2254400504000,3.829867,6.49242552542373,-0.896892331525424,6.99188040254237,0.03634648,-0.0720821,-0.0036651916,58.57704,9.6518345,51.023052,SIT
2254405437000,3.8348,6.4814941163017,-0.882627428953771,7.05342293917275,0.032986723,-0.07880162,-0.0009162979,58.60118,9.620812,51.04437,SIT
2254410441000,3.839804,6.47683019349878,-0.863971513718735,7.10939079201946,0.031154128,-0.08093964,-0.00030543262,58.626896,9.588966,51.0695,SIT
2254415466000,3.844829,6.47482415387205,-0.85504438989899,7.14249228282828,0.03634648,-0.07452556,0.00580322,58.66197,9.551407,51.05427,SIT
2254420450000,3.849813,6.47718750665478,-0.86213452228164,7.13776555258467,0.019547688,-0.06688975,0.0021380284,58.700104,9.516644,51.04028,SIT
2254425429000,3.854792,6.47954848849772,-0.869217541770648,7.1330435642454,0.004276057,-0.040011674,0.0009162979,58.745148,9.478307,51.010036,SIT
2254430472000,3.859835,6.48193981836998,-0.876391606298277,7.1282608795306,-0.0070249503,-0.01863139,0.0143553335,58.784584,9.445436,50.9789,SIT
2254435489000,3.864852,6.48514523638712,-0.89259662251093,7.12020280803855,-0.0143553335,-0.005497787,0.012217305,58.829445,9.412219,50.943645,SIT
2254440466000,3.869829,6.48988139785374,-0.925749085155008,7.10599437309221,-0.024129177,0.014660766,0.026267206,58.86372,9.388658,50.89914,SIT
2254445461000,3.874824,6.49733105221439,-0.962290762314714,7.08506405829718,-0.039095376,0.025350908,0.024740042,58.89873,9.367569,50.857136,SIT
2254450606000,3.879969,6.51069126493131,-1.00682502946493,7.04943660737527,-0.0421497,0.032375857,0.031154128,58.92525,9.351424,50.809917,SIT
2254455580000,3.884943,6.52313231086154,-1.04918001573325,7.01117350214635,-0.04184427,0.04184427,0.033292156,58.94519,9.343528,50.76114,SIT
2254460523000,3.889886,6.53258391704103,-1.08698624306679,6.94973858011381,-0.04550946,0.052839845,0.03481932,58.9631,9.338343,50.71061,SIT
2254465610000,3.894973,6.54278302317708,-1.12656650476832,6.89104492475754,-0.041233405,0.04642576,0.035430185,58.96497,9.342444,50.669716,SIT
2254470565000,3.899928,6.55556666510417,-1.16917883733836,6.86121627860991,-0.047036625,0.04184427,0.034513887,58.9682,9.348937,50.62627,SIT
2254476327000,3.90569,6.57007787683855,-1.21819738554522,6.82761567193576,-0.046120327,0.037873644,0.037873644,58.956013,9.363064,50.59373,SIT
2254480559000,3.909922,6.57578779760496,-1.24674700925143,6.81809913732507,-0.036651913,0.046731193,0.03268129,58.949123,9.374337,50.560318,SIT
2254485754000,3.915117,6.58279702217526,-1.28179315649948,6.80641709637456,-0.037873644,0.052839845,0.032070424,58.924316,9.399237,50.534832,SIT
2254490560000,3.919923,6.5892813981685,-1.31421505903541,6.7956098030525,-0.03756821,0.03726278,0.029626964,58.901653,9.4202,50.51398,SIT
2254495555000,3.924918,6.59602077771203,-1.34791198021039,6.78437750381328,-0.034513887,0.043982297,0.031154128,58.881298,9.441256,50.485607,SIT
2254500622000,3.929985,6.61390097094761,-1.36455096673548,6.79276427796127,-0.03604105,0.047036625,0.024129177,58.854317,9.462903,50.46193,SIT
2254505881000,3.935244,6.63865500071759,-1.37197715240342,6.81256743974246,-0.03481932,0.04917465,0.02076942,58.82641,9.484236,50.436813,SIT
2254510563000,3.939926,6.66069310061929,-1.37858856166323,6.83019786443527,-0.029321533,0.04550946,0.016493361,58.78316,9.51805,50.41727,SIT
2254515615000,3.944978,6.68447278466529,-1.38572244452964,6.84922155207903,-0.029321533,0.03848451,0.013744468,58.741608,9.551534,50.39862,SIT
2254520533000,3.949896,6.69977342118116,-1.39003333706958,6.87235355357106,-0.03023783,0.03359759,0.01038471,58.702965,9.582465,50.38115,SIT
2254525551000,3.954914,6.70959389892715,-1.39248842446102,6.89935977123736,-0.036651913,0.034208454,0.01038471,58.664837,9.6138935,50.36438,SIT
2254530555000,3.959918,6.71938697797078,-1.39493666226627,6.92629064274037,-0.026572637,0.02687807,0.005497787,58.622105,9.643102,50.352844,SIT
2254535647000,3.96501,6.72935227742924,-1.39742795461326,6.95369511869827,-0.037873644,0.019242255,0.0061086523,58.57812,9.677815,50.341057,SIT
2254540623000,3.969986,6.73817483972723,-1.4010534550374,6.97369742014958,-0.032986723,0.009773844,-0.00580322,58.541553,9.703302,50.333305,SIT
2254546256000,3.975619,6.74766826622085,-1.40580014350198,6.99268417400792,-0.02076942,0.004886922,-0.0030543262,58.499035,9.732264,50.32538,SIT
2254550581000,3.979944,6.75719230439355,-1.40224717631217,6.99879786402595,-0.027183503,-0.005192355,-0.0021380284,58.464447,9.759174,50.316715,SIT
2254555642000,3.985005,6.77148403314331,-1.38795539781797,6.99403403735011,-0.019242255,-0.022602014,-0.004276057,58.42938,9.780712,50.311577,SIT
2254560563000,3.989926,6.77743092750109,-1.37463755664494,6.98664641046502,-0.028099801,-0.027183503,-0.0012217305,58.396805,9.806515,50.30448,SIT
2254565664000,3.995027,6.76893874900478,-1.36189933323772,6.97390805404607,-0.029321533,-0.03634648,0.0015271631,58.363438,9.828481,50.303604,SIT
2254570680000,4.000043,6.76086304663832,-1.34887917140597,6.95617323604904,-0.019242255,-0.03634648,0.00061086525,58.334236,9.8462715,50.304806,SIT
2254575627000,4.00499,6.7561788529563,-1.33014220102828,6.87654120976864,-0.021991149,-0.037873644,-0.013744468,58.30913,9.863695,50.309586,SIT
2254580802000,4.010165,6.74858613734983,-1.31183117170901,6.79781014338224,-0.007941248,-0.050396383,-0.010995574,58.281227,9.87658,50.318493,SIT
2254585627000,4.01499,6.71078994224222,-1.30946891722305,6.77654982834211,-0.016798794,-0.054367006,-0.00580322,58.259834,9.891086,50.326115,SIT
2254590560000,4.019923,6.67214773903686,-1.30705378740351,6.75481363474771,0.0009162979,-0.051923547,-0.004886922,58.23664,9.896161,50.348347,SIT
2254595637000,4.025,6.63237752503451,-1.30456815713921,6.73244293641429,0.003970624,-0.04642576,-0.004276057,58.211777,9.906251,50.36987,SIT
2254600671000,4.030034,6.59969303741024,-1.3011724725617,6.7130233722954,0.0027488936,-0.04184427,-0.0036651916,58.18779,9.913617,50.389545,SIT
2254605470000,4.034833,6.60843516363593,-1.29243041479861,6.71083788638071,0.009773844,-0.05222898,-0.010995574,58.16632,9.91712,50.411938,SIT
2254610452000,4.039815,6.6175106528746,-1.28335499663322,6.70856906145323,0.00580322,-0.03970624,-0.011301007,58.144688,9.926,50.421627,SIT
2254615485000,4.044848,6.62667904655951,-1.27418667474916,6.70627701089923,0.016798794,-0.029321533,-0.011911872,58.12528,9.929087,50.435005,SIT
2254620457000,4.04982,6.6357363192401,-1.26512947299919,6.70401274001617,0.005497787,-0.028710667,0.0009162979,58.100887,9.939658,50.446323,SIT
2254625444000,4.054807,6.64523558725255,-1.25988437858428,6.67824018266347,0.013133603,-0.02565634,-0.009468411,58.088703,9.939436,50.455765,SIT
2254630465000,4.059828,6.6548507369926,-1.25507682881424,6.64939478364327,0.0018325958,-0.01282817,-0.00580322,58.06659,9.95043,50.460075,SIT
2254635454000,4.064817,6.66014657507255,-1.24603046077254,6.63777280531372,0.0067195175,-0.0106901415,0.002443461,58.039772,9.954747,50.471207,SIT
2254640427000,4.06979,6.66491240406284,-1.23649870326228,6.6282410975683,0.014660766,-0.0009162979,-0.002443461,58.019997,9.958241,50.47725,SIT
2254645493000,4.074856,6.66755422758251,-1.22492546208743,6.64392274255185,0.021380283,-0.00030543262,0.004581489,57.98945,9.965083,50.489754,SIT
2254650537000,4.0799,6.66990576974978,-1.2131677512511,6.66273510444455,0.014966198,0.0015271631,0.00030543262,57.96775,9.969074,50.50028,SIT
2254655491000,4.084854,6.67221535339305,-1.20161983303476,6.68121179770714,0.0036651916,0.00580322,-0.0015271631,57.941956,9.973631,50.512005,SIT
2254660473000,4.089836,6.67453799079934,-1.19000664600331,6.6997929212102,0.008552114,0.018325957,0.00030543262,57.91814,9.976189,50.520763,SIT
2254665542000,4.094905,6.69395186911692,-1.1723901651998,6.72646580343365,0.016187929,0.018020526,0.008552114,57.89173,9.981145,50.531292,SIT
2254670538000,4.099901,6.71755605895412,-1.15350676403552,6.75479078194376,0.01160644,0.016187929,0.018020526,57.865723,9.987959,50.538414,SIT
2254675493000,4.104856,6.70826901606767,-1.14372325069577,6.77404398170988,0.011301007,0.015577064,0.01038471,57.863605,9.981241,50.541763,SIT
2254680520000,4.109883,6.68899075540595,-1.13649391238362,6.79091243777155,0.006414085,0.015882496,0.012217305,57.85331,9.98041,50.54386,SIT
2254685553000,4.114916,6.66968948508359,-1.12925594546001,6.80780102725999,0.008246681,0.01985312,0.016187929,57.852055,9.972077,50.545036,SIT
2254690471000,4.119834,6.65082923325658,-1.12218336025628,6.82430372606868,0.012217305,0.02687807,0.016187929,57.852074,9.963875,50.54543,SIT
2254695531000,4.124894,6.65644171735176,-1.1238656273554,6.83840098206621,0.01160644,0.010079277,0.0143553335,57.847076,9.957179,50.550743,SIT
2254700634000,4.129997,6.66977490592033,-1.12831000807566,6.85173412422699,0.008552114,0.01160644,0.022296581,57.840958,9.952517,50.548363,SIT
2254705611000,4.134974,6.66329398290766,-1.13299832927308,6.86286395854617,0.01282817,0.015882496,0.023823744,57.83826,9.943422,50.53961,SIT
2254710528000,4.139891,6.64381755829801,-1.1378674354255,6.872602170851,0.010079277,0.021685716,0.016798794,57.8362,9.936072,50.530277,SIT
2254715582000,4.144945,6.63221725665849,-1.14264665370076,6.88065728055115,0.013439035,0.0125227375,0.024740042,57.825443,9.930984,50.52248,SIT
2254720552000,4.149915,6.6253499418891,-1.14722479980763,6.88752449971144,0.014966198,0.00580322,0.017715093,57.825188,9.921886,50.51438,SIT
2254725517000,4.15488,6.61848953588708,-1.1517983401337,6.89438481020055,0.011301007,0.014049901,0.020158553,57.818214,9.91821,50.499084,SIT
2254730577000,4.15994,6.61149786330496,-1.15645939029481,6.90137638544222,0.009468411,0.0076358155,0.018936822,57.81328,9.9116335,50.490753,SIT
2254735641000,4.165004,6.61236341177796,-1.16097703309002,6.90706111029107,0.012217305,0.0067195175,0.018020526,57.814327,9.903999,50.479336,SIT
2254740556000,4.169919,6.62084695778138,-1.16521876180049,6.91130279471028,0.018936822,0.011911872,0.02107485,57.814037,9.896708,50.468018,SIT
2254745584000,4.174947,6.63358858002606,-1.16729747545802,6.91552751333768,0.016493361,0.01282817,0.026267206,57.812035,9.892779,50.453735,SIT
2254750638000,4.180001,6.65723542337757,-1.16335629374644,6.91946865389626,0.011911872,0.021380283,0.02076942,57.81485,9.886408,50.43683,SIT
2254755548000,4.184911,6.68020851416823,-1.15952740530087,6.92329750236137,0.005192355,0.015271631,0.017104227,57.81203,9.883138,50.42398,SIT
2254760560000,4.189923,6.67685343455378,-1.16267257322654,6.91627343455378,0.0106901415,0.01282817,0.029932396,57.80593,9.881007,50.407238,SIT
2254765607000,4.19497,6.66723566326734,-1.16748150908367,6.90665566326734,-0.004581489,0.013744468,0.0290161,57.80701,9.879912,50.39286,SIT
2254770621000,4.199984,6.66944575314286,-1.16039435207143,6.90886575314286,0.002443461,0.022907447,0.018325957,57.80846,9.87284,50.380516,SIT
2254775544000,4.204907,6.67425662930612,-1.1507725495102,6.91367662930612,-0.004276057,0.027488936,0.023823744,57.80292,9.874345,50.36819,SIT
