timestamp,rel_time,acc_x,acc_y,acc_z,gyro_x,gyro_y,gyro_z,azimuth,pitch,roll,label
2548605109000,0,2.58991659256565,-9.33296448344223,0.0925645055457597,-0.015577064,-0.0012217305,-0.003970624,202.09003,-48.038776,36.14934,STD
2548610097000,0.004988,2.59105236861442,-9.3322830197105,0.0896115041851883,-0.012217305,-0.002443461,0.0009162979,202.0628,-47.22919,36.982613,STD
2548615092000,0.009983,2.59218973857504,-9.33160059963432,0.0866543586767573,-0.015882496,-0.009468411,-0.00061086525,202.02246,-46.41223,37.818893,STD
2548620149000,0.01504,2.59334122604069,-9.33090970907872,0.0836605078587121,-0.01740966,-0.015271631,-0.003970624,201.96931,-45.586823,38.662876,STD
2548625098000,0.019989,2.5944681217234,-9.33023357355179,0.0807305953219302,-0.004581489,-0.005497787,0.0012217305,201.8993,-44.752705,39.514397,STD
2548630133000,0.025024,2.59561459975178,-9.32954568865017,0.0777497689685868,-0.008246681,-0.011301007,-0.0012217305,201.82477,-43.91098,40.37205,STD
2548635161000,0.030052,2.5967594838683,-9.32885876009301,0.0747730867631031,-0.009773844,-0.014660766,-0.013439035,201.73293,-43.06437,41.233414,STD
2548640287000,0.035178,2.59792668275082,-9.32815844271353,0.071738386487584,-0.0067195175,-0.015577064,-0.0076358155,201.62521,-42.206017,42.105347,STD
2548645199000,0.04009,2.59904515347086,-9.32748736215013,0.0688303787323461,-0.005192355,-0.0076358155,-0.010079277,201.5037,-41.344963,42.97714,STD
2548650092000,0.044983,2.60015929785871,-9.32681887737881,0.0659336193784416,-0.015577064,-0.011301007,-0.013439035,201.37,-40.474133,43.8574,STD
2548655232000,0.050123,2.60132968456494,-9.32611664731043,0.0628906308072032,-0.008246681,-0.010995574,-0.0015271631,201.21317,-39.59495,44.744865,STD
2548660116000,0.055007,2.60244177963756,-9.32544939212483,0.059999199643404,-0.019547688,-0.014660766,0.0030543262,201.0435,-38.70809,45.63566,STD
2548665094000,0.059985,2.60357527866939,-9.32476929459947,0.0570521184940607,-0.013439035,-0.0106901415,-0.0012217305,200.85202,-37.81639,46.531063,STD
2548670132000,0.065023,2.60472243980285,-9.32408099983594,0.0540695160773488,-0.00580322,-0.01038471,-0.005497787,200.64297,-36.91564,47.433147,STD
2548675098000,0.069989,2.60585320641435,-9.32340254175821,0.0511295391814793,-0.017715093,-0.013133603,0.0012217305,200.41179,-36.005135,48.341064,STD
2548680097000,0.074988,2.60699148718176,-9.32271957519948,0.048170025588557,-0.015882496,-0.014966198,0.0030543262,200.16035,-35.09314,49.25038,STD
2548685165000,0.080056,2.60814547936603,-9.32202718181689,0.0451696625381609,-0.010079277,-0.007941248,0.0012217305,199.883,-34.173405,50.163174,STD
2548690229000,0.08512,2.60929856074353,-9.32133533491683,0.042171667572256,-0.013439035,-0.010079277,-0.005497787,199.5863,-33.24788,51.079895,STD
2548695190000,0.090081,2.61042818884657,-9.32065755994227,0.0392346507820004,-0.01160644,-0.004886922,0.0036651916,199.2549,-32.314186,52.000877,STD
2548700090000,0.094981,2.61154392714628,-9.3199881188265,0.0363337472802362,-0.020463986,-0.00030543262,0.0067195175,198.89995,-31.377136,52.921356,STD
2548705124000,0.100015,2.61269017747297,-9.31930037054552,0.0333535129480156,-0.014660766,0.00030543262,0.00030543262,198.51523,-30.436768,53.843475,STD
2548710094000,0.104985,2.61382185489125,-9.31862136598524,0.0304111679676548,-0.010079277,0.004276057,0.0033597588,198.09256,-29.487188,54.768883,STD
2548715088000,0.109979,2.6165161273467,-9.31004191263147,0.0389695640037706,-0.014660766,0.005497787,-0.0070249503,197.6443,-28.53839,55.69117,STD
2548720127000,0.115018,2.6213045273467,-9.29088766263147,0.0629115810037706,-0.014660766,-0.0012217305,-0.0009162979,197.1562,-27.580877,56.619118,STD
2548725122000,0.120013,2.62218507379704,-9.28550519514215,0.0840545638616248,-0.02321288,0.002443461,-0.0021380284,196.76875,-26.630482,57.59072,STD
2548730128000,0.125019,2.61777423003956,-9.29873800276014,0.101697950866501,-0.019242255,0.0036651916,0.0021380284,196.34311,-25.674006,58.56644,STD
2548735133000,0.130024,2.61367993324355,-9.30905021219039,0.11531586378983,-0.016798794,0.0033597588,0.004886922,195.84418,-24.715746,59.525215,STD
2548740253000,0.135144,2.6104585144143,-9.3106610393371,0.116926574886341,-0.026267206,0.002443461,0.002443461,195.29877,-23.753473,60.482243,STD
2548745157000,0.140048,2.60737299919191,-9.31220390971355,0.118469334108469,-0.020463986,0.002443461,0.007330383,194.67818,-22.786123,61.43199,STD
2548750094000,0.144985,2.60426672091847,-9.31375716237435,0.12002247486696,-0.018936822,0.0015271631,0.002443461,194.00755,-21.818012,62.376328,STD
2548755125000,0.150016,2.60110129940871,-9.3153399888148,0.121605187274489,-0.023518313,0.004886922,0.004276057,193.32288,-20.850016,63.333366,STD
2548760101000,0.154992,2.59797048298404,-9.316905511448,0.123170597121411,-0.023823744,0.00580322,-0.0027488936,192.58214,-19.883886,64.284134,STD
2548765186000,0.160077,2.59695619715816,-9.32028536609135,0.123267369231067,-0.02321288,0.0070249503,0.0012217305,191.84683,-18.920307,65.25482,STD
2548770115000,0.165006,2.60632071045975,-9.33199097716114,0.116243996233299,-0.027488936,0.002443461,-0.00030543262,191.0477,-17.957804,66.219284,STD
2548775115000,0.170006,2.61582011531022,-9.34386520222685,0.109119454746417,-0.018020526,0.01985312,0.0009162979,190.26546,-17.00493,67.2038,STD
2548780158000,0.175049,2.6254012150424,-9.35584154562813,0.101933642202748,-0.021991149,0.013439035,0.00030543262,189.41937,-16.049974,68.18844,STD
2548785143000,0.180034,2.63275505195818,-9.36582852737779,0.0972129734601486,-0.015577064,0.014966198,0.0030543262,188.76003,-15.117948,69.2434,STD
2548790140000,0.185031,2.62617125353114,-9.36363400428781,0.10818594089535,-0.016798794,0.013744468,0.004886922,188.02614,-14.183587,70.297264,STD
2548795096000,0.189987,2.61964147466294,-9.36145748709071,0.119068875978171,-0.02687807,0.006414085,0.005497787,187.77997,-13.279414,71.50697,STD
2548800086000,0.194977,2.61306689908741,-9.35926603817757,0.130026472036137,-0.016798794,0.01038471,-0.004276057,187.48935,-12.375688,72.713326,STD
2548805097000,0.199988,2.60646465495735,-9.35706536673393,0.141030182225809,-0.016493361,0.014966198,0.0009162979,143.27351,-11.463428,73.92435,STD
2548810076000,0.204967,2.60370466914413,-9.35298043307576,0.140091604953834,-0.01985312,0.01863139,0.005192355,142.8036,-10.59965,75.34297,STD
2548815063000,0.209954,2.60214093718159,-9.34828913921812,0.135400405800537,-0.02321288,0.013133603,0.00061086525,142.33682,-9.7306595,76.761734,STD
2548820104000,0.214995,2.60056027288979,-9.3435470473119,0.130658409624124,-0.034513887,0.01863139,0.00580322,141.87178,-8.845874,78.16342,STD
2548825158000,0.220049,2.59897553229651,-9.33879272624582,0.125904184534739,-0.02443461,0.02321288,0.005192355,141.40611,-7.9586296,79.56344,STD
2548830123000,0.225014,2.59741869869033,-9.33412212788946,0.121233680464934,-0.02565634,0.019547688,-0.004276057,140.96541,-7.0566072,80.93023,STD
2548835155000,0.230046,2.59584085645341,-9.32938850232467,0.11650015045904,-0.027794369,0.01985312,0.011911872,140.52591,-6.142594,82.29777,STD
2548840942000,0.235833,2.59144350862764,-9.33168131264142,0.138149086941466,-0.031154128,0.025045475,0.008552114,140.08202,-5.227969,83.663055,STD
2548845114000,0.240005,2.58751296338416,-9.33561198101328,0.161732621076242,-0.022907447,0.02321288,-0.003970624,139.64091,-4.3063164,85.01334,STD
2548850091000,0.244982,2.585738,-9.33884792232196,0.170921628187019,-0.01985312,0.018936822,0.0021380284,139.22278,-3.3661134,86.31064,STD
2548855127000,0.250018,2.585738,-9.34122658537187,0.1685430148116,-0.025961773,0.026267206,0.003970624,138.81313,-2.4264874,87.52038,STD
2548860094000,0.254985,2.585738,-9.34357265752614,0.166196991651213,-0.019242255,0.016493361,0.00030543262,138.40535,-178.52612,88.45793,STD
2548865092000,0.259983,2.585738,-9.34593337196686,0.16383632651016,-0.018936822,0.02076942,0.0012217305,138.01001,-179.48442,88.49888,STD
2548870109000,0.265,2.58068393435871,-9.34570046709791,0.16533273434987,-0.0143553335,0.021991149,-0.002443461,137.61147,179.5591,87.557495,STD
2548875095000,0.269986,2.57179519669118,-9.34347825367647,0.169777070698529,-0.009162978,0.021991149,-0.002443461,137.22234,178.59724,86.32898,STD
2548880069000,0.27496,2.56292785189408,-9.34126138854244,0.174210710690153,-0.015271631,0.03145956,0.004886922,136.84491,177.62943,85.017494,STD
2548885106000,0.279997,2.55394819452718,-9.33901644489948,0.178700506556217,-0.02076942,0.027488936,0.005497787,136.47661,176.65971,83.67251,STD
2548890127000,0.285018,2.54943773047395,-9.33471065544068,0.18195933,-0.03176499,0.031154128,0.009468411,136.12791,175.6837,82.32488,STD
2548895078000,0.289969,2.55671816862524,-9.32500326942369,0.18195933,-0.020158553,0.03634648,0.0070249503,135.78662,174.70546,80.96915,STD
2548900069000,0.29496,2.56405742671717,-9.3152174557273,0.18195933,-0.02687807,0.03176499,0.0021380284,135.46089,173.72473,79.59873,STD
2548905115000,0.300006,2.57147756222745,-9.30532380397175,0.18195933,-0.021685716,0.029932396,0.006414085,135.14311,172.73784,78.22609,STD
2548910876000,0.305767,2.5761611,-9.30030546542381,0.180732888908277,-0.022602014,0.021380283,0.008857546,134.84314,171.75027,76.850716,STD
2548915070000,0.309961,2.5761611,-9.30230228063634,0.178736113310962,-0.028710667,0.026267206,0.006414085,134.55864,170.75995,75.47775,STD
2548920088000,0.314979,2.5761611,-9.30469141242854,0.176347028917226,-0.023823744,0.027488936,-0.004276057,134.28232,169.77121,74.09986,STD
2548925104000,0.319995,2.5761611,-9.30707959199602,0.173958896729307,-0.025350908,0.026267206,-0.004581489,134.02711,168.77817,72.72271,STD
2548930078000,0.324969,2.57457761249751,-9.30548905806323,0.166048765092464,-0.023518313,0.018936822,0.003970624,352.12576,167.77971,71.28608,STD
2548935115000,0.330006,2.56978144499901,-9.29589682322529,0.146864686036985,-0.02565634,0.023823744,-0.002443461,351.6943,166.78247,69.85805,STD
2548940089000,0.33498,2.56053454119027,-9.29555161673019,0.131050551644679,-0.020158553,0.020158553,-0.0009162979,351.22803,165.77568,68.42415,STD
2548945080000,0.339971,2.54185084755204,-9.31423579810417,0.121708646297274,-0.018020526,0.024740042,-0.0027488936,350.73495,164.7691,66.999985,STD
2548950085000,0.344976,2.52198763567959,-9.33158369739975,0.113663807135918,-0.027488936,0.02687807,-0.0061086523,350.18448,163.76137,65.569145,STD
2548955107000,0.349998,2.49908322116392,-9.34532663310791,0.109082924232784,-0.023823744,0.029321533,-0.0018325958,349.61893,162.7483,64.145424,STD
2548960104000,0.354995,2.48124631267654,-9.35270103726647,0.103211585388771,-0.019242255,0.032986723,-0.009773844,349.04013,161.73514,62.732533,STD
2548965068000,0.359959,2.48595804140443,-9.33149795049309,0.0914321922295456,-0.014966198,0.028405234,-0.011301007,348.44458,160.71725,61.325474,STD
2548970093000,0.364984,2.49072767010258,-9.31003431007483,0.0795080482680014,-0.023823744,0.028099801,-0.004581489,347.85034,159.69731,59.93272,STD
2548975136000,0.370027,2.49551438403786,-9.28849378497448,0.0675411909549532,-0.021991149,0.029321533,-0.016798794,347.2276,158.6806,58.554276,STD
2548980478000,0.375369,2.49907061795058,-9.26606602180232,0.0565090752551781,-0.018936822,0.034513887,-0.015577064,346.59637,157.65927,57.184406,STD
2548985151000,0.380042,2.49703789691134,-9.24777136264535,0.0524436304173783,0.005192355,0.028710667,-0.027488936,345.93494,156.64189,55.83036,STD
2548990196000,0.385087,2.49484335857558,-9.22802033430233,0.0480545507668968,0.004886922,0.028405234,-0.03268129,345.21075,155.6272,54.469048,STD
2548995174000,0.390065,2.49267796475291,-9.20853160901163,0.0437237601821403,-0.01282817,0.013439035,-0.03604105,344.46426,154.61513,53.12144,STD
2549000087000,0.394978,2.49054084545785,-9.1892973568314,0.0394495186909975,-0.0030543262,0.01282817,-0.03848451,343.71005,153.60178,51.79443,STD
2549005115000,0.400006,2.48277935804365,-9.18056212934519,0.0203313593453921,0.004276057,0.007941248,-0.044898596,342.93652,152.59459,50.48292,STD
2549010133000,0.405024,2.4730670738076,-9.17570639288602,-0.00394936848524656,0.008246681,0.009773844,-0.052839845,342.15317,151.58958,49.192036,STD
2549015070000,0.409961,2.42777613364096,-9.18175410925871,-0.0490301711661209,0.015577064,0.008857546,-0.051923547,341.3403,150.59102,47.915768,STD
2549020115000,0.415006,2.37024125545301,-9.19134296358043,-0.101770558611293,0.017715093,0.0009162979,-0.06261369,340.5124,149.60034,46.663673,STD
2549025114000,0.420005,2.37702512716013,-9.21134277263344,-0.125486950934827,0.025350908,0.008857546,-0.06780604,339.70874,148.61638,45.449944,STD
2549030125000,0.425016,2.40532907572987,-9.23492939644156,-0.139638935071267,0.027794369,0.02321288,-0.08735373,338.88983,147.64307,44.26371,STD
2549035111000,0.430002,2.37518016952106,-9.25752430450988,-0.124564521300783,0.018936822,0.028405234,-0.095294975,338.05994,146.67471,43.084606,STD
2549040129000,0.43502,2.32144572168282,-9.27991359932911,-0.0976973488147596,0.01863139,0.024129177,-0.09407325,337.2234,145.71281,41.93352,STD
2549045071000,0.439962,2.32322831506849,-9.31705198630137,-0.0751713724931507,0.035124753,0.02443461,-0.087964594,336.42444,144.76125,40.836124,STD
2549050247000,0.445138,2.36917817643424,-9.36810774322793,-0.0547492680407869,0.036651913,0.011911872,-0.087659165,335.61337,143.82059,39.762135,STD
2549055118000,0.450009,2.38763644529477,-9.41237394476248,-0.0237924532903485,0.031154128,0.004276057,-0.08674286,334.85748,142.88681,38.73696,STD
2549060100000,0.454991,2.3924282116501,-9.45549974189013,0.0145417035705534,0.03359759,-0.011911872,-0.08674286,334.08783,141.95964,37.732536,STD
2549065083000,0.459974,2.39683324040616,-9.49251368811274,0.0392561898678221,0.027794369,-0.028710667,-0.07880162,333.3165,141.03435,36.753273,STD
2549070111000,0.465002,2.40104823956583,-9.52623394546569,0.0561161997102591,0.025350908,-0.03848451,-0.073303826,332.53394,140.11763,35.797565,STD
2549075146000,0.470037,2.39667787005838,-9.54630178044204,0.0759135679879066,0.0125227375,-0.04795292,-0.07819075,331.7851,139.2105,34.88808,STD
2549080083000,0.474974,2.37696116380317,-9.54137250093828,0.100559466247915,0.00580322,-0.040011674,-0.089491755,331.03082,138.3133,34.004917,STD
2549085124000,0.480015,2.36948499449985,-9.54050683915949,0.112914882750073,-0.010079277,-0.03176499,-0.07666359,330.2832,137.42126,33.14349,STD
2549090257000,0.485148,2.37900522581582,-9.54526705422678,0.108154767092089,-0.020463986,-0.022602014,-0.07360926,329.52737,136.54532,32.313133,STD
2549095150000,0.490041,2.38818494050481,-9.54629698792837,0.11157479586372,-0.021685716,-0.008552114,-0.0711658,328.8058,135.68338,31.523973,STD
2549100145000,0.495036,2.39772970852497,-9.54152449179428,0.128278193469347,-0.015577064,0.011911872,-0.07574729,328.08173,134.83444,30.761614,STD
2549105094000,0.499985,2.40718657677957,-9.53679594657555,0.144827765991919,-0.023823744,0.02107485,-0.07513642,327.35184,133.99878,30.020767,STD
2549110075000,0.504966,2.41670459269716,-9.532036826807,0.16148434726792,-0.02443461,0.029626964,-0.07696902,326.6216,133.1741,29.308084,STD
2549115075000,0.509966,2.42138227338725,-9.53512233881762,0.186331113256181,-0.028099801,0.03726278,-0.09162979,325.98282,132.38846,28.67516,STD
2549120105000,0.514996,2.41690460086447,-9.55303312242052,0.22663061014222,-0.0290161,0.04642576,-0.09560041,325.34357,131.6129,28.06181,STD
2549125140000,0.520031,2.4104691404908,-9.57059732285276,0.261460032020706,-0.017715093,0.056505036,-0.10048734,324.70566,130.85007,27.481796,STD
2549130119000,0.52501,2.39675665375767,-9.5865953194977,0.27517253068587,-0.022907447,0.06291912,-0.09590584,324.06622,130.10214,26.920422,STD
2549135088000,0.529979,2.38307170766871,-9.60256118519939,0.288857488682899,-0.018325957,0.076052725,-0.10842858,323.43637,129.36185,26.388382,STD
2549140206000,0.535097,2.3689764059816,-9.61900580195552,0.302952802635161,-0.0076358155,0.093462385,-0.112399206,322.80865,128.63153,25.87302,STD
2549145180000,0.540071,2.35395489525293,-9.63437576350028,0.317758801122218,-0.005497787,0.10140363,-0.10934488,322.17874,127.91612,25.377663,STD
2549150122000,0.545013,2.31116015927061,-9.63675329572512,0.35579854713116,-0.005192355,0.11362094,-0.10629055,321.55252,127.21286,24.904186,STD
2549155161000,0.550052,2.26752546185764,-9.63917749339428,0.394584925143919,0.0015271631,0.12034045,-0.10934488,320.95917,126.518616,24.457405,STD
2549160087000,0.554978,2.2248692762144,-9.64154732822625,0.432501515358417,0.0067195175,0.12705997,-0.10415252,320.37024,125.83607,24.0263,STD
2549165891000,0.560782,2.1737828956967,-9.64472938846465,0.470147985119037,0.014049901,0.12889257,-0.1020145,319.74823,125.158394,23.5995,STD
2549170106000,0.564997,2.13389167523134,-9.64835555322972,0.473774464182014,0.021991149,0.13683382,-0.10048734,319.13156,124.492836,23.190536,STD
2549175089000,0.56998,2.08673201886623,-9.65264242844309,0.478061710960381,0.025045475,0.1414153,-0.092240654,318.54166,123.82631,22.788988,STD
2549180068000,0.574959,2.0495881227659,-9.65723159654263,0.473124570574275,0.035124753,0.14477506,-0.09193522,317.95465,123.17231,22.406229,STD
2549185076000,0.579967,2.0144572888954,-9.66191580554742,0.466098398909073,0.03634648,0.14172074,-0.092240654,317.3706,122.532394,22.037296,STD
2549190146000,0.585037,1.97889152856724,-9.66665800595761,0.458985241891786,0.046120327,0.14294247,-0.08674286,316.82886,121.90498,21.686724,STD
2549195083000,0.589974,1.9442587556402,-9.67127580544975,0.452058682484618,0.051923547,0.1337795,-0.08368854,316.2859,121.292946,21.349995,STD
2549200133000,0.595024,1.92430216434605,-9.66236230653461,0.470535604862608,0.069027774,0.119729586,-0.08093964,315.7624,120.693115,21.033743,STD
2549205135000,0.600026,1.91034843478008,-9.64840877123993,0.498443068851345,0.09010262,0.10415252,-0.08307768,315.23907,120.10602,20.73057,STD
2549210079000,0.60497,1.87991009606942,-9.63737624737111,0.517273686572741,0.10476339,0.08827003,-0.087964594,314.7173,119.52615,20.423971,STD
2549215100000,0.609991,1.84063685416029,-9.62755774466565,0.532001163822358,0.12156218,0.07544186,-0.0888809,314.19675,118.95563,20.129286,STD
2549220120000,0.615011,1.82427284141007,-9.62795590724221,0.523241831828297,0.1282817,0.064446285,-0.090713486,313.66946,118.394165,19.84302,STD
2549225135000,0.620026,1.81736238788489,-9.63256297247002,0.504813938924221,0.14172074,0.051923547,-0.09010262,313.14383,117.84219,19.56821,STD
2549230119000,0.62501,1.81049465102158,-9.63714155932854,0.486499957222542,0.15851954,0.03604105,-0.08307768,312.6236,117.29736,19.297539,STD
2549235946000,0.630837,1.80246529654676,-9.64249457410072,0.465088325726619,0.18448131,0.005497787,-0.0852157,312.1007,116.76422,19.039299,STD
2549240154000,0.635045,1.80318079119799,-9.6383627031152,0.45146344781936,0.21227567,0.003970624,-0.07788532,311.58945,116.238464,18.790274,STD
2549245112000,0.640003,1.80814438877274,-9.62843530064813,0.43657263954631,0.21074851,-0.013439035,-0.08582657,311.0695,115.73151,18.553825,STD
2549250088000,0.644979,1.81300720388096,-9.62768176633823,0.433947003880957,0.22937989,-0.023823744,-0.08002335,310.52185,115.22059,18.30585,STD
2549255143000,0.650034,1.81787456000402,-9.6325492241102,0.438814360004022,0.2519819,-0.03481932,-0.07666359,309.97522,114.72593,18.071438,STD
2549260109000,0.655,1.83671100039333,-9.62285625931822,0.446239009068178,0.2724459,-0.054367006,-0.08307768,309.4278,114.24647,17.849499,STD
2549265089000,0.65998,1.86350953794718,-9.60499066089155,0.455171868910845,0.2947425,-0.056505036,-0.07513642,308.89102,113.773125,17.634895,STD
2549270118000,0.665009,1.88181219367089,-9.58406576582279,0.476340075237342,0.31520647,-0.06078109,-0.06841691,308.33786,113.30846,17.426441,STD
2549275124000,0.670015,1.8912942863924,-9.56036053401899,0.509527434416535,0.34880406,-0.07696902,-0.063224554,307.78888,112.85062,17.226469,STD
2549280087000,0.674978,1.92532578322144,-9.54247737535788,0.521124769510811,0.37690386,-0.059253927,-0.0571159,307.2266,112.40093,17.037418,STD
2549285151000,0.680042,1.98756891257281,-9.53050755721197,0.509154938866127,0.39003745,-0.048258353,-0.04734206,306.66687,111.961334,16.855314,CSI
2549290209000,0.6851,2.04973829414059,-9.51855192131504,0.49719929048524,0.42730024,-0.044593163,-0.03634648,306.12082,111.52527,16.686886,CSI
2549295221000,0.690112,2.11134227603416,-9.50670501599368,0.485352372793464,0.47311515,-0.01863139,-0.0290161,305.59335,111.09995,16.529226,CSI
2549300058000,0.694949,2.17646615751102,-9.49628524615385,0.472978837561,0.52534413,0.013744468,-0.007941248,305.10208,110.68189,16.379477,CSI
2549305424000,0.700315,2.25703697614895,-9.48621367692308,0.457871788690838,0.5870415,0.043982297,0.0021380284,304.62463,110.27139,16.2411,CSI
2549310070000,0.704961,2.33816922605831,-9.46658973422524,0.448303756690296,0.643852,0.09896017,0.017715093,304.15485,109.88344,16.132257,CSI
2549315089000,0.70998,2.44374551461661,-9.42819859345048,0.443504824005591,0.71837753,0.124005646,0.041233405,303.693,109.49598,16.026228,CSI
2549320093000,0.714984,2.53822727143366,-9.38663906803206,0.437299331024043,0.7852673,0.18112154,0.052839845,303.2431,109.128944,15.944447,CSI
2549325151000,0.720042,2.61586856231523,-9.33919115458593,0.428672535939448,0.8228355,0.24251351,0.074830994,302.81006,108.766365,15.861781,CSI
2549330089000,0.72498,2.68495907276688,-9.29079159651416,0.422760729106754,0.890947,0.3115413,0.08674286,302.381,108.426476,15.811002,CSI
2549335156000,0.730047,2.71138916296296,-9.22735915925926,0.433332765185185,0.96883225,0.39461896,0.089491755,301.9807,108.09873,15.766225,CSI
2549340147000,0.735038,2.74449111700642,-9.14159950209439,0.481717915042353,1.0436633,0.5009095,0.09682214,301.58655,107.79823,15.748439,CSI
2549345116000,0.740007,2.79321673415247,-9.00428248450154,0.61460580201992,1.1224649,0.5757405,0.09743301,301.2142,107.51331,15.738993,CSI
2549350145000,0.745036,2.84253510180995,-8.86842671719457,0.758387752488688,1.1872166,0.63438356,0.1160644,300.866,107.24718,15.738561,CSI
2549355141000,0.750032,2.89155310010245,-8.74996632361479,0.950375250140869,1.2483032,0.6591236,0.13041973,300.5362,107.00138,15.744716,CSI
2549360087000,0.754978,2.94008052595407,-8.6326914824127,1.14044133568684,1.3078625,0.68386364,0.1600467,300.21484,106.777565,15.768292,CSI
2549365117000,0.760008,2.97785426146503,-8.49675824382652,1.35116246293837,1.3787229,0.70646566,0.18051068,299.90802,106.578285,15.794234,CSI
2549370078000,0.764969,3.01236069822577,-8.35873223941689,1.56313099360863,1.464244,0.7360926,0.20677789,299.61923,106.39701,15.813897,CSI
2549375322000,0.770213,3.03422400923945,-8.3501641647851,1.957879453367,1.5583172,0.77457714,0.23579398,299.28308,106.243195,15.847525,CSI
2549380088000,0.774979,3.05230408368984,-8.35920436720142,2.33756035606061,1.6646078,0.80909103,0.2574797,298.96573,106.1202,15.879213,CSI
2549385153000,0.780044,3.08803883277211,-8.48444342448252,2.84433726768347,1.7650951,0.8136725,0.2883284,298.6397,106.03786,15.921427,CSI
2549390083000,0.784974,3.12544697162524,-8.62472357898386,3.35402212199663,1.844813,0.80878556,0.3136793,298.33478,105.99767,15.961839,CSI
2549395113000,0.790004,3.15915853047545,-8.86032863863991,3.79219346336711,1.9178114,0.7855727,0.33078352,298.04852,106.00678,16.006414,CSI
2549400131000,0.795022,3.19193275853468,-9.11315830017537,4.21357678667186,1.999362,0.7272351,0.34605515,297.76736,73.93155,16.04563,CSI
2549405204000,0.800095,3.27782224988806,-9.37235101645089,4.48471354868101,2.084883,0.6203337,0.3481932,297.50333,73.80048,16.083786,CSI
2549410162000,0.805053,3.37488423355398,-9.6265613298939,4.71119159100555,2.1810944,0.47158796,0.36743546,297.22742,73.60791,16.114054,CSI
2549415089000,0.80998,3.45749041406851,-9.73021143048177,4.85262900120901,2.2727242,0.38423425,0.3817908,296.9966,73.33279,16.13789,CSI
2549420086000,0.814977,3.53638726808939,-9.78280899752702,4.96659094569518,2.3099868,0.20372356,0.44715336,296.7123,73.00856,16.14574,CSI
2549425139000,0.82003,3.34319951731249,-10.0095167183328,4.7603163007815,2.38268,0.115453534,0.5222898,296.45898,72.598656,16.151613,CSI
2549430146000,0.825037,2.9320266120699,-10.3738472989254,4.2970962473787,2.388483,0.16157386,0.5626069,296.21048,72.14574,16.14835,CSI
2549435157000,0.830048,2.43932801714019,-10.5831494450467,3.82824781315888,2.2989914,0.20647246,0.5849035,295.92258,71.63505,16.150146,CSI
2549440193000,0.835084,1.91196647478505,-10.7318921762617,3.35497469928972,2.1090124,0.1777618,0.5580254,295.64407,71.09845,16.154972,CSI
2549445164000,0.840055,1.45859438841463,-10.7113079512195,3.0698338,1.9013181,0.063224554,0.4792238,295.4597,70.70268,16.055275,CSI
2549450097000,0.844988,1.05629903312132,-10.5722431961733,2.91586891637931,1.6740762,-0.08582657,0.39400807,295.26294,70.31091,15.971805,CSI
2549455132000,0.850023,0.85030294096415,-10.3773510861581,2.86032573364267,1.4367551,-0.22571471,0.3408628,295.08557,70.10201,15.782349,CSI
2549460097000,0.854988,0.74811728024812,-10.1590450753639,2.8556809341897,1.1786644,-0.2764165,0.32070425,294.89746,69.91249,15.616332,CSI
2549465090000,0.859981,0.720521728964548,-9.99489383539219,3.08473021932309,0.91690874,-0.2764165,0.34300083,294.68085,69.824356,15.392594,CSI
2549470125000,0.865016,0.73989269933715,-9.86413983594456,3.46246439442603,0.6918049,-0.27916542,0.37720928,294.45288,69.76718,15.180124,CSI
2549475117000,0.870008,0.833466424666073,-9.74167918759276,3.79470389907985,0.49663344,-0.30390546,0.40530908,294.2333,69.7511,14.96037,CSI
2549480093000,0.874984,0.970200524042743,-9.62380504887702,4.10117695514,0.3643811,-0.33964106,0.40530908,294.01144,69.761505,14.74502,CSI
2549485188000,0.880079,1.1151813920296,-9.41566965698833,4.2601225656419,0.27397305,-0.36713,0.40439278,293.7992,69.741516,14.534574,CSI
2549490919000,0.88581,1.28183005176013,-9.11882680491508,4.32782346300408,0.18448131,-0.40683624,0.38423425,293.57593,69.738655,14.337602,CSI
2549495187000,0.890078,1.39676077431616,-8.82660759215244,4.23435850332958,0.13072516,-0.42455134,0.36010507,293.3589,69.67,14.179715,CSI
2549500093000,0.894984,1.52190971309292,-8.43672006710378,4.01775450703821,0.07360926,-0.38453966,0.32803464,293.15112,69.61185,14.0318165,CSI
2549505127000,0.900018,1.59579825574014,-8.07291346197963,3.82316301117374,0.01985312,-0.2846632,0.2846632,292.90796,69.500496,13.941517,CSI
2549510097000,0.904988,1.62403717356867,-7.74345932235736,3.65372940591318,-0.035124753,-0.23090707,0.25686884,292.66815,69.39781,13.85797,CSI
2549515109000,0.91,1.57091515126582,-7.26734155206384,3.58595287407815,-0.12156218,-0.12797627,0.24098633,292.43655,69.287704,13.823518,CSI
2549520141000,0.915032,1.44272548206751,-6.65733548271877,3.61247486505228,-0.1740966,-0.018325957,0.20250183,292.23077,69.17335,13.798607,CSI
2549525203000,0.920094,1.28969707984447,-6.18563182942367,3.63515265228508,-0.28710666,0.030543262,0.18906279,291.99863,69.08485,13.795139,CSI
2549530169000,0.92506,1.09717334870566,-5.97284251198466,3.65035188168744,-0.40683624,0.06505715,0.17531833,291.8013,69.00264,13.794782,CSI
2549535126000,0.930017,0.906997442292388,-5.80983647508661,3.62274399461546,-0.5354234,0.058643065,0.16126843,291.5996,68.9036,13.805551,CSI
2549540191000,0.935082,0.71494943705632,-5.69940884675839,3.54592474439275,-0.6743952,0.03573562,0.14660765,291.4099,68.82999,13.818582,CSI
2549545143000,0.940034,0.501422982948807,-5.64717170880285,3.44078851496188,-0.80481493,0.0061086523,0.15485434,291.2531,68.79655,13.795963,CSI
2549550093000,0.944984,0.257332468838499,-5.6612539416972,3.29996706828399,-0.9615019,-0.027488936,0.17928895,291.0927,68.798134,13.775046,CSI
2549555084000,0.949975,0.0458476135923567,-5.70104665318961,3.1566271133758,-1.0870347,-0.06811147,0.2125811,290.95264,68.85982,13.710685,CSI
2549561014000,0.955905,-0.148926144751592,-5.79008590826066,2.98411321528662,-1.2290609,-0.103847094,0.2507602,290.80392,68.96227,13.641013,CSI
2549565071000,0.959962,-0.270115058974359,-5.86008493525641,2.88710023269231,-1.3326025,-0.12889257,0.3109304,290.66428,69.15721,13.498251,CSI
2549570123000,0.965014,-0.40371435199211,-5.96028428046351,2.79644358736686,-1.4391985,-0.14813483,0.37659842,290.51212,69.38826,13.346922,CSI
2549575085000,0.969976,-0.503556546990204,-6.07377131054193,2.70414608802912,-1.5296066,-0.19333886,0.44073927,290.34384,69.7034,13.140622,CSI
2549580093000,0.974984,-0.546659503287499,-6.21601106767323,2.60500929169588,-1.6007724,-0.23518312,0.5161811,290.1631,70.04727,12.915964,CSI
2549585157000,0.980048,-0.584863789436393,-6.35613119355878,2.51191460563607,-1.6743816,-0.27855456,0.5320636,289.97507,70.45307,12.657576,CSI
2549590169000,0.98506,-0.589694598776167,-6.4720706681562,2.46360651223833,-1.7336355,-0.33933565,0.5561928,289.7611,70.881134,12.382761,CSI
2549595112000,0.990003,-0.58177237415873,-6.58967208799423,2.40494760888889,-1.756543,-0.41783184,0.5653558,289.5198,71.348946,12.096405,CSI
2549600096000,0.994987,-0.499121620973545,-6.72742342321308,2.28097153185185,-1.7486018,-0.5112942,0.5766568,289.25256,71.82131,11.81035,CSI
2549605187000,1.000078,-0.408984628315937,-6.87209995519872,2.14499141071859,-1.7110336,-0.5702427,0.56016344,288.96518,72.30049,11.526988,CSI
2549610120000,1.005011,-0.257262787081493,-7.05701101449217,1.90792600594139,-1.6493362,-0.59559363,0.5183192,288.65997,72.76325,11.253862,CSI
2549615167000,1.010058,-0.0979622411067427,-7.24587112605662,1.66816415583841,-1.6084082,-0.62858033,0.50243664,288.3194,73.23566,10.998976,CSI
2549620136000,1.015027,0.103162942331433,-7.42828710141537,1.46236164596029,-1.5106697,-0.6478226,0.48502702,287.978,73.66772,10.75873,CSI
2549625322000,1.020213,0.314513372560964,-7.62161731808834,1.23712723371854,-1.3909402,-0.6630942,0.49541172,287.59814,74.10773,10.550167,CSI
2549630387000,1.025278,0.537783036864166,-7.84488654588189,0.895097074429537,-1.2473868,-0.65087694,0.51068336,287.22263,74.51274,10.345993,CSI
2549635410000,1.030301,0.762240911433525,-8.06740751628798,0.558874263339356,-1.0806206,-0.56779927,0.50823987,286.841,74.8912,10.186317,CSI
2549640260000,1.035151,1.02925374700246,-8.30051420941692,0.283384866934574,-0.91446525,-0.4373795,0.5320636,286.47693,75.2411,10.013441,CSI
2549645079000,1.03997,1.29455990259148,-8.53213094223925,0.00965633058928733,-0.75900006,-0.28955013,0.5522222,286.09875,75.576706,9.892087,CSI
2549650090000,1.044981,1.62330850753003,-8.97345977253638,-0.0329262933975974,-0.5946773,-0.14782938,0.57787853,285.75854,75.8753,9.757899,CSI
2549655103000,1.049994,1.96559021359508,-9.46578298232249,-0.0141711299123938,-0.41996986,-0.02687807,0.5870415,285.45828,76.13483,9.618735,CSI
2549660130000,1.055021,2.28388182727273,-10.0516675324675,0.268150583948052,-0.18753563,0.07360926,0.57451874,285.1411,76.344124,9.551744,CSI
2549665083000,1.059974,2.58954310936849,-10.6582875209676,0.63024159931149,0.050396383,0.12614368,0.50915617,284.85098,76.50288,9.495602,CSI
2549670121000,1.065012,2.93304136014908,-11.2892148804654,1.04052732462503,0.21135938,0.12858713,0.41599923,284.619,76.57869,9.521457,CSI
2549675184000,1.070075,3.290052262967,-11.9283080599945,1.4680589461958,0.26633725,0.08307768,0.3173445,284.39355,76.61148,9.566719,CSI
2549680093000,1.074984,3.7361423703306,-12.757753964203,1.94527959848389,0.22357668,0.0067195175,0.17348573,284.177,76.51905,9.70414,CSI
2549685208000,1.080099,4.28798845419036,-13.8047144379869,2.49712573619709,0.1695151,-0.098043874,0.02076942,283.94543,76.39921,9.87047,CSI
2549690180000,1.085071,4.89061696646875,-14.6073604994465,3.07774118252994,0.19792034,-0.2275473,-0.1255328,283.71234,76.1382,10.146181,CSI
2549695190000,1.090081,5.53279404737848,-15.3026503867364,3.68611944317198,0.28069258,-0.3286455,-0.16035213,283.46115,75.87975,10.424117,CSI
2549700491000,1.095382,5.54862646735412,-15.2339901014564,3.70093931507184,0.37140608,-0.408058,-0.022907447,283.18402,75.52574,10.761469,CSI
2549705147000,1.100038,5.29584607912228,-14.8504610325481,3.46123368113576,0.4175264,-0.42455134,0.080634214,282.90405,75.17148,11.098359,CSI
2549710093000,1.104984,4.66446040655754,-13.9116317095519,2.8525416975247,0.3912592,-0.4868596,0.089186326,282.58832,74.69205,11.526031,CSI
2549715092000,1.109983,3.79001915053399,-12.6166941224673,2.00677072186845,0.36254853,-0.5867361,0.06566802,282.26617,74.25178,11.907944,CSI
2549720125000,1.115016,3.17037557939509,-11.3902809848771,0.972652389413989,0.27488935,-0.6747007,0.022296581,281.9452,73.90264,12.233317,CSI
2549725169000,1.12006,2.72341470023878,-10.212803321759,-0.185600964242364,0.18784106,-0.6554584,0.0290161,281.63596,73.58426,12.532996,CSI
2549730135000,1.125026,2.37265664954563,-9.26997032556302,-0.979918062623469,0.17745635,-0.5329799,0.06169739,281.31995,73.44257,12.701616,CSI
2549735144000,1.130035,2.07888409353023,-8.46446484225602,-1.54851026452983,0.2657264,-0.41447207,0.09712757,281.01517,73.30601,12.861111,CSI
2549740182000,1.135073,1.92426601902702,-8.0275784220748,-1.68394441358523,0.46609017,-0.30543262,0.109650314,280.6876,73.28813,12.978157,CSI
2549745190000,1.140081,1.87354327513701,-7.86618802653591,-1.49949805465821,0.72173727,-0.20952678,0.05497787,280.39636,73.237595,13.0966835,CSI
2549750092000,1.144983,1.96516363966616,-7.8513742276176,-0.982493107902883,0.94225967,-0.16615535,-0.039095376,280.09576,73.212654,13.204384,CSI
2549755148000,1.150039,2.21008185482043,-7.9885281375822,-0.0909907801901872,1.0387764,-0.19272798,-0.12889257,279.8086,73.154274,13.324301,CSI
2549760097000,1.154988,2.45362281135292,-8.17082552301675,0.395985737254037,0.95203346,-0.2284636,-0.17592919,279.5666,73.06145,13.448656,CSI
2549765091000,1.159982,2.7030443373784,-8.40106139424331,0.515899916277204,0.7993172,-0.19975294,-0.19761491,279.34222,72.951965,13.587788,CSI
2549770206000,1.165097,2.76263950056423,-8.71336010607486,0.437548572409253,0.63438356,-0.11148291,-0.18661933,279.15347,72.72874,13.766008,CSI
2549775213000,1.170104,2.64539975274591,-9.08762511623096,0.180522895725033,0.4978552,-0.00030543262,-0.1133155,278.98434,72.54173,13.926464,CSI
2549780090000,1.174981,2.26508480201264,-9.84141875741371,0.307626386708799,0.4541783,0.039095376,-0.033292156,278.80185,72.32785,14.124038,CSI
2549785264000,1.180155,1.42679898649878,-11.2771033964025,1.05919291366262,0.47342056,-0.01282817,0.04184427,278.6286,72.148445,14.296072,CSI
2549790166000,1.185057,0.839701167717399,-12.235925325914,1.56104567913241,0.50671273,-0.039095376,0.095294975,278.4709,72.08083,14.3871,CSI
2549795143000,1.190034,0.635805629967248,-12.4493787794933,1.6725510710915,0.5122105,0.00061086525,0.16035213,278.31653,72.03676,14.451013,CSI
2549800277000,1.195168,0.425478185561126,-12.6695656452109,1.78757391262616,0.4615087,0.13469578,0.22907446,278.28143,72.1581,14.242428,CSI
2549805079000,1.19997,0.245253401379611,-12.6902541222893,1.80627288249497,0.3640757,0.20647246,0.2657264,278.2401,72.28826,14.031908,CSI
2549810060000,1.204951,0.0906189044775318,-12.3489915919964,1.6516383889336,0.3042109,0.3200934,0.3408628,278.24536,72.43873,13.788242,CSI
2549814999000,1.20989,0.0143410289482611,-11.9049261977132,1.47910883753216,0.1872302,0.3830125,0.4251622,278.2785,72.6642,13.46402,CSI
2549820089000,1.21498,0.00505166303496903,-11.3522089418771,1.28403219894235,0.09010262,0.41050145,0.5027421,278.33032,72.902,13.126004,CSI
2549825001000,1.219892,0.0759141671726404,-10.8028052709253,1.09781566001232,0.008857546,0.37415496,0.5540548,278.35797,73.17897,12.768632,CSI
2549830045000,1.224936,0.254510743300811,-10.217405479203,0.909297006981617,-0.022907447,0.28038713,0.59131753,278.37314,73.46811,12.4046955,CSI
2549835032000,1.229923,0.444932144168413,-9.79112185154145,0.75812134517809,-0.006414085,0.19303341,0.63224554,278.36636,73.76117,12.05647,CSI
2549840094000,1.234985,0.652908305489374,-9.52026924633343,0.642041639916193,0.03756821,0.1301143,0.64965516,278.3393,74.049255,11.715764,CSI
2549844993000,1.239884,0.819493707466667,-9.38976580533333,0.516764516373333,0.07238753,0.08460484,0.66950834,278.27515,74.31106,11.423211,CSI
2549850128000,1.245019,0.955489098182716,-9.3994799574321,0.371055166279506,0.092240654,0.08979719,0.67103547,278.20905,74.560646,11.137376,CSI
2549854994000,1.249885,0.972814744670774,-9.53729798613785,0.290652592406623,0.08399397,0.21227567,0.65087694,278.14172,74.77219,10.90712,CSI
2549860045000,1.254936,0.85640050933866,-9.83531816952253,0.276682882027339,0.04153884,0.41141775,0.62888575,278.09998,74.981834,10.677526,CSI
2549864987000,1.259878,0.728927203319018,-10.15008455,0.375437274969325,-0.02107485,0.65148777,0.5873469,278.09003,75.18213,10.485431,CSI
2549870046000,1.264937,0.575356540723926,-10.5117187333333,0.667716913456033,-0.09010262,0.818254,0.54092115,278.11807,75.38245,10.299102,CSI
2549874969000,1.26986,0.513747425781621,-10.7651590335968,0.889688199664032,-0.15974127,0.91751957,0.50640726,278.1954,75.61935,10.081435,CSI
2549879996000,1.274887,0.575590697444664,-10.8840883162055,1.02764626683794,-0.22968534,1.0118983,0.50823987,278.3177,75.86286,9.863836,CSI
2549884981000,1.279872,0.627846696983318,-10.9577334196384,1.17996572344421,-0.30665436,1.054048,0.5375614,278.49664,76.118935,9.605186,CSI
2549890101000,1.284992,0.667030198651483,-10.9626314557986,1.36118937902307,-0.36285394,1.040609,0.5729916,278.68253,76.38006,9.348923,CSI
2549894967000,1.289858,0.682252563286644,-10.8708359467351,1.48344526078122,-0.3744604,1.029308,0.5766568,278.8821,76.61819,9.106566,CSI
2549900041000,1.294932,0.663080070408365,-10.6215933391201,1.53137654302624,-0.38637227,1.0149527,0.5647449,279.07178,76.86518,8.866176,CSI
2549904999000,1.29989,0.68056306251114,-10.3690741251609,1.5938114522725,-0.39278635,1.0262536,0.55833083,279.28516,77.07765,8.639442,CSI
2549909994000,1.304885,0.761087299732647,-10.0990809961382,1.68380914545995,-0.41050145,0.93218035,0.5137377,279.46213,77.279396,8.438601,CSI
2549914984000,1.309875,0.823733360815761,-9.78408724858925,1.74621373135333,-0.41508293,0.79351395,0.43279803,279.63193,77.45147,8.259785,CSI
2549920039000,1.31493,0.85248937964558,-9.3767100983071,1.75579906429066,-0.39675698,0.6224717,0.36896262,279.76282,77.61238,8.099533,CSI
2549924978000,1.319869,0.826770296345761,-9.00767048418184,1.76064176404166,-0.36193767,0.4382958,0.31703907,279.8603,77.7152,7.9983263,CSI
2549929990000,1.324881,0.686600097774749,-8.69462417443785,1.75596942669133,-0.30207285,0.29718593,0.28527406,279.92072,77.79768,7.9179516,CSI
2549935039000,1.32993,0.545470486950355,-8.42460210638298,1.78223691489362,-0.2510656,0.19181168,0.24831672,279.93942,77.83732,7.882103,CSI
2549940086000,1.334977,0.404595678989605,-8.27433507315651,1.89024094969397,-0.20738874,0.15790866,0.20372356,279.9402,77.857124,7.8616076,CSI
2549944985000,1.339876,0.274037259664938,-8.12765642161947,2.00261840741923,-0.1740966,0.10170906,0.13347405,279.93225,77.868515,7.838441,CSI
2549949970000,1.344861,0.16454096613582,-7.97531396659354,2.14543965163542,-0.15241088,0.08093964,0.09010262,279.9262,77.86892,7.8210254,CSI
2549955159000,1.35005,0.0607875107648054,-7.84393761516871,2.27821434605355,-0.14935656,0.064751714,0.045814894,279.94208,77.85642,7.7936378,CSI
2549959967000,1.354858,-0.0033743299390863,-7.80727363618991,2.35154220830099,-0.13408493,0.05955936,0.0070249503,279.95767,77.82913,7.7779202,CSI
2549964965000,1.359856,-0.0628371265148515,-7.77457492445545,2.3972265329703,-0.1142318,0.038789943,-0.015882496,279.99677,77.78679,7.7476783,CSI
2549969997000,1.364888,-0.0914651410574257,-7.76503235922772,2.31134244948515,-0.095294975,0.022296581,-0.04337143,280.03833,77.733025,7.7300243,CSI
2549974968000,1.369859,-0.0989273282883309,-7.76681018761201,2.22817732758247,-0.07727446,-0.0076358155,-0.040927973,280.06403,77.67548,7.692759,CSI
2549979969000,1.37486,-0.00460214796986706,-7.82340515771541,2.15271723612014,-0.04062254,-0.059253927,-0.03756821,280.08154,77.60445,7.6651177,CSI
2549984991000,1.379882,0.10908071191986,-7.90460128391056,2.06670104564665,-0.0070249503,-0.04520403,0.004581489,280.1041,77.555275,7.6170263,CSI
2549989999000,1.38489,0.336163141616309,-8.13168389539676,1.91951792357738,0.020158553,-0.10598512,-0.03726278,280.0964,77.48485,7.598277,CSI
2549994960000,1.389851,0.561114406337571,-8.35663534020167,1.77371611275756,0.09560041,-0.13927728,-0.07086037,280.09732,77.410065,7.5791583,CSI
2549999966000,1.394857,0.633698010535124,-8.42921894551469,1.70063882913018,0.13622294,-0.1469131,-0.07513642,280.09082,77.33517,7.56541,CSI
2550005059000,1.39995,0.681153423025881,-8.47667432827398,1.63894678199066,0.21135938,-0.11362094,-0.07147124,280.0903,77.2314,7.5583186,CSI
2550009991000,1.404882,0.645698496055657,-8.45455923555534,1.61471705752701,0.25717425,-0.06688975,-0.06383542,280.07507,77.12731,7.60731,CSI
2550015067000,1.409958,0.59053131985395,-8.41618180031578,1.59792706109932,0.28496864,-0.03023783,-0.04153884,280.06787,77.01554,7.6483903,CSI
2550020068000,1.414959,0.536179261503923,-8.37837140755909,1.58138514381507,0.31612277,0.034513887,-0.03145956,280.06,76.9016,7.6914306,CSI
2550025371000,1.420262,0.47854499527113,-8.3382777237381,1.56384429451325,0.34788775,0.09010262,-0.03268129,280.062,76.78545,7.7284384,CSI
2550030113000,1.425004,0.426883228424547,-8.27178250621265,1.47979061334535,0.39400807,0.15027285,-0.024129177,280.08475,76.66447,7.754859,CSI
2550035065000,1.429956,0.372905038125771,-8.19531372503083,1.37633242231813,0.43035457,0.22724187,0.03756821,280.1267,76.54933,7.7615066,CSI
2550040103000,1.434994,0.32461919925137,-8.05342795533037,1.31103032545755,0.42852196,0.37293324,0.07849618,280.231,76.45994,7.727351,CSI
2550044994000,1.439885,0.281028934267397,-7.8839103761762,1.26744004024403,0.46089783,0.39828414,0.022602014,280.3244,76.34898,7.7058744,CSI
2550049997000,1.444888,0.302849453164229,-7.82121030827625,1.24509838179967,0.56688297,0.4202753,-0.0125227375,280.445,76.254234,7.6486835,CSI
2550055071000,1.449962,0.352332865461951,-7.80321644436216,1.23160291340493,0.63407815,0.43890667,-0.024129177,280.5718,76.15576,7.6001606,CSI
2550060002000,1.454893,0.458090427115282,-7.80680026063773,1.270948578106,0.6792821,0.42730024,-0.03940081,280.68927,76.0492,7.5386147,CSI
2550065027000,1.459918,0.612052654480111,-7.82732843329423,1.35306169744055,0.7089091,0.42088616,-0.044593163,280.8122,75.93016,7.4771056,CSI
2550070068000,1.464959,0.612036678876487,-7.82163732109584,1.38820315691357,0.73273283,0.41447207,-0.040011674,280.89542,75.799774,7.4225965,CSI
2550075035000,1.469926,0.541832062667651,-7.80408627700397,1.40136650870768,0.77640975,0.49174652,-0.05100725,281.00235,75.65498,7.3699307,CSI
2550079999000,1.47489,0.520571863719936,-7.81112227461251,1.47019586996259,0.81306165,0.5531385,-0.074830994,281.10953,75.485565,7.3396935,CSI
2550085046000,1.479937,0.546405198922501,-7.84212213011224,1.59419583145911,0.8378017,0.57543504,-0.09712757,281.22797,75.30874,7.309728,CSI
2550090100000,1.484991,0.608470311862055,-8.01514685601031,1.52536579362799,0.87109387,0.5705481,-0.0888809,281.35837,75.12664,7.260977,CSI
2550095034000,1.489925,0.688074248419384,-8.25864149178476,1.356792806154,0.89827734,0.57696223,-0.052534413,281.49683,74.94227,7.2085023,CSI
2550099999000,1.49489,0.615270020623767,-8.23128418128699,1.19822907693753,0.9077458,0.68844515,-0.040011674,281.67206,74.731804,7.1561694,CSI
2550105073000,1.499964,0.446370960392673,-8.03499578821982,1.04302449722875,0.8933904,0.77946407,-0.093462385,281.8447,74.51865,7.1128707,CSI
2550110071000,1.504962,0.392153489011792,-7.98623078520612,0.979022002874964,0.9071349,0.8347474,-0.112399206,282.01257,74.34415,7.0648065,CSI
2550115051000,1.509942,0.447928756159244,-8.07918963658513,1.00226167931975,0.91629785,0.84574294,-0.1160644,282.19302,74.17136,7.024285,CSI
2550120085000,1.514976,0.568093045807062,-8.20165345081967,0.971659422635561,0.93492925,0.81306165,-0.12492194,282.28925,74.03782,6.927434,CSI
2550125087000,1.519978,0.764417577217318,-8.35770628415301,0.876014149558638,0.979217,0.7699956,-0.12064589,282.38535,73.89669,6.830271,CSI
2550130113000,1.525004,0.936494639901429,-8.43548005086249,0.817402427816659,1.0656544,0.74036866,-0.10751228,282.47498,73.737114,6.7455206,CSI
2550135092000,1.529983,1.08689911365205,-8.4495807555446,0.789201607392804,1.1508701,0.6954701,-0.08155051,282.5482,73.56934,6.6619883,CSI
2550140191000,1.535082,1.14327244808265,-8.44597361941188,0.793829410570236,1.2388347,0.6844745,-0.050701816,282.59158,73.39634,6.6067033,CSI
2550145075000,1.539966,1.11539260035764,-8.42738715130141,0.826355899582754,1.3203852,0.67103547,-0.02321288,282.62347,73.20751,6.549519,CSI
2550150057000,1.544948,1.06389136775148,-8.41567386390533,0.828718469320982,1.3500122,0.6621779,-0.023518313,282.64847,73.008896,6.52304,CSI
2550155114000,1.550005,0.988726094674556,-8.4109759408284,0.800531504793869,1.3939945,0.6805039,-0.04337143,282.68082,72.7893,6.493326,CSI
2550160060000,1.554951,0.941734348483771,-8.43391498832899,0.790606092179423,1.4355333,0.72326446,-0.05497787,282.72537,72.5663,6.4441304,CSI
2550165072000,1.559963,0.927308708357544,-8.4916175086656,0.802627468574935,1.4850134,0.8222246,-0.049480084,282.79437,72.33253,6.3899403,CSI
2550170094000,1.564985,0.912854286028351,-8.54943515773392,0.814672830158786,1.5097535,0.958753,-0.053145275,282.89148,72.11221,6.3072996,CSI
2550175118000,1.570009,0.898394107258566,-8.60727583254859,0.826722988780305,1.5586227,1.1301007,-0.058337633,283.02707,71.875175,6.213712,CSI
2550180035000,1.574926,0.878548326643952,-8.6806115646413,0.865434809653606,1.564426,1.2974777,-0.06261369,283.19974,71.64519,6.1111255,CSI
2550185089000,1.57998,0.851063262623509,-8.77680928392958,0.938728285008518,1.5228871,1.4162911,-0.06078109,283.40485,71.41729,5.9994125,CSI
2550190115000,1.585006,0.837398126646403,-8.814097352077,1.01732792475515,1.488984,1.46852,-0.08307768,283.61853,71.18782,5.8798823,CSI
2550195114000,1.590005,0.849524373657548,-8.74133961676798,1.10625382058426,1.4611896,1.4596626,-0.109650314,283.84503,70.96939,5.7587137,CSI
2550200437000,1.595328,0.856453377664394,-8.66200573081152,1.19641849771278,1.4630222,1.5118915,-0.10629055,284.06458,70.74636,5.611204,CSI
2550205142000,1.600033,0.737538372622608,-8.55300070057181,1.18155413307675,1.4410311,1.5381587,-0.103847094,284.27466,70.53654,5.4771,CSI
2550210473000,1.605364,0.612136501838047,-8.46366456692839,1.2134814082206,1.4315627,1.611768,-0.09743301,284.49548,70.29797,5.3287525,CSI
2550215091000,1.609982,0.532646572086841,-8.49295005231293,1.39337965879292,1.3439035,1.6255124,-0.11911872,284.7072,70.08695,5.193291,CSI
2550220317000,1.615208,0.44112711382481,-8.53271509285455,1.59739016257708,1.2464706,1.5543466,-0.13683382,284.90656,69.88349,5.0341563,CSI
2550225160000,1.620051,0.340190272208923,-8.63785755386289,1.79085242257889,1.2495248,1.5070046,-0.16829337,285.11636,69.67511,4.8849025,CSI
2550230130000,1.625021,0.236606521882481,-8.74575720928546,1.98938792375771,1.2822062,1.473407,-0.20525073,285.32764,69.448555,4.7286353,CSI
2550235107000,1.629998,0.121685003774448,-8.81206891100655,2.1850088363748,1.312444,1.5112807,-0.24129178,285.54565,69.221634,4.581534,CSI
2550240129000,1.63502,0.00361285372800737,-8.87110515118658,2.38179582418167,1.2819008,1.5515977,-0.26847526,285.75558,69.0032,4.447662,CSI
2550245075000,1.639966,-0.0881249101064186,-8.96865011468793,2.56087470001969,1.2421945,1.5778649,-0.28893927,285.98438,68.75291,4.2780867,CSI
2550250080000,1.644971,-0.177779016388659,-9.07245976668636,2.74018279137626,1.2018774,1.593442,-0.3005457,286.21942,68.51273,4.114075,CSI
2550255123000,1.650014,-0.231721495061837,-9.21698266166078,2.78778966784452,1.1487321,1.6136005,-0.32803464,286.46494,68.25769,3.9237907,CSI
2550260105000,1.654996,-0.278552720497644,-9.36684315812721,2.81120526344719,1.1200215,1.5656476,-0.34666604,286.69257,68.0095,3.7442248,CSI
2550265080000,1.659971,-0.237465370746387,-9.4906918408236,2.8654199173233,1.0995574,1.4795157,-0.35430184,286.93018,67.748856,3.554726,CSI
2550270113000,1.665004,-0.175437965297961,-9.60997523619085,2.92744743237973,1.1386528,1.3820826,-0.3594942,287.14908,67.481514,3.3803754,CSI
2550275196000,1.670087,-0.17330346930488,-9.63076867837205,3.15003472263641,1.1859949,1.3631458,-0.36926803,287.36862,67.23455,3.1902895,CSI
2550280452000,1.675343,-0.186900357019629,-9.62623628939312,3.42197252425716,1.1856894,1.3457361,-0.36713,287.55872,66.99322,3.0133386,CSI
2550285120000,1.680011,-0.24984648353869,-9.59553584301895,3.622562202604,1.2046263,1.2938126,-0.38148534,287.7179,66.73184,2.859903,CSI
2550290171000,1.685062,-0.352254548811263,-9.54433184513602,3.81201720863766,1.2134838,1.2608259,-0.38453966,287.87424,66.47756,2.706779,CSI
2550295101000,1.689992,-0.542955061604167,-9.28739767291667,4.01190402708333,1.1801916,1.2144,-0.3933972,288.04144,66.18164,2.5511959,CSI
2550300150000,1.695041,-0.779684758172917,-8.92978436604167,4.22344976395833,1.1621711,1.1652255,-0.39461896,288.19708,65.884094,2.4019604,CSI
2550305117000,1.700008,-0.961978394952681,-8.61449399522307,4.33730527769265,1.1157454,1.0861185,-0.37751472,288.35687,65.57122,2.2446392,CSI
2550310103000,1.704994,-1.12982414195584,-8.30892881649392,4.42337995060838,1.0925325,0.9987647,-0.3417791,288.49762,65.26286,2.092752,CSI
2550315115000,1.710006,-1.24629349619965,-8.03036087581204,4.44581375519706,1.0491611,0.93554014,-0.27152961,288.6722,64.91179,1.8988807,CSI
2550320107000,1.714998,-1.31876035388696,-7.776727171178,4.41475644553919,0.98440933,0.8362745,-0.20952678,288.80878,64.57979,1.7160066,CSI
2550325103000,1.719994,-1.26016687389286,-7.59982608514794,4.32152143154129,0.93767816,0.7275405,-0.14996742,288.94714,64.21845,1.4748316,CSI
2550330138000,1.725029,-1.14360521202862,-7.45528945306517,4.20029730709727,0.89919364,0.6441574,-0.09560041,289.05676,63.878727,1.2329254,CSI
2550335122000,1.730013,-0.890145313799192,-7.43756672466457,4.20158847550501,0.8399397,0.5439755,-0.03359759,289.14642,63.54866,0.9812934,CSI
2550340125000,1.735016,-0.555575651524764,-7.49253180024939,4.27328199702229,0.82619524,0.36957347,0.059864793,289.18286,63.221043,0.73266023,CSI
2550345124000,1.740015,-0.221273484483017,-7.54745293014116,4.34491819811462,0.8753699,0.2434298,0.115453534,289.18213,62.909195,0.4991019,CSI
2550350590000,1.745481,0.144258750974113,-7.60750471969674,4.42324655882089,0.89949906,0.13775012,0.15088372,289.1338,62.611843,0.27183744,CSI
2550355113000,1.750004,0.52696346427359,-7.6053520455317,4.67782310279581,0.88147855,0.048258353,0.20891592,289.04718,62.318745,0.033674546,CSI
2550360089000,1.75498,0.988516813481777,-7.57680207784323,5.05372748302546,0.86620694,0.008246681,0.25992316,288.94577,62.02116,-0.19897917,CSI
2550365097000,1.759988,1.29910140617772,-7.7835617425126,5.47328857128595,0.8772025,0.047036625,0.2947425,288.86017,61.724285,-0.29848063,CSI
2550370079000,1.76497,1.51132081790056,-8.13726059790452,5.91659123519818,0.87781334,0.17562376,0.30848694,288.78497,61.439514,-0.41086492,CSI
2550375128000,1.770019,1.69537130639771,-7.78676523040641,6.09195118371403,0.89461213,0.39522982,0.22449298,288.7801,61.08701,-0.4251114,CSI
2550380115000,1.775006,1.85593934263819,-6.95559003263127,6.07778342886384,0.8671232,0.7110472,0.20463985,288.8204,60.75295,-0.49011478,CSI
2550385113000,1.780004,1.53728212930478,-6.61980767553046,6.03827671123986,0.8765916,0.9896017,0.21624629,288.9156,60.368164,-0.5270317,CSI
2550390121000,1.785012,0.857288573423291,-6.65732465677618,5.9796566438105,0.86834496,1.0800097,0.21868975,289.068336324137,59.9529275121951,-0.561701770958283,CSI
2550400119000,1.79501,-0.500254472044588,-6.73222377388775,5.86262720408233,0.84788096,0.80756384,0.18112154,289.37326,59.123947,-0.6309173,CSI
2550405095000,1.799986,-1.13439705652923,-7.07532575083578,5.91088267816837,0.91324353,0.548557,0.1469131,289.53293,58.61391,-0.7562281,CSI
2550410254000,1.805145,-1.74503659594773,-7.77605943004761,6.08106100299868,0.98563105,0.41691554,0.09621128,289.66614,58.11232,-0.8523262,CSI
2550414981000,1.809872,-2.08011268355388,-8.25919682235598,6.32925185915829,1.0659598,0.31856623,0.081855945,289.73605,57.67219,-1.1037738,CSI
2550420039000,1.81493,-2.20541626729679,-8.61101114282161,6.69070451037708,1.1117748,0.2312125,0.069027774,289.7828,57.228256,-1.3203086,CSI
2550424979000,1.81987,-2.14773842211292,-8.72247243067937,6.89225585687058,1.1258247,0.15515977,0.061391957,289.8177,56.816597,-1.6336061,CSI
2550429975000,1.824866,-1.88789384611128,-8.57539068213956,6.92657498272364,1.1026118,0.12064589,0.058337633,289.84253,56.40948,-1.9285214,CSI
2550434979000,1.82987,-1.55554968848871,-8.18096370459274,6.83138724594701,1.0473285,0.14355333,0.08857546,289.8614,55.992302,-2.250419,CSI
2550440056000,1.834947,-1.14997334419529,-7.54635579400393,6.61189877056919,1.0015136,0.10262536,0.074830994,289.8641,55.58828,-2.534745,CSI
2550444981000,1.839872,-0.737891820291233,-7.02220578224723,6.34836768661404,0.9761627,-0.009162978,0.024129177,289.8623,55.18931,-2.7595475,CSI
2550449973000,1.844864,-0.300286127085993,-6.58861473945247,6.02718929010749,0.98868537,-0.1142318,-0.0036651916,289.8511,54.800507,-2.9729903,CSI
2550455103000,1.849994,0.140958942654102,-6.17297090040694,5.71265664977511,0.9947941,-0.1572978,0.0070249503,289.8304,54.396038,-3.0828943,CSI
2550460103000,1.854994,0.510165467605911,-5.98323969458128,5.51779757931035,1.0106765,-0.1704314,0.043982297,289.79343,53.99298,-3.1783812,CSI
2550465084000,1.859975,0.806742241975361,-5.86738064061172,5.37360974562447,1.01312,-0.18906279,0.095294975,289.73242,53.609966,-3.160958,CSI
2550470118000,1.865009,0.892757746615973,-5.96977998470688,5.37770571938828,1.0173961,-0.19761491,0.13103059,289.6684,53.227444,-3.1485016,CSI
2550475109000,1.87,0.978038514129142,-6.07130464231096,5.38176670569244,1.0296134,-0.16371189,0.16584991,289.60376,52.86521,-3.0828824,CSI
2550480094000,1.874985,0.887429098428775,-6.2509555676667,5.49057428722216,1.0146471,-0.113926366,0.17928895,289.5392,52.514336,-3.0225892,CSI
2550485154000,1.880045,0.776928381394477,-6.45632798140039,5.61877301360947,1.006095,-0.1001819,0.18906279,289.4696,52.162636,-2.9695365,CSI
2550490159000,1.88505,0.677661101843195,-6.81558120511834,5.81258053284024,1.0235047,-0.118202426,0.18692477,289.39984,51.830193,-2.8974657,CSI
2550495248000,1.890139,0.588405431831234,-7.19783534534623,6.0031697188202,1.0332786,-0.13225232,0.16707164,289.3413,51.511124,-2.849245,CSI
2550500153000,1.895044,0.64345873218283,-7.7713074036527,6.10868877683368,1.073901,-0.11056661,0.13194689,289.2907,51.184032,-2.8008423,CSI
2550505404000,1.900295,0.705223228116516,-8.35431218805112,6.22118630005945,1.0845913,-0.084910266,0.10354166,289.24814,50.88494,-2.768227,CSI
2550510103000,1.904994,0.803314101220648,-8.40781644624987,6.31481828633707,1.0839803,-0.0571159,0.10262536,289.21307,50.583366,-2.7389617,CSI
2550515415000,1.910306,0.912929832439976,-8.45175124460837,6.41342227052107,1.0735956,-0.04886922,0.106901415,289.18268,50.355133,-2.6894166,CSI
2550520118000,1.915009,0.982765424786919,-8.13643280571348,6.34570287128224,1.0656544,-0.09590584,0.09773844,289.14984,50.131023,-2.633068,CSI
2550525105000,1.919996,1.05681817814312,-7.80207323633886,6.27389410155993,1.0900891,-0.14721853,0.08460484,289.11926,49.89914,-2.5553458,CSI
2550530141000,1.925032,1.131598540265,-7.46442840149415,6.2013797714373,1.1368202,-0.1301143,0.06963864,289.0965,49.66744,-2.481278,CSI
2550535181000,1.930072,1.20643829902081,-7.1265153817131,6.12880784454729,1.1676689,-0.03023783,0.037873644,289.0873,49.437965,-2.4089267,CSI
2550540178000,1.935069,1.39711804629153,-6.86067488940862,6.06106349741891,1.1756102,0.061086524,-0.0021380284,289.0888,49.207108,-2.3353467,CSI
2550545086000,1.939977,1.62488162006527,-6.62361475210641,5.99598828076543,1.1859949,0.10934488,-0.05589417,289.112,48.97181,-2.2645853,CSI
2550550092000,1.944983,1.83323243376549,-6.52804816652262,6.3164526673389,1.2217305,0.11881329,-0.11301007,289.1513,48.657784,-2.1652908,CSI
2550555149000,1.95004,2.03322155885912,-6.49549178038029,6.80944902489196,1.2626585,0.09743301,-0.15668693,289.20233,48.34512,-2.0625408,CSI
2550560118000,1.955009,2.1428855820739,-6.39502758973635,7.09903291490649,1.3267993,0.07880162,-0.17165314,289.25604,48.000534,-1.9087573,CSI
2550565092000,1.959983,2.20051733443565,-6.25334960498059,7.27192812184302,1.4074335,0.09040806,-0.16615535,289.3164,47.644913,-1.7545825,CSI
2550570777000,1.965668,2.2663871599637,-6.09141970081162,7.46953754111005,1.4453071,0.11148291,-0.116980694,289.3669,47.207546,-1.5645518,CSI
2550575167000,1.970058,2.3172523374603,-5.9663762040127,7.62213302933911,1.4587462,0.13041973,-0.09621128,289.42438,46.76144,-1.3754641,CSI
2550580091000,1.974982,2.53759736824017,-5.77723933858284,7.80299572394622,1.4905112,0.07696902,-0.11148291,289.46918,46.30633,-1.1827515,CSI
2550585132000,1.980023,2.84990981497018,-5.55764445122814,7.99331092610937,1.5222762,0.054061573,-0.12950343,289.52142,45.8545,-1.0069274,CSI
2550590158000,1.985049,3.10451742378698,-5.53267780733728,8.24767036528599,1.5457945,0.08979719,-0.116980694,289.5666,45.3094,-0.81629324,CSI
2550595095000,1.989986,3.32833135257396,-5.59795692467456,8.52743808057199,1.5754215,0.17623462,-0.13775012,289.62836,44.762753,-0.62510455,CSI
2550600087000,1.994978,3.3643222691113,-5.7937242078516,8.59692372433132,1.6398678,0.25809056,-0.17806722,289.68497,44.149895,-0.37987053,CSI
2550605209000,2.0001,3.29237306224331,-6.06882404367558,8.54613637644521,1.6728544,0.36835176,-0.18661933,289.76285,43.547127,-0.16546836,CSI
2550610083000,2.004974,3.20987623986139,-6.09285076626733,8.70472537623762,1.700038,0.4465425,-0.16065755,289.84323,42.908398,0.080369145,CSI
2550615090000,2.009981,3.09593308106931,-5.62283539736634,9.29817881188119,1.7394388,0.5012149,-0.086437434,289.93225,42.26789,0.29427314,CSI
2550620103000,2.014994,3.0085993798583,-5.18399839971476,9.85793463452337,1.8286251,0.43493605,-0.087964594,290.04773,41.678658,0.505304,CSI
2550625174000,2.020065,2.98178826376518,-4.81311022835848,10.3450044644829,1.9556851,0.3930918,-0.04795292,290.15347,41.0783,0.6723707,CSI
2550630140000,2.025031,2.97356396536029,-4.54170257263739,10.767890456756,2.0427334,0.30879238,-0.01985312,290.2461,40.31915,0.8330018,CSI
2550635130000,2.030021,3.07572113700009,-4.83114804043823,10.8615346270598,2.1798725,0.20280726,-0.034208454,290.3271,39.525135,1.0034727,CSI
2550640184000,2.035075,3.1791885409014,-5.1243058348802,10.9563798448383,2.334727,0.24251351,0.0015271631,290.4022,38.587795,1.1313288,CSI
2550645147000,2.040038,3.58191062741313,-5.29431022895753,11.4624022702703,2.414445,0.27275133,0.022296581,290.46225,37.65315,1.2850592,CSI
2550650163000,2.045054,4.00620497191682,-5.45075270463079,11.967828965245,2.550057,0.21105394,0.0070249503,290.51312,36.679028,1.4462907,CSI
2550655131000,2.050022,4.26271251642438,-5.57900669211514,11.9311852421296,2.6441302,0.21197024,0.04337143,290.56622,35.75781,1.5913739,CSI
2550660322000,2.055213,4.52843796655127,-5.68976941092814,11.8949396764596,2.6844473,0.32803464,0.11362094,290.61346,34.8028,1.7893174,CSI
2550665156000,2.060047,4.72335214639783,-5.26095815194611,11.9079337651572,2.6865854,0.3213151,0.15332718,290.63904,33.85554,2.0062835,CSI
2550670091000,2.064982,4.92233879876497,-4.82318745209581,11.9211993480539,2.7113254,0.29657507,0.2284636,290.653,32.94208,2.2289162,CSI
2550675050000,2.069941,4.69215963706521,-4.46426571601611,11.8276852106028,2.6929994,0.31612277,0.32467487,290.6578,32.062252,2.4247432,CSI
2550680133000,2.075024,4.37593925989243,-4.14426266193815,11.7418425320784,2.6719246,0.3662137,0.39920044,290.64978,31.19729,2.6032233,CSI
2550685039000,2.07993,4.00140451452171,-4.23451218834998,11.9945401694199,2.660929,0.39278635,0.42730024,290.61377,30.275534,2.8122036,CSI
2550690368000,2.085259,3.5899906957382,-4.33326468675799,12.2653233531202,2.641992,0.40591997,0.4868596,290.56372,29.343441,2.9428964,CSI
2550695002000,2.089893,3.13404287482877,-4.43458635616438,12.4215282106164,2.5665503,0.38637227,0.5021312,290.51556,28.450144,3.0741332,CSI
2550700039000,2.09493,2.6384431394121,-4.54471955616438,12.5913175647831,2.5463917,0.3200934,0.5720753,290.45242,27.563486,3.1174011,CSI
2550705078000,2.099969,2.02111939434181,-4.72180756299449,12.6412230454589,2.5335636,0.2773328,0.6243043,290.38962,26.715376,3.1593063,CSI
2550710138000,2.105029,1.38369065384467,-4.90928660719605,12.6740315588548,2.5216517,0.2678644,0.6646214,290.30698,25.892155,3.2010596,CSI
2550714997000,2.109888,0.740138381477166,-5.05567932200171,12.6348879905036,2.5146267,0.27763826,0.68752885,290.2392,25.099798,3.1455052,CSI
2550720035000,2.114926,0.0657378507400769,-5.19982605979513,12.5782591395647,2.5222626,0.25503623,0.68203104,290.16302,24.32391,3.1009834,CSI
2550725043000,2.119934,-0.608474871811627,-5.01530657432901,12.3356716873824,2.5341744,0.2171626,0.6533204,290.1272,23.602558,2.9377952,CSI
2550729987000,2.124878,-1.27435367735941,-4.80897793730811,12.0824499668713,2.5314255,0.23335053,0.627664,290.0959,22.897705,2.771097,CSI
2550735096000,2.129987,-1.88065359923175,-4.4879747794248,11.7698333820053,2.4862216,0.22876903,0.6282749,290.10162,22.25108,2.506649,CSI
2550740052000,2.134943,-2.46032157362356,-4.16541742691815,11.4613007821826,2.4645357,0.22143865,0.63438356,290.1145,21.61015,2.247614,CSI
2550745060000,2.139951,-2.84032616423314,-4.01796471037398,11.2100696825144,2.4416285,0.23823744,0.6178902,290.17737,20.986773,1.8686396,CSI
2550749992000,2.144883,-3.18797163023672,-3.89581912409986,10.9704757322459,2.460565,0.22907446,0.5925393,290.23724,20.367374,1.507032,CSI
2550755087000,2.149978,-3.24921118242078,-3.69484789312918,10.7774555138095,2.4672847,0.23609942,0.5589417,290.3446,19.743044,1.0384684,CSI
2550760057000,2.154948,-3.2630487721097,-3.487283855141,10.5975669441806,2.4581218,0.25625798,0.5103779,290.46182,19.126225,0.5815016,CSI
2550764998000,2.159889,-3.15107311295938,-3.20732257980658,10.500363303675,2.4544566,0.2764165,0.4636467,290.62006,18.516684,0.065760225,CSI
2550770105000,2.164996,-3.00444146237911,-2.89986912847195,10.4199527490329,2.4419339,0.27488935,0.4071417,290.79184,17.919996,-0.43554485,CSI
2550775054000,2.169945,-2.83743323531647,-2.69733192060794,10.3649057763224,2.4553728,0.2764165,0.3549127,290.96933,17.297749,-0.93034494,CSI
2550780029000,2.17492,-2.66116586630337,-2.52582848345165,10.317265960304,2.4825563,0.25228736,0.33444872,291.1493,16.683502,-1.4083697,CSI
2550785085000,2.179976,-2.58621959465378,-2.37092947879266,10.191649957388,2.493552,0.23823744,0.28924468,291.32193,16.02466,-1.8402694,CSI
2550790093000,2.184984,-2.5483732820872,-2.2242753016374,10.0402644107319,2.503631,0.25625798,0.24129178,291.50018,15.368313,-2.26725,CSI
2550795040000,2.189931,-2.66005597735617,-1.9181585022049,9.98422011086043,2.5247061,0.25900686,0.20525073,291.66168,14.683977,-2.6395626,CSI
2550799999000,2.19489,-2.83052041994667,-1.54800716730592,9.96473857942775,2.5415049,0.25717425,0.15943582,291.8393,14.009288,-3.007185,CSI
2550805085000,2.199976,-3.10174894565196,-1.09831998809016,9.86696678933592,2.543643,0.23854288,0.12217305,292.017,13.323906,-3.3567326,CSI
2550810039000,2.20493,-3.3961148091905,-0.638373314304411,9.74738063926321,2.5357015,0.21319197,0.082161374,292.2071,12.648213,-3.6973982,CSI
2550814999000,2.20989,-3.68138625555221,-0.411872815779918,9.69432025539171,2.5283713,0.20952678,0.04520403,292.3966,11.918363,-4.059295,CSI
2550820062000,2.214953,-3.968351244839,-0.285413621303039,9.67000119711104,2.516154,0.18570304,0.008246681,292.5935,11.204397,-4.403027,CSI
2550825068000,2.219959,-4.20457179929252,-0.222286930833251,9.79988693111919,2.504853,0.15057829,-0.0021380284,292.78784,10.422799,-4.793035,CSI
2550830071000,2.224962,-4.42113739818218,-0.184623366585438,9.99291267023681,2.474615,0.12034045,0.00061086525,292.98608,9.662431,-5.173128,CSI
2550835072000,2.229963,-4.5646484771776,-0.0992564509954751,10.1897116210407,2.4550674,0.13194689,0.036651913,293.1914,8.894686,-5.608408,CSI
2550840128000,2.235019,-4.67419690734351,0.0102918171191553,10.3905503540724,2.4294112,0.160963,0.08582657,293.38885,8.148401,-6.0365,CSI
2550845086000,2.239977,-4.69484417182832,0.110504255408285,10.5327226037642,2.422997,0.21410827,0.15271631,293.5788,7.40153,-6.510856,CSI
2550850002000,2.244893,-4.64796128535152,0.204269602458674,10.6311762492531,2.4281893,0.27672195,0.22968534,293.74966,6.6684427,-6.9916425,CSI
2550855073000,2.249964,-4.47563780452354,0.307909708307519,10.6540392687455,2.4107797,0.35796702,0.31764993,293.89755,5.9267344,-7.5005493,CSI
2550860047000,2.254938,-4.20201362062776,0.415404924867166,10.6100638332137,2.3796256,0.45448375,0.410196,294.02017,5.196654,-8.024988,CSI
2550864999000,2.25989,-3.87228578992965,0.553456746451768,10.5597988310687,2.3585508,0.53969944,0.50243664,294.10614,4.4564853,-8.546355,CSI
2550870060000,2.264951,-3.49395640947287,0.716932479576949,10.5037500971861,2.339614,0.6407976,0.59712076,294.163,3.7327027,-9.091389,CSI
2550875053000,2.269944,-3.00311966697819,1.02066085155763,10.5488678099688,2.2852468,0.68630713,0.68875057,294.1699,3.0105314,-9.580137,CSI
2550880057000,2.274948,-2.40098013688474,1.45858044509034,10.6882055669782,2.2547035,0.75808376,0.7281514,294.1629,2.2969341,-10.095638,CSI
2550885041000,2.279932,-2.02989011221148,1.68203977906885,10.609183941014,2.214081,0.7858781,0.829555,294.0768,1.5700923,-10.523404,CSI
2550890085000,2.284976,-1.8154746376011,1.75827642101006,10.3757091317814,2.1908681,0.8167268,0.9263771,293.97824,0.85657865,-10.963076,CSI
2550895453000,2.290344,-1.62577338882359,1.80618349049706,10.113514868712,2.1682663,0.9816604,1.0042624,293.7915,0.0749716,-11.312301,CSI
2550899996000,2.294887,-1.48709051890627,1.82785268185078,9.88382162137663,2.08977,1.1252137,1.1023064,293.56705,-0.6781601,-11.6557045,CSI
2550905051000,2.299942,-1.35165500255547,1.82297591378764,9.63691784043185,2.0027218,1.1655309,1.2644911,293.28564,-1.4351248,-11.971166,CSI
2550910108000,2.304999,-1.23173147329635,1.79419429080824,9.39707048137877,1.9984456,1.2623531,1.4037683,292.9775,-2.1868105,-12.333018,CSI
2550915025000,2.309916,-1.03174991112131,1.87544713109006,9.28454631558898,1.9465221,1.4129313,1.5415184,292.6083,-2.9082596,-12.688963,CSI
2550920056000,2.314947,-0.754090770521586,2.05427844381715,9.27513444383669,1.8805487,1.5479325,1.6804903,292.19266,-3.623806,-13.055163,CSI
2550925027000,2.319918,-0.668908777574962,2.06588117057042,9.25168448763251,1.8075503,1.6502525,1.8423696,291.7236,-4.32242,-13.426435,CSI
2550930042000,2.324933,-0.785280756413932,1.90102083008582,9.21289355123675,1.7201965,1.666135,2.0167716,291.20523,-5.000938,-13.795782,CSI
2550935039000,2.32993,-0.872995721279877,1.80331197733231,9.19605994834233,1.641395,1.5803084,2.182316,290.61057,-5.7031126,-14.087467,CSI
2550940067000,2.334958,-0.933325179452583,1.77082686210486,9.2007007690825,1.5625933,1.6218473,2.293188,289.97327,-6.381941,-14.403503,CSI
2550945050000,2.339941,-0.893737833653944,1.72734885562341,9.15499820305343,1.4822645,1.4990633,2.4309382,289.30673,-7.011553,-14.658554,CSI
2550950027000,2.344918,-0.72394322604173,1.66913355782188,9.04341918198473,1.4379768,1.3261884,2.5014932,288.62717,-7.6260085,-14.897044,CSI
2550955049000,2.34994,-0.557126155201107,1.79192845831604,8.92573558078862,1.4095715,1.2116512,2.5216517,287.9403,-8.212069,-15.115935,CSI
2550960070000,2.354961,-0.395559311678031,2.12456606128076,8.80218444559739,1.3628404,1.0485502,2.5244007,287.24884,-8.777443,-15.259596,CSI
2550965416000,2.360307,-0.333211905367104,2.39556917655465,8.65378589119937,1.3530666,0.8191703,2.5216517,286.56244,-9.332894,-15.313768,CSI
2550970053000,2.364944,-0.381352648031931,2.5531207910614,8.50936392825466,1.4016303,0.7272351,2.5097399,285.8828,-9.883412,-15.353227,CSI
2550974987000,2.369878,-0.442277888122453,2.70801183113011,8.28468486999304,1.4187346,0.6960809,2.488665,285.17398,-10.48791,-15.300537,CSI
2550980030000,2.374921,-0.519082722985787,2.8472206356724,7.94866347937581,1.4309518,0.54519725,2.4306328,284.49643,-11.0907345,-15.184534,CSI
2550984978000,2.379869,-0.618256253572846,2.9837276344085,7.74029563543073,1.4731015,0.46975538,2.3674083,283.8156,-11.733995,-15.090257,CSI
2550990082000,2.384973,-0.758939128682017,3.12441045886264,7.72089101359667,1.5283848,0.47769663,2.2583687,283.17484,-12.366137,-14.977842,CSI
2550994984000,2.389875,-0.979613675631418,3.19833719714127,7.72911577128319,1.5586227,0.46761733,2.1771238,282.54486,-13.030222,-14.864671,CSI
2550999999000,2.39489,-1.34840797885096,3.1716773847627,7.78243530324729,1.6081028,0.30573806,2.1777346,281.93915,-13.702928,-14.707431,CSI
2551005084000,2.399975,-1.70565304954518,3.11397227501516,7.81198528550637,1.6841555,0.35185838,2.1181753,281.36447,-14.396128,-14.636919,CSI
2551010087000,2.404978,-2.0010521859814,2.95416627102284,7.75871673549626,1.6814066,0.39706242,2.0619757,280.80685,-15.070938,-14.516533,CSI
2551015077000,2.409968,-2.26078043733142,2.84963192714491,7.68796655552367,1.6655241,0.40500367,2.0033326,280.31036,-15.726689,-14.488499,CSI
2551020129000,2.41502,-2.41812030223816,2.90979122045911,7.56302003730273,1.6927075,0.408058,1.9526308,279.83014,-16.38048,-14.470289,CSI
2551025178000,2.420069,-2.63331693222812,2.97500836551724,7.42440029310345,1.7189748,0.410196,1.9419407,279.40616,-16.97776,-14.5298395,CSI
2551030149000,2.42504,-3.10928287939196,3.06243071856764,7.22527152679045,1.7528778,0.3866777,1.9037615,279.01114,-17.570541,-14.584641,CSI
2551035253000,2.430144,-3.51016499451437,3.17792566714259,7.04242315498779,1.7715092,0.32375857,1.8683313,278.63626,-18.171038,-14.669283,CSI
2551040215000,2.435106,-3.61282917535224,3.37432657702423,6.93529550460267,1.7953329,0.30482176,1.8020525,278.2836,-18.768911,-14.76049,CSI
2551045175000,2.440066,-3.70079587989051,3.56593967308632,6.83951025670154,1.7895297,0.28405234,1.749518,277.9874,-19.362877,-14.958022,CSI
2551050132000,2.445023,-3.64046363149868,3.70980907463095,6.85807407389774,1.7806722,0.28221974,1.6985108,277.7126,-19.949915,-15.155175,CSI
2551055392000,2.450283,-3.55761246708567,3.87278405892477,6.86248307311932,1.7608191,0.25778514,1.6148223,277.45502,-20.565058,-15.3666,CSI
2551060079000,2.45497,-3.29719958374589,4.12017621878747,6.71491571968671,1.7095064,0.30207285,1.5515977,277.20154,-21.158648,-15.592193,CSI
2551065409000,2.4603,-3.00222796928181,4.3944301084797,6.54931336732045,1.6902641,0.31398472,1.4953982,276.95496,-21.774153,-15.779618,CSI
2551070107000,2.464998,-2.79149332970336,4.33735623910031,6.49662970742584,1.6508633,0.33169982,1.42973,276.72552,-22.355772,-15.981672,CSI
2551075151000,2.470042,-2.56523842931304,4.27607897278493,6.44006598232826,1.611768,0.3747658,1.4010195,276.4339,-23.00707,-16.109077,CSI
2551080078000,2.474969,-2.44281573372287,4.32356329910963,6.49999235002782,1.5845845,0.4334089,1.3973542,276.15277,-23.638536,-16.244041,CSI
2551085159000,2.48005,-2.3254763016138,4.38223292091449,6.57220126757559,1.5442673,0.41447207,1.3066407,275.9106,-24.236937,-16.378244,CSI
2551090153000,2.485044,-2.08125629994607,4.47472778231234,6.5809456105371,1.4941764,0.419359,1.2684617,275.63348,-24.823824,-16.471035,CSI
2551095095000,2.489986,-1.80051088465272,4.57681696609146,6.57073663885893,1.4141531,0.42394048,1.2290609,275.38696,-25.375353,-16.565798,CSI
2551100129000,2.49502,-1.52313673049691,4.75300536206771,6.52628777928649,1.3234396,0.4908302,1.1838568,275.13046,-25.91102,-16.640036,CSI
2551105245000,2.500136,-1.24222293461048,4.94028131911176,6.47723936312341,1.2330315,0.5494733,1.1643091,274.88135,-26.416018,-16.71144,CSI
2551110078000,2.504969,-0.897498744333441,5.1628741991891,6.48962580608714,1.1658363,0.58001655,1.1227703,274.61093,-26.924374,-16.725895,CSI
2551115085000,2.509976,-0.508664202870581,5.41172827064548,6.5259169470213,1.065349,0.6087272,1.0772609,274.3423,-27.389687,-16.755117,CSI
2551120107000,2.514998,-0.18306350329362,5.61807071752498,6.48425623501153,0.93828905,0.6203337,1.0467176,274.0338,-27.88184,-16.704842,CSI
2551125172000,2.520063,0.133850777696964,5.81847254256341,6.42833027445235,0.81092364,0.61483586,1.0002918,273.74368,-28.333603,-16.66416,CSI
2551130127000,2.525018,0.194090733933667,5.40105130284418,6.73597096584144,0.6747007,0.60139686,0.9605856,273.41666,-28.799486,-16.524508,CSI
2551135093000,2.529984,0.185103034107531,4.81235670849476,7.14491142289521,0.52503866,0.54275376,0.9202685,273.1142,-29.215212,-16.379189,CSI
2551140122000,2.535013,0.260477736345425,5.07755447371954,7.18212084439632,0.39675698,0.54733527,0.9034697,272.77103,-29.653198,-16.16366,CSI
2551145105000,2.539996,0.379328653362209,5.79066002977802,7.02193047915539,0.2761111,0.55863625,0.86742866,272.4565,-30.039404,-15.946257,CSI
2551150128000,2.545019,0.439690319477181,6.12285846024456,6.97608319604275,0.11942416,0.57726765,0.8323039,272.22156,-30.201557,-15.742896,CSI
2551155117000,2.550008,0.485693294754477,6.36207390094358,6.95768197134604,-0.035430185,0.58184916,0.79168135,272.0011,-30.32332,-15.548669,CSI
2551160086000,2.554977,0.548185880257467,6.37584536225541,7.14277400633368,-0.19456059,0.57635134,0.73273283,271.7265,-30.544289,-15.32242,CSI
2551165078000,2.559969,0.6171152106138,6.30691602161689,7.40372075549949,-0.35369098,0.505491,0.65240407,271.48178,-30.7121,-15.095083,CSI
2551170106000,2.564997,0.590979121798497,6.49367721420803,7.04569573765078,-0.5137377,0.52442783,0.61117065,271.21,-30.882486,-14.876166,CSI
2551175212000,2.570103,0.53779633536583,6.75475652567728,6.50903292448092,-0.5726862,0.59040123,0.58551437,270.963,-31.026485,-14.666332,CSI
2551180073000,2.574964,0.587038099629341,6.69557795165821,6.27667948960203,-0.6805039,0.6243043,0.5357288,270.75204,-31.064789,-14.44337,CSI
2551185139000,2.58003,0.667488126570425,6.54414250218494,6.11577928747561,-0.8151997,0.61911196,0.46578476,270.55246,-31.072598,-14.239613,CSI
2551190124000,2.585015,0.761957344405287,6.18535139151982,6.26828352246696,-0.9306532,0.5748242,0.4007276,270.32678,-31.158596,-14.073411,CSI
2551195074000,2.589965,0.861627864229075,5.74869959085903,6.53881777356828,-1.0430524,0.4728097,0.3313944,270.13342,-31.19972,-13.906768,CSI
2551200084000,2.594975,0.757017835641324,5.56756667611046,6.58914242393944,-1.1328496,0.51251596,0.27916542,269.9373,-31.203005,-13.765926,CSI
2551205128000,2.600019,0.568167840778573,5.49122303831309,6.54896160610547,-1.1896601,0.5045747,0.21868975,269.78748,-31.177248,-13.604277,CSI
2551210093000,2.604984,0.37995785246759,5.380687927049,6.40884070861349,-1.2678508,0.44929138,0.16829337,269.6932,-31.004807,-13.427171,CSI
2551215108000,2.609999,0.184723362509339,5.19073006339266,6.04475495938255,-1.344209,0.34300083,0.10323623,269.62915,-30.812862,-13.250583,CSI
2551220786000,2.615677,-0.0656160229214815,4.96389016414815,5.87588905659259,-1.4144585,0.3200934,0.061391957,269.58356,-30.580595,-13.146342,CSI
2551225227000,2.620118,-0.27984422230321,4.77906605165432,5.89689180661728,-1.4764613,0.28619036,0.02443461,269.57263,-30.327974,-13.024905,CSI
2551230129000,2.62502,-0.431320642826087,4.7003386548913,5.93574660815217,-1.5225816,0.2180789,0.012217305,269.58047,-30.060171,-12.954627,CSI
2551235149000,2.63004,-0.493077813814229,4.75734516971344,5.99275302376482,-1.5803084,0.17104226,0.007941248,269.598,-29.773907,-12.886114,CSI
2551240154000,2.635045,-0.710395119913547,4.69229668646233,6.11351097776795,-1.6539177,0.13927728,0.029321533,269.65167,-29.420862,-12.869273,CSI
2551245201000,2.640092,-1.11875905092838,4.47861779310345,6.31294457851459,-1.7143933,0.11209377,0.058643065,269.7102,-29.060999,-12.841301,CSI
2551250055000,2.644946,-1.44835023959283,4.24648045295201,6.48521949447407,-1.7611245,0.036651913,0.0711658,269.7734,-28.695044,-12.806194,CSI
2551255286000,2.650177,-1.70575230761997,3.95508185475521,6.64063217484246,-1.7968601,-0.0106901415,0.087659165,269.8271,-28.323515,-12.766592,CSI
2551260089000,2.65498,-1.89839156783632,3.71643329813186,6.76974703573194,-1.8435913,-0.058337633,0.08460484,269.94598,-27.85637,-12.8153105,CSI
2551265092000,2.659983,-2.01678830213502,3.52226279828012,6.87867189480083,-1.8658879,-0.06841691,0.0693332,270.06253,-27.394043,-12.859367,CSI
2551270083000,2.664974,-2.11088050136715,3.34951048016644,7.0130270866059,-1.890628,-0.06994407,0.07727446,270.2327,-26.836233,-12.962302,CSI
2551275145000,2.670036,-2.15410418418863,3.2198393815534,7.20513249403606,-1.8881844,-0.092240654,0.09010262,270.40552,-26.288523,-13.055579,CSI
2551280066000,2.674957,-2.2019501820014,3.11175935073699,7.41667846064374,-1.9034561,-0.10140363,0.08857546,270.61194,-25.676561,-13.1856,CSI
2551285141000,2.680032,-2.26530412489722,3.04353187104181,7.69446156001203,-1.9016235,-0.11911872,0.06169739,270.82074,-25.079603,-13.30512,CSI
2551290212000,2.685103,-2.28929642599071,2.98746380554796,7.94073275703744,-1.9052887,-0.14935656,0.037873644,271.03864,-24.44137,-13.423583,CSI
2551295162000,2.690053,-2.23315480396283,2.95723372219186,8.11779502814977,-1.9040669,-0.18448131,0.006414085,271.26288,-23.813889,-13.535944,CSI
2551300091000,2.694982,-2.17820757134256,2.92997254605659,8.29186564780253,-1.9113973,-0.226631,-0.027488936,271.51395,-23.149279,-13.641345,CSI
2551305145000,2.700036,-2.12964129881597,2.92511581737909,8.45213465141481,-1.9321668,-0.21471913,-0.059864793,271.76434,-22.491795,-13.750457,CSI
2551310109000,2.705,-2.08311138228051,2.91281893410752,8.60255660186205,-1.9538525,-0.16920967,-0.07727446,272.01443,-21.822823,-13.828365,CSI
2551315091000,2.709982,-2.04489995599159,2.84594906278907,8.70286143377716,-1.9343048,-0.13072516,-0.112704635,272.27133,-21.168962,-13.909289,CSI
2551320115000,2.715006,-1.99837215509945,2.7642355887188,8.82398198371685,-1.9193386,-0.054061573,-0.15393804,272.51703,-20.508343,-13.989505,CSI
2551325260000,2.720151,-1.89267807295242,2.57686884549532,9.09302143818253,-1.9168952,0.044898596,-0.18142697,272.75674,-19.861252,-14.084562,CSI
2551330184000,2.725075,-1.78849724812364,2.39960348365694,9.36218975306922,-1.9382755,0.14538592,-0.19425514,272.9935,-19.202383,-14.185731,CSI
2551335118000,2.730009,-1.65272753024815,2.24326257297344,9.75304160017414,-1.9581286,0.21868975,-0.23304509,273.23328,-18.553722,-14.307193,CSI
2551340127000,2.735018,-1.51489402460601,2.08454517905094,10.1498346488463,-1.9685133,0.26633725,-0.267559,273.48413,-17.856176,-14.407175,CSI
2551345122000,2.740013,-1.40665997454003,1.82360588171059,10.5300753999005,-1.9633209,0.32742378,-0.2929099,273.73108,-17.16964,-14.528996,CSI
2551350092000,2.744983,-1.30725354888115,1.53485397280955,10.9040329294878,-1.920255,0.3286455,-0.321926,273.98608,-16.501942,-14.646177,CSI
2551355124000,2.750015,-1.23892664396319,1.10691559325402,10.9429832045729,-1.8845193,0.38606682,-0.35216382,274.25894,-15.780117,-14.730014,CSI
2551360690000,2.755581,-1.17451934826657,0.586702473705735,10.8686670941537,-1.7983873,0.47952923,-0.46273044,274.55585,-15.091733,-14.829583,CSI
2551365112000,2.760003,-1.07228973319097,0.528293248599756,10.8356075509457,-1.7159204,0.52320606,-0.49632803,274.87103,-14.346508,-14.882679,CSI
2551370135000,2.765026,-0.930432428920073,0.640800771592434,10.81114941265,-1.6691893,0.569021,-0.47311515,275.18942,-13.628811,-14.963238,CSI
2551375125000,2.770016,-0.849874723883866,0.608212872037372,10.7433742790838,-1.5900823,0.6227771,-0.43982297,275.54956,-12.852532,-15.053853,CSI
2551380175000,2.775066,-0.80128837151296,0.49646421034358,10.6510603399638,-1.5305228,0.6569856,-0.44135013,275.90674,-12.100662,-15.148532,CSI
2551385150000,2.780041,-0.806506694464286,0.523312328702254,10.5812918844538,-1.5063937,0.6420194,-0.45540005,276.23788,-11.407139,-15.207229,CSI
2551390115000,2.785006,-0.838290673928571,0.618664305024828,10.522264710084,-1.4892895,0.57787853,-0.48502702,276.57114,-10.741622,-15.259675,CSI
2551395120000,2.790011,-0.997237198332454,0.808542270226913,10.4620864625858,-1.4504995,0.50793445,-0.5222898,276.91635,-10.081699,-15.299754,CSI
2551400117000,2.795008,-1.25482250159367,1.07117820883377,10.4014779946174,-1.42973,0.5002986,-0.56230146,277.26712,-9.4329405,-15.3384,CSI
2551405120000,2.800011,-1.34394941868934,1.29623970377189,10.2949553949975,-1.4095715,0.53969944,-0.59131753,277.60648,-8.830975,-15.381791,CSI
2551410101000,2.804992,-1.34872200906453,1.5014612394097,10.1660950063532,-1.3970488,0.6053675,-0.5708536,277.9386,-8.245596,-15.427804,CSI
2551415091000,2.809982,-1.61862144326799,1.59584725957807,10.0027424090457,-1.393689,0.65240407,-0.573297,278.25876,-7.7233987,-15.536205,CSI
2551420124000,2.815015,-2.02632429368096,1.63421926427505,9.82047533665041,-1.378112,0.7501425,-0.6096435,278.57523,-7.217236,-15.673941,CSI
2551425212000,2.820103,-2.26432307319403,1.6181887078806,9.70072215044776,-1.3304645,0.87964594,-0.64965516,278.85883,-6.779615,-15.840026,CSI
2551430243000,2.825134,-2.41294076552239,1.57504165044776,9.6144282358209,-1.2999213,0.9602802,-0.6585127,279.1406,-6.349391,-16.015408,CSI
2551435091000,2.829982,-2.43257850801975,1.44351007032414,9.62077680672504,-1.2834278,0.98532563,-0.64873886,279.42322,-5.9416285,-16.309834,CSI
2551440190000,2.835081,-2.38709410767511,1.25702373919523,9.67535785916543,-1.2663237,0.9611965,-0.6386596,279.70575,-5.5489235,-16.60513,CSI
2551445114000,2.840005,-2.36801923441524,1.0639092091625,9.7853836953283,-1.2492194,0.89949906,-0.66645396,279.99942,-5.156003,-16.929924,CSI
2551450104000,2.844995,-2.37310471190806,0.855404472650846,9.95320477120358,-1.2092078,0.84635377,-0.6899723,280.28766,-4.781988,-17.240885,CSI
2551455124000,2.850015,-2.32571839122056,0.69157057735546,9.99412581905782,-1.1798862,0.8020661,-0.70280045,280.6011,-4.3722973,-17.516373,CSI
2551460099000,2.85499,-2.24688260622932,0.557086047109208,9.95702638115632,-1.1569787,0.7855727,-0.6936375,280.91348,-3.979013,-17.77701,CSI
2551465092000,2.859983,-2.26871175990797,0.40656739363209,9.87887777963389,-1.128879,0.77763146,-0.6835582,281.25146,-3.5563316,-18.0129,CSI
2551470137000,2.865028,-2.3702037159948,0.242247131118336,9.76772023537061,-1.119716,0.7965683,-0.6936375,281.58997,-3.1417058,-18.244987,CSI
2551475178000,2.870069,-2.42439833864225,-0.0208695462074457,9.70665529066295,-1.065349,0.8237518,-0.72234815,281.94357,-2.724963,-18.456535,CSI
2551480091000,2.874982,-2.44313244000597,-0.348717405764483,9.683237602827,-0.98899084,0.84604836,-0.7495316,282.297,-2.3237207,-18.665821,CSI
2551485089000,2.87998,-2.44649159812262,-0.746198738457025,9.72169877031387,-0.87964594,0.81306165,-0.7629707,282.67572,-1.9156574,-18.891615,CSI
2551490172000,2.885063,-2.43697196963919,-1.20314366410971,9.8121356136697,-0.73853606,0.7473936,-0.75502944,283.05322,-1.5438856,-19.10737,CSI
2551495092000,2.889983,-2.48830691417873,-1.5896132835347,10.0631698883674,-0.5925393,0.63621616,-0.72387534,283.47,-1.1366299,-19.301558,CSI
2551500092000,2.894983,-2.5982752117324,-1.92908073236146,10.4743561090364,-0.42943826,0.52839845,-0.70646566,283.88483,-0.7791752,-19.471617,CSI
2551505119000,2.90001,-3.04535466681287,-1.91173794824561,10.7138289812866,-0.27366763,0.4428773,-0.70341134,284.3515,-0.3664302,-19.602743,CSI
2551510096000,2.904987,-3.81187742602339,-1.5493817877193,10.7835128023392,-0.112704635,0.36285394,-0.71776664,284.81198,-0.00751577,-19.700096,CSI
2551515090000,2.909981,-4.30380525311009,-1.21671492599383,10.7367643356094,0.03390302,0.25900686,-0.70341134,285.29846,0.376358,-19.7586,CSI
2551520122000,2.915013,-4.4615701494154,-0.919214905640258,10.5474461023291,0.16310102,0.1554652,-0.6753115,285.7763,0.7118161,-19.791773,CSI
2551525148000,2.920039,-4.59130964190958,-0.647196911491176,10.2774388552449,0.2843578,0.050396383,-0.67256266,286.21875,0.93125856,-19.962824,CSI
2551530120000,2.925011,-4.6621245571981,-0.430031476908586,9.84310808467182,0.3463606,-0.017715093,-0.6542367,286.64093,1.1212767,-20.109198,CSI
2551535064000,2.929955,-4.70615584507469,-0.242519972460537,9.40048689553896,0.3903429,-0.06383542,-0.6401868,287.02548,1.2156904,-20.280033,CSI
2551540180000,2.935071,-4.68637600938635,-0.118895264641805,8.91587808124748,0.38515055,-0.06658431,-0.6197228,287.39755,1.3013883,-20.438936,CSI
2551545085000,2.939976,-4.63011840982503,-0.0325254209636608,8.49590041376658,0.3753767,-0.03268129,-0.59223384,287.74515,1.3331556,-20.643457,CSI
2551550127000,2.945018,-4.49085775908479,-0.0139573534253028,8.1616749489329,0.33200526,0.025045475,-0.58551437,288.08917,1.3743436,-20.849062,CSI
2551555086000,2.949977,-4.34318397192521,-0.01470831074381,7.89233987678626,0.2770274,0.056199603,-0.5876524,288.4207,1.4003955,-21.089712,CSI
2551560078000,2.954969,-4.1595879991713,-0.0775174529449217,7.81503637303689,0.22266038,0.086437434,-0.593761,288.74844,1.4371706,-21.341368,CSI
2551565083000,2.959974,-3.98765644439571,-0.150203099232456,7.77896361846979,0.20158553,0.11728613,-0.59712076,289.0766,1.4790317,-21.597637,CSI
2551570113000,2.965004,-3.85071714566277,-0.251929444188596,7.86503961603314,0.17379116,0.077579886,-0.60139686,289.40298,1.537118,-21.837515,CSI
2551575177000,2.970068,-3.71285221349903,-0.354343402609649,7.95169743942495,0.18906279,0.022907447,-0.6072,289.73297,1.6007776,-22.042702,CSI
2551580107000,2.974998,-3.61494444485864,-0.466229056786422,8.08467849189627,0.21074851,-0.055283304,-0.60048056,290.05627,1.6681439,-22.226166,CSI
2551585064000,2.979955,-3.52518061080497,-0.58163966167477,8.23001017990276,0.25992316,-0.11178834,-0.6068946,290.38147,1.725152,-22.396723,CSI
2551590114000,2.985005,-3.4685338856482,-0.666916679929555,8.45613569782357,0.32620203,-0.1863139,-0.5919284,290.70654,1.7916694,-22.489504,CSI
2551595085000,2.989976,-3.43850154027968,-0.726981407252655,8.73643821511934,0.40683624,-0.24831672,-0.5748242,291.02863,1.8405805,-22.568108,CSI
2551600099000,2.99499,-3.44281722202761,-0.718350038499332,8.94676606338133,0.4801401,-0.31703907,-0.5681047,291.3559,1.8972757,-22.586401,CSI
2551605109000,3,-3.46418271171144,-0.675619033103755,9.12125082143387,0.5311473,-0.36163223,-0.5729916,291.67728,1.9368527,-22.593893,CSI
2551610417000,3.005308,-3.48744862837324,-0.623961768256178,9.29777435382244,0.57726765,-0.4034765,-0.57848936,291.99985,1.9666748,-22.551601,CSI
2551615579000,3.01047,-3.52555104650513,-0.416779998347223,9.26443483120574,0.6026186,-0.4120286,-0.59803706,292.32437,1.9896111,-22.507149,CSI
2551620097000,3.014988,-3.55889988903126,-0.235445779740354,9.23525467561058,0.61208695,-0.37140608,-0.59712076,292.63547,1.9880545,-22.451172,CSI
2551625145000,3.020036,-3.596160835705,-0.0328395080432584,9.20265143846043,0.5766568,-0.31490102,-0.59131753,292.94785,1.992725,-22.399033,CSI
2551630079000,3.02497,-3.63258031092056,0.165191265441977,9.17078448677682,0.5314528,-0.2742785,-0.5910121,293.25873,1.997568,-22.355541,CSI
2551635075000,3.029966,-3.61984338841608,0.305566359305556,9.06828794208038,0.49663344,-0.24709499,-0.58246,293.57184,2.009319,-22.324509,CSI
2551640147000,3.035038,-3.59592025524035,0.43475137337963,8.94867227620174,0.45662177,-0.20525073,-0.56505036,293.87946,2.0327215,-22.310232,CSI
2551645074000,3.039965,-3.58009544465962,0.474629611588776,8.82471944590455,0.4166101,-0.17287487,-0.55833083,294.1433,1.9766626,-22.31973,CSI
2551650182000,3.045073,-3.56559540679775,0.493963005498469,8.69421890327043,0.37690386,-0.16218472,-0.5543602,294.40103,1.9304364,-22.335363,CSI
2551655103000,3.049994,-3.52507817009415,0.586616087640761,8.68405270851024,0.33505958,-0.14294247,-0.5335908,294.63504,1.8662224,-22.367184,CSI
2551660084000,3.054975,-3.4766451402806,0.701094009733247,8.70606768026583,0.2919936,-0.12461651,-0.5314528,294.87207,1.815511,-22.401545,CSI
2551665065000,3.059956,-3.4131765094646,0.776358078131744,8.78537509259069,0.28527406,-0.14538592,-0.516792,295.09583,1.760454,-22.438147,CSI
2551670112000,3.065003,-3.33867120278491,0.826028369026822,8.90458356253211,0.2742785,-0.18478674,-0.5006041,295.31674,1.7182592,-22.474216,CSI
2551675200000,3.070091,-3.28120022512473,0.845996497345839,8.99653702514468,0.27091873,-0.22968534,-0.48258355,295.528,1.6492463,-22.485401,SIT
2551680093000,3.074984,-3.23444366037717,0.850672139173818,9.07134739203752,0.2574797,-0.27947086,-0.46761733,295.7335,1.5853883,-22.48425,SIT
2551685635000,3.080526,-3.17561472515213,0.792563321906694,9.15422248884381,0.24678956,-0.35338554,-0.453262,295.93063,1.510106,-22.437685,SIT
2551690152000,3.085043,-3.12547462899643,0.721531413580605,9.22107609581764,0.23243423,-0.41905355,-0.4184427,296.11545,1.4365752,-22.380672,SIT
2551695071000,3.089962,-3.10548302574062,0.60900674236998,9.26158504871626,0.20952678,-0.4831944,-0.3866777,296.29318,1.3659426,-22.288376,SIT
2551700143000,3.095034,-3.11005121248001,0.467392848507477,9.27985770027274,0.21288654,-0.4831944,-0.3491095,296.4576,1.2887902,-22.198076,SIT
2551705103000,3.099994,-3.11012542159042,0.313195157951047,9.3128710281103,0.1966986,-0.4746423,-0.31337386,296.6319,1.2400919,-22.074799,SIT
2551710101000,3.104992,-3.10500946964515,0.139252668945062,9.36403108176571,0.17531833,-0.4364632,-0.27885997,296.79434,1.1886892,-21.96296,SIT
2551715068000,3.109959,-3.11665643556086,0.0532667040859189,9.404550424821,0.12217305,-0.3744604,-0.24984388,296.9678,1.1808746,-21.863085,SIT
2551720130000,3.115021,-3.14076033452665,0.0291627869984089,9.43829608472554,0.076052725,-0.32498032,-0.19730948,297.1222,1.1707989,-21.773226,SIT
2551725176000,3.120067,-3.16711864421571,0.0327779110893979,9.4359597988789,0.03756821,-0.27366763,-0.14660765,297.2942,1.2070913,-21.698603,SIT
2551730184000,3.125075,-3.19492996019136,0.0559540251599497,9.40814838610225,0.0076358155,-0.22082779,-0.10415252,297.45102,1.2478274,-21.640425,SIT
2551735105000,3.129996,-3.1829499499335,0.0946162329070872,9.36956736196086,-0.017104227,-0.16798794,-0.048563786,297.59583,1.2962822,-21.600063,SIT
2551740223000,3.135114,-3.13172871808854,0.150493979272278,9.3183455466464,-0.049480084,-0.09162979,-0.007941248,297.73114,1.3507805,-21.582582,SIT
2551745109000,3.14,-3.06827589123007,0.218390461788155,9.26582185649203,-0.08032878,-0.028405234,0.029932396,297.8521,1.4011121,-21.584505,SIT
2551750199000,3.14509,-2.98037024819666,0.310922627856872,9.205676182612,-0.11789699,0.043066,0.0571159,297.96338,1.4576759,-21.610758,SIT
2551755430000,3.150321,-2.88859617456987,0.4096287999112,9.15929862104562,-0.15668693,0.10323623,0.07574729,298.05685,1.5056089,-21.644335,SIT
2551760141000,3.155032,-2.80346156998557,0.504779255093795,9.14427456277056,-0.19730948,0.12003502,0.08307768,298.14505,1.5614514,-21.685312,SIT
2551765081000,3.159972,-2.73322546099932,0.584875996996209,9.14079942889083,-0.20891592,0.15393804,0.089491755,298.22476,1.5972484,-21.730793,SIT
2551770162000,3.165053,-2.68119309696705,0.646368840244969,9.15026005628463,-0.23487769,0.14905111,0.090713486,298.303,1.646664,-21.769175,SIT
2551775196000,3.170087,-2.66034814288929,0.69077138870387,9.1521816219622,-0.24923302,0.1386664,0.098043874,298.36786,1.6738769,-21.797934,SIT
2551780105000,3.174996,-2.67680414286429,0.714280019711971,9.14512913821382,-0.2489276,0.112704635,0.10323623,298.43237,1.7036635,-21.820194,SIT
2551785068000,3.179959,-2.69344116219122,0.738047250450045,9.13799907570757,-0.25961772,0.07727446,0.10842858,298.48773,1.7248621,-21.82341,SIT
2551790156000,3.185047,-2.71049720779578,0.762413091674167,9.13068943274327,-0.267559,0.040011674,0.118202426,298.53955,1.7439257,-21.818577,SIT
2551795082000,3.189973,-2.72743117090589,0.770007766848833,9.11146057864024,-0.25992316,0.01863139,0.12064589,298.59155,1.7616085,-21.808138,SIT
2551800150000,3.195041,-2.74541388639311,0.756520718497592,9.07549495989255,-0.25320363,0.004276057,0.124311075,298.6396,1.7801583,-21.789358,SIT
2551805084000,3.199975,-2.75545690628983,0.742995809434738,9.04475524039054,-0.25473082,-0.004581489,0.121256754,298.68338,1.788894,-21.774069,SIT
2551810109000,3.205,-2.74556514472765,0.72815816709147,9.02497182055498,-0.26145032,-0.015271631,0.12217305,298.72455,1.7963555,-21.754482,SIT
2551815075000,3.209966,-2.72677346686826,0.70877687423087,9.00771064554299,-0.2510656,-0.0036651916,0.12339478,298.77118,1.8039855,-21.745714,SIT
2551820125000,3.215016,-2.68862239666053,0.679103819624858,8.99499379919362,-0.24953845,0.004276057,0.124005646,298.81738,1.8155428,-21.73308,SIT
2551825179000,3.22007,-2.65090829442314,0.648637538258992,8.98275773183517,-0.24404067,0.01282817,0.116675265,298.86865,1.8274415,-21.723598,SIT
2551830163000,3.225054,-2.62079129573363,0.606937075743824,8.97812425438043,-0.25625798,0.02687807,0.12614368,298.9145,1.841612,-21.71828,SIT
2551835069000,3.22996,-2.59114563049071,0.565889228813765,8.97356329121973,-0.27030787,0.045814894,0.121256754,298.97028,1.8639746,-21.708921,SIT
2551840155000,3.235046,-2.56041227267874,0.52333534591807,8.96883498738048,-0.28313604,0.061086524,0.11881329,299.0222,1.887667,-21.702818,SIT
2551845091000,3.239982,-2.53058532534097,0.482036492993739,8.96424613410668,-0.29260445,0.074830994,0.118507855,299.07474,1.9140886,-21.701735,SIT
2551850150000,3.245041,-2.51933847925564,0.452024904435242,8.95942166962682,-0.30695978,0.07574729,0.1255328,299.12543,1.9442395,-21.701366,SIT
2551855095000,3.249986,-2.50988776617442,0.423672888545201,8.95469623907404,-0.3109304,0.09560041,0.12034045,299.17996,1.9749526,-21.710117,SIT
2551860104000,3.254995,-2.51353724712,0.399309745964,8.9366583037,-0.31490102,0.11484267,0.11575896,299.24402,2.0271423,-21.706272,SIT
2551865112000,3.260003,-2.51833330856,0.375329418732,8.9174741581,-0.33444872,0.13225232,0.119729586,299.30667,2.0832846,-21.707626,SIT
2551870101000,3.264992,-2.52934199352955,0.352211615157539,8.91175014480097,-0.3286455,0.15027285,0.1255328,299.3734,2.1395102,-21.713017,SIT
2551875119000,3.27001,-2.54093578895537,0.32902396135392,8.9071125200965,-0.34972036,0.15790866,0.12767084,299.43948,2.206971,-21.72024,SIT
2551880071000,3.274962,-2.55237709524246,0.30614128665573,8.90253589244873,-0.34269542,0.16982053,0.121256754,299.5075,2.2696075,-21.735945,SIT
2551885115000,3.280006,-2.56403096214717,0.282833489568154,8.89787423860072,-0.33017266,0.17623462,0.12003502,299.57263,2.334406,-21.751982,SIT
2551890158000,3.285049,-2.57400659909467,0.248037600405432,8.92654300885652,-0.3371976,0.18203785,0.1160644,299.63998,2.402208,-21.770502,SIT
2551895201000,3.290092,-2.58351197421767,0.210016864154694,8.96456401308797,-0.3210097,0.17989981,0.1160644,299.70575,2.4591086,-21.788183,SIT
2551900239000,3.29513,-2.58933953392161,0.143487754922387,8.99147585764431,-0.3042109,0.16218472,0.108123146,299.78073,2.5286791,-21.808151,SIT
2551905276000,3.300167,-2.59404291125195,0.0682328787917317,9.01499298985959,-0.28405234,0.16371189,0.1133155,299.85104,2.5904012,-21.832645,SIT
2551910171000,3.305062,-2.61227621714458,0.0410994208915179,8.97385982283938,-0.26236662,0.16371189,0.10476339,299.93085,2.6565387,-21.850245,SIT
2551915141000,3.310032,-2.63613660214558,0.0315552609115701,8.90705084449569,-0.2434298,0.16737708,0.10751228,300.00476,2.715106,-21.869164,SIT
2551920128000,3.315019,-2.65299752494907,0.031996697370453,8.86114659549908,-0.23945917,0.17959438,0.10995574,300.09122,2.7889538,-21.889334,SIT
2551925178000,3.320069,-2.66707149138617,0.0366880229451935,8.82361572441556,-0.23671028,0.18784106,0.1151481,300.17496,2.8562162,-21.909128,SIT
2551930145000,3.325036,-2.68119643074537,0.0336735664657329,8.810662,-0.23426682,0.19761491,0.12034045,300.2598,2.9242454,-21.942963,SIT
2551935094000,3.329985,-2.69542224335668,0.0265606675872936,8.810662,-0.22418754,0.20372356,0.12339478,300.3428,2.9879186,-21.977476,SIT
2551940816000,3.335707,-2.71187003074037,0.0183367824827414,8.810662,-0.22021692,0.20280726,0.11575896,300.42188,3.050831,-22.01975,SIT
2551945094000,3.339985,-2.72416706576788,0.0121882713891946,8.810662,-0.22693644,0.20219639,0.11209377,300.49808,3.1120265,-22.063091,SIT
2551950089000,3.34498,-2.74134640568651,0.00658769949204479,8.8046838205657,-0.22296582,0.20280726,0.108123146,300.57626,3.1689534,-22.105047,SIT
2551955127000,3.350018,-2.76030058185032,0.00184914580259281,8.7952067695934,-0.2180789,0.19303341,0.106901415,300.6537,3.2264009,-22.143019,SIT
2551960094000,3.354985,-2.7789876388185,-0.00282262795197407,8.78586327769593,-0.20433442,0.18112154,0.10293079,300.73502,3.2836561,-22.18577,SIT
2551965093000,3.359984,-2.79779508753683,-0.0075244997053624,8.7764595901591,-0.20647246,0.16310102,0.10354166,300.8141,3.3423328,-22.223179,SIT
2551970127000,3.365018,-2.81689580680889,-0.0122996714765228,8.76146360691855,-0.2125811,0.15271631,0.092240654,300.8971,3.3990831,-22.25831,SIT
2551975417000,3.370308,-2.83709779524474,-0.0173501459087828,8.74126182942877,-0.19700404,0.15271631,0.092240654,300.97534,3.4483178,-22.29083,SIT
2551980090000,3.374981,-2.83700768495115,-0.0215882617859556,8.73161330289471,-0.19639318,0.14935656,0.08032878,301.05713,3.506439,-22.329182,SIT
2551985092000,3.379983,-2.82388459469455,-0.0259625822691992,8.72723889379965,-0.19120082,0.13622294,0.0729984,301.13638,3.557687,-22.364048,SIT
2551990139000,3.38503,-2.8234224960844,-0.0326511397937786,8.73819359256037,-0.18509217,0.12950343,0.06841691,301.21893,3.610076,-22.404608,SIT
2551995095000,3.389986,-2.8440720468784,-0.0429758408022623,8.77433023906896,-0.1740966,0.13255776,0.06261369,301.30307,3.6596804,-22.443287,SIT
2552000090000,3.394981,-2.85612704519043,-0.0434069388141718,8.79822454207263,-0.15851954,0.12583824,0.052534413,301.38065,3.7057958,-22.47544,SIT
2552005127000,3.400018,-2.86039970609389,-0.0348616116534987,8.81104234632418,-0.13775012,0.119729586,0.03940081,301.46014,3.747683,-22.50779,SIT
2552010601000,3.405492,-2.86858148420297,-0.0270250241972235,8.83729294734323,-0.1301143,0.10415252,0.03145956,301.54123,3.790455,-22.536087,SIT
2552015090000,3.409981,-2.8809290922068,-0.0229091522839636,8.87845164068933,-0.11942416,0.09773844,0.018020526,301.62717,3.8281698,-22.564306,SIT
2552020165000,3.415056,-2.89536683502126,-0.0196066335725744,8.92325531808079,-0.105068825,0.083383106,0.008246681,301.7115,3.860208,-22.585028,SIT
2552025199000,3.42009,-2.91167275299575,-0.0219360518854851,8.96052603638384,-0.102319926,0.061391957,-0.009162978,301.80106,3.89413,-22.600891,SIT
2552030152000,3.425043,-2.9277162992269,-0.0242279884972942,8.99719704706223,-0.08674286,0.048563786,-0.02443461,301.88336,3.9180088,-22.61572,SIT
2552035090000,3.429981,-2.94371125809818,-0.0265129840533436,9.0337570007731,-0.07269296,0.024740042,-0.038789943,301.96906,3.9428132,-22.62059,SIT
2552040212000,3.435103,-2.96068246727806,-0.0293100872743947,9.07126481603081,-0.067500606,0.01985312,-0.04642576,302.055,3.9662478,-22.627829,SIT
2552045099000,3.43999,-2.98214331724138,-0.037894432637931,9.10130973706897,-0.059864793,0.019242255,-0.054367006,302.14404,3.9864767,-22.629206,SIT
2552050076000,3.444967,-3.00399939464417,-0.0466368690763023,9.13190797157007,-0.043676864,0.0030543262,-0.06291912,302.2282,4.0024114,-22.626635,SIT
2552055142000,3.450033,-3.02802994327251,-0.0729792248903148,9.11954297272909,-0.03756821,-0.005497787,-0.073303826,302.31467,4.019673,-22.625885,SIT
2552060091000,3.454982,-3.05178950974534,-0.101490728474835,9.10053541878885,-0.028710667,-0.0070249503,-0.07513642,302.39996,4.031601,-22.62265,SIT
2552065091000,3.459982,-3.05303602538261,-0.103379602099218,9.0822438851457,-0.015577064,-0.0070249503,-0.08582657,302.49133,4.0443797,-22.619469,SIT
2552070095000,3.464986,-3.05076536406065,-0.101108936983653,9.06407868941009,-0.0033597588,0.0067195175,-0.08582657,302.5793,4.0537653,-22.620111,SIT
2552075160000,3.470051,-3.0484670228145,-0.0988105918976546,9.0456920554371,-0.0033597588,-0.002443461,-0.09040806,302.623177348977,4.0607045415398,-22.6199405786871,SIT
2552080408000,3.475299,-3.04608564179578,-0.0964292069003554,9.02664110675196,0.003970624,-0.009773844,-0.08277224,302.66864,4.0678945,-22.619764,SIT
2552085087000,3.479978,-3.0338839858906,-0.0842275426603085,9.0242371887798,0.013744468,-0.00061086525,-0.08246681,302.75885,4.0781317,-22.630505,SIT
2552090207000,3.485098,-3.01554524217859,-0.0658887874588125,9.02882197045348,0.013439035,0.0030543262,-0.090713486,302.84708,4.089134,-22.635569,SIT
2552095093000,3.489984,-2.99344239719674,-0.0549744923482294,9.02098353825655,0.023823744,0.0036651916,-0.08368854,302.92947,4.092318,-22.644903,SIT
2552100096000,3.494987,-2.96643270958335,-0.0500636367217752,9.00133997524727,0.02565634,0.00030543262,-0.083383106,303.01556,4.0992846,-22.6537,SIT
2552105143000,3.500034,-2.93918547924461,-0.0451095914795777,8.98152365253933,0.022602014,0.00030543262,-0.0842994,303.053611896379,4.09960232172434,-22.6563678730746,SIT
2552110094000,3.504985,-2.91245652394301,-0.0402497781262748,8.96208426008302,0.017104227,-0.003970624,-0.08460484,303.09094,4.099914,-22.658985,SIT
2552115091000,3.509982,-2.89893555630153,-0.0411441721796231,8.96282500883392,0.014660766,-0.0067195175,-0.0852157,303.16525,4.0983305,-22.663755,SIT
2552120125000,3.515016,-2.89420355677267,-0.0458761741790342,8.97702130388693,0.023518313,-0.0009162979,-0.086132,303.23938,4.096136,-22.669714,SIT
2552125201000,3.520092,-2.89781505774873,-0.0366453091679473,8.97461578734657,0.016493361,-0.01160644,-0.08552113,303.31082,4.096756,-22.662117,SIT
2552130166000,3.525057,-2.90730489149785,-0.0176656292832053,8.96038073944716,0.004886922,-0.008246681,-0.081855945,303.38138,4.096033,-22.660402,SIT
2552135090000,3.529981,-2.91657050081546,-0.017408572785846,8.94387170740705,0.004276057,-0.017104227,-0.08552113,303.4441,4.0942044,-22.652061,SIT
2552140169000,3.53506,-2.92601440357247,-0.0315743628237064,8.92498409911659,0.007330383,-0.01038471,-0.08246681,303.50345,4.093293,-22.649529,SIT
2552145094000,3.539985,-2.93773670934523,-0.0286622408376617,8.92324063381129,0.0015271631,-0.014966198,-0.0852157,303.56247,4.091875,-22.6445,SIT
2552150114000,3.545005,-2.95219836641933,-0.00937995070029078,8.93770213987767,0.0015271631,-0.013744468,-0.08032878,303.588759514118,4.08837557467824,-22.6441028274968,SIT
2552155117000,3.550008,-2.98084862150411,-0.00480340828965922,8.93993374569134,0.005497787,-0.013439035,-0.07086037,303.61496,4.084888,-22.643707,SIT
2552160097000,3.554988,-3.02288075781434,-0.0141438898525264,8.93059356355268,0.008552114,-0.008246681,-0.08246681,303.67963,4.0869865,-22.645796,SIT
2552165088000,3.559979,-3.04957973845147,-0.0212312453746026,8.91519584963531,0.00061086525,-0.009162978,-0.07788532,303.7382,4.084363,-22.64791,SIT
2552170117000,3.565008,-3.05858693421545,-0.0257348695913596,8.89267774265944,0.0061086523,-0.01863139,-0.073303826,303.79965,4.078693,-22.64883,SIT
2552175146000,3.570037,-3.06955921062494,-0.033711582079687,8.87936042087923,0.008552114,-0.013744468,-0.08032878,303.86444,4.0793257,-22.66365,SIT
2552180093000,3.574984,-3.08419225632657,-0.0483444851724493,8.88423815371152,0.008246681,-0.009162978,-0.079107046,303.92438,4.0777917,-22.675821,SIT
2552185066000,3.579957,-3.09507636508541,-0.0592285069311859,8.88197389399707,-0.0012217305,0.0018325958,-0.07422013,303.98587,4.079943,-22.695166,SIT
2552190160000,3.585051,-3.0998381239141,-0.0639902707320644,8.86768831918009,0.005192355,0.0106901415,-0.06963864,304.04648,4.0778217,-22.714962,SIT
2552195068000,3.589959,-3.10524521588338,-0.0678242222896586,8.86011917677548,-0.004276057,0.008552114,-0.071776666,304.11206,4.086605,-22.736887,SIT
2552200087000,3.594978,-3.11243175351607,-0.0702197358344381,8.86491030191876,-0.0106901415,0.0143553335,-0.07269296,304.17557,4.0921187,-22.763302,SIT
2552205153000,3.600044,-3.11968558887117,-0.0726376819627212,8.86974629314727,-0.0030543262,0.019547688,-0.08032878,304.239,4.0980616,-22.791172,SIT
2552210085000,3.604976,-3.1267475541241,-0.0749916713635684,8.87445436830301,-0.004581489,0.023518313,-0.06078109,304.29382,4.104984,-22.82043,SIT
2552215074000,3.609965,-3.12871980423447,-0.0693742094452374,8.87914807812351,-0.022296581,0.028099801,-0.06627888,304.35822,4.1176043,-22.850098,SIT
2552220131000,3.615022,-3.11950296579123,-0.0463320969761157,8.88375659358645,-0.023823744,0.038789943,-0.060170226,304.41263,4.122732,-22.882797,SIT
2552225147000,3.620038,-3.11455895819804,-0.0308270795116301,8.89042194351087,-0.022907447,0.03604105,-0.06261369,304.47333,4.1345854,-22.913837,SIT
2552230255000,3.625146,-3.12384753588721,-0.0401156630202222,8.9043546160638,-0.01985312,0.033292156,-0.057726767,304.52954,4.1445055,-22.94758,SIT
2552235081000,3.629972,-3.13320327823876,-0.0473549056441608,8.91865263039793,-0.017104227,0.040011674,-0.057726767,304.58453,4.149242,-22.97984,SIT
2552240150000,3.635041,-3.147727502593,-0.0425134949984043,8.94285967098833,-0.018020526,0.03176499,-0.062002823,304.63837,4.153947,-23.006517,SIT
2552245097000,3.639988,-3.16131730222201,-0.0387927283644851,8.96340548874988,-0.02076942,0.03848451,-0.05497787,304.68872,4.15869,-23.039925,SIT
2552250113000,3.645004,-3.17028700230604,-0.0432775807480161,8.95892054504715,-0.020463986,0.024129177,-0.054061573,304.741,4.16388,-23.064196,SIT
2552255466000,3.650357,-3.17968098530574,-0.0480651174570085,8.95503833744121,-0.011301007,0.016187929,-0.05222898,304.79474,4.1659245,-23.091854,SIT
2552260098000,3.654989,-3.183854055635,-0.0522381912722484,8.97173053160865,-0.01038471,0.0143553335,-0.054061573,304.84857,4.170237,-23.116617,SIT
2552265089000,3.65998,-3.18835055693321,-0.0567346963266228,8.98971644289746,-0.01160644,0.01038471,-0.052534413,304.9001,4.1730824,-23.140713,SIT
2552270126000,3.665017,-3.20159682558451,-0.0699810178782573,9.01348794860439,-0.004886922,0.009773844,-0.049785517,304.95132,4.173565,-23.16478,SIT
2552275167000,3.670058,-3.2165138553816,-0.0848981099804305,9.03834975146771,0.00030543262,0.0070249503,-0.038179077,304.9987,4.1734924,-23.18691,SIT
2552280094000,3.674985,-3.20941722003805,-0.0882887113418858,9.02792047241598,-0.00061086525,0.01160644,-0.03756821,305.04797,4.1746144,-23.209581,SIT
2552285062000,3.679953,-3.2001342741915,-0.0906094548310814,9.01399621116043,-0.0027488936,0.006414085,-0.032986723,305.09174,4.17291,-23.228643,SIT
2552290151000,3.685042,-3.190625234052,-0.0929867220646798,8.99973281230184,-0.0033597588,0.008857546,-0.03390302,305.13852,4.1744943,-23.25169,SIT
2552295101000,3.689992,-3.18137592206722,-0.0952990570629725,8.98585900126823,-0.0027488936,0.015882496,-0.030848695,305.18222,4.17527,-23.274347,SIT
2552300186000,3.695077,-3.17564514816057,-0.0919133508010652,8.99075418167472,-0.0036651916,0.022296581,-0.030848695,305.22678,4.1769776,-23.29703,SIT
2552305097000,3.699988,-3.17100641101687,-0.0872746601566229,9.00003126846829,-0.015577064,0.01740966,-0.02443461,305.26788,4.1802635,-23.318262,SIT
2552310084000,3.704975,-3.162468916692,-0.0750100688780785,8.98728983338401,-0.011301007,0.02321288,-0.025961773,305.31903,4.183445,-23.341534,SIT
2552315085000,3.709976,-3.15276113788386,-0.0604483145028884,8.96787427576771,-0.01038471,0.0290161,-0.023518313,305.36633,4.1892805,-23.36326,SIT
2552320151000,3.715042,-3.146991153125,-0.0499041411210937,8.94877769140625,-0.02107485,0.029932396,-0.021685716,305.40802,4.1947207,-23.383554,SIT
2552325235000,3.720126,-3.1422364215625,-0.0403946715417969,8.92975886445313,-0.01740966,0.03023783,-0.014049901,305.4469,4.1951113,-23.405107,SIT
2552330128000,3.725019,-3.13396885984822,-0.0328893431146338,8.92738999775326,-0.024129177,0.029932396,-0.016493361,305.48633,4.1988745,-23.425732,SIT
2552335811000,3.730702,-3.12309962935244,-0.0247374145680264,8.93010736212492,-0.021685716,0.024740042,-0.014660766,305.52158,4.197862,-23.44493,SIT
2552340134000,3.735025,-3.11483151683559,-0.0185363258636477,8.93217443342154,-0.020158553,0.030848695,-0.009773844,305.55215,4.1962266,-23.468184,SIT
2552345125000,3.740016,-3.10528579637026,-0.0113770305308802,8.93456091337561,-0.010079277,0.02443461,-0.013744468,305.5842,4.1925116,-23.485874,SIT
2552350119000,3.74501,-3.10109949295726,-0.0113628153481969,8.94766293740336,-0.0106901415,0.025045475,-0.0070249503,305.61145,4.1894374,-23.507288,SIT
2552355151000,3.750042,-3.0986958589805,-0.0137664510818495,8.96448822464961,-0.023823744,0.023518313,-0.0076358155,305.64175,4.188355,-23.525671,SIT
2552360120000,3.755011,-3.09632231819542,-0.0161399936018255,8.98110286143947,-0.022602014,0.029626964,-0.005192355,305.66306,4.178447,-23.542513,SIT
2552365096000,3.759987,-3.09394543372238,-0.0185168798122101,8.9977409038356,-0.021685716,0.021380283,-0.01038471,305.6864,4.173101,-23.554384,SIT
2552370121000,3.765012,-3.08981387184936,-0.0331330820628645,8.99171355204112,-0.021685716,0.022602014,-0.0106901415,305.70764,4.1669316,-23.570591,SIT
2552375120000,3.770011,-3.08508184424236,-0.05206140298547,8.97751751863201,-0.025961773,0.01740966,-0.004886922,305.7281,4.161628,-23.582415,SIT
2552380100000,3.774991,-3.07699273497674,-0.054091275042867,8.97009836748837,-0.03023783,0.022602014,-0.004886922,305.739322255459,4.15996616272809,-23.5886989664972,SIT
2552385149000,3.78004,-3.06741857934858,-0.0493042932002772,8.96531128967429,-0.033292156,0.0290161,-0.0036651916,305.7507,4.1582813,-23.59507,SIT
2552390122000,3.785013,-3.0614399324611,-0.0541602044328147,8.94976965511551,-0.033292156,0.016187929,-0.0027488936,305.7707,4.1535635,-23.599245,SIT
2552395130000,3.790021,-3.05691750304102,-0.0632051171072136,8.92941866369637,-0.029321533,0.015577064,0.0012217305,305.789,4.153288,-23.6112,SIT
2552400098000,3.794989,-3.05243119526167,-0.0721777860701556,8.90923022013201,-0.04428773,0.0106901415,0.0012217305,305.797320297738,4.15384363469797,-23.6135168829087,SIT
2552405609000,3.8005,-3.04745453620934,-0.0821311634161245,8.88683518943894,-0.034513887,0.009468411,0.0030543262,305.80655,4.15446,-23.616087,SIT
2552410099000,3.80499,-3.04328273585037,-0.0883330250441895,8.87984180887781,-0.038789943,0.0125227375,0.0030543262,305.82346,4.1541085,-23.623354,SIT
2552415090000,3.809981,-3.03851487462344,-0.0931008882625436,8.88460976967581,-0.03573562,0.008246681,0.0061086523,305.83838,4.1526246,-23.62681,SIT
2552420113000,3.815004,-3.03792730295893,-0.0968078672166634,8.89351572201674,-0.03756821,-0.0027488936,-0.00061086525,305.85962,4.159513,-23.630178,SIT
2552425233000,3.820124,-3.04269985658945,-0.099194148018688,8.90783318357018,-0.036651913,-0.003970624,0.010079277,305.8744,4.162434,-23.635502,SIT
2552430075000,3.824966,-3.04721327547207,-0.10145086123029,8.92137325170333,-0.036651913,0.0033597588,0.008552114,305.89532,4.1691146,-23.638256,SIT
2552435091000,3.829982,-3.05188888660697,-0.103788670703523,8.93539988981896,-0.029626964,0.00030543262,0.0067195175,305.91248,4.1724205,-23.63795,SIT
2552440126000,3.835017,-3.05661102083251,-0.103735139669376,8.93668831179385,-0.030848695,0.00030543262,0.011911872,305.9289,4.177432,-23.640726,SIT
2552445110000,3.840001,-3.0613414740337,-0.0990046291694747,8.9130357988107,-0.039095376,0.0009162979,0.015271631,305.94614,4.182794,-23.642721,SIT
2552450086000,3.844977,-3.07116668930001,-0.0943039151539588,8.89612098711315,-0.035124753,-0.00030543262,0.017715093,305.9622,4.1853714,-23.643795,SIT
2552455111000,3.850002,-3.09230855630675,-0.0896057363855316,8.89377209518696,-0.028405234,0.0027488936,0.013133603,305.9793,4.189691,-23.646149,SIT
2552460082000,3.854973,-3.11322322713072,-0.0849580455083472,8.89144844508445,-0.027183503,-0.0009162979,0.01160644,305.99585,4.1931195,-23.6487,SIT
2552465070000,3.859961,-3.1342094226789,-0.0802944602950307,8.88911684848189,-0.021991149,-0.002443461,0.015577064,306.01202,4.1935897,-23.652699,SIT
2552470118000,3.865009,-3.14970885545043,-0.0750234859573726,8.8878072779742,-0.023518313,-0.00580322,0.016493361,306.02927,4.1959844,-23.65499,SIT
2552475439000,3.87033,-3.14463359497535,-0.0674105894152682,8.89034469623027,-0.022296581,-0.00580322,0.015271631,306.038605181145,4.19558772136709,-23.6579098401721,SIT
2552480110000,3.875001,-3.14017831557691,-0.060727665200239,8.89257214984313,-0.018020526,0.0036651916,0.01282817,306.0468,4.1952395,-23.660473,SIT
2552485066000,3.879957,-3.1354511983218,-0.0536369838879538,8.89493551103033,-0.0143553335,-0.0012217305,0.013744468,306.06366,4.193285,-23.66994,SIT
2552490146000,3.885037,-3.1316159,-0.045481777516699,8.8949312077313,-0.019547688,-0.0076358155,0.005497787,306.0845,4.193698,-23.681143,SIT
2552495093000,3.889984,-3.1316159,-0.0342599145054716,8.88595377019281,-0.017715093,-0.010995574,0.004886922,306.1025,4.1903567,-23.691822,SIT
2552500089000,3.89498,-3.1316159,-0.0229268990205126,8.87688741119901,-0.007330383,0.004276057,0.011911872,306.11606,4.182103,-23.703514,SIT
2552505133000,3.900024,-3.1316159,-0.0114849994796532,8.86773394547349,-0.027488936,0.004581489,0.009162978,306.13223,4.1826544,-23.709642,SIT
2552510639000,3.90553,-3.13070840857754,-0.000907492085775401,8.86081472855615,-0.014660766,-0.00030543262,0.010079277,306.14526,4.1707354,-23.718708,SIT
2552515089000,3.90998,-3.12159252408556,-0.0100233832408556,8.8836044397861,-0.019547688,-0.00061086525,0.0076358155,306.16022,4.169474,-23.728836,SIT
2552520175000,3.915066,-3.11160208680979,-0.0185801361246192,8.9070034894326,-0.012217305,-0.0018325958,-0.0018325958,306.1832,4.158982,-23.736881,SIT
2552525180000,3.920071,-3.1047573061786,-0.0140169298189261,8.91156678769993,-0.013439035,-0.0021380284,-0.00061086525,306.20343,4.1511927,-23.745173,SIT
2552530608000,3.925499,-3.09733403559596,-0.00906806192136329,8.9165157553313,-0.016493361,0.004886922,0.008857546,306.22498,4.143954,-23.750946,SIT
2552535097000,3.929988,-3.09119493065023,-0.00497530805397944,8.92060859167936,-0.025045475,0.0030543262,0.002443461,306.25064,4.140267,-23.753725,SIT
2552540172000,3.935063,-3.0842544188214,-0.000348280681073877,8.92523571230008,-0.01740966,0.0030543262,0.002443461,306.264759795837,4.13681552256805,-23.7562980534428,SIT
2552545089000,3.93998,-3.0750430543163,-0.013033155416625,8.93427249204762,-0.018020526,0.004886922,-0.0106901415,306.27844,4.1334715,-23.758791,SIT
2552550107000,3.944998,-3.06542869280784,-0.0274544065479644,8.94388635160548,-0.0290161,0.0012217305,-0.008857546,306.30313,4.1326866,-23.761892,SIT
2552555270000,3.950161,-3.07813466166383,-0.0377681057342266,8.93118066863314,-0.021380283,-0.003970624,-0.0027488936,306.329,4.1238475,-23.7609,SIT
2552560079000,3.95497,-3.09194987377262,-0.046978156739926,8.91736579312069,-0.022602014,0.0012217305,-0.004886922,306.3568,4.120992,-23.761719,SIT
2552565089000,3.95998,-3.08900946995498,-0.050033637595211,8.9224557216148,-0.020463986,0.005497787,-0.0061086523,306.38367,4.117558,-23.758171,SIT
2552570112000,3.965003,-3.08424970964726,-0.052413507311928,8.9295952253995,-0.0290161,0.009162978,-0.005497787,306.4105,4.1173067,-23.756014,SIT
2552575183000,3.970074,-3.07944446486914,-0.0548161191641023,8.93680295458368,-0.032375857,0.005497787,-0.0009162979,306.4374,4.117304,-23.757448,SIT
2552580082000,3.974973,-3.07480220610993,-0.057137238364221,8.94376620941968,-0.02321288,0.013439035,0.004276057,306.46402,4.116051,-23.763212,SIT
2552585092000,3.979983,-3.06681025878235,-0.0721502549457639,8.94840942812832,-0.023823744,0.016798794,0.0033597588,306.48547,4.117462,-23.767527,SIT
2552590863000,3.985754,-3.05701444145693,-0.0917417995845445,8.95330741350585,-0.022602014,0.016798794,-0.00061086525,306.50623,4.1157517,-23.773096,SIT
2552595076000,3.989967,-3.05349051338336,-0.097278853140713,8.95129252141964,-0.021991149,0.016187929,0.002443461,306.5254,4.114452,-23.776165,SIT
2552600084000,3.994975,-3.05099100252241,-0.099778368177611,8.9462936562956,-0.018020526,0.016493361,0.004581489,306.5459,4.1125054,-23.779335,SIT
2552605106000,3.999997,-3.04848450421097,-0.102284870676673,8.94128081670836,-0.029626964,0.0033597588,0.0030543262,306.56827,4.118721,-23.77603,SIT
2552610106000,4.004997,-3.04598898617886,-0.104780392878049,8.93628993699187,-0.03268129,0.010079277,0.0033597588,306.5897,4.12114,-23.778568,SIT
2552615074000,4.009965,-3.05090929668143,-0.103516617748545,8.92784781048809,-0.025350908,0.01282817,0.002443461,306.6113,4.1240883,-23.776224,SIT
2552620128000,4.015019,-3.0581337330713,-0.101108476643813,8.91821506099806,-0.03145956,0.0070249503,-0.0033597588,306.634,4.1317635,-23.773277,SIT
2552625426000,4.020317,-3.06570695507239,-0.0985840738790985,8.90811725593313,-0.023518313,0.008857546,0.008552114,306.65253,4.1330996,-23.773487,SIT
2552630149000,4.02504,-3.07245824376835,-0.0963336483868849,8.89911538101398,-0.03481932,0.0061086523,0.0018325958,306.6781,4.143752,-23.770227,SIT
2552635088000,4.029979,-3.07533227881528,-0.0992998298853286,8.90509382877924,-0.023823744,0.005192355,0.0009162979,306.69714,4.144544,-23.769184,SIT
2552640163000,4.035054,-3.07692468019789,-0.104076938592163,8.916240472184,-0.021380283,0.004886922,0.00580322,306.71613,4.1504903,-23.76754,SIT
2552645095000,4.039986,-3.07847221194548,-0.108719441083219,8.92707303282878,-0.035430185,0.005497787,0.004581489,306.73663,4.1578975,-23.770529,SIT
2552650091000,4.044982,-3.08003982520805,-0.113422186915602,8.93804616198152,-0.03359759,0.005497787,0.0009162979,306.745908428087,4.15780885164572,-23.7723577771793,SIT
2552655121000,4.050012,-3.08161810677544,-0.118156937023065,8.94909396815412,-0.02565634,0.008552114,0.003970624,306.75525,4.1577196,-23.774199,SIT
2552660850000,4.055741,-3.08341571613918,-0.123549657374091,8.96167704599961,-0.03634648,0.006414085,0.0061086523,306.77563,4.1665077,-23.775702,SIT
2552665089000,4.05998,-3.08838221537421,-0.121398334008115,8.96544110955816,-0.02565634,0.0030543262,0.01038471,306.79535,4.166856,-23.777704,SIT
2552670126000,4.065017,-3.09563171547941,-0.116565314592726,8.96785766847009,-0.030848695,0.005192355,0.007941248,306.8163,4.1745567,-23.780516,SIT
2552675180000,4.070071,-3.10290568282737,-0.111715983616872,8.97028238332832,-0.03390302,-0.0027488936,0.005192355,306.8368,4.18127,-23.778042,SIT
2552680124000,4.075015,-3.11002133272217,-0.106972198032261,8.97265432441639,-0.021380283,0.0067195175,0.0125227375,306.8551,4.184218,-23.781315,SIT
2552685089000,4.07998,-3.11537983032943,-0.0995098147714459,8.96325658291785,-0.03145956,0.0015271631,0.01160644,306.87598,4.1949806,-23.77791,SIT
2552690157000,4.085048,-3.1199029394483,-0.0904635894492335,8.9474256065421,-0.027488936,-0.0027488936,0.0076358155,306.89557,4.198188,-23.777546,SIT
2552695115000,4.090006,-3.12432787532268,-0.0816137107697684,8.9319382385723,-0.028405234,0.0015271631,0.006414085,306.91135,4.202643,-23.781393,SIT
2552700090000,4.094981,-3.12876798342575,-0.0727334876091515,8.91639776748521,-0.0143553335,0.002443461,0.010079277,306.92645,4.2019415,-23.78305,SIT
2552705157000,4.100048,-3.12793225105849,-0.0688794754323646,8.90827186293506,-0.019547688,0.005192355,0.011301007,306.94458,4.207514,-23.786495,SIT
2552710107000,4.104998,-3.1182126016659,-0.0737393026659491,8.91313178912297,-0.013439035,0.0033597588,0.015577064,306.96033,4.2056365,-23.788994,SIT
2552715068000,4.109959,-3.10847135305244,-0.0786099295156082,8.91800251514686,-0.0143553335,-0.0012217305,0.009468411,306.9746,4.203493,-23.795876,SIT
2552720133000,4.115024,-3.09852589362346,-0.0835826618263366,8.92297534871085,-0.01985312,0.006414085,-0.0009162979,306.98907,4.20102,-23.805573,SIT
2552725123000,4.120014,-3.09551473025276,-0.0817791971909558,8.92337792367694,-0.018325957,0.0076358155,0.0009162979,307.00366,4.1970615,-23.812279,SIT
2552730119000,4.12501,-3.10023883104265,-0.0723309906783175,8.91865372422986,-0.018325957,0.014966198,-0.0027488936,307.02335,4.1967607,-23.822384,SIT
2552735065000,4.129956,-3.09278455900963,-0.0609771058674592,8.90994654509727,-0.016798794,0.002443461,-0.0021380284,307.0415,4.196822,-23.822247,SIT
