timestamp,rel_time,acc_x,acc_y,acc_z,gyro_x,gyro_y,gyro_z,azimuth,pitch,roll,label
2726453374000,0,0.563977034609437,9.8247494125861,-0.615024769679959,-0.015271631,0.017715093,0.0012217305,141.84274,-94.9994,4.0576725,STD
2726458492000,0.005118,0.561680325814161,9.82245265582681,-0.619618184872311,-0.016798794,0.01038471,0.00061086525,142.1263,-94.771164,3.831747,STD
2726463416000,0.010042,0.559470674757509,9.82024295862425,-0.624037484678319,-0.0125227375,0.009162978,0.005497787,142.47385,-94.482834,3.5547702,STD
2726468343000,0.014969,0.557259677447167,9.81803191513987,-0.6284594769903,-0.01985312,0.012217305,0.009773844,142.82904,-94.19459,3.2804408,STD
2726473330000,0.019956,0.557482803511082,9.82129700877771,-0.631055228244459,-0.022602014,0.0033597588,0.0070249503,143.2944,-93.8217,2.9288907,STD
2726478434000,0.02506,0.568209155760369,9.84811288940092,-0.625692052119816,-0.02107485,-0.0018325958,0.0009162979,143.7659,-93.4532,2.5823393,STD
2726483391000,0.030017,0.579871990839695,9.86469585496183,-0.645886156412214,-0.021991149,0.004276057,0.007941248,144.4286,-92.93646,2.100942,STD
2726488371000,0.034997,0.593581552754799,9.86621916966367,-0.706817514954486,-0.027488936,0.005497787,0.005497787,145.1033,-92.42842,1.6235566,STD
2726493330000,0.039956,0.607233303264237,9.86773606074931,-0.767491934033026,-0.02687807,0.00061086525,0.0067195175,145.68266,-92.01171,1.2285376,STD
2726498346000,0.044972,0.621041970446198,9.86927038736465,-0.828863760227411,-0.026572637,0.0036651916,0.01160644,146.26671,-91.61264,0.8405822,STD
2726503365000,0.049991,0.634858896400396,9.87080563163946,-0.890272292059472,-0.017715093,0.0036651916,0.009773844,146.558907505185,-91.430746482963,0.650520754927407,STD
2726508471000,0.055097,0.648915326749497,9.87236748803858,-0.952745287384139,-0.021991149,0.018020526,0.008246681,146.85617,-91.2457,0.45716476,STD
2726513442000,0.060068,0.655268978826531,9.87122991738619,-0.998804934952904,-0.023823744,0.007330383,0.0125227375,147.45927,-90.94133,0.08360327,STD
2726518343000,0.064969,0.613822397066327,9.852809331927,-0.948148041228414,-0.02443461,0.009773844,0.009162978,148.0661,-90.76617,-0.29337156,STD
2726523411000,0.070037,0.575953834486612,9.83634202463329,-0.900027655073341,-0.024129177,0.017104227,0.009162978,148.64598,-90.8245,-0.63128436,STD
2726528358000,0.074984,0.591396675334109,9.84737262523865,-0.89782153495227,-0.015271631,0.02107485,0.005192355,149.2323,-91.027885,-0.9652607,STD
2726533549000,0.080175,0.607601200670547,9.85894728619325,-0.89550660276135,-0.013439035,0.023823744,0.013133603,149.84752,-91.32276,-1.3143802,STD
2726538370000,0.084996,0.622650712642608,9.86969693760186,-0.893356672479628,-0.01038471,0.017104227,0.007330383,150.47089,-88.336845,-1.6622427,STD
2726543431000,0.090057,0.638449422472643,9.8809817303376,-0.89109971393248,-0.0290161,0.0070249503,0.009162978,151.10394,-87.9818,-2.0005724,STD
2726548349000,0.094975,0.604832516090819,9.86485825804541,-0.813334682286278,-0.022907447,0.007941248,0.01160644,151.74266,-87.6187,-2.3341856,STD
2726553387000,0.100013,0.557203771372162,9.84104388568608,-0.713314238803554,-0.018325957,0.007941248,0.016187929,152.3914,-87.25297,-2.6604614,STD
2726558502000,0.105128,0.553226873660496,9.8390551298854,-0.520505879193849,-0.028710667,-0.003970624,0.018325957,153.03818,-86.90006,-2.9672751,STD
2726563381000,0.110007,0.562380602174552,9.84363161181311,-0.309969965659712,-0.03573562,0.00030543262,0.011911872,153.68715,-86.54755,-3.2694235,STD
2726568342000,0.114968,0.582706649305035,9.84142228838951,-0.478772577744486,-0.032375857,0.00030543262,0.011301007,154.3952,-86.15235,-3.59769,STD
2726573353000,0.119979,0.607669916516854,9.83643005617978,-0.803295004578652,-0.023823744,-0.004276057,0.009162978,155.11052,-85.7566,-3.9215565,STD
2726578355000,0.124981,0.6168432278814,9.82752565198878,-0.741878782552705,-0.025961773,0.012217305,0.012217305,155.85683,-85.33227,-4.247802,STD
2726583322000,0.129948,0.621783296001662,9.81764529909648,-0.578856261190155,-0.032070424,0.011301007,0.01038471,156.61624,-84.90791,-4.568891,STD
2726588361000,0.134987,0.618589170763143,9.80842031034483,-0.477389476687394,-0.03023783,0.013744468,0.004581489,157.30319,-84.563095,-4.845903,STD
2726593410000,0.140036,0.614033563762012,9.79930889655172,-0.386277174929339,-0.028710667,0.021991149,0.007330383,157.99533,-84.22298,-5.1151056,STD
2726598363000,0.144989,0.619810041362667,9.8005202744718,-0.360471457518899,-0.033292156,0.029321533,0.005497787,158.71489,-83.85913,-5.388038,STD
2726603352000,0.149978,0.629071260640628,9.80515098323318,-0.355840845462299,-0.03390302,0.035430185,0.007941248,159.43848,-83.5014,-5.652903,STD
2726608467000,0.155093,0.638915752238676,9.81178498953174,-0.371458146830414,-0.031154128,0.036957346,0.009773844,160.18517,-83.127235,-5.919725,STD
2726613412000,0.160038,0.648588910087321,9.81903999617015,-0.395641014937956,-0.04337143,0.035430185,0.013439035,160.93692,-82.75543,-6.17904,STD
2726618337000,0.164963,0.658222944951744,9.82626566001123,-0.419726075692182,-0.032986723,0.02443461,0.00580322,161.71219,-82.37825,-6.4405985,STD
2726623394000,0.17002,0.668115191512026,9.83368498631466,-0.444456664978298,-0.036651913,0.011301007,0.008552114,162.49466,-82.0044,-6.6914444,STD
2726628354000,0.17498,0.661895912748919,9.83416946331892,-0.479186224628533,-0.03145956,0.01160644,0.010995574,163.2831,-81.63566,-6.937939,STD
2726633352000,0.179978,0.650753437701364,9.83257764935151,-0.517388990284004,-0.031154128,-0.00030543262,0.01160644,164.08524,-81.270004,-7.1768327,STD
2726638419000,0.185045,0.639457134967077,9.83096385956102,-0.556119165069172,-0.033292156,0.007330383,0.0143553335,164.8712,-80.9234,-7.3994007,STD
2726643398000,0.190024,0.628357018268041,9.82937809690722,-0.594176702123711,-0.030543262,0.007941248,0.01160644,165.6689,-80.58096,-7.6161914,STD
2726648382000,0.195008,0.617245754635185,9.82779074180246,-0.632272457231127,-0.03023783,0.01740966,0.018325957,166.4675,-80.245125,-7.8232493,STD
2726653383000,0.200009,0.606096591427336,9.82619797236448,-0.670498153718324,-0.024129177,0.02107485,0.014660766,167.27386,-79.91238,-8.027157,STD
2726658381000,0.205007,0.59131611509227,9.82408643302656,-0.688540955524295,-0.03481932,0.021991149,0.013133603,168.08377,-79.58352,-8.2219925,STD
2726663356000,0.209982,0.575412616975824,9.82181445863335,-0.699900590257975,-0.027794369,0.02443461,0.01740966,168.8977,-79.26411,-8.409597,STD
2726668338000,0.214964,0.559486742078108,9.81953928749225,-0.711276208397311,-0.03390302,0.030848695,0.0143553335,169.7133,-78.951836,-8.600097,STD
2726673367000,0.219993,0.543410623077583,9.81724265247246,-0.722759143688904,-0.019242255,0.027488936,0.01038471,170.5361,-78.65058,-8.782312,STD
2726678395000,0.225021,0.544742109639564,9.81341330469405,-0.741905512112322,-0.032375857,0.032070424,0.01160644,171.36299,-78.346344,-8.958614,STD
2726683384000,0.23001,0.559760546940486,9.80840705437972,-0.766936293220872,-0.030543262,0.027794369,0.004276057,172.19884,-78.05012,-9.130849,STD
2726688435000,0.235061,0.574476753616258,9.81609533771668,-0.788314907471608,-0.025350908,0.025961773,0.008246681,173.05139,-77.75022,-9.303579,STD
2726693356000,0.239982,0.588561481175533,9.83018033980873,-0.807094498461845,-0.019242255,0.012217305,0.004276057,173.91373,-77.45339,-9.472374,STD
2726698384000,0.24501,0.58776649761162,9.83088425399688,-0.824520754484305,-0.014966198,0.013439035,0.0036651916,174.76297,-77.17635,-9.626004,STD
2726703368000,0.249994,0.578460429949308,9.82390456477871,-0.840806365605381,-0.026572637,0.009162978,-0.0018325958,175.62244,-76.90129,-9.773963,STD
2726708454000,0.25508,0.568963909056346,9.81678203280367,-0.857425269730942,-0.02076942,-0.002443461,-0.0030543262,176.46082,-76.65783,-9.902693,STD
2726713398000,0.260024,0.559732528935465,9.80985836035289,-0.873580177713004,-0.02321288,0.0015271631,0.0018325958,177.30011,-76.41605,-10.02489,STD
2726718344000,0.26497,0.539265518505548,9.79739903720211,-0.888004472812443,-0.029626964,-0.007941248,0.00061086525,178.15102,-76.17845,-10.141137,STD
2726723442000,0.270068,0.508179658973076,9.77963579488812,-0.901327001926505,-0.018936822,-0.013744468,0.00030543262,179.00333,-75.950356,-10.249252,STD
2726728399000,0.275025,0.490206348562874,9.77371052095808,-0.899061457413174,-0.019547688,-0.00061086525,-0.007330383,179.84712,-75.731094,-10.354858,STD
2726733384000,0.28001,0.495403991241154,9.78930323189984,-0.867875568779532,-0.017104227,-0.00061086525,-0.009162978,180.6997,-75.521034,-10.451319,STD
2726738411000,0.285037,0.507597196919361,9.81387876044953,-0.847534182807571,-0.013439035,0.0015271631,-0.00580322,181.567,-75.30498,-10.552607,STD
2726743411000,0.290037,0.526478925034503,9.84692193868296,-0.838093331072555,-0.016798794,-0.00061086525,-0.01038471,182.43907,-75.09177,-10.649445,STD
2726748385000,0.295011,0.549764329277251,9.87084246623223,-0.824206779700829,-0.011301007,-0.0009162979,-0.0036651916,183.3158,-74.885796,-10.73466,STD
2726753401000,0.300027,0.578222423021327,9.88507130509479,-0.80523471555391,-0.016798794,-0.0027488936,-0.008246681,184.19705,-74.679565,-10.817243,STD
2726758361000,0.304987,0.608322048102875,9.90116117093683,-0.778234960429298,-0.01740966,-0.004581489,-0.00061086525,185.07198,-74.49131,-10.881922,STD
2726763363000,0.309989,0.641113205478193,9.91989934969685,-0.740759351301584,-0.024740042,-0.007330383,-0.009162978,185.9512,-74.30215,-10.945667,STD
2726768342000,0.314968,0.670088801119183,9.93858024209699,-0.721976140447673,-0.029932396,-0.015271631,-0.0015271631,186.84479,-74.11377,-10.9917345,STD
2726773402000,0.320028,0.693875669369723,9.95760963734538,-0.731490887747889,-0.0143553335,-0.021991149,0.0030543262,187.74097,-73.931984,-11.034318,STD
2726778373000,0.324999,0.706893395842316,9.97124624807515,-0.730252883369264,-0.020158553,-0.027794369,0.00580322,188.6291,-73.75728,-11.059684,STD
2726783349000,0.329975,0.702001274212093,9.97613821645622,-0.710684396848373,-0.022296581,-0.027488936,0.0021380284,189.51833,-73.59216,-11.07943,STD
2726788362000,0.334988,0.708029089841499,9.97189469222803,-0.693753586095101,-0.022296581,-0.033292156,0.005497787,190.39423,-73.44604,-11.082468,STD
2726793350000,0.339976,0.729538941426513,9.95468667619777,-0.680847675144092,-0.027794369,-0.03756821,0.010995574,191.27037,-73.30357,-11.080432,STD
2726798332000,0.344958,0.744191512338474,9.93512630262609,-0.667577102594831,-0.028405234,-0.022907447,0.011301007,192.15022,-73.16155,-11.075644,STD
2726803358000,0.349984,0.729143680908712,9.90503105877449,-0.652529218789079,-0.030543262,-0.02443461,0.0125227375,193.03563,-73.02497,-11.062332,STD
2726808479000,0.355105,0.712590729163347,9.87192545832669,-0.628038549992032,-0.02107485,-0.020158553,0.016798794,193.89949,-72.90608,-11.038916,STD
2726813421000,0.360047,0.693734734900398,9.8342134698008,-0.582784163760956,-0.025045475,-0.013744468,0.007941248,194.76418,-72.786835,-11.013977,STD
2726818318000,0.364944,0.67505043625498,9.79684487250996,-0.537941847011952,-0.02687807,-0.0067195175,0.009468411,195.62384,-72.675964,-10.982991,STD
2726823408000,0.370034,0.685155630365342,9.76902308704332,-0.508250467753045,-0.028099801,0.0027488936,0.0076358155,196.4823,-72.56708,-10.951342,STD
2726828336000,0.374962,0.703999499560791,9.74546825054901,-0.484695606663007,-0.032375857,0.0018325958,0.0027488936,197.34213,-72.461815,-10.915336,STD
2726833380000,0.380006,0.701441363524753,9.74323386574257,-0.467976837724753,-0.03023783,0.00580322,-0.0070249503,198.22139,-72.33953,-10.8842325,STD
2726838335000,0.384961,0.692044721148515,9.74793179445544,-0.453881864348515,-0.030543262,-0.00061086525,-0.015577064,199.10326,-72.22064,-10.848782,STD
2726843391000,0.390017,0.682429828880938,9.75983962909958,-0.453660065559531,-0.028099801,0.004276057,-0.021380283,199.95892,-72.11642,-10.807491,STD
2726848351000,0.394977,0.672988181494733,9.77400239594514,-0.458380889252634,-0.032375857,0.0021380284,-0.021380283,200.81725,-72.01536,-10.761976,STD
2726853420000,0.400046,0.666884495897031,9.77442792297071,-0.44222669672305,-0.03023783,-0.00061086525,-0.02076942,201.68176,-71.914375,-10.716255,STD
2726858591000,0.405217,0.662000223996449,9.76954354906795,-0.41780531936976,-0.029932396,0.009773844,-0.020463986,202.54155,-71.81727,-10.667456,STD
2726863436000,0.410062,0.657423875638623,9.76496710513857,-0.394923560855607,-0.021991149,-0.0012217305,-0.022296581,203.41177,-71.72567,-10.615237,STD
2726868388000,0.415014,0.65274646035112,9.76028959216885,-0.371536467323701,-0.015271631,-0.013133603,-0.025045475,204.27774,-71.63905,-10.559998,STD
2726873436000,0.420062,0.660880295439867,9.77164246002544,-0.357480389650651,-0.013133603,-0.026572637,-0.032375857,205.14589,-71.55746,-10.50183,STD
2726878403000,0.425029,0.674844861131226,9.79026178373618,-0.348170669468637,-0.0021380284,-0.031154128,-0.016798794,206.0113,-71.488106,-10.434206,STD
2726883385000,0.430011,0.677151694306313,9.76065224299843,-0.341963434306313,-0.004276057,-0.036957346,-0.025350908,206.89554,-71.4024,-10.372474,STD
2726889168000,0.435794,0.672032678278954,9.6941052484518,-0.336844418278954,-0.003970624,-0.048258353,-0.022296581,207.77751,-71.329834,-10.299053,STD
2726893409000,0.440035,0.679816872673391,9.68201532338567,-0.358789186469793,-0.003970624,-0.05375614,-0.010079277,208.65442,-71.26382,-10.219346,STD
2726898410000,0.445036,0.699737253998128,9.70193560070708,-0.408590170982635,0.0009162979,-0.06780604,-0.014966198,209.53473,-71.20228,-10.138829,STD
2726903433000,0.450059,0.711325739896682,9.71880828521756,-0.417746089481423,-0.0027488936,-0.06994407,-0.0076358155,210.4087,-71.14346,-10.051059,STD
2726908546000,0.455172,0.716190251957083,9.7334021261673,-0.393423508861514,0.0012217305,-0.048258353,-0.013133603,211.27695,-71.090546,-9.966272,STD
2726913427000,0.460053,0.720572642449125,9.75348566154945,-0.359950821022849,-0.005192355,-0.03940081,-0.017715093,212.11574,-71.06351,-9.872942,STD
2726918368000,0.464994,0.724796042020707,9.77882570617636,-0.31771679884684,-0.015271631,-0.028710667,-0.014966198,212.94398,-71.04157,-9.778797,STD
2726923394000,0.47002,0.726349602391534,9.80897467407407,-0.285816502391534,-0.030543262,-0.028710667,-0.020158553,213.7721,-71.01637,-9.684544,STD
2726928397000,0.475023,0.721279472190476,9.84953603333333,-0.280746372190476,-0.035430185,-0.035124753,-0.028099801,214.59518,-70.995895,-9.58866,STD
2726933369000,0.479995,0.715796605028077,9.88908734357452,-0.280807271287678,-0.050701816,-0.032070424,-0.032375857,215.4127,-70.97042,-9.492344,STD
2726938417000,0.485043,0.709555891622023,9.92809180236236,-0.288608169561738,-0.0571159,-0.036957346,-0.03726278,216.23106,-70.94916,-9.395391,STD
2726943412000,0.490038,0.703380700761634,9.96668674523978,-0.296327164585297,-0.063224554,-0.043982297,-0.04734206,217.05093,-70.92632,-9.299525,STD
2726948383000,0.495009,0.697235180487962,10.0050962469502,-0.304009071344478,-0.069027774,-0.06414085,-0.025961773,217.86923,-70.91027,-9.193208,STD
2726953335000,0.499961,0.691113149428774,10.0433589410702,-0.311661616561028,-0.07696902,-0.06963864,-0.024129177,218.68333,-70.89252,-9.094036,STD
2726958457000,0.505083,0.684780951713677,10.0829351767895,-0.319576870316917,-0.07696902,-0.083383106,-0.020158553,219.49867,-70.88307,-8.984715,STD
2726963366000,0.509992,0.673017416793075,10.1002270234955,-0.332547321137675,-0.08277224,-0.0870483,-0.018325957,220.30786,-70.87458,-8.874648,STD
2726968381000,0.515007,0.638372542009481,10.0358862892622,-0.367192185585326,-0.08093964,-0.1001819,-0.018020526,221.1183,-70.872734,-8.760908,STD
2726973365000,0.519991,0.616365514065446,9.97825938740987,-0.406448602678869,-0.08735373,-0.108123146,-0.021685716,221.93544,-70.875,-8.647763,STD
2726978402000,0.525028,0.62974273936772,9.93812774875208,-0.459957606322795,-0.096516706,-0.11026118,-0.02321288,222.74776,-70.88206,-8.532662,STD
2726983371000,0.529997,0.642585928647723,9.89724840961306,-0.511800401739218,-0.112704635,-0.106901415,-0.022296581,223.56355,-70.88639,-8.4238205,STD
2726988423000,0.535049,0.652336482093914,9.84362054383313,-0.555677714072955,-0.10781772,-0.112704635,-0.022602014,224.37572,-70.89829,-8.314089,STD
2726993381000,0.540007,0.664080393343962,9.79761979364288,-0.599776647889597,-0.12583824,-0.119729586,-0.038179077,225.16798,-70.91564,-8.207302,STD
2726998375000,0.545001,0.692673382104424,9.80238539129135,-0.652197157140295,-0.1282817,-0.12095132,-0.043982297,225.95297,-70.94374,-8.097468,STD
2727003377000,0.550003,0.721799632142433,9.80715560033677,-0.69860131022187,-0.13103059,-0.103847094,-0.043676864,226.72084,-70.97673,-7.989358,STD
2727008460000,0.555086,0.755550867939778,9.81197730110935,-0.693779710142631,-0.12522738,-0.09560041,-0.056199603,227.48732,-71.01301,-7.8850117,STD
2727013473000,0.560099,0.791295160480713,9.81572724074799,-0.687031350704915,-0.13591751,-0.07941248,-0.053450707,228.21872,-71.067894,-7.7746973,STD
2727018357000,0.564983,0.846246945673585,9.81114783326806,-0.664134743655767,-0.13255776,-0.0693332,-0.05497787,228.94595,-71.12908,-7.6688666,STD
2727023559000,0.570185,0.903300869651474,9.80510950402145,-0.638950117962466,-0.12950343,-0.06078109,-0.05497787,229.64966,-71.197395,-7.55785,STD
2727028384000,0.57501,0.940006725375832,9.78675668156092,-0.606832510972098,-0.1142318,-0.063224554,-0.05497787,230.34909,-71.27225,-7.4471908,STD
2727033673000,0.580299,0.974956202941634,9.7677169766537,-0.5746084,-0.121256754,-0.056505036,-0.043676864,231.01518,-71.35187,-7.3244014,STD
2727038367000,0.584993,0.955278105638132,9.76115770525292,-0.5746084,-0.10873401,-0.06047566,-0.049480084,231.68231,-71.44064,-7.205638,STD
2727043360000,0.589986,0.934346546235409,9.75418061916342,-0.5746084,-0.09896017,-0.063224554,-0.042455133,232.32097,-71.53451,-7.076176,STD
2727048342000,0.594968,0.913461100822957,9.74721890418288,-0.5746084,-0.086132,-0.058643065,-0.038789943,232.95593,-71.632904,-6.950295,STD
2727053348000,0.599974,0.892475043068093,9.74022365223735,-0.5746084,-0.0693332,-0.058948494,-0.036651913,233.58896,-71.73694,-6.8231792,STD
2727058381000,0.605007,0.850946184272973,9.75063989968935,-0.543733057841467,-0.063224554,-0.06291912,-0.028710667,234.22414,-71.84107,-6.6940126,STD
2727063387000,0.610013,0.807708029379697,9.76265048712296,-0.510103387944684,-0.05100725,-0.06383542,-0.03726278,234.8559,-71.95103,-6.5701127,CSI
2727068382000,0.615008,0.764564884415272,9.77463468293416,-0.476547614645756,-0.05100725,-0.070554934,-0.034513887,235.49911,-72.05439,-6.4469357,CSI
2727073358000,0.619984,0.721585847509771,9.78657329321575,-0.443119480924942,-0.042455133,-0.08277224,-0.034208454,236.14056,-72.16367,-6.3274097,CSI
2727078362000,0.624988,0.689029245926555,9.82507995374304,-0.432181313121873,-0.040317107,-0.09101892,-0.043066,236.77866,-72.2721,-6.2106566,CSI
2727083352000,0.629978,0.657450125375248,9.86568158595299,-0.423158707250071,-0.046120327,-0.10476339,-0.04428773,237.41632,-72.38295,-6.091602,CSI
2727088381000,0.635007,0.603865699867563,9.89736666187856,-0.401647333964955,-0.035124753,-0.11484267,-0.04520403,238.09503,-72.47026,-5.986747,CSI
2727093330000,0.639956,0.545924838691932,9.92633716809291,-0.377505309315403,-0.03726278,-0.11942416,-0.054367006,238.77014,-72.55411,-5.8851104,CSI
2727098369000,0.644995,0.510351328826877,9.92373460510373,-0.343838484281256,-0.03940081,-0.12339478,-0.054367006,239.45233,-72.64029,-5.7883606,CSI
2727103352000,0.649978,0.479687774628236,9.91497341711034,-0.308794445863778,-0.03176499,-0.12522738,-0.055588737,240.12848,-72.73011,-5.6956425,CSI
2727108407000,0.655033,0.458707885804547,9.86625409728902,-0.307436654195453,-0.041233405,-0.12736541,-0.06383542,240.82895,-72.80121,-5.613239,CSI
2727113337000,0.659963,0.443224613985571,9.79916018167906,-0.322919926014429,-0.049785517,-0.12675454,-0.06688975,241.51999,-72.87809,-5.531194,CSI
2727118337000,0.664963,0.432974196894647,9.74592295399124,-0.321831980554391,-0.04184427,-0.11636983,-0.074830994,242.22073,-72.943634,-5.4589577,CSI
2727123397000,0.670023,0.423742227376643,9.6951470252429,-0.317215986155458,-0.016187929,-0.10995574,-0.083383106,242.91315,-73.01485,-5.3887024,CSI
2727128359000,0.674985,0.464905411371617,9.66401621937616,-0.290644508189424,-0.031154128,-0.105068825,-0.08368854,243.59296,-73.08027,-5.3251595,CSI
2727133339000,0.679965,0.52401613911382,9.6393867709151,-0.25616325462611,-0.032070424,-0.106901415,-0.09193522,244.26535,-73.15793,-5.2670946,CSI
2727138378000,0.685004,0.592035985210756,9.67606884338663,-0.20719588291061,-0.030848695,-0.10415252,-0.09132435,244.92905,-73.23081,-5.2101974,CSI
2727143364000,0.68999,0.661439990970203,9.72812154196948,-0.155142880855741,-0.024740042,-0.10934488,-0.090713486,245.58676,-73.307076,-5.1558695,CSI
2727148348000,0.694974,0.745860895498265,9.79988686593951,-0.111542975918691,-0.032986723,-0.1133155,-0.087659165,246.22195,-73.38075,-5.0898156,CSI
2727153372000,0.699998,0.841277590233019,9.88576214526524,-0.0733762880614774,-0.042760566,-0.12156218,-0.089491755,246.85175,-73.457794,-5.025659,CSI
2727158466000,0.705092,0.899978084235075,9.95309177963125,-0.0164850968579895,-0.0580322,-0.124005646,-0.07391469,247.44994,-73.537926,-4.945236,CSI
2727163442000,0.710068,0.931357055876866,10.0053900201932,0.0515026650208516,-0.0580322,-0.12095132,-0.06505715,248.04231,-73.6206,-4.868647,CSI
2727168378000,0.715004,0.969522937802916,10.0758875383378,0.142805385729837,-0.07513642,-0.11728613,-0.05497787,248.6033,-73.70549,-4.7715793,CSI
2727173424000,0.72005,1.01069304831977,10.153652970939,0.243443446928247,-0.09590584,-0.110872045,-0.04642576,249.15596,-73.790985,-4.6751127,CSI
2727178373000,0.724999,1.03403645593935,10.2329481539311,0.346060354362888,-0.11484267,-0.10170906,-0.03634648,249.70535,-73.86495,-4.5737863,CSI
2727183352000,0.729978,1.04840026350035,10.3143434800683,0.451394651506175,-0.12797627,-0.08246681,-0.030543262,250.2433,-73.93626,-4.4749427,CSI
2727188396000,0.735022,1.06222375944367,10.4190015568846,0.579091798111266,-0.15882497,-0.07941248,-0.023823744,250.77429,-73.98665,-4.366653,CSI
2727193415000,0.740041,1.07559398453408,10.5348767013908,0.717250893093185,-0.2049453,-0.07269296,-0.016798794,251.29198,-74.03073,-4.261122,CSI
2727198364000,0.74499,1.07271274035517,10.5836653709782,0.806597692462713,-0.22937989,-0.07880162,-0.007330383,251.81938,-74.05444,-4.1485753,CSI
2727203377000,0.750003,1.05355433817529,10.5669018159575,0.849704073611513,-0.26419923,-0.07971791,0.0033597588,252.33588,-74.064705,-4.037551,CSI
2727208366000,0.754992,1.03448765784905,10.5502185173343,0.892604080703347,-0.30298916,-0.09040806,0.008246681,252.86131,-74.04513,-3.9224305,CSI
2727214202000,0.760828,1.01218396043797,10.5307028366838,0.942787372222278,-0.32803464,-0.094989546,0.025350908,253.37592,-74.023415,-3.804601,CSI
2727218367000,0.764993,0.975504355970689,10.5104819966973,0.990145869542781,-0.36010507,-0.09896017,0.025961773,253.88855,-73.98898,-3.689025,CSI
2727223399000,0.770025,0.913332694994323,10.4806395204872,1.05729125924244,-0.39492437,-0.09987647,0.036651913,254.39185,-73.95096,-3.569092,CSI
2727228375000,0.775001,0.851852928496233,10.4511291545051,1.1236894029518,-0.4184427,-0.10354166,0.046120327,254.9118,-73.88407,-3.4563763,CSI
2727233390000,0.780016,0.789891306915058,10.4213874974714,1.19060795011869,-0.44990227,-0.089186326,0.058337633,255.41728,-73.809425,-3.3444412,CSI
2727238388000,0.785014,0.809196404475703,10.4288243021556,1.25123416624041,-0.48533243,-0.084910266,0.06169739,255.91266,-73.73201,-3.2331512,CSI
2727243383000,0.790009,0.879106763011509,10.4594102365729,1.30803632257033,-0.5222898,-0.0852157,0.06078109,256.3965,-73.64915,-3.1235182,CSI
2727248358000,0.794984,0.923846318744435,10.4814999621549,1.38324525307213,-0.5488624,-0.07727446,0.07086037,256.91266,-73.52008,-3.0290596,CSI
2727253281000,0.799907,0.934341996927872,10.4919958595281,1.48295419581478,-0.59773165,-0.077579886,0.08155051,257.42038,-73.3797,-2.9367728,CSI
2727258305000,0.804931,0.956084213291076,10.4844759902176,1.56075271791775,-0.6478226,-0.07574729,0.090713486,257.90076,-73.233,-2.8317382,CSI
2727263277000,0.809903,0.984602415147734,10.4654634751447,1.62254215113795,-0.70463306,-0.08124508,0.09743301,258.37308,-73.076,-2.7268176,CSI
2727268272000,0.814898,0.998790093836881,10.4522687878876,1.6864414722368,-0.7724391,-0.09162979,0.12003502,258.83783,-72.89103,-2.6142058,CSI
2727273304000,0.81993,1.00347469163993,10.4428998857782,1.75202593931175,-0.8552113,-0.09162979,0.1386664,259.29138,-72.69135,-2.5042713,CSI
2727278273000,0.824899,1.03457688356081,10.4571821158629,1.74699897898089,-0.88514376,-0.106595986,0.14263703,259.73755,-72.48294,-2.3882198,CSI
2727283504000,0.83013,1.0902900745324,10.4926356136892,1.68115612653928,-0.9691377,-0.12767084,0.15882497,260.17355,-72.2429,-2.2663167,CSI
2727288293000,0.834919,1.16769655457245,10.5111653889549,1.64597101974466,-1.0580186,-0.14660765,0.18570304,260.62097,-71.980225,-2.1393092,CSI
2727293272000,0.839898,1.26680004101346,10.5206040039588,1.62709413467933,-1.1282681,-0.12889257,0.22449298,261.05145,-71.70673,-2.009297,CSI
2727298265000,0.844891,1.31451599515836,10.4513557386853,1.69078882468185,-1.1960741,-0.119729586,0.26542094,261.46356,-71.43431,-1.8653176,CSI
2727303358000,0.849984,1.31918297845182,10.3136795365994,1.82613146202277,-1.2534955,-0.12767084,0.30176744,261.8637,-71.15208,-1.7155268,CSI
2727308386000,0.855012,1.32379039883265,10.1777604429241,1.95974677334226,-1.317331,-0.14385876,0.35185838,262.22668,-70.868416,-1.5397611,CSI
2727313366000,0.859992,1.32835383429337,10.0431389062291,2.09208652083054,-1.3949108,-0.20433442,0.3885103,262.59454,-70.57034,-1.3567867,CSI
2727318355000,0.864981,1.46037847638566,10.1223047376073,1.8084772807471,-1.4749341,-0.32834008,0.3903429,262.97876,-70.25775,-1.1642808,CSI
2727323426000,0.870052,1.80358682816759,10.5537667152953,0.837687805350833,-1.5922203,-0.45875978,0.3494149,263.37427,-69.918335,-0.9710534,CSI
2727328360000,0.874986,2.03925659561404,10.8690688583427,0.23643255873087,-1.7284433,-0.3203988,0.44837508,263.71295,-69.489746,-0.75633734,CSI
2727333365000,0.879991,2.13318815263158,11.0345673381859,0.133555166718925,-1.7397442,-0.042455133,0.6301075,264.03488,-69.071434,-0.5367088,CSI
2727338400000,0.885026,2.17520321916747,11.1775767641175,0.0368640615445843,-1.6664404,0.16187929,0.75136423,264.26334,-68.86384,-0.2742417,CSI
2727343374000,0.89,2.07272918896418,11.2544322065182,-0.0399914343573196,-1.6884315,0.2864958,0.79473567,264.42584,-68.62758,-0.009212218,CSI
2727348355000,0.894981,1.94857597139129,11.3048970925291,-0.155853033645989,-1.7794504,0.44226643,0.8197812,264.5073,-68.425766,0.26695204,CSI
2727353376000,0.900002,1.79082571270504,11.3156530089472,-0.331529460304205,-1.9052887,0.6985244,0.8579602,264.5221,-68.20658,0.52899367,CSI
2727360206000,0.906832,1.56677569064305,11.336214928159,-0.565531209229715,-2.0027218,0.97402465,0.8762862,264.50204,-67.98365,0.752688,CSI
2727363358000,0.909984,1.39836939321719,11.3864411550357,-0.639393632234511,-2.0555615,1.2299771,0.88453287,264.41602,-67.73774,0.95348036,CSI
2727368343000,0.914969,1.13202884985808,11.4658757175296,-0.756209678769697,-2.0955732,1.4559973,0.9059132,264.28073,-67.50731,1.0982898,CSI
2727373383000,0.920009,0.936694314302359,11.561518334984,-0.898900350687445,-2.1313088,1.5549575,0.92179567,264.112,-67.26426,1.2263107,CSI
2727378360000,0.924986,0.779342296096708,11.6633344462569,-1.05162433879406,-2.1459696,1.7415768,0.93309665,263.86005,-67.01716,1.321219,CSI
2727383385000,0.930011,0.727012900984931,11.6736833300502,-1.00296322979415,-2.1487186,1.915368,0.9410379,263.62085,-66.78338,1.3634648,CSI
2727388374000,0.935,0.741130498305919,11.6266246723136,-0.828846048754063,-2.090381,2.0195205,0.9279043,263.35388,-66.564964,1.3882933,CSI
2727393361000,0.939987,0.763008094126757,11.4896304760539,-0.404189563011184,-2.0042489,2.0332649,0.91813046,263.08575,-66.385666,1.3785998,CSI
2727398354000,0.94498,0.790433968706625,11.2885072239748,0.199179448643533,-1.9098701,1.9101756,0.88147855,262.83328,-66.226875,1.3624455,CSI
2727403361000,0.949987,0.899050405709741,11.1263108075232,0.870565533047628,-1.8286251,1.6917913,0.8356637,262.6178,-66.05239,1.3529675,CSI
2727408472000,0.955098,1.09599284083092,11.0026491892954,1.62627485576308,-1.7421877,1.3955216,0.8155051,262.4583,-65.90752,1.364116,CSI
2727413450000,0.960076,1.32391943811036,10.9041911026201,2.31542886065899,-1.6624697,1.0662653,0.8258898,262.3878,-65.656364,1.4046955,CSI
2727418347000,0.964973,1.6078371558952,10.8436842838428,2.91584499563319,-1.5839735,0.75808376,0.86742866,262.3871,-65.43338,1.4786762,CSI
2727423407000,0.970033,1.86661702884161,10.7579236264775,3.30884336312057,-1.5036448,0.52106804,0.9126327,262.4605,-65.087524,1.6189018,CSI
2727428373000,0.974999,2.05570599030733,10.6301609228455,3.26795919123146,-1.4129313,0.4083634,0.9737192,262.5697,-64.772606,1.7900041,CSI
2727433351000,0.979977,2.09487213277426,10.3723954275963,3.26650726874695,-1.3347405,0.3747658,1.0054842,262.67648,-64.38202,2.0244656,CSI
2727438388000,0.985014,1.96786708798635,9.9678612116041,3.30884238191126,-1.278541,0.30176744,0.9841039,262.81592,-64.01758,2.2705905,CSI
2727443359000,0.989985,1.85975534178586,9.62823064749702,3.14236654728844,-1.2608259,0.31948254,0.9798279,262.89926,-63.671986,2.5459027,CSI
2727448348000,0.994974,1.77433457375844,9.36722240107271,2.6962802261621,-1.2195925,0.4129449,0.99204516,262.9782,-63.353954,2.8103666,CSI
2727453352000,0.999978,1.62945273805097,9.02610908565717,2.39318712545727,-1.1658363,0.4361578,0.97341377,263.08102,-63.007813,3.0470467,CSI
2727458399000,1.005025,1.39756480452774,8.56716401229385,2.29656711532234,-1.1261301,0.4129449,0.9297369,263.169,-62.67582,3.2665708,CSI
2727463346000,1.009972,1.18350171482765,8.10882975393406,2.20981766236418,-1.0882565,0.37965274,0.87995136,263.24976,-62.419212,3.4653013,CSI
2727468393000,1.015019,0.984297674316223,7.62892935799925,2.1328524251405,-1.0488557,0.35521814,0.82527894,263.33765,-62.180767,3.6473646,CSI
2727473350000,1.019976,0.844757142261452,7.26796854956628,2.0908219148988,-1.0042624,0.31398472,0.79473567,263.47476,-61.929012,3.7897778,CSI
2727478360000,1.024986,0.852058887505707,7.19495099546492,2.13706635227515,-0.990518,0.28344148,0.72051555,263.6234,-61.68955,3.9041169,CSI
2727483328000,1.029954,0.859299420514381,7.1225455645716,2.18292311173337,-0.93828905,0.25411993,0.6783658,263.8307,-61.434418,3.9827945,CSI
2727488373000,1.034999,0.866652175954954,7.04901790779689,2.2294906140415,-0.8732319,0.20922135,0.64873886,264.04858,-61.196728,4.0484915,CSI
2727493458000,1.040084,0.879867525916446,6.98807843664135,2.28107172572655,-0.78893244,0.14844026,0.62125,264.28967,-60.980667,4.1116967,CSI
2727498361000,1.044987,0.903127974029888,6.95318783531209,2.33922287637054,-0.68966687,0.119729586,0.6020077,264.527,-60.795406,4.1681337,CSI
2727503356000,1.049982,0.926824881704095,6.91764254597094,2.39846517648613,-0.5879578,0.1001819,0.57818395,264.7603,-60.61613,4.2261715,CSI
2727508453000,1.055079,0.977800992204301,6.89979923398069,2.41843381500988,-0.5128214,0.0888809,0.56077427,264.99142,-60.464333,4.2808,CSI
2727513407000,1.060033,1.02794927134831,6.88526243817268,2.43850936159077,-0.4541783,0.074830994,0.5360342,265.2241,-60.34368,4.3279815,CSI
2727518360000,1.064986,1.06067524494382,6.88058735487877,2.49928603021881,-0.3820962,0.08124508,0.50946164,265.43918,-60.237293,4.3800445,CSI
2727523574000,1.0702,1.0926927410817,6.86818500080552,2.56169101518987,-0.30940324,0.07422013,0.49968776,265.6253,-60.15767,4.4449315,CSI
2727528371000,1.074997,1.10150361749137,6.79329255132336,2.60574548924051,-0.22724187,0.09712757,0.48624873,265.80167,-60.106167,4.4945526,CSI
2727533706000,1.080332,1.11146535391847,6.71000717068607,2.65685103260418,-0.16371189,0.11942416,0.45142943,265.9726,-60.061943,4.5486794,CSI
2727538382000,1.085008,1.12360883673506,6.63714614698545,2.74590332445991,-0.10140363,0.118202426,0.4147775,266.14172,-60.044197,4.596574,CSI
2727543348000,1.089974,1.13650544402061,6.55976636860707,2.84047853433065,-0.043676864,0.105068825,0.36285394,266.29456,-60.03601,4.633057,CSI
2727548355000,1.094981,1.12335486873508,6.52648330887033,2.9358436800716,0.013744468,0.08277224,0.3036,266.45306,-60.049385,4.6582685,CSI
2727553366000,1.099992,1.10187992326969,6.50739444354117,3.03128790705549,0.052534413,0.03940081,0.25503623,266.62283,-60.077377,4.6766577,CSI
2727558498000,1.105124,1.07988642494033,6.48784464173131,3.1290368140364,0.108123146,-0.008552114,0.2012801,266.7949,-60.102615,4.691137,CSI
2727563420000,1.110046,1.05879289439141,6.46909481232597,3.22278586317124,0.16340645,-0.034513887,0.15393804,266.97476,-60.142185,4.697068,CSI
2727568355000,1.114981,0.965598318461686,6.46096563858223,3.28370498144073,0.22357668,-0.051923547,0.10048734,267.16248,-60.203598,4.7005982,CSI
2727573394000,1.12002,0.845566166490003,6.45634902180235,3.33448791063809,0.25595254,-0.074830994,0.06719518,267.35825,-60.275032,4.701007,CSI
2727578364000,1.12499,0.746604555353264,6.40656173248164,3.38723350928934,0.31245756,-0.07574729,0.027794369,267.55594,-60.332485,4.6807494,CSI
2727583347000,1.129973,0.657747397290783,6.33251415660495,3.44153501338575,0.36713,-0.099265605,-0.020158553,267.76605,-60.40175,4.6564116,CSI
2727588394000,1.13502,0.591718250268668,6.25524518547938,3.56586443941055,0.43493605,-0.12492194,-0.070249505,268.00934,-60.475754,4.5922594,CSI
2727593438000,1.140064,0.535291762393746,6.17711630407045,3.71778188759098,0.49205196,-0.16401732,-0.12003502,268.26105,-60.56586,4.5234447,CSI
2727598412000,1.145038,0.532927394036279,6.11591230281107,3.9318770104381,0.5390886,-0.2415972,-0.16554448,268.5188,-60.657074,4.464496,CSI
2727603358000,1.149984,0.58317339197836,6.07069068955129,4.20823002535271,0.57818395,-0.35338554,-0.22143865,268.79584,-60.76613,4.402711,CSI
2727609539000,1.156165,0.71266256228527,6.09549048340459,4.50655210582977,0.6010914,-0.5403103,-0.301462,269.1017,-60.847046,4.349474,CSI
2727613355000,1.159981,0.812085661484648,6.13454972017101,4.67699171399145,0.61819565,-0.6075055,-0.3277292,269.39758,-60.939,4.296183,CSI
2727618356000,1.164982,1.04730202458199,6.23942321369903,4.89348711774714,0.6078109,-0.72601336,-0.3659083,269.74124,-60.979805,4.261809,CSI
2727623409000,1.170035,1.37379272359441,6.39083904898797,5.1064158538281,0.5766568,-0.8512407,-0.38056904,270.0941,-61.022137,4.237852,CSI
2727628359000,1.174985,1.81327689220394,6.5913998559109,5.24399019059977,0.5290093,-0.95630956,-0.3830125,270.45355,-61.01909,4.2385564,CSI
2727633361000,1.179987,2.37615291815674,6.84591763335036,5.31251416632267,0.4728097,-1.0592403,-0.36560285,270.8322,-61.00838,4.2571654,CSI
2727638382000,1.185008,3.01968292788937,7.03091511181951,5.30322025365357,0.43157628,-1.1594223,-0.32284227,271.18396,-60.968716,4.346373,CSI
2727643368000,1.189994,3.72400044946143,7.15602432701601,5.22908165120815,0.42730024,-1.2654073,-0.27458394,271.55255,-60.926186,4.453662,CSI
2727648353000,1.194979,4.31602797659436,7.18668872469975,5.0922365061633,0.46089783,-1.4135422,-0.23640485,271.91953,-60.891426,4.6802964,CSI
2727653355000,1.199981,4.78877155572107,7.11533094060143,4.88708362780933,0.51068336,-1.5650368,-0.21319197,272.305,-60.861244,4.9255223,CSI
2727658415000,1.205041,5.14583821447272,6.9572825061263,4.59657051216881,0.5882632,-1.7403551,-0.19364429,272.71786,-60.861797,5.292929,CSI
2727663355000,1.209981,5.26474348162111,6.64020201790763,4.15563016804901,0.68966687,-1.829236,-0.20311269,273.14536,-60.88333,5.6621604,CSI
2727668355000,1.214981,5.16595966733076,6.28644600917831,3.68335059304193,0.81245077,-2.033876,-0.22479841,273.64728,-60.949474,6.1385617,CSI
2727673409000,1.220035,4.76297622966597,5.88346267170185,3.17002649812667,0.88270026,-2.2531765,-0.2855795,274.18024,-61.02888,6.610374,CSI
2727678406000,1.225032,4.25898497967517,5.64663096593968,2.7495958600464,1.0430524,-2.4767532,-0.3747658,274.78375,-61.209713,7.1136293,CSI
2727683359000,1.229985,3.61185863661253,5.63782634765661,2.45464712334107,1.2162327,-2.6786442,-0.4831944,275.44662,-61.413063,7.615889,CSI
2727688367000,1.234993,2.9276098515373,5.8528112915072,2.18991778346592,1.348485,-2.8243356,-0.61453044,276.18463,-61.72104,8.060706,CSI
2727693379000,1.240005,2.15359961158891,6.73518321290045,2.02479560612771,1.4242324,-2.9074132,-0.7449502,276.9704,-62.06303,8.487109,CSI
2727698350000,1.244976,1.43412800221235,8.02480119841975,1.93961789738272,1.4172074,-2.8863382,-0.88208944,277.80194,-62.52043,8.767766,CSI
2727703384000,1.25001,0.781809832695309,9.98651674236049,1.97770944203457,1.3304645,-2.7333164,-1.02717,278.63348,-62.98494,8.994638,CSI
2727708412000,1.255038,0.410800429698587,11.9871860049412,2.02109332190928,1.135904,-2.370768,-1.0906999,279.43097,-63.583878,8.999956,CSI
2727713446000,1.260072,0.510850092704813,14.0596438572982,2.07350035126001,0.8216137,-1.8176296,-1.0177015,280.12744,-64.12296,8.951746,CSI
2727718356000,1.264982,0.960143151187411,15.7176948930854,2.09912469505007,0.44532076,-1.2718215,-0.7443393,280.7418,-64.80887,8.705728,CSI
2727723400000,1.270026,2.10270324812589,16.7174349358131,2.07608912949928,0.10354166,-0.93126404,-0.32284227,281.22662,-65.37695,8.486517,CSI
2727728385000,1.275011,3.01599924868074,16.7714778641161,2.11073826266491,-0.15515977,-0.84879726,0.03023783,281.6563,-65.9967,8.265281,CSI
2727733350000,1.279976,3.28035859635319,14.0337898708066,2.31684897143799,-0.3436117,-1.0784826,0.2134974,282.04205,-66.48455,8.118913,CSI
2727738436000,1.285062,3.38689151062368,11.3766056443152,2.41842631061877,-0.44929138,-1.486846,0.25625798,282.49506,-66.87977,8.206843,CSI
2727743372000,1.289998,2.46601053024192,9.71577238933706,1.83388725253742,-0.44012842,-1.9013181,0.21746802,282.98865,-67.216225,8.340482,CSI
2727748376000,1.295002,1.53244318303155,8.0320589355464,1.241295387335,-0.3390302,-2.186592,0.119729586,283.48874,-67.253296,8.616682,CSI
2727753408000,1.300034,0.593652037715295,6.33892422342117,0.645387660376859,-0.1994475,-2.266921,-0.008857546,284.04575,-67.310165,8.886268,CSI
2727758444000,1.30507,-0.308223277429952,4.73644079192271,0.054812645068599,-0.03726278,-2.2088888,-0.15668693,284.65698,-67.40782,9.131786,CSI
2727763445000,1.310071,-0.641396227198068,4.51895290690821,-0.444946760256039,0.12156218,-2.1545217,-0.27305678,285.29254,-67.55119,9.349797,CSI
2727768684000,1.31531,-0.969909343805473,4.33239519421523,-0.959737776981426,0.18784106,-1.9367483,-0.3943135,285.84286,-67.808426,9.276545,CSI
2727773377000,1.320003,-0.81060140546765,5.07795632780377,-1.22737512660806,0.3145956,-1.8542814,-0.45356745,286.41016,-68.13355,9.191857,CSI
2727778369000,1.324995,-0.641143653883926,5.87101858624699,-1.51206416333003,0.34605515,-1.7211128,-0.57848936,286.94144,-68.56843,8.987274,CSI
2727783339000,1.329965,-0.472432711301574,6.66058577864738,-1.79549856086772,0.37415496,-1.6410894,-0.72204274,287.46576,-69.04751,8.755633,CSI
2727788335000,1.334961,-0.302839176263056,7.45428350364384,-2.080415713805,0.36651915,-1.5876387,-0.86437434,287.96686,-69.54188,8.478865,CSI
2727793354000,1.33998,0.173832700158398,8.44473932345089,-2.16895885124527,0.34300083,-1.4999796,-0.9966267,288.48514,-70.03792,8.169582,CSI
2727798352000,1.344978,0.755573625555888,9.49854875273959,-2.18803231065949,0.27183503,-1.3793337,-1.1050552,288.98315,-70.53358,7.8208547,CSI
2727803359000,1.349985,1.3452880571871,10.5254050258065,-1.97859302464516,0.13225232,-1.2336423,-1.1539245,289.56454,-71.1937,7.4827766,CSI
2727808403000,1.355029,1.94187105757051,11.5493904875576,-1.68475361918894,-0.034208454,-1.0641272,-1.174083,290.10278,-71.83083,7.1090546,CSI
2727813408000,1.360034,2.53753963209136,12.4345127168296,-1.2219089706997,-0.16707164,-0.87964594,-1.1508701,290.62418,-72.45499,6.7909,CSI
2727818356000,1.364982,3.12911988797058,13.2141150572922,-0.639500467062809,-0.28496864,-0.67164636,-1.0769554,291.07813,-73.02375,6.4670854,CSI
2727823370000,1.369996,3.58857345331478,13.6420917873969,-0.0676173463910149,-0.39553526,-0.50732356,-0.95233893,291.4732,-73.49967,6.2251654,CSI
2727828356000,1.374982,3.90655839093529,13.7085362710466,0.482923848961336,-0.4636467,-0.41538838,-0.81183994,291.8131,-73.930725,6.0013914,CSI
2727833387000,1.380013,4.0324970436238,13.4436438698193,0.805881637539851,-0.5152648,-0.33567044,-0.6554584,292.0674,-74.20294,5.8826823,CSI
2727838375000,1.385001,3.95635084167552,12.8387039828197,0.886258296927028,-0.53878313,-0.2959642,-0.50976706,292.29028,-74.439064,5.798426,CSI
2727843344000,1.38997,3.8474882135443,12.1938547015823,0.906972075072785,-0.48624873,-0.26542094,-0.40622538,292.4818,-74.53792,5.797821,CSI
2727848354000,1.39498,3.62479709582278,11.3992523186709,0.724770313458861,-0.44104472,-0.22785273,-0.3378085,292.64816,-74.61209,5.823561,CSI
2727853401000,1.400027,3.40949328501606,10.7120125171843,0.568302513441729,-0.40530908,-0.25381452,-0.2751948,292.81116,-74.63587,5.8832245,CSI
2727858503000,1.405129,3.20969228885211,10.2410528630124,0.463644821345536,-0.34330627,-0.3399465,-0.22632557,292.97397,-74.670654,5.958042,CSI
2727863426000,1.410052,3.00866485773542,9.87955953137411,0.351872218009708,-0.26328292,-0.37873647,-0.20250183,293.13196,-74.71606,6.026242,CSI
2727868362000,1.414988,2.78755723651928,9.73771716123908,0.214201499279146,-0.2275473,-0.47311515,-0.15851954,293.3223,-74.75688,6.121916,CSI
2727873664000,1.42029,2.55351092400381,9.58774362234436,0.0459860829159708,-0.16157386,-0.5204572,-0.12217305,293.51694,-74.826645,6.2018447,CSI
2727878374000,1.425,2.38664320600359,9.48285514332523,-0.344961417912694,-0.13836098,-0.42455134,-0.1160644,293.69437,-74.8916,6.2804637,CSI
2727883391000,1.430017,2.24147611729719,9.39238639294072,-0.734180454533931,-0.16187929,-0.21899518,-0.11636983,293.85684,-74.99127,6.3272867,CSI
2727888420000,1.435046,2.32130747145086,9.44873806396256,-0.936106719968799,-0.20525073,0.018325957,-0.090713486,293.979,-75.08615,6.3728347,CSI
2727893461000,1.440087,2.40088122886513,9.50726532437865,-1.10162681225329,-0.24281894,0.22113322,-0.032986723,294.07907,-75.236,6.3939543,CSI
2727898388000,1.445014,2.47417643157895,9.58487187719298,-0.894675389473684,-0.21533,0.3115413,0.019547688,294.1419,-75.386215,6.4120946,CSI
2727903392000,1.450018,2.54861710427632,9.66369127850877,-0.684489694407895,-0.17134771,0.32711834,0.05681047,294.17606,-75.552284,6.443672,CSI
2727908427000,1.455053,2.59499602393257,9.69156918842187,-0.0149934756792725,-0.16035213,0.25289822,0.04184427,294.20996,-75.71335,6.4749217,CSI
2727913386000,1.460012,2.64300382278118,9.72769109591817,0.637736908875272,-0.19181168,0.19120082,0.03726278,294.233,-75.86479,6.5171337,CSI
2727918356000,1.464982,2.75590372404625,9.92997004679779,0.590695303814983,-0.23151793,0.21838433,0.04886922,294.24982,-75.970276,6.5709467,CSI
2727923529000,1.470155,2.8755392058263,10.1393381729529,0.524228237420943,-0.24220806,0.33078352,0.087964594,294.24792,-75.95527,6.6398697,CSI
2727928357000,1.474983,3.00862782986601,10.3229087962779,0.285586562234442,-0.20189096,0.46853364,0.1441642,294.22906,-75.93894,6.7120934,CSI
2727933638000,1.480264,3.14587248337882,10.5087350645647,0.0802171367243294,-0.12186762,0.59559363,0.22388211,294.1779,-75.929634,6.8068914,CSI
2727938387000,1.485013,3.19295784623059,10.5386986845176,0.405534751842635,0.017104227,0.59803706,0.312763,294.1197,-75.93457,6.9174223,CSI
2727943403000,1.490029,3.24269045942588,10.5703469299765,0.749142491879153,0.103847094,0.46975538,0.36132678,294.07056,-75.97557,7.0518775,CSI
2727948361000,1.494987,3.21328057933131,10.6018946746771,1.35355909319909,0.12736541,0.22418754,0.39614612,294.05057,-76.01964,7.21155,CSI
2727953373000,1.499999,3.17680723465046,10.6338088036664,1.98728393309271,0.11942416,0.03970624,0.42455134,294.04797,-76.06554,7.3837123,CSI
2727958420000,1.505046,3.05017116977184,10.8380423976448,2.3835656512985,0.118202426,-0.08093964,0.45937067,294.08606,-76.04541,7.5824947,CSI
2727963389000,1.510015,2.90507318284092,11.0782045486805,2.7187920709284,0.07513642,-0.15668693,0.47250426,294.16248,-76.00921,7.7862186,CSI
2727968353000,1.514979,2.72957919337088,11.0824015764671,2.8854836925904,0.06169739,-0.3191771,0.49388456,294.28952,-75.867455,8.002843,CSI
2727973415000,1.520041,2.54758389013041,11.0632442919384,3.03874286899822,0.04734206,-0.4633413,0.5195409,294.42844,-75.71507,8.221524,CSI
2727978366000,1.524992,1.9619090638547,10.4990394227868,2.94172770400953,0.061086524,-0.54244834,0.5549711,294.5934,-75.5366,8.415808,CSI
2727983365000,1.529991,1.32047877097062,9.862360511711,2.81344163551012,0.06719518,-0.6047566,0.59437186,294.78592,-75.35381,8.619443,CSI
2727988387000,1.535013,1.09874309783369,9.43820952417922,2.77690394224114,0.07574729,-0.7284568,0.5839872,295.02237,-75.17362,8.784025,CSI
2727993372000,1.539998,0.942451508983257,9.04971291441399,2.75457658839211,0.05222898,-0.838718,0.5555819,295.2621,-74.991035,8.952019,CSI
2727998353000,1.544979,0.974670124017892,8.88720750077791,2.48458347174251,0.017104227,-0.93737274,0.5317582,295.55872,-74.856705,9.031516,CSI
2728003432000,1.550058,1.07872430424543,8.80680234762738,2.11566410368534,0.0009162979,-1.0897835,0.4886922,295.89072,-74.736206,9.105977,CSI
2728008407000,1.555033,1.26019352443024,8.66736546794462,1.73423017226837,0.007941248,-1.1261301,0.45845437,296.2035,-74.61956,9.168466,CSI
2728013357000,1.559983,1.47727796212993,8.50076607497338,1.34549749974441,0.015271631,-1.0665708,0.45081854,296.51926,-74.50888,9.227177,CSI
2728018336000,1.564962,1.84089507682324,8.35617949007264,1.07761756776755,0.0027488936,-0.9288206,0.42913285,296.8302,-74.447174,9.290503,CSI
2728023385000,1.570011,2.24832732259564,8.21568525811138,0.838778058043584,-0.040927973,-0.7837401,0.398895,297.11157,-74.387596,9.3421,CSI
2728028367000,1.574993,2.81230269395311,8.19656181077746,0.872753015723982,-0.074830994,-0.65026605,0.38698313,297.35336,-74.35803,9.436513,CSI
2728033353000,1.579979,3.43593951402715,8.22111442533937,1.00533718563348,-0.102319926,-0.6356053,0.42394048,297.58105,-74.31907,9.5308,CSI
2728038371000,1.584997,3.93571554547266,8.16650720808845,1.11675353452535,-0.061391957,-0.6432411,0.4538729,297.77158,-74.27847,9.697645,CSI
2728043365000,1.589991,4.39783092549059,8.09028192409603,1.22156326270545,-0.05009095,-0.5876524,0.47769663,297.93558,-74.22016,9.86425,CSI
2728048350000,1.594976,4.57743195346006,8.06977825442457,1.3560145121547,-0.04886922,-0.5479461,0.5320636,298.08673,-74.07241,10.147981,CSI
2728053425000,1.600051,4.6775585336642,8.0652269598277,1.50165299281768,-0.043066,-0.5702427,0.5925393,298.2364,-73.92191,10.436063,CSI
2728058449000,1.605075,4.58401425789474,7.96210658421053,1.36797123684211,-0.025961773,-0.58368176,0.61727935,298.35553,-73.698555,10.7977705,CSI
2728063360000,1.609986,4.39322624984398,7.81045476118161,1.09401916765134,-0.03848451,-0.59498274,0.61544675,298.47742,-73.462845,11.165187,CSI
2728068353000,1.614979,4.19277110206623,7.72151670846306,0.795240891984149,-0.056505036,-0.5006041,0.59742624,298.56317,-73.19083,11.550039,CSI
2728073396000,1.620022,3.98772221771865,7.65772368627229,0.485389322768186,-0.11881329,-0.31642818,0.5522222,298.6268,-72.913605,11.915885,CSI
2728078360000,1.624986,3.88379324806584,7.45024924958848,0.413949600882716,-0.183565,-0.11789699,0.5112942,298.67773,-72.685104,12.245742,CSI
2728083356000,1.629982,3.84441407703704,7.14506046851852,0.497630411277778,-0.23151793,0.08552113,0.48380527,298.67566,-72.45466,12.550312,CSI
2728088383000,1.635009,3.83339883804994,7.19148722473246,0.695314908917955,-0.27275133,0.19272798,0.453262,298.66873,-72.28949,12.801864,CSI
2728093374000,1.64,3.83745844470868,7.42288488906064,0.951070297978597,-0.3436117,0.17989981,0.44226643,298.63867,-72.11141,13.042735,CSI
2728098359000,1.644985,3.77086085875856,7.67636364872984,1.20423637989839,-0.35888332,0.100792766,0.44440445,298.59195,-71.9135,13.287205,CSI
2728103389000,1.650015,3.53676108098078,7.98494959317429,1.45429743545394,-0.3817908,0.029626964,0.45204028,298.54727,-71.70325,13.527448,CSI
2728108462000,1.655088,3.16903796466232,8.47185978213863,1.64504632529621,-0.41355577,-0.036651913,0.4596761,298.50995,-71.46391,13.764747,CSI
2728113438000,1.660064,2.67969793796406,9.12117644011651,1.77208653351106,-0.43401974,-0.1020145,0.4810564,298.49084,-71.2213,14.007997,CSI
2728118357000,1.664983,2.18429161230425,9.11144897478844,1.67320349538955,-0.37812558,-0.160963,0.51343226,298.48068,-71.00065,14.213516,CSI
2728123382000,1.670008,1.66472122639821,8.34847625958564,1.31278078821126,-0.35338554,-0.10598512,0.50915617,298.45554,-70.77845,14.40651,CSI
2728128356000,1.674982,1.2538599362753,7.76339774738866,1.10526045117409,-0.42943826,0.028405234,0.4841107,298.4356,-70.63978,14.4881,CSI
2728133345000,1.679971,0.992721335425101,7.42488485662956,1.1149322437247,-0.46120325,0.16157386,0.45662177,298.39905,-70.51861,14.561956,CSI
2728138362000,1.684988,0.820388541661733,7.22642194779949,1.2364060226564,-0.46395215,0.22174409,0.4260785,298.3826,-70.44957,14.597627,CSI
2728143379000,1.690005,0.768235851381488,7.21693964947701,1.5066517228735,-0.48380527,0.18081611,0.38545597,298.36002,-70.3808,14.620577,CSI
2728148358000,1.694984,0.779531137866005,7.22282213670471,1.62807617103722,-0.52870387,0.06291912,0.3454443,298.34778,-70.314766,14.635273,CSI
2728153411000,1.700037,0.885200150942928,7.25164088778164,1.5320133999603,-0.5390886,-0.05375614,0.31581733,298.34973,-70.259125,14.644534,CSI
2728158424000,1.70505,0.953365981383027,7.21617510448525,1.39940441147346,-0.5476407,-0.09468412,0.30482176,298.34296,-70.16889,14.649345,CSI
2728163348000,1.709974,0.966289041198502,7.08694455131086,1.21417411985019,-0.5561928,-0.1255328,0.2764165,298.36917,-70.08839,14.648345,CSI
2728168326000,1.714952,0.955701481276774,6.96035921136767,1.04765627783931,-0.5867361,-0.12767084,0.22999077,298.41415,-70.00062,14.686355,CSI
2728173393000,1.720019,0.844159822453244,6.84881771136767,0.966535074309895,-0.59406644,-0.09193522,0.1826487,298.45752,-69.92448,14.714401,CSI
2728178342000,1.724968,0.767394318363366,6.80954642555267,0.988534439091585,-0.6035349,-0.033292156,0.13622294,298.51898,-69.86368,14.752885,CSI
2728183341000,1.729967,0.771841180995727,6.94739758842653,1.26868401751068,-0.6096435,0.00580322,0.09101892,298.5774,-69.81449,14.775629,CSI
2728188388000,1.735014,0.775150652088046,7.13274763024186,1.59475157069776,-0.63499445,0.03604105,0.07391469,298.6345,-69.777115,14.790417,CSI
2728193353000,1.739979,0.771013771237167,7.60434746841831,2.18631987363842,-0.6814202,0.010995574,0.06352998,298.69827,-69.74436,14.794903,CSI
2728198324000,1.74495,0.766871891134505,8.07651721576475,2.77860306274578,-0.73945236,-0.052839845,0.07696902,298.74634,-69.666824,14.804733,CSI
2728203383000,1.750009,1.09073483950617,8.39404393041526,3.14293397059484,-0.8200866,-0.14721853,0.111177474,298.8088,-69.575424,14.821448,CSI
2728208333000,1.754959,1.47456718077601,8.67146734311368,3.45075984361071,-0.8781188,-0.26847526,0.15088372,298.89478,-69.47524,14.849673,CSI
2728213381000,1.760007,1.80471563846938,8.78116331122023,3.52178217933846,-0.93126404,-0.3747658,0.19425514,298.95126,-69.29316,14.875467,CSI
2728218354000,1.76498,2.01210904438062,8.55611997127768,3.12464590053739,-0.9755518,-0.4636467,0.2302962,299.0335,-69.097664,14.917439,CSI
2728223358000,1.769984,2.22078705148994,8.3369965315209,2.70862405460526,-0.9984592,-0.48349985,0.2507602,299.08713,-68.79467,15.057197,CSI
2728228383000,1.775009,2.43030286103909,8.15075975399574,2.21509797730263,-1.0213667,-0.45723262,0.25717425,299.1476,-68.48586,15.202607,CSI
2728233368000,1.779994,2.62691658730675,7.98622681456469,1.74975043034988,-1.0308352,-0.43218717,0.25595254,299.23773,-68.1917,15.425032,CSI
2728238358000,1.784984,2.73627742121644,7.97893609568755,1.47270291000814,-1.0317514,-0.419359,0.24678956,299.31836,-67.90367,15.638475,CSI
2728243364000,1.78999,2.84598891110659,7.9716219997559,1.19476706094386,-1.0201449,-0.39767328,0.22418754,299.4257,-67.65718,15.896794,CSI
2728248354000,1.79498,2.95534974501627,7.96433128087876,0.917719540602116,-1.0228939,-0.35827246,0.20769419,299.51917,-67.416245,16.140882,CSI
2728253283000,1.799909,3.04150867413879,7.96145896068897,0.69422909103345,-1.0250319,-0.34238997,0.2003638,299.65497,-67.21514,16.400846,CSI
2728258800000,1.805426,3.01513063839241,7.98256138928607,0.725882733929106,-1.0173961,-0.310625,0.18753563,299.7722,-67.02644,16.63916,CSI
2728263271000,1.809897,2.98264783650108,7.99737810907127,0.767095990280778,-1.0149527,-0.2761111,0.17195857,299.9075,-66.86034,16.880932,CSI
2728268260000,1.814886,2.88883533877872,8.00206858212252,0.893742827920676,-1.0118983,-0.27580565,0.15882497,300.04047,-66.70349,17.10911,CSI
2728273287000,1.819913,2.78754753018491,8.01752222478761,1.01985381492254,-1.0057896,-0.31398472,0.14660765,300.1778,-66.55239,17.330004,CSI
2728278266000,1.824892,2.63980435187406,8.10807458365817,1.13423565286357,-1.003957,-0.38698313,0.1301143,300.32294,-66.409836,17.53919,CSI
2728283262000,1.829888,2.48241464101482,8.2093139051428,1.25321387846697,-1.0030408,-0.47525316,0.111177474,300.47302,-66.266785,17.740412,CSI
2728288293000,1.834919,2.2554361556188,8.38900563195603,1.40453291810776,-1.0112875,-0.5494733,0.09743301,300.63715,-66.13001,17.934378,CSI
2728293288000,1.839914,2.04245506528039,8.56458225811645,1.55068477585189,-1.033584,-0.6169739,0.08827003,300.82242,-66.00444,18.113441,CSI
2728298263000,1.844889,1.96149204609606,8.70946328172793,1.65295379651194,-1.0629056,-0.6792821,0.0870483,301.02368,-65.88255,18.288208,CSI
2728303698000,1.850324,1.87304299900724,8.86774033968339,1.76467884722297,-1.0983357,-0.7476991,0.06078109,301.25983,-65.788574,18.393293,CSI
2728308397000,1.855023,1.93630481114166,8.9423561290113,1.73625261523043,-1.1242975,-0.8188649,0.041233405,301.51007,-65.69413,18.501038,CSI
2728313356000,1.859982,2.01464211381586,9.01594569609117,1.69589704858542,-1.1426234,-0.8784242,0.01740966,301.77472,-65.60581,18.600927,CSI
2728318341000,1.864967,2.09339013838349,9.08992109272218,1.6553298980056,-1.1578951,-0.9425651,-0.011301007,302.07065,-65.52881,18.66964,CSI
2728323362000,1.869988,2.17270685480356,9.16443071488553,1.61446978505448,-1.1777482,-0.99112886,-0.031154128,302.37585,-65.45486,18.735203,CSI
2728328392000,1.875018,2.31687063834625,9.18318450780362,1.63901676555039,-1.1826351,-1.0076222,-0.05009095,302.69763,-65.38803,18.796001,CSI
2728333340000,1.879966,2.46870187224806,9.19297975782946,1.67330126576744,-1.2281445,-1.0210613,-0.059253927,303.02835,-65.31634,18.855171,CSI
2728338356000,1.884982,2.66330400082887,9.21265576786814,1.77475519374793,-1.2681563,-1.0430524,-0.06994407,303.37424,-65.25659,18.932692,CSI
2728343374000,1.89,2.86132933031308,9.23314108203477,1.88173439992422,-1.287093,-1.0534371,-0.06658431,303.71423,-65.19531,19.008183,CSI
2728348344000,1.89497,3.05746043584048,9.25343044261829,1.9876902896604,-1.2861768,-1.0592403,-0.05955936,304.05252,-65.1118,19.10839,CSI
2728353377000,1.900003,3.25607771031118,9.27397699227964,2.09498928222422,-1.2901474,-1.0693196,-0.064751714,304.38947,-65.03056,19.203125,CSI
2728358406000,1.905032,3.4512783595339,9.27630153898305,2.18403141966102,-1.2907583,-1.0586295,-0.089491755,304.72748,-64.95464,19.2916,CSI
2728363349000,1.909975,3.64183441308263,9.27128732627119,2.26426552542373,-1.2825116,-1.028697,-0.11728613,305.05722,-64.885826,19.37307,CSI
2728368335000,1.914961,3.85305041656742,9.26287835132539,2.16722253205916,-1.2812898,-1.0228939,-0.16279559,305.34668,-64.75255,19.51374,CSI
2728373396000,1.920022,4.07183693132924,9.25356809450634,2.02757149900115,-1.2516629,-0.9966267,-0.19181168,305.61584,-64.63379,19.64169,CSI
2728378355000,1.924981,4.26900841069033,9.18955686007636,1.73092063850996,-1.2339478,-0.9083566,-0.22327125,305.8489,-64.49611,19.781717,CSI
2728383335000,1.929961,4.46093985120215,9.10589429893716,1.37658575046951,-1.2064588,-0.77457714,-0.25045475,306.0566,-64.37624,19.903275,CSI
2728388371000,1.934997,4.65486322239435,9.09213942043337,1.07367473536621,-1.1841623,-0.62949663,-0.2687807,306.21747,-64.26532,20.054108,CSI
2728393438000,1.940064,4.84993666127071,9.09689740249044,0.783443642602216,-1.1835514,-0.49205196,-0.25686884,306.336,-64.15843,20.188086,CSI
2728398343000,1.944969,5.02054632197228,9.21027313938542,0.739997315655754,-1.1829406,-0.3659083,-0.23273966,306.46652,-64.07082,20.327198,CSI
2728403414000,1.95004,5.19123726155855,9.3614569736895,0.769258635589476,-1.1795808,-0.25809056,-0.16890424,306.55338,-63.97454,20.464212,CSI
2728408414000,1.95504,5.21068442374497,9.47880831830239,0.856031453639847,-1.1924089,-0.19975294,-0.12339478,306.6715,-63.885143,20.577164,CSI
2728413415000,1.960041,5.1871587449946,9.58702624403183,0.959544489272031,-1.2049317,-0.1518,-0.08460484,306.7528,-63.78547,20.694765,CSI
2728418335000,1.964961,5.05047786160361,9.81097605307736,1.08760652817617,-1.1982121,-0.07544186,-0.062308256,306.8293,-63.6654,20.827066,CSI
2728423425000,1.970051,4.86698091863354,10.0862211801242,1.22981655838509,-1.1979067,-0.008246681,-0.04062254,306.88782,-63.535954,20.963158,CSI
2728428381000,1.975007,4.52035592145712,10.3151009335998,1.41464118979404,-1.2046263,0.044593163,-0.03145956,306.91122,-63.40721,21.095387,CSI
2728433377000,1.980003,4.06440214262732,10.5210158422994,1.6303612924275,-1.2403619,0.10903945,-0.047036625,306.9094,-63.27663,21.21661,CSI
2728438420000,1.985046,3.70495704564494,10.5172234944216,1.90082458115091,-1.2339478,0.11209377,-0.027183503,306.9086,-63.1707,21.342688,CSI
2728443412000,1.990038,3.40083852350754,10.4049335402231,2.19558547275396,-1.2626585,0.07391469,-0.04062254,306.90356,-63.065075,21.449007,CSI
2728448369000,1.994995,3.09973737231696,10.4367449734504,2.31995278927806,-1.3048081,0.061086524,-0.04734206,306.9041,-62.990788,21.478437,CSI
2728453400000,2.000026,2.79470151824773,10.5597432395589,2.3396326659757,-1.3475688,0.043066,-0.043982297,306.9162,-62.912697,21.510107,CSI
2728458468000,2.005094,2.49002959098633,10.7805879103516,2.52223925808594,-1.3658947,0.032070424,-0.0421497,306.94217,-62.81434,21.495787,CSI
2728463392000,2.010018,2.19530333055664,11.0430784642578,2.78012471792969,-1.3921618,0.013133603,-0.032070424,306.97375,-62.705753,21.487936,CSI
2728468381000,2.015007,1.91340317658407,11.2242929027804,3.1929241567997,-1.4294246,-0.042760566,-0.043066,307.0484,-62.63405,21.429787,CSI
2728473425000,2.020051,1.63930399277473,11.3522060523927,3.70914421316437,-1.45783,-0.13805555,-0.043982297,307.13733,-62.555008,21.38402,CSI
2728478366000,2.024992,1.49872967896801,11.3358766517028,4.11932354865841,-1.4935656,-0.26908615,-0.02321288,307.25528,-62.487305,21.293356,CSI
2728483382000,2.030008,1.48881487426213,11.1722820634675,4.43659745454076,-1.4947872,-0.408058,-0.0030543262,307.40244,-62.42058,21.213697,CSI
2728488410000,2.035036,1.65232795940837,11.0103100699383,4.34157193251053,-1.4767667,-0.56169057,-0.0061086523,307.55826,-62.32651,21.105383,CSI
2728493550000,2.040176,1.9609171661867,10.8463723150162,3.90761853354883,-1.4416419,-0.63621616,-0.021991149,307.73026,-62.23337,21.006365,CSI
2728498369000,2.044995,2.22441552185307,10.6229043011246,3.55850549895274,-1.402852,-0.66706485,-0.046120327,307.90015,-62.097134,20.923557,CSI
2728503438000,2.050064,2.47735747123401,10.3223790755262,3.24545842600083,-1.2999213,-0.52503866,-0.02443461,308.0381,-61.97356,20.84075,CSI
2728508518000,2.055144,2.73084831811804,10.0212016941808,2.93173202422617,-1.2605205,-0.40042216,-0.0290161,308.22574,-61.864407,20.802586,CSI
2728513487000,2.060113,2.9788002901981,9.7266051571915,2.62486066784461,-1.3677273,-0.27152961,-0.046120327,308.36856,-61.746353,20.75374,CSI
2728518382000,2.065008,3.1505301430082,9.67459849608022,2.58524364041933,-1.4422529,-0.14202617,-0.05100725,308.47314,-61.641296,20.695877,CSI
2728523401000,2.070027,3.2863594269371,9.75346679671832,2.6904017101185,-1.4874569,-0.04184427,-0.07544186,308.55203,-61.530113,20.619888,CSI
2728528455000,2.075081,3.35927259253582,10.0048104374311,2.92785366047991,-1.5467108,0.029626964,-0.112704635,308.62433,-61.386185,20.650467,CSI
2728533377000,2.080003,3.35454991849514,10.4534649644324,3.31511325235447,-1.6044376,0.05131268,-0.15393804,308.68353,-61.242493,20.668255,CSI
2728538508000,2.085134,3.3496267083158,10.9211704455465,3.7188168212103,-1.6496416,0.06719518,-0.18875736,308.72708,-61.076492,20.693806,CSI
2728545524000,2.09215,3.34289483487626,11.560699125238,4.2708309001603,-1.707063,0.08979719,-0.23884831,308.7671,-60.911488,20.701374,CSI
2728548520000,2.095146,3.35980452659891,11.6975990416147,4.53350104266948,-1.72264,0.14630222,-0.30543262,308.79712,-60.759163,20.690447,CSI
2728553326000,2.099952,3.39511072333877,11.8608901381724,4.9660027937482,-1.7599027,0.17562376,-0.32620203,308.82788,-60.59467,20.679539,CSI
2728558373000,2.104999,3.41527111797468,12.3796831297468,5.08069610746835,-1.779756,0.19730948,-0.38698313,308.84592,-60.431873,20.565472,CSI
2728563328000,2.109954,3.40525992725738,13.5009374309072,4.59515304407173,-1.8127426,0.20952678,-0.45875978,308.863,-60.265743,20.444103,CSI
2728568302000,2.114928,3.33867254806534,13.6038129183245,4.48243680392407,-1.8533652,0.17012598,-0.52656585,308.87347,-60.058712,20.306734,CSI
2728573316000,2.119942,3.202830165094,12.4644896325059,4.82423374391312,-1.8435913,0.24373524,-0.5589417,308.85532,-59.86253,20.150076,CSI
2728578291000,2.124917,3.0772733671024,11.4969636858784,5.03302056702317,-1.7825048,0.2012801,-0.59315014,309.0138,-59.831905,19.96243,CSI
2728583306000,2.129932,2.97739401525054,10.9928106724104,4.86655519581105,-1.8304577,0.16493362,-0.65393126,309.15433,-59.787186,19.75684,CSI
2728588292000,2.134918,2.91109544766145,10.5644871400061,4.71954281908709,-1.853976,0.1695151,-0.70096785,309.21204,-59.61914,19.578234,CSI
2728593272000,2.139898,2.95014362205506,10.3692457583666,4.63168422283287,-1.8939877,0.21930063,-0.754724,309.277,-59.449657,19.385551,CSI
2728598269000,2.144895,3.01938588578392,10.1677363923639,4.57175424386678,-1.9019289,0.3051272,-0.7770206,309.3433,-59.26719,19.204227,CSI
2728603300000,2.149926,3.16724674419171,9.95029402030869,4.58480074077985,-1.9107865,0.3408628,-0.77366084,309.4146,-59.081097,19.020395,CSI
2728608326000,2.154952,3.29645065627327,9.70246608703089,4.6360424105242,-1.956296,0.43493605,-0.7602218,309.4706,-58.877014,18.843956,CSI
2728613284000,2.15991,3.19612700534259,9.08141460579535,5.15677078955629,-1.9758437,0.53023106,-0.77396625,309.52075,-58.681732,18.661392,CSI
2728618648000,2.165274,3.10931222326659,8.50777540181478,5.70286441394615,-1.9144517,0.50823987,-0.7806858,309.59082,-58.45824,18.537615,CSI
2728623322000,2.169948,3.14904569489102,8.52984955271723,6.08695477794654,-2.0179935,0.48747048,-0.7690793,309.63495,-58.194195,18.407532,CSI
2728628429000,2.175055,3.21182554148016,8.55057241927783,6.49704928864021,-2.1615467,0.48502702,-0.745561,309.61533,-57.817814,18.267488,CSI
2728633274000,2.1799,3.48875553387049,8.53211052581319,6.77859477849398,-2.252871,0.4822781,-0.68233645,309.59775,-57.423595,18.147455,CSI
2728638486000,2.185112,3.77133199100209,8.48816455099811,7.06154755832754,-2.2989914,0.4382958,-0.60139686,309.57196,-56.9484,18.041168,CSI
2728643294000,2.18992,3.86279152517628,8.18177476293574,7.10270449673255,-2.3649647,0.40775254,-0.52870387,309.5397,-56.443047,17.951017,CSI
2728648555000,2.195181,3.9431537043525,7.84731044873724,7.1377470632993,-2.3906212,0.36713,-0.44684792,309.50595,-55.86984,17.929,CSI
2728653359000,2.199985,3.79894412950027,7.55065088588572,7.05946174013971,-2.427273,0.36774087,-0.398895,309.4668,-55.28092,17.916933,CSI
2728658375000,2.205001,3.64837060171951,7.24089976863693,6.97772169414293,-2.440712,0.3933972,-0.30909783,309.42273,-54.634995,17.961458,CSI
2728663366000,2.209992,3.38555934046415,6.49840345736388,6.8278044883368,-2.4523184,0.37934732,-0.23762658,309.3859,-53.98689,18.019575,CSI
2728668336000,2.214962,3.09760923226222,5.65815558044233,6.66258740383814,-2.4611762,0.3726278,-0.17012598,309.3285,-53.33431,18.094095,CSI
2728673367000,2.219993,2.91464859123706,5.23186260074475,6.17908114778992,-2.4529295,0.44043383,-0.10934488,309.25827,-52.663094,18.158703,CSI
2728678358000,2.224984,2.76208749367444,4.92211749126608,5.61506749410001,-2.4263568,0.44623706,-0.057726767,309.1969,-51.99671,18.247822,CSI
2728683342000,2.229968,2.58122191150129,4.35781824374701,5.39608404369917,-2.3564126,0.44104472,-0.008246681,309.08923,-51.283604,18.32018,CSI
2728689014000,2.23564,2.36292459021146,3.60417269488087,5.29733051297483,-2.3698518,0.37293324,0.028099801,308.99033,-50.560085,18.411411,CSI
2728693386000,2.240012,2.12472643068455,2.90886492241793,4.9370184496197,-2.3625214,0.3555236,0.07819075,308.93146,-49.897366,18.519886,CSI
2728698346000,2.244972,1.82523083901121,2.07217864539632,4.40933555610488,-2.329229,0.40011674,0.12217305,308.8677,-49.242157,18.636715,CSI
2728703394000,2.25002,1.42830879121314,1.28759434557689,3.9521906724718,-2.2913556,0.46853364,0.13255776,308.7694,-48.530502,18.739925,CSI
2728708470000,2.255096,0.976150082738967,0.537203328676034,3.53851354894122,-2.2119431,0.5332854,0.14049901,308.65295,-47.8389,18.845888,CSI
2728713453000,2.260079,0.659293069162771,-0.222282217004329,3.31937846466667,-2.1224513,0.61208695,0.12308934,308.52078,-47.140495,18.930029,CSI
2728718360000,2.264986,0.41924025425974,-0.983127564155844,3.20952382,-2.006387,0.72265357,0.1160644,308.36148,-46.47067,19.00186,CSI
2728723373000,2.269999,0.277627784570964,-1.48135659353196,3.38452138746479,-1.8903224,0.81489426,0.08979719,308.1767,-45.801876,19.011494,CSI
2728728370000,2.274996,0.37095340780065,-1.34655296305525,4.2088975915493,-1.7993035,0.79290307,0.07544186,307.9917,-45.15679,19.02425,CSI
2728733342000,2.279968,0.556185331868345,-1.06940019925266,5.03346944061955,-1.7385225,0.7654142,0.0852157,307.82483,-44.472054,19.087465,CSI
2728738376000,2.285002,0.854870436456922,-0.616705561417231,5.87352138255566,-1.7128662,0.7131852,0.08093964,307.66937,-43.806522,19.15623,CSI
2728743390000,2.290016,1.08528335180078,-0.174150452831858,6.55465116715374,-1.7208074,0.6930266,0.0842994,307.40894,-43.046513,19.156738,CSI
2728748359000,2.294985,1.21260024788022,0.251871599247788,6.99536368066475,-1.738217,0.68752885,0.08307768,307.15784,-42.29276,19.163479,CSI
2728753448000,2.300074,1.26110013455992,0.645979686598707,7.33771040258578,-1.7369953,0.7275405,0.07574729,306.8614,-41.48303,19.142954,CSI
2728758448000,2.305074,1.21347810571855,0.984096717926405,7.54724774719045,-1.7571539,0.79504114,0.07422013,306.56177,-40.667053,19.118053,CSI
2728763354000,2.30998,1.11520777966169,1.29440746736571,7.82467397871204,-1.7947221,0.8417723,0.07238753,306.27405,-39.850742,19.06567,CSI
2728768358000,2.314984,0.949288079078049,1.58358169235335,8.19917870456029,-1.8182404,0.8970556,0.06872234,305.97638,-39.040245,18.996035,CSI
2728773398000,2.320024,0.716207137145486,2.05651416125886,9.00355366798564,-1.8585575,0.9062186,0.08246681,305.70844,-38.245186,18.895128,CSI
2728778368000,2.324994,0.396472045280206,2.77044329616269,10.3788524155701,-1.9077321,0.89919364,0.118507855,305.43494,-37.448143,18.78927,CSI
2728783357000,2.329983,0.0790511748374129,3.33771248748155,11.4957764395196,-1.9657644,0.8567385,0.13927728,305.1692,-36.65813,18.630697,CSI
2728788379000,2.335005,-0.229326793694468,3.43805764934609,11.7894696491782,-2.038152,0.79901177,0.18081611,304.9022,-35.85529,18.487926,CSI
2728793379000,2.340005,-0.536353843208488,3.5379632266704,12.0818762697064,-2.1019874,0.77213365,0.23457226,304.63785,-35.023205,18.20706,CSI
2728798359000,2.344985,-0.842152784524452,3.63746918168541,12.3731132637525,-2.1615467,0.7654142,0.27580565,304.38672,-34.187424,17.943167,CSI
2728803437000,2.350063,-1.09554579757335,3.69842846573844,12.6148852693187,-2.2110267,0.72112644,0.2779437,304.16556,-33.350357,17.698587,CSI
2728808424000,2.35505,-1.2237912019095,3.67467933515664,12.7383805995525,-2.2675319,0.6569856,0.301462,303.9449,-32.50664,17.474003,CSI
2728813357000,2.359983,-1.27852839346075,3.66810933507325,12.8596293879887,-2.3218987,0.58123827,0.35094208,303.73645,-31.660805,17.139399,CSI
2728818356000,2.364982,-1.16705200298826,3.70062325400213,12.9803954695838,-2.359467,0.52839845,0.3924809,303.54294,-30.821354,16.823875,CSI
2728823377000,2.370003,-0.91826045271908,3.75792049390926,13.0554670487881,-2.3857343,0.45631635,0.41813725,303.3715,-29.972515,16.516851,CSI
2728828378000,2.375004,-0.243562794157862,3.89186782908639,12.9860130323182,-2.3952026,0.4098906,0.4373795,303.20557,-29.133667,16.228367,CSI
2728833350000,2.379976,0.339459086743449,4.07985362346358,12.9738867589294,-2.3991733,0.34972036,0.5006041,303.04007,-28.293697,15.990637,CSI
2728838376000,2.385002,0.729981700610836,4.39406716318195,13.0905946692157,-2.3423629,0.33292156,0.5015204,302.89438,-27.49073,15.752749,CSI
2728843437000,2.390063,1.10440898804659,4.66311426209644,13.1819912409072,-2.3047945,0.32162055,0.46089783,302.77405,-26.709417,15.643959,CSI
2728848355000,2.394981,1.38349830298324,4.71123323424602,13.1531198475685,-2.3264804,0.25442538,0.46028697,302.6589,-25.942318,15.560815,CSI
2728853448000,2.400074,1.66101321586857,4.77314480503127,13.0927239283114,-2.293799,0.20861048,0.46303585,302.63092,-25.253283,15.532256,CSI
2728858454000,2.40508,1.89371726371698,4.87607149208438,12.9271460274433,-2.2519548,0.18234327,0.47586402,302.61105,-24.577747,15.517112,CSI
2728863534000,2.41016,2.14959134567332,4.96893957580467,12.7526900326883,-2.2204952,0.18845193,0.47525316,302.62167,-23.93064,15.551173,CSI
2728868355000,2.414981,2.56624427662689,4.95505115121829,12.5304754326682,-2.1927009,0.1863139,0.52839845,302.62143,-23.304329,15.600433,CSI
2728873449000,2.420075,3.0039383949522,4.91927786722753,12.2998065212237,-2.1743748,0.2125811,0.51159966,302.66696,-22.733667,15.682526,CSI
2728878356000,2.424982,3.39929397759082,4.66768795526769,12.120099139675,-2.182927,0.22418754,0.5164866,302.69553,-22.170404,15.774638,CSI
2728883685000,2.430311,3.82535652786185,4.39371025331781,11.92462556461,-2.155438,0.26328292,0.52626044,302.78287,-21.64484,15.937075,CSI
2728888367000,2.434993,4.12984836299961,4.13706715913853,11.7462803358556,-2.1007655,0.29138273,0.550695,302.8635,-21.13472,16.096056,CSI
2728893353000,2.439979,4.45411070601475,3.86376035273574,11.5563552374854,-2.0506747,0.3491095,0.5870415,302.92047,-20.609312,16.317146,CSI
2728898354000,2.44498,4.6662151656849,3.74202247347359,11.3762569316503,-1.9688187,0.40866885,0.6038403,302.97,-20.117989,16.52358,CSI
2728903373000,2.449999,4.86845646287985,3.63416047958859,11.1964870982702,-1.9547688,0.43982297,0.6114761,303.00635,-19.629757,16.718407,CSI
2728908629000,2.455255,4.99684554242296,3.38380850397847,10.9681070295483,-1.9639318,0.48747048,0.6258314,303.06296,-19.130198,16.9621,CSI
2728913364000,2.45999,5.09255290417898,3.12539847733221,10.7527654655973,-1.9575176,0.5155703,0.63407815,303.11267,-18.648035,17.194958,CSI
2728918351000,2.464977,5.07490377043565,2.83593948872308,10.6163256722083,-1.9578232,0.52748215,0.6407976,303.18604,-18.166273,17.47111,CSI
2728923387000,2.470013,5.04109281792689,2.54130176469705,10.4907424081122,-1.954158,0.4978552,0.66156703,303.24664,-17.694,17.744307,CSI
2728928362000,2.474988,4.85639027176915,2.15973207793782,10.2833880857256,-1.9553796,0.45937067,0.6786713,303.30975,-17.199652,18.041441,CSI
2728933340000,2.479966,4.65275921578425,1.76667682292639,10.0655497771928,-1.9501873,0.4437936,0.68875057,303.36044,-16.71546,18.33285,CSI
2728938378000,2.485004,4.38457932019563,1.48528120258918,9.92803516513234,-1.9547688,0.42852196,0.70005155,303.3844,-16.190943,18.62431,CSI
2728944054000,2.49068,4.07181773158803,1.18815778866513,9.78729289930955,-1.9975294,0.38423425,0.7128797,303.40054,-15.665693,18.92111,CSI
2728948355000,2.494981,3.77706055562529,0.94298627503461,9.73631049321643,-1.9947804,0.36713,0.7293731,303.3425,-15.098566,19.172,CSI
2728953354000,2.49998,3.42799904825104,0.655783690124596,9.68328833557914,-1.9822577,0.3585779,0.75686204,303.27524,-14.530388,19.428923,CSI
2728958471000,2.505097,3.0345561618241,0.362639679398046,9.70964037785016,-1.9614882,0.3567453,0.77946407,303.15152,-13.927989,19.630379,CSI
2728963398000,2.510024,2.63494441760043,0.0808621495585233,9.78136540770901,-1.9422461,0.34208453,0.7837401,303.02423,-13.337919,19.834526,CSI
2728968352000,2.514978,2.35691941296978,-0.142601097279543,9.88334223309764,-1.9086485,0.34147367,0.79198676,302.88214,-12.701537,19.960484,CSI
2728973397000,2.520023,2.1088862686943,-0.353195295577683,9.99565920883379,-1.8707749,0.32375857,0.81183994,302.7367,-12.080431,20.093786,CSI
2728978394000,2.52502,1.95102910820942,-0.44733496413672,10.1050874390231,-1.8371773,0.32559118,0.81397796,302.53677,-11.427815,20.144648,CSI
2728983365000,2.529991,1.82812975700124,-0.496494714886411,10.213238771582,-1.8219056,0.30970868,0.8136725,302.33517,-10.789034,20.204676,CSI
2728988380000,2.535006,1.73606481675455,-0.452136825520134,10.2304532787632,-1.8359555,0.267559,0.8127562,302.11682,-10.116382,20.216875,CSI
2728993427000,2.540053,1.65265017343241,-0.38030756585906,10.2211850415149,-1.8585575,0.25289822,0.82986045,301.89456,-9.454287,20.225246,CSI
2728998347000,2.544973,1.57133453143816,-0.310285779147651,10.2121500252157,-1.8887954,0.22449298,0.83658,301.6689,-8.786737,20.221296,CSI
2729003416000,2.550042,1.48755628158677,-0.238143413936242,10.202841387488,-1.9065105,0.1872302,0.84482664,301.4411,-8.125448,20.223389,CSI
2729008468000,2.555094,1.42826090027498,-0.277701063703025,10.098782228231,-1.9327776,0.1591304,0.8402451,301.2423,-7.461638,20.228205,CSI
2729013368000,2.559994,1.38524869129239,-0.382842093848661,9.94107099490783,-1.949271,0.15393804,0.8390234,301.04257,-6.8056936,20.235971,CSI
2729018352000,2.564978,1.41636256634251,-0.577643505290204,9.84576153639062,-1.9489655,0.16615535,0.83169305,300.87796,-6.1828337,20.21906,CSI
2729023372000,2.569998,1.4901810779609,-0.823705395678166,9.78670652154775,-1.9278907,0.18203785,0.8197812,300.71713,-5.572664,20.201353,CSI
2729028357000,2.574983,1.62822516332261,-0.983340219028956,9.66284427561665,-1.9120082,0.15974127,0.8078693,300.56525,-4.955141,20.191027,CSI
2729033339000,2.579965,1.79568345797017,-1.10428228348055,9.50934116671541,-1.9077321,0.15088372,0.8078693,300.41425,-4.3507867,20.171556,CSI
2729038410000,2.585036,1.94217137730871,-1.1637462762533,9.53367377572559,-1.9049833,0.15851954,0.8393288,300.2405,-3.7164037,20.165148,CSI
2729043424000,2.59005,2.07339317197512,-1.18637074641915,9.66037035506973,-1.9022343,0.18906279,0.8677341,300.06912,-3.0942035,20.153313,CSI
2729048375000,2.595001,2.10043713963073,-1.19207364173212,9.65510459002346,-1.9065105,0.10323623,0.89949906,299.89365,-2.4581277,20.209253,CSI
2729053413000,2.600039,2.03153253234724,-1.18223014108946,9.52713897888402,-1.9162843,0.03145956,0.9324858,299.70895,-1.8290542,20.25124,CSI
2729058425000,2.605051,2.07779623883848,-1.18883924434362,9.4115561923775,-1.9074267,0.03634648,0.97524637,299.5313,-1.20721,20.31424,CSI
2729063400000,2.610026,2.21230407686025,-1.2080546426094,9.30587130127042,-1.8777997,0.12583824,1.0781772,299.32562,-0.5899525,20.371058,CSI
2729068386000,2.615012,2.25306239758244,-1.23012177614809,9.19420913240947,-1.8637499,0.080634214,1.1386528,299.13205,0.018727522,20.45739,CSI
2729073373000,2.619999,2.22407630503743,-1.25427689530649,9.07826466133927,-1.8283197,0.061391957,1.1655309,298.91754,0.6101045,20.508524,CSI
2729078346000,2.624972,2.17482646411785,-1.21979369246194,8.97826948859437,-1.7895297,0.05955936,1.1963795,298.68845,1.1930504,20.596682,CSI
2729083327000,2.629953,2.11137097326699,-1.14458719387594,8.88896168256393,-1.78617,0.042455133,1.2220359,298.4527,1.768422,20.69129,CSI
2729088369000,2.634995,2.04713837240972,-1.0684596761344,8.79856016519683,-1.7623463,0.043676864,1.2260065,298.24588,2.326673,20.78272,CSI
2729093372000,2.639998,1.98340261237621,-0.992921006705424,8.70885790589742,-1.7528778,0.13439035,1.2815952,298.0163,2.8862405,20.849194,CSI
2729098343000,2.644969,1.82548825003981,-0.995380798298169,8.70722346267914,-1.7531832,0.14874569,1.3206906,297.80835,3.432589,20.935833,CSI
2729103383000,2.650009,1.5805019156449,-1.06743559368033,8.78408195790207,-1.7385225,0.09773844,1.3060299,297.60022,3.9631717,21.012594,CSI
2729108398000,2.655024,1.36478092119829,-1.16412686892173,8.81270382293423,-1.715615,0.06566802,1.2745703,297.4276,4.4593606,21.074228,CSI
2729113427000,2.660053,1.17368181458189,-1.28356384797143,8.79837159696459,-1.6713274,0.112704635,1.251052,297.25778,4.936531,21.12566,CSI
2729118342000,2.664968,1.07299441132364,-1.31549480716335,8.86039491507269,-1.6484199,0.15821409,1.2137892,297.0887,5.4231915,21.128101,CSI
2729123387000,2.670013,1.05451126059679,-1.26466609441469,8.9990185455241,-1.6719382,0.1282817,1.1682798,296.92963,5.898386,21.138504,CSI
2729128367000,2.674993,1.10697479062148,-1.27408402038497,9.02588807197707,-1.6844609,0.14752395,1.1447614,296.74634,6.3856936,21.077005,CSI
2729133384000,2.68001,1.25947320129006,-1.36755082798198,8.89798616258831,-1.704314,0.17562376,1.1407908,296.57263,6.869674,21.022068,CSI
2729138404000,2.68503,1.41174636073862,-1.44842708518811,8.80319340574701,-1.7256943,0.21746802,1.1389582,296.4422,7.3396845,20.943209,CSI
2729143475000,2.690101,1.56520217161055,-1.51556398053718,8.74564729515157,-1.7296649,0.2764165,1.1609493,296.31024,7.8032055,20.85122,CSI
2729148384000,2.69501,1.60143845634262,-1.68459836333729,8.69824964256076,-1.754405,0.24037547,1.1447614,296.19003,8.286275,20.802736,CSI
2729153394000,2.70002,1.49715517270302,-1.98796801923533,8.66032866449318,-1.754405,0.22479841,1.1032226,296.07672,8.75414,20.732683,CSI
2729158432000,2.705058,1.36782320164813,-2.2007278425139,8.65444409352661,-1.7614299,0.22785273,1.0699304,295.97195,9.234911,20.693823,CSI
2729163464000,2.71009,1.20514681515091,-2.28685068238681,8.69272066699762,-1.7672331,0.24129178,1.0751228,295.8694,9.705881,20.656452,CSI
2729168347000,2.714973,1.0834955568,-2.34530788290909,8.68233988072727,-1.8005253,0.18478674,1.031446,295.72363,10.23824,20.603266,CSI
2729173373000,2.719999,1.0134838794,-2.36718651781818,8.59920115945454,-1.8069394,0.17104226,0.999681,295.57852,10.756938,20.533997,CSI
2729178339000,2.724965,0.954062541794569,-2.38281592325856,8.49584886068477,-1.8191566,0.18234327,0.9978484,295.43582,11.304621,20.427408,CSI
2729183340000,2.729966,0.935214198893152,-2.37339176410862,8.30265325368949,-1.8231273,0.19547687,0.98868537,295.30743,11.837709,20.327244,CSI
2729188391000,2.735017,0.89201471222995,-2.3892999696153,8.12704741088894,-1.813048,0.21594086,0.99082345,295.17792,12.37583,20.206608,CSI
2729193364000,2.73999,0.731572491793088,-2.52903991855032,8.04941413594871,-1.8093829,0.23518312,0.9868528,295.05728,12.905122,20.084864,CSI
2729198331000,2.744957,0.61504181962229,-2.70004134047876,7.90573606366134,-1.8182404,0.26633725,1.006095,294.93817,13.437867,19.95738,CSI
2729203403000,2.750029,0.591214899171,-2.94307597585598,7.61504766699696,-1.8154916,0.22327125,0.979217,294.83295,13.9518385,19.8501,CSI
2729208386000,2.755012,0.575733806940432,-3.16310541254666,7.37193384885571,-1.7886134,0.23151793,0.9804387,294.69406,14.49647,19.679325,CSI
2729213369000,2.759995,0.579606667979224,-3.33738347181464,7.23251119115403,-1.7693712,0.26847526,0.96883225,294.56985,15.028674,19.517231,CSI
2729218359000,2.764985,0.583484969521182,-3.51190635275929,7.09289267581561,-1.7366899,0.27580565,0.95386606,294.3992,15.609676,19.354898,CSI
2729223361000,2.769987,0.556527130573441,-3.72517158442656,6.98075776667002,-1.7030923,0.30268374,0.93431836,294.24246,16.174002,19.180086,CSI
2729228386000,2.775012,0.522637347625755,-3.94787574237425,6.87424733080483,-1.6801848,0.32925636,0.9260717,294.0918,16.722597,19.005571,CSI
2729233357000,2.779983,0.460182392937287,-4.1332396086742,6.84913644286278,-1.6410894,0.3359759,0.91721416,293.9167,17.303137,18.827785,CSI
2729238385000,2.785011,0.39128156074308,-4.31380735166527,6.83963288527656,-1.6245961,0.35155296,0.91232723,293.75085,17.87374,18.642727,CSI
2729243397000,2.790023,0.322599983384813,-4.49380049563329,6.83015956971925,-1.577254,0.30024028,0.94959,293.53882,18.473719,18.458395,CSI
2729248378000,2.795004,0.25434321227118,-4.67268035399418,6.82074484809296,-1.5234979,0.36865717,0.89980453,293.3717,19.049091,18.248352,CSI
2729253412000,2.800038,0.164049579800504,-4.81492771955061,6.80678584665057,-1.5189165,0.40469822,0.8546005,293.19684,19.622921,18.055695,CSI
2729258357000,2.804983,0.0695736310079798,-4.94421060121798,6.79186855113398,-1.5063937,0.4016439,0.8374963,293.036,20.16888,17.859858,CSI
2729263273000,2.809899,-0.0924988204585887,-5.05400422587468,6.75347943724056,-1.5143349,0.3998113,0.799928,292.84506,20.786032,17.616213,CSI
2729268273000,2.814899,-0.267603515062265,-5.16285315847005,6.71088653350465,-1.498147,0.3979787,0.7696902,292.66266,21.382317,17.377583,CSI
2729273298000,2.819924,-0.446451569709794,-5.25381665150141,6.71184984597944,-1.4831808,0.39492437,0.7275405,292.48093,21.998425,17.121574,CSI
2729278284000,2.82491,-0.624479442914147,-5.34042468735389,6.72147291641475,-1.4624114,0.38087448,0.6988298,292.30847,22.596807,16.874298,CSI
2729283272000,2.829898,-0.719742875450755,-5.32522094494639,6.76725493836378,-1.4370605,0.3662137,0.67011917,292.13608,23.210075,16.595232,CSI
2729288300000,2.834926,-0.801016391979746,-5.29175544157069,6.8198436649722,-1.4083499,0.312763,0.6759224,291.96176,23.80704,16.333025,CSI
2729293280000,2.839906,-0.937347467770371,-5.32219969306537,6.78848303932942,-1.3707817,0.19364429,0.7128797,291.77173,24.410177,16.052017,CSI
2729298276000,2.844902,-1.08491663261367,-5.36504226948562,6.7408801214108,-1.312444,0.19272798,0.66523224,291.61707,24.98269,15.767895,CSI
2729303392000,2.850018,-1.20292411344584,-5.62286798279804,6.51902169183451,-1.2922854,0.11026118,0.68691796,291.42407,25.549965,15.504708,CSI
2729308451000,2.855077,-1.31281585648703,-5.92177341187625,6.26407292325349,-1.2296717,0.15088372,0.6224717,291.28793,26.068693,15.231057,CSI
2729313356000,2.859982,-1.3311096734449,-6.08147178001263,6.08734660917798,-1.1972959,0.15210545,0.5928447,291.11734,26.604836,14.954227,CSI
2729318359000,2.864985,-1.30085218661194,-6.17224439848437,5.94614489864225,-1.138042,0.111177474,0.5852089,290.9625,27.103664,14.687359,CSI
2729323391000,2.870017,-1.3068125503432,-6.38791799921553,5.83568628789959,-1.0516045,0.09865474,0.57879484,290.77246,27.66867,14.393007,CSI
2729328367000,2.874993,-1.32550411998431,-6.64492732575015,5.73755544969602,-0.9624182,0.094989546,0.56138515,290.58826,28.205568,14.113197,CSI
2729333353000,2.879979,-1.240769654355,-6.82946902589719,5.64320080927255,-0.8894198,0.086437434,0.5522222,290.38925,28.74211,13.849441,CSI
2729338927000,2.885553,-1.09579667235694,-7.00032996702231,5.53964854025218,-0.84207773,0.08002335,0.5338962,290.2018,29.25034,13.593464,CSI
2729343405000,2.890031,-0.986386354767731,-7.0818710303392,5.45186376255844,-0.7632761,0.049480084,0.5164866,289.98895,29.784782,13.335726,CSI
2729348355000,2.894981,-0.868498143487516,-7.14788851019596,5.35283786282702,-0.70646566,0.0125227375,0.49205196,289.78598,30.301102,13.08866,CSI
2729353390000,2.900016,-0.835292314576271,-7.2197761779661,5.2859106440678,-0.64873886,-0.033292156,0.4728097,289.5691,30.822798,12.878822,CSI
2729358473000,2.905099,-0.854150978103632,-7.29521060561743,5.23876403447942,-0.57879484,-0.07971791,0.45570546,289.35663,31.315037,12.6846285,CSI
2729363442000,2.910068,-0.913991626486696,-7.32225098003199,5.21802461353172,-0.5045747,-0.129198,0.43982297,289.13852,31.801075,12.531915,CSI
2729368356000,2.914982,-1.00294412428149,-7.31540858096254,5.21574373445451,-0.43371433,-0.20433442,0.3979787,288.923,32.25775,12.4055,CSI
2729373381000,2.920007,-1.09390592758203,-7.30841162220714,5.21341133368875,-0.34788775,-0.2733622,0.36651915,288.69827,32.702866,12.286758,CSI
2729378348000,2.924974,-1.18381782350119,-7.30149542436873,5.21110585416566,-0.26725355,-0.32284227,0.3295618,288.47873,33.11936,12.190493,CSI
2729383343000,2.929969,-1.29331857521143,-7.2515978938466,5.20578919641295,-0.17440203,-0.3827071,0.29626966,288.25833,33.502525,12.115367,CSI
2729388361000,2.934987,-1.42879398994848,-7.14415162126956,5.19644611650627,-0.08124508,-0.42760566,0.2611449,288.04337,33.85466,12.055783,CSI
2729393380000,2.940006,-1.53726844597995,-7.0104300995806,5.21104975327332,0.0067195175,-0.47800204,0.23090707,287.82782,34.181557,11.975218,CSI
2729398353000,2.944979,-1.60060018089198,-6.83505010233224,5.26463810130933,0.08582657,-0.5213735,0.19394971,287.61768,34.477276,11.911739,CSI
2729403363000,2.949989,-1.63368327030713,-6.66335921849671,5.34338183568835,0.16432275,-0.54702985,0.16676621,287.4183,34.73227,11.828572,CSI
2729408439000,2.955065,-1.62414311982141,-6.4964064355706,5.45786359170837,0.2593123,-0.56107974,0.11575896,287.22968,34.952915,11.76424,CSI
2729413374000,2.96,-1.57941624728651,-6.34894194350682,5.57418249534108,0.33567044,-0.569021,0.08277224,287.06177,35.12011,11.692925,CSI
2729418356000,2.964982,-1.47815864550783,-6.22357528822638,5.69954925131885,0.4083634,-0.56779927,0.049480084,286.9068,35.256294,11.632521,CSI
2729423349000,2.969975,-1.34911001085839,-6.11418124553006,5.80894331487342,0.47433686,-0.5308419,0.025045475,286.7935,35.32636,11.572019,CSI
2729428351000,2.974977,-1.17856857195411,-6.02891050134494,5.89421396012658,0.5320636,-0.5170974,-0.0106901415,286.68848,35.374634,11.525006,CSI
2729433348000,2.979974,-0.980493258122001,-5.96707075885636,5.95605364114364,0.55924714,-0.4990769,-0.023518313,286.61536,35.3726,11.487576,CSI
2729438369000,2.984995,-0.735665306100069,-5.94352962853226,5.97959477146774,0.6044512,-0.4810564,-0.05131268,286.55804,35.346287,11.45609,CSI
2729443359000,2.989985,-0.50361397279237,-5.91190831401179,6.00314854299411,0.6337727,-0.45112398,-0.06872234,286.52533,35.285286,11.455557,CSI
2729448355000,2.994981,-0.293366101820633,-5.86412473985818,6.02704033007091,0.6704246,-0.43951756,-0.08735373,286.50052,35.208874,11.459794,CSI
2729453374000,3,-0.109476605366513,-5.78414783916689,6.06629957587233,0.6966918,-0.42363504,-0.09987647,286.49487,35.113453,11.511687,CSI
2729458418000,3.005044,0.0211845104246687,-5.64042053493824,6.13598554431521,0.7296785,-0.40866885,-0.106595986,286.49457,35.006985,11.562057,CSI
2729463335000,3.009961,0.128856396315858,-5.50232354054376,6.19329461135182,0.7809912,-0.4147775,-0.11759156,286.5075,34.870193,11.664143,CSI
2729468355000,3.014981,0.0819889607266031,-5.37734386528379,6.16725716767764,0.8231409,-0.43188173,-0.13439035,286.5241,34.728477,11.765288,CSI
2729473379000,3.020005,0.01651367368223,-5.25502712284719,6.15615261134893,0.8732319,-0.46639562,-0.14385876,286.5652,34.529224,11.904113,CSI
2729478371000,3.024997,-0.0977101255317073,-5.14080325505226,6.18470864041812,0.9315695,-0.4908302,-0.15118915,286.6085,34.318695,12.0438795,CSI
2729483355000,3.029981,-0.227238858387477,-5.03330235522622,6.25227425121209,0.97402465,-0.50976706,-0.16584991,286.65994,34.08355,12.184468,CSI
2729488363000,3.034989,-0.401401591232702,-4.94386745735597,6.43114389949946,1.0256428,-0.52473325,-0.15943582,286.70486,33.83509,12.324302,CSI
2729493410000,3.040036,-0.576726213916781,-4.85492849144364,6.64289138978316,1.071763,-0.5503896,-0.16554448,286.7695,33.555843,12.448941,CSI
2729498344000,3.04497,-0.747494209349482,-4.77185223029889,6.95212008069936,1.1123856,-0.5647449,-0.17806722,286.83432,33.268684,12.571392,CSI
2729503420000,3.050046,-0.90608578407669,-4.6813191827447,7.26402262411705,1.1459832,-0.5665775,-0.18448131,286.92923,32.938507,12.650225,CSI
2729508407000,3.055033,-0.988014363832492,-4.5704745276892,7.5435435715338,1.1600331,-0.5705481,-0.20097467,287.02826,32.606205,12.733919,CSI
2729513369000,3.059995,-1.04155998996781,-4.46456957736052,7.80794388540773,1.1841623,-0.5644395,-0.22235495,287.1639,32.208664,12.772185,CSI
2729518361000,3.064987,-0.980937988251073,-4.37596834567889,8.0177888283652,1.1707232,-0.5705481,-0.2452624,287.30313,31.822515,12.815063,CSI
2729523353000,3.069979,-0.916119379571734,-4.29357096935332,8.21349305139186,1.1548407,-0.5665775,-0.26236662,287.49747,31.378445,12.831649,CSI
2729528352000,3.074978,-0.825906269486081,-4.24846444642398,8.32420966167024,1.1255192,-0.57910025,-0.267559,287.69257,30.948092,12.853377,CSI
2729533319000,3.079945,-0.736270638800857,-4.20364666298929,8.43421754389722,1.1078042,-0.5870415,-0.27885997,287.9262,30.475183,12.888554,CSI
2729538379000,3.085005,-0.557047847131843,-4.14590272839244,8.46756823014649,1.0735956,-0.5858198,-0.28344148,288.16016,30.022982,12.921738,CSI
2729543398000,3.090024,-0.357853779001542,-4.08568106502506,8.48146528777949,1.0528263,-0.55833083,-0.29626966,288.4028,29.578201,12.950692,CSI
2729548354000,3.09498,-0.193026175936569,-4.10107861659804,8.47817657519608,1.0338894,-0.5491679,-0.3109304,288.66583,29.120369,13.004389,CSI
2729553368000,3.099994,-0.0376734681151961,-4.14344755563725,8.46876156127451,1.0235047,-0.5296202,-0.33414328,288.9403,28.672363,13.048662,CSI
2729558412000,3.105038,0.142483328073012,-4.16351828117672,8.51259470240887,1.0250319,-0.50335294,-0.36132678,289.23096,28.214254,13.138368,CSI
2729563363000,3.109989,0.329474003217224,-4.1736260891068,8.57829387081646,1.0375546,-0.4981606,-0.3885103,289.52707,27.762512,13.227215,CSI
2729568350000,3.114976,0.450458392940228,-4.11254988993045,8.70840464832174,1.0592403,-0.48838675,-0.40011674,289.79614,27.319881,13.349187,CSI
2729573387000,3.120013,0.557427873877633,-4.03475375240399,8.85427202540067,1.0549643,-0.4990769,-0.41874814,290.0716,26.886631,13.474529,CSI
2729578360000,3.124986,0.656181995558153,-3.85911169000584,8.92819772764465,1.0439687,-0.5039638,-0.42302418,290.34235,26.44807,13.634608,CSI
2729583375000,3.130001,0.754426851879992,-3.66262207506332,8.9890157161504,1.0366384,-0.4896085,-0.42852196,290.61865,26.016737,13.788895,CSI
2729588396000,3.135022,0.829332418845606,-3.58652605418001,9.11947241533262,1.0326678,-0.4810564,-0.43554693,290.91208,25.55964,13.965759,CSI
2729594285000,3.140911,0.909585415790644,-3.53636784270722,9.29502631261117,1.0183123,-0.48838675,-0.43371433,291.20334,25.116888,14.135746,CSI
2729598463000,3.145089,0.939568899532475,-3.48179025730947,9.41437205318721,0.9944886,-0.48930305,-0.44043383,291.54187,24.632072,14.326957,CSI
2729603392000,3.150018,0.958553057510557,-3.40585372451237,9.55200691976674,0.95539325,-0.4896085,-0.45020768,291.87817,24.165304,14.512028,CSI
2729608387000,3.155013,0.990230930270804,-3.34231918967218,9.56916713945839,0.93676186,-0.48472157,-0.45112398,292.21902,23.675093,14.712355,CSI
2729613358000,3.159984,1.03198629475935,-3.29012494318605,9.48565641048131,0.9092729,-0.47739118,-0.46975538,292.56567,23.206217,14.9069195,CSI
2729618354000,3.16498,1.06639608009007,-3.28813880370614,9.3170873422781,0.9034697,-0.46395215,-0.48380527,292.91986,22.715332,15.091152,CSI
2729623383000,3.170009,1.09802791443047,-3.30621427917058,9.11373983580409,0.9025534,-0.47067168,-0.49235737,293.27383,22.240078,15.272337,CSI
2729628450000,3.175076,1.11683790822227,-3.36396588893787,8.90643440352676,0.89980453,-0.44226643,-0.49846604,293.6355,21.772001,15.449312,CSI
2729633434000,3.18006,1.12662482050441,-3.44715459223908,8.70090904121386,0.9059132,-0.41172317,-0.5323691,294.00412,21.30858,15.623516,CSI
2729638380000,3.185006,1.12700463582567,-3.53449358318673,8.51859430647741,0.9288206,-0.39278635,-0.54611355,294.32935,20.872904,15.809245,CSI
2729643450000,3.190076,1.12215113962415,-3.62671011237505,8.34386783506597,0.9456194,-0.38026363,-0.56291234,294.6655,20.442593,15.985232,CSI
2729648355000,3.194981,1.13791347245905,-3.67286273510873,8.2519876653894,0.97005403,-0.3484986,-0.5876524,294.96765,20.045092,16.160923,CSI
2729653384000,3.20001,1.16559532571128,-3.69593090600632,8.2012380748156,0.977079,-0.310625,-0.6160576,295.27573,19.6533,16.32708,CSI
2729658416000,3.205042,1.22138864362416,-3.66278282802522,8.21931923306894,0.98837996,-0.2828306,-0.64476824,295.55176,19.292555,16.494213,CSI
2729663981000,3.210607,1.30809993389262,-3.57607148116738,8.30061101464307,0.95905846,-0.26419923,-0.6759224,295.8377,18.944715,16.650913,CSI
2729668354000,3.21498,1.40080480518275,-3.50746882258751,8.36241561264746,0.94134337,-0.26145032,-0.6994407,296.1066,18.604467,16.811527,CSI
2729673392000,3.220018,1.52210110978534,-3.4281597321988,8.43239470895378,0.9059132,-0.25228736,-0.72418076,296.38538,18.280102,16.963125,CSI
2729678361000,3.224987,1.66311474756235,-3.28714087284204,8.61167403181772,0.86742866,-0.22266038,-0.7528914,296.6855,17.940178,17.12232,CSI
2729683354000,3.22998,1.82507315439803,-3.08591979552499,8.89632781627835,0.79473567,-0.20677789,-0.75716746,296.9832,17.62509,17.277037,CSI
2729688374000,3.235,1.97821796914994,-2.84889692563423,9.26994549204847,0.7031059,-0.17928895,-0.75747293,297.29684,17.301731,17.44866,CSI
2729693389000,3.240015,2.12370134367664,-2.58520837754638,9.71094172926922,0.5717699,-0.13591751,-0.7816021,297.61914,17.012077,17.607925,CSI
2729698363000,3.244989,2.24983464559101,-2.16979174346357,10.2590449537727,0.40042216,-0.09132435,-0.8060367,297.98492,16.693184,17.781334,CSI
2729703380000,3.250006,2.35491772806442,-1.56317594419922,10.9468617384432,0.18936823,-0.049785517,-0.84849185,298.36337,16.422812,17.94039,CSI
2729708440000,3.255066,2.44696855442598,-0.891799896211828,11.5793613378431,-0.040927973,0.014966198,-0.89827734,298.84064,16.101805,18.095984,CSI
2729713355000,3.259981,2.51974769715887,-0.168555689331272,12.1206572984152,-0.26297748,0.110872045,-0.89858276,299.31702,15.843076,18.223177,CSI
2729718361000,3.264987,2.59273484837021,0.411944590810944,12.6049870547215,-0.43493605,0.21105394,-0.8970556,299.97385,15.433059,18.338947,CSI
2729723386000,3.270012,2.6640359949032,0.725669193808771,12.9757520438562,-0.5720753,0.2764165,-0.8924741,300.62405,15.085583,18.428587,CSI
2729728371000,3.274997,2.77817477364858,0.793073350587752,13.255057687968,-0.6206391,0.35521814,-0.88422745,301.47656,14.53662,18.51451,CSI
2729733353000,3.279979,2.97393502565391,0.401552984554313,13.367620021951,-0.68233645,0.38026363,-0.87689704,302.30716,14.049739,18.583765,CSI
2729738379000,3.285005,3.18364645820482,-0.106325659889284,13.3534502491103,-0.70402217,0.3191771,-0.8472701,303.19965,13.481949,18.661282,CSI
2729743413000,3.290039,3.41239911152629,-0.787818298904705,13.1437599644128,-0.68600166,0.18997909,-0.81153446,304.05762,12.947109,18.73615,CSI
2729748354000,3.29498,3.50039396487339,-1.57010443509056,12.4251086162026,-0.63621616,0.021991149,-0.7535023,304.78198,12.5300455,18.825796,CSI
2729753374000,3.3,3.35742796577453,-2.55786957323601,10.8221566147607,-0.5867361,-0.118202426,-0.6805039,305.46426,12.131046,18.930742,CSI
2729758370000,3.304996,3.20627769540423,-3.41525977781178,9.35022709599592,-0.52442783,-0.23060162,-0.59498274,305.9567,11.891426,19.105171,CSI
2729763364000,3.30999,3.00623797536343,-3.57870686396327,8.55982616832441,-0.43554693,-0.36835176,-0.539394,306.4158,11.643764,19.313679,CSI
2729768370000,3.314996,2.80571758318796,-3.74254669441469,7.7675259993369,-0.3295618,-0.49602258,-0.4813618,306.5607,11.702029,19.58835,CSI
2729773378000,3.320004,2.60511707899005,-3.90645198224943,6.97490929013007,-0.22235495,-0.59742624,-0.44959682,306.6872,11.736379,19.885942,CSI
2729778359000,3.324985,2.4272787550738,-4.05215542103321,6.27612143311808,-0.11056661,-0.6637051,-0.44990227,306.79962,11.740221,20.20279,CSI
2729783355000,3.329981,2.32134728581181,-4.14043179136531,5.87446446429889,-0.022602014,-0.6597345,-0.4166101,306.88837,11.727348,20.516878,CSI
2729788463000,3.335089,2.22830823554828,-4.20650051299509,5.49146317702128,0.04062254,-0.6038403,-0.3817908,306.84924,11.831907,20.851818,CSI
2729793448000,3.340074,2.30644312010911,-4.00334987840698,5.42374637134752,0.0983493,-0.50885075,-0.37140608,306.80682,11.915219,21.169727,CSI
2729798442000,3.345068,2.41235792833649,-3.76548060982757,5.4347132827868,0.14844026,-0.41874814,-0.3640757,306.72064,12.025421,21.478977,CSI
2729803389000,3.350015,2.60124038410246,-3.4254920316655,5.68498266857371,0.17531833,-0.31673363,-0.3585779,306.63556,12.127991,21.754717,CSI
2729808418000,3.355044,2.78747869824422,-3.13364790655689,5.95469241744867,0.19364429,-0.21685717,-0.3539964,306.58075,12.182232,22.025394,CSI
2729813369000,3.359995,2.95209711541514,-3.02076682548358,6.26981877901002,0.21410827,-0.1328632,-0.3390302,306.52405,12.231589,22.268406,CSI
2729818355000,3.364981,3.10445984881694,-2.92956080448319,6.61319642540473,0.23945917,-0.08093964,-0.31429017,306.5345,12.184037,22.516787,CSI
2729823387000,3.370013,3.20602025314685,-2.92494432167832,7.06098624335664,0.22388211,0.01740966,-0.29932398,306.55005,12.144215,22.725388,CSI
2729828369000,3.374995,3.30148448561511,-2.91562870729964,7.50843742693211,0.22815818,0.09896017,-0.28191432,306.60358,12.047165,22.937439,CSI
2729833352000,3.379978,3.35994853149566,-2.87178085094436,7.98589347942828,0.24831672,0.15821409,-0.27183503,306.6576,11.9532795,23.124163,CSI
2729838361000,3.384987,3.40257563231132,-2.82420764892885,8.470493859375,0.24740042,0.22602014,-0.25870144,306.73795,11.840107,23.267723,CSI
2729843464000,3.39009,3.35935298160377,-2.75697226405267,8.98916596875,0.2321288,0.2687807,-0.24831672,306.8161,11.729081,23.397833,CSI
2729848378000,3.395004,3.31399375539783,-2.6919591626074,9.45929511617482,0.21380283,0.3136793,-0.23762658,306.9358,11.588006,23.480099,CSI
2729853407000,3.400033,3.24202998648487,-2.62359354268958,9.73995351811729,0.17898351,0.3032946,-0.22266038,307.04764,11.460253,23.562092,CSI
2729858598000,3.405224,3.16774803690699,-2.55302564986926,10.0296528150915,0.1386664,0.2846632,-0.20922135,307.21503,11.305538,23.577614,CSI
2729863423000,3.410049,3.06707657391304,-2.49996290434783,10.276745826087,0.08582657,0.2660318,-0.20433442,307.37674,11.16766,23.594074,CSI
2729868969000,3.415595,2.9114526163138,-2.45478182300567,10.5327728797732,0.021685716,0.22235495,-0.18936823,307.5256,11.049311,23.61981,CSI
2729873695000,3.420321,2.79154280385627,-2.42972241139351,10.6757055898335,-0.036651913,0.16065755,-0.16890424,307.71204,10.911199,23.604721,CSI
2729878411000,3.425037,2.68928658045574,-2.42312524680105,10.7152887151621,-0.08155051,0.08368854,-0.15485434,307.88885,10.790732,23.605078,CSI
2729883428000,3.430054,2.580503825409,-2.41610701635992,10.7573982443763,-0.12370021,0.031154128,-0.13988814,308.08853,10.670264,23.56636,CSI
2729888431000,3.435057,2.42983639062732,-2.47816579851396,10.7492181432969,-0.13775012,-0.041233405,-0.12889257,308.27588,10.558373,23.55429,CSI
2729893521000,3.440147,2.24874017695574,-2.5868235483282,10.707824411209,-0.15027285,-0.08460484,-0.10751228,308.45108,10.46266,23.547194,CSI
2729898410000,3.445036,2.15403090253512,-2.62877260521154,10.4197893594049,-0.16249016,-0.11209377,-0.09193522,308.6312,10.370498,23.521465,CSI
2729903329000,3.449955,2.08746605088521,-2.64835047870501,10.0399784500873,-0.14966199,-0.1459968,-0.08002335,308.80023,10.279291,23.508873,CSI
2729908386000,3.455012,2.05170222128099,-2.69111239783058,9.69559698553719,-0.12583824,-0.16218472,-0.057421334,308.95297,10.21903,23.465687,CSI
2729913344000,3.45997,2.0898534394169,-2.7837651366506,9.4612404295225,-0.12064589,-0.16890424,-0.036957346,309.0993,10.16261,23.429537,CSI
2729918269000,3.464895,2.11715271330633,-2.87899737162896,9.22066032035958,-0.10048734,-0.1731803,-0.026572637,309.21445,10.125343,23.415157,CSI
2729923286000,3.469912,2.13613791753433,-2.97866974338635,8.96910557137212,-0.09254608,-0.18448131,-0.015271631,309.32117,10.092782,23.403465,CSI
2729928268000,3.474894,2.17246877646117,-3.06840618811049,8.69777780604484,-0.07269296,-0.18936823,-0.0021380284,309.39517,10.077951,23.413227,CSI
2729933264000,3.47989,2.22514117646117,-3.14980908811049,8.40568530604484,-0.060170226,-0.17440203,0.007941248,309.46655,10.0639515,23.41965,CSI
2729938280000,3.484906,2.27734861112847,-3.20369428924248,8.20874978494729,-0.040011674,-0.14935656,0.02107485,309.49738,10.077506,23.444368,CSI
2729943281000,3.489907,2.32877679787192,-3.23174592539047,8.10121827708903,-0.022602014,-0.13561209,0.021991149,309.52887,10.087907,23.46749,CSI
2729948272000,3.494898,2.35812975637517,-3.23536164146341,8.02663622565933,-0.0021380284,-0.12736541,0.03359759,309.5189,10.1235285,23.515867,CSI
2729953444000,3.50007,2.36304064370414,-3.21080725609756,7.98734907574856,0.020463986,-0.09865474,0.045814894,309.5105,10.153711,23.553682,CSI
2729958385000,3.505011,2.36977373222642,-3.18144414863208,7.9765076195283,0.024740042,-0.086437434,0.049785517,309.48877,10.193985,23.61121,CSI
2729963340000,3.509966,2.37872713675472,-3.14563048377358,7.99441433509434,0.043982297,-0.06383542,0.056505036,309.46487,10.22574,23.656075,CSI
2729968318000,3.514944,2.38969020320922,-3.10177816953302,8.02815931968731,0.04795292,-0.044898596,0.061086524,309.4426,10.256788,23.701765,CSI
2729973380000,3.520006,2.40464939728451,-3.04194134116437,8.09298280641843,0.04520403,-0.024129177,0.06658431,309.41956,10.285175,23.739473,CSI
2729978314000,3.52494,2.41718843370244,-3.00328426629756,8.15562363901751,0.03604105,-0.00030543262,0.074830994,309.40356,10.305494,23.770855,CSI
2729983322000,3.529948,2.42684428520234,-2.99362841479766,8.21838647211596,0.03359759,0.015577064,0.0729984,309.38983,10.324056,23.798395,CSI
2729988759000,3.535385,2.44182392097889,-2.96933380940936,8.30411075459765,0.03023783,0.027183503,0.06780604,309.39325,10.331346,23.81694,CSI
2729993316000,3.539942,2.45880995335215,-2.93536165597937,8.39328818945217,0.007941248,0.05467244,0.06811147,309.39752,10.344554,23.826078,CSI
2729998288000,3.544914,2.46913651498397,-2.88951465971554,8.49663100530849,0.01038471,0.05955936,0.07696902,309.40558,10.347254,23.835085,CSI
2730003327000,3.549953,2.46430303189103,-2.82667927856571,8.61263449859776,0.008246681,0.058643065,0.0693332,309.41992,10.354877,23.838865,CSI
2730008346000,3.554972,2.46292894230472,-2.79529896445282,8.71488781332173,0.0012217305,0.062002823,0.06505715,309.44424,10.350855,23.835909,CSI
2730013378000,3.560004,2.46758772590874,-2.81859302841261,8.79408684271075,0.0012217305,0.05497787,0.060170226,309.455945724014,10.3497373376727,23.8368921195674,CSI
2730018332000,3.564958,2.4654157044878,-2.83203473880454,8.86112003440323,-0.0106901415,0.04886922,0.06780604,309.46747,10.348637,23.83786,CSI
2730023426000,3.570052,2.44666341086873,-2.82265837170863,8.90331319680953,-0.009162978,0.025350908,0.062308256,309.51385,10.324062,23.833311,CSI
2730028356000,3.574982,2.42787253733267,-2.815581,8.93464582672286,-0.007941248,0.0015271631,0.06047566,309.56107,10.302964,23.828758,CSI
2730033358000,3.579984,2.40649780345067,-2.815581,8.93227080669311,-0.0018325958,-0.022602014,0.061391957,309.60718,10.280196,23.830982,CSI
2730038386000,3.585012,2.38501196539415,-2.815581,8.92988344149727,-0.004276057,-0.044593163,0.06505715,309.657,10.255893,23.831818,CSI
2730043500000,3.590126,2.36315862891423,-2.815581,8.92745524229053,-0.0027488936,-0.054367006,0.063224554,309.70703,10.228877,23.836033,CSI
2730048389000,3.595015,2.33525056448598,-2.81281420556684,8.92097265989435,-0.009468411,-0.080634214,0.053145275,309.75555,10.204566,23.850983,CSI
2730053384000,3.60001,2.27693744065421,-2.79823600072125,8.89667556724909,-0.010079277,-0.093462385,0.061086524,309.7989,10.180622,23.863615,CSI
2730058386000,3.605012,2.21819053387283,-2.7807558800867,8.87465252109827,-0.016493361,-0.10293079,0.06383542,309.84076,10.157738,23.876354,CSI
2730063387000,3.610013,2.15820821225434,-2.75307177982659,8.86081015780347,-0.01740966,-0.099265605,0.04917465,309.88513,10.132894,23.88909,CSI
2730068363000,3.614989,2.10294920681236,-2.72280936759205,8.83909808574523,-0.024740042,-0.09590584,0.056199603,309.92532,10.113367,23.89299,CSI
2730073419000,3.620045,2.07434881145895,-2.67514220791494,8.76759759509746,-0.031154128,-0.09468412,0.059864793,309.97067,10.092087,23.897171,CSI
2730078402000,3.625028,2.05326034999507,-2.63198324918727,8.70094750733918,-0.03970624,-0.08368854,0.05131268,310.01642,10.067899,23.886707,CSI
2730083386000,3.630012,2.0861749786228,-2.6178769727613,8.66333085203428,-0.059253927,-0.077579886,0.05131268,310.05786,10.050019,23.876616,CSI
2730088394000,3.63502,2.11962602076396,-2.60646731038198,8.62752115866797,-0.06536258,-0.05681047,0.057726767,310.10864,10.023475,23.860458,CSI
2730093465000,3.640091,2.15767808955926,-2.62549334477963,8.61325183153771,-0.07391469,-0.023823744,0.054061573,310.1632,10.001757,23.839739,CSI
2730098623000,3.645249,2.19977410421387,-2.644034361936,8.60039081787915,-0.101098195,0.004276057,0.061086524,310.21304,9.98583,23.825129,CSI
2730103380000,3.650006,2.27221599976148,-2.65308958706023,8.60491828861061,-0.109650314,0.038179077,0.06505715,310.26678,9.966708,23.800097,CSI
2730108679000,3.655305,2.3519949525132,-2.6655963871504,8.61401010712889,-0.11759156,0.05131268,0.065973446,310.31134,9.960006,23.781425,CSI
2730113401000,3.660027,2.41390607068257,-2.70097416896147,8.66265441858987,-0.12889257,0.06505715,0.07574729,310.35367,9.957833,23.752731,CSI
2730118677000,3.665303,2.48279418473045,-2.74044434902625,8.71729519437388,-0.12522738,0.10476339,0.08124508,310.39288,9.954053,23.729288,CSI
2730123420000,3.670046,2.5383494002258,-2.77463210186283,8.77285063298523,-0.124311075,0.10781772,0.08460484,310.4281,9.954667,23.712135,SIT
2730128348000,3.674974,2.59607153852667,-2.81015334284505,8.83057300310471,-0.122783914,0.12003502,0.08979719,310.45337,9.957595,23.693317,SIT
2730133379000,3.680005,2.59241722018675,-2.83013436263067,8.8684995081701,-0.12095132,0.12736541,0.10293079,310.47485,9.961357,23.674677,SIT
2730138381000,3.685007,2.57783181868466,-2.84715070668832,8.90253194245408,-0.10781772,0.13164146,0.10048734,310.49982,9.960375,23.654373,SIT
2730143468000,3.690094,2.56299856449812,-2.86445621293007,8.93714269679285,-0.11209377,0.13164146,0.106595986,310.51147,9.970472,23.640142,SIT
2730148398000,3.695024,2.54862310879935,-2.88122761960824,8.97068525997158,-0.101098195,0.13347405,0.10323623,310.52704,9.971602,23.625097,SIT
2730153393000,3.700019,2.54344436778,-2.86268833889998,8.98941244563442,-0.08307768,0.13194689,0.110872045,310.53702,9.973825,23.610344,SIT
2730158363000,3.704989,2.53912446434925,-2.84108882174623,9.00669196914141,-0.08246681,0.12614368,0.11789699,310.54797,9.977156,23.596756,SIT
2730163382000,3.710008,2.51363054445347,-2.8520372539618,9.00139379215766,-0.06627888,0.113926366,0.122478485,310.5674,9.977058,23.57335,SIT
2730168356000,3.714982,2.47975762466477,-2.87623219666802,8.98687702864689,-0.05100725,0.11453723,0.11911872,310.5874,9.976789,23.548468,SIT
2730173399000,3.720025,2.44126068175613,-2.8900078256283,8.96457283948702,-0.050701816,0.101098195,0.12034045,310.605,9.971573,23.528198,SIT
2730178464000,3.72509,2.40112711784052,-2.90004117731927,8.93948932929982,-0.046731193,0.087964594,0.12797627,310.62155,9.961923,23.507915,SIT
2730183385000,3.730011,2.34328183530405,-2.90540963490991,8.90970090371622,-0.033292156,0.074830994,0.12186762,310.63596,9.956346,23.484694,SIT
2730188374000,3.735,2.28050948445946,-2.90989336756757,8.87831458783784,-0.023518313,0.07147124,0.129198,310.6437,9.953124,23.461714,SIT
2730193400000,3.740026,2.23762195828898,-2.92420898097773,8.8327588101715,-0.03359759,0.06872234,0.13225232,310.65283,9.954221,23.436958,SIT
2730198376000,3.745002,2.20474406575991,-2.9429963481372,8.78109345239503,-0.020463986,0.063224554,0.13439035,310.6597,9.947417,23.41406,SIT
2730203382000,3.750008,2.15533059579569,-2.95505049296386,8.73850496125782,-0.017104227,0.06047566,0.12950343,310.67688,9.948681,23.380402,SIT
2730208407000,3.755033,2.09680654393676,-2.96341101567929,8.70088249991313,-0.011911872,0.06505715,0.12675454,310.69287,9.946402,23.346638,SIT
2730213357000,3.759983,2.06058298992598,-2.97037960631549,8.65932147803518,-0.009162978,0.06688975,0.12736541,310.69943,9.952244,23.310467,SIT
2730218359000,3.764985,2.06518773409593,-2.97498439856772,8.60866919600115,-0.015577064,0.08093964,0.12797627,310.70795,9.958584,23.270445,SIT
2730223350000,3.769976,2.05481942940262,-2.98527228529869,8.57537331745503,-0.0018325958,0.08827003,0.12461651,310.7114,9.963677,23.221699,SIT
2730228347000,3.774973,2.00168233235621,-3.0118408338219,8.59131477948035,-0.0015271631,0.08979719,0.118507855,310.71622,9.973368,23.17175,SIT
2730233349000,3.779975,1.96562245024644,-3.02915079990143,8.59277325024643,-0.007330383,0.09040806,0.11362094,310.71735,9.984052,23.12611,SIT
2730238380000,3.785006,1.9497911823224,-3.03548330707104,8.5769419823224,-0.004276057,0.096516706,0.12064589,310.71732,9.992678,23.079088,SIT
2730248449000,3.795075,1.90609486936672,-3.06191244197349,8.56622140574374,0.0018325958,0.10140363,0.10354166,310.7282,10.017163,22.967413,SIT
2730253321000,3.799947,1.86380803986632,-3.09891347987991,8.59793632089045,0.0009162979,0.09285152,0.11301007,310.73068,10.0310955,22.91407,SIT
2730258406000,3.805032,1.80706169713855,-3.11563626452811,8.62541948835341,0.010995574,0.09101892,0.105374254,310.7334,10.043148,22.854677,SIT
2730263309000,3.809935,1.74577493554217,-3.12035057779116,8.64899130080321,0.008246681,0.077579886,0.1020145,310.73105,10.059912,22.801352,SIT
2730268288000,3.814914,1.68117149435396,-3.10985229967427,8.66048009554832,0.016493361,0.07269296,0.09987647,310.7301,10.076145,22.737322,SIT
2730273326000,3.819952,1.61449778382193,-3.09080278175896,8.66524235070575,0.014049901,0.06383542,0.09621128,310.72992,10.094853,22.67964,SIT
2730278305000,3.824931,1.56300384233955,-3.06887300322387,8.681868903683,0.020158553,0.055283304,0.092240654,310.73593,10.108666,22.609882,SIT
2730283283000,3.829909,1.52017918005789,-3.04508140272482,8.70566035512526,0.02443461,0.048563786,0.08155051,310.7449,10.12196,22.543983,SIT
2730288308000,3.834934,1.48046455167138,-3.00986686171913,8.72066764019101,0.015271631,0.035124753,0.08979719,310.75824,10.135131,22.46794,SIT
2730293272000,3.839898,1.44340058274047,-2.96816984224734,8.72993383802748,0.027488936,0.024129177,0.08093964,310.7799,10.138087,22.396004,SIT
2730298287000,3.844913,1.42607514348303,-2.95313312606787,8.73578630395829,0.022602014,0.011301007,0.076358154,310.80258,10.144766,22.316422,SIT
2730303284000,3.84991,1.42453007940787,-2.95931338236851,8.7388764159752,0.020463986,-0.0015271631,0.0729984,310.827,10.1464,22.241781,SIT
2730308402000,3.855028,1.42294760233429,-2.96564329066284,8.7420413535983,0.009162978,-0.009468411,0.07452556,310.86166,10.140916,22.163338,SIT
2730314008000,3.860634,1.4212142364737,-2.97257675410519,8.74550806721984,0.013744468,-0.019547688,0.07086037,310.89795,10.1307535,22.090921,SIT
2730318332000,3.864958,1.41987726287734,-2.97792464849062,8.74818200045201,0.015882496,-0.022907447,0.067500606,310.93353,10.124279,22.020048,SIT
2730323386000,3.870012,1.41831457449714,-2.98417540201143,8.75130736089497,0.003970624,-0.020463986,0.06047566,310.97095,10.119408,21.951988,SIT
2730328350000,3.874976,1.43636121704747,-2.99935994212833,8.75700022754303,-0.003970624,-0.030848695,0.03940081,311.01263,10.110948,21.890594,SIT
2730333344000,3.87997,1.48625844110589,-3.02929830782473,8.76697963067293,-0.011301007,-0.026267206,0.039095376,311.05103,10.106842,21.824707,SIT
2730338356000,3.884982,1.52389785089536,-3.04972944889169,8.76589763285258,-0.019547688,-0.02443461,0.030543262,311.0949,10.105527,21.763374,SIT
2730343474000,3.8901,1.54761973878618,-3.0592181346917,8.7516647280031,-0.018936822,-0.021991149,0.022907447,311.1388,10.103645,21.701641,SIT
2730348371000,3.894997,1.57625429249604,-3.07124324719469,8.74552928816416,-0.025350908,-0.029626964,0.013744468,311.16742,10.112062,21.65133,SIT
2730353394000,3.90002,1.61440203063541,-3.08793294642645,8.75029760294409,-0.03634648,-0.045814894,0.0027488936,311.19843,10.120209,21.60423,SIT
2730358341000,3.904967,1.65197257823156,-3.10437012383029,8.75499377121332,-0.036957346,-0.04886922,-0.003970624,311.2265,10.129171,21.562798,SIT
2730363356000,3.909982,1.69005955947165,-3.12103324181701,8.75975449162371,-0.025961773,-0.047647487,-0.012217305,311.25757,10.136256,21.52608,SIT
2730368318000,3.914944,1.7259503639391,-3.12994417590373,8.75609120834971,-0.0076358155,-0.05467244,-0.012217305,311.2862,10.1435585,21.490751,SIT
2730373368000,3.919994,1.75920580450884,-3.12519335615914,8.73708822701375,-0.013439035,-0.05681047,-0.026572637,311.3218,10.151631,21.455597,SIT
2730378336000,3.924962,1.79202674722222,-3.12050463784722,8.72753982043651,-0.006414085,-0.051923547,-0.030848695,311.34277,10.158773,21.43589,SIT
2730383335000,3.929961,1.82527287444444,-3.11575524069444,8.73703891230159,0.004581489,-0.061086524,-0.0290161,311.36514,10.165235,21.42149,SIT
2730388359000,3.934985,1.85390439058862,-3.09711540634438,8.75478630833606,0.010995574,-0.055283304,-0.043066,311.4025,10.166002,21.413439,SIT
2730393420000,3.940046,1.8720326801066,-3.04726262791622,8.79104265075506,-0.0033597588,-0.057726767,-0.036957346,311.43192,10.171572,21.409111,SIT
2730398333000,3.944959,1.88963083983823,-2.99886770588153,8.82623874052083,-0.0021380284,-0.055588737,-0.039095376,311.46735,10.1670475,21.409582,SIT
2730403390000,3.950016,1.90774480152415,-2.94905432897751,8.86246642746271,-0.007941248,-0.0571159,-0.042760566,311.5007,10.168591,21.411427,SIT
2730408622000,3.955248,1.9265489368503,-2.90217518421258,8.89564496418143,-0.013133603,-0.041233405,-0.049480084,311.5454,10.168304,21.408234,SIT
2730413353000,3.959979,1.94418874249562,-2.9065851356239,8.88241529414055,-0.023518313,-0.0421497,-0.046731193,311.58685,10.171433,21.409746,SIT
2730418670000,3.965296,1.96481862232855,-2.91193925837321,8.86792634310207,-0.027794369,-0.046120327,-0.04550946,311.6534,10.145298,21.411383,SIT
2730423383000,3.970009,2.0008118108453,-2.92543670406699,8.86342710057815,-0.038789943,-0.04642576,-0.04917465,311.72003,10.123854,21.412144,SIT
2730428705000,3.975331,2.03976467376075,-2.94055533119624,8.85702398315194,-0.030848695,-0.038179077,-0.048563786,311.77774,10.100228,21.41732,SIT
2730433355000,3.979981,2.03764822872487,-2.95113755637565,8.82316092887696,-0.040011674,-0.040011674,-0.05009095,311.83588,10.083738,21.425392,SIT
2730438387000,3.985013,2.03535791659142,-2.96258911704292,8.78651600648733,-0.046731193,-0.04062254,-0.06078109,311.89044,10.067003,21.439528,SIT
2730443436000,3.990062,2.03305986691697,-2.97407936541514,8.74974728368424,-0.04886922,-0.041233405,-0.06169739,311.94177,10.052592,21.453281,SIT
2730448325000,3.994951,2.03083464115774,-2.9852054942113,8.71414374124329,-0.037873644,-0.05100725,-0.06658431,311.9963,10.035116,21.47011,SIT
2730453319000,3.999945,2.02663809131529,-2.99889838799436,8.69073775108181,-0.02687807,-0.04642576,-0.06841691,312.04926,10.020687,21.480385,SIT
2730458401000,4.005027,2.02174030550468,-3.01359169428399,8.6711464544128,-0.01740966,-0.05131268,-0.06811147,312.10126,10.003661,21.495764,SIT
2730463340000,4.009966,2.02448414987755,-3.01291608957143,8.65567630816327,-0.019547688,-0.056505036,-0.06963864,312.1443,9.995943,21.514244,SIT
2730468381000,4.015007,2.02941033853061,-3.00798995235714,8.64089794795918,-0.015577064,-0.061086524,-0.07727446,312.18832,9.9836035,21.533745,SIT
2730473385000,4.020011,2.04527261538169,-2.99212764548829,8.62329046287836,-0.0036651916,-0.05497787,-0.07849618,312.23123,9.975236,21.55035,SIT
2730478362000,4.024988,2.06341985832857,-2.97398035516848,8.60514331467733,-0.006414085,-0.052534413,-0.07422013,312.2738,9.969539,21.568876,SIT
2730483343000,4.029969,2.08887289694868,-2.95190781137309,8.60673366366158,-0.009162978,-0.045814894,-0.07727446,312.3185,9.959485,21.586596,SIT
2730488387000,4.035013,2.11758631917971,-2.9279800427977,8.61630447127006,-0.004886922,-0.04520403,-0.07666359,312.36008,9.949256,21.604445,SIT
2730493428000,4.040054,2.14159414784912,-2.91470885331994,8.60669170663988,-0.01863139,-0.03023783,-0.081855945,312.40668,9.938131,21.624119,SIT
2730498344000,4.04497,2.16309362213901,-2.90610910850306,8.58949221700612,-0.016187929,-0.020158553,-0.0842994,312.45148,9.922178,21.644218,SIT
2730503368000,4.049994,2.18856189893979,-2.89689695914183,8.59788358391678,-0.021685716,-0.01985312,-0.08582657,312.50015,9.905471,21.668272,SIT
2730508403000,4.055029,2.21749919919984,-2.88725124274855,8.6316439689938,-0.027183503,-0.014049901,-0.08674286,312.54962,9.88823,21.687458,SIT
2730513348000,4.059974,2.2390552173014,-2.88517204577487,8.66828147283469,-0.031154128,-0.005497787,-0.08002335,312.5952,9.871471,21.711668,SIT
2730518343000,4.064969,2.25419482569891,-2.89021852921194,8.70865355111299,-0.035430185,-0.0009162979,-0.081855945,312.64313,9.855528,21.735207,SIT
2730523392000,4.070018,2.25126953092722,-2.90400488959123,8.7421847998006,-0.035124753,-0.00030543262,-0.083383106,312.68787,9.836751,21.759964,SIT
2730528360000,4.074986,2.23703895992024,-2.9229790337986,8.77064604087737,-0.034513887,-0.0036651916,-0.07941248,312.73087,9.819731,21.78373,SIT
2730533380000,4.080006,2.23562942770182,-2.94179212580318,8.7833431720373,-0.034513887,-0.009468411,-0.0870483,312.77786,9.8007555,21.808256,SIT
2730538373000,4.084999,2.24255975705107,-2.96027297994589,8.78565333006426,-0.028710667,-0.0070249503,-0.08827003,312.82135,9.781528,21.830236,SIT
2730543430000,4.090056,2.24957891898159,-2.97899072066283,8.78799309957003,-0.022602014,-0.010995574,-0.08674286,312.86166,9.763878,21.851278,SIT
2730548354000,4.09498,2.25641347570414,-2.9972161814677,8.79027133272139,-0.02321288,-0.018020526,-0.08124508,312.9005,9.747097,21.871809,SIT
2730553373000,4.099999,2.26242520028674,-3.00481847570917,8.80300312145417,-0.013133603,-0.025350908,-0.08368854,312.94052,9.725524,21.893332,SIT
2730558396000,4.105022,2.26735134100358,-2.99989228355351,8.82763408223246,-0.024129177,-0.027794369,-0.077579886,312.9756,9.711563,21.914162,SIT
2730563344000,4.10997,2.2720947208011,-2.99395305631182,8.83460965850553,-0.017715093,-0.032070424,-0.07941248,313.0048,9.697916,21.94008,SIT
2730568338000,4.114964,2.27677854600921,-2.98692729404564,8.82524181245715,-0.02565634,-0.027794369,-0.08002335,313.03168,9.691945,21.963293,SIT
2730573412000,4.120038,2.28153740245813,-2.97978898452649,8.81572390079326,-0.013133603,-0.032070424,-0.08368854,313.05405,9.676117,21.989508,SIT
2730578388000,4.125014,2.28620434563706,-2.97278854539222,8.80638981950837,-0.016187929,-0.03573562,-0.08399397,313.0755,9.667031,22.01363,SIT
2730583373000,4.129999,2.29934476205321,-2.97929799634444,8.80737792922421,-0.02565634,-0.038789943,-0.09132435,313.09964,9.655451,22.038738,SIT
2730588369000,4.134995,2.3236370003554,-3.00359008245329,8.8219534852762,-0.026267206,-0.03359759,-0.08368854,313.11926,9.644209,22.061192,SIT
2730593455000,4.140081,2.33449184893429,-3.01444491938906,8.82306854680287,-0.017104227,-0.032986723,-0.08582657,313.14166,9.626416,22.09226,SIT
2730598343000,4.144969,2.32989383537963,-3.0098470498674,8.80927450613889,-0.007941248,-0.024740042,-0.082161374,313.16037,9.610567,22.118328,SIT
2730603343000,4.149969,2.32152751327847,-2.99960199091079,8.79920633458014,-0.01985312,-0.029321533,-0.07727446,313.16983,9.602398,22.151617,SIT
2730608425000,4.155051,2.30787421226856,-2.9813976054049,8.79465563025996,-0.018020526,-0.022296581,-0.07513642,313.17984,9.588624,22.178549,SIT
