timestamp,rel_time,acc_x,acc_y,acc_z,gyro_x,gyro_y,gyro_z,azimuth,pitch,roll,label
4867046700000,0,1.30367140570795,9.77932068492471,0.0416338733131639,0.017104227,-0.00580322,0.01740966,267.25226,-86.4063,3.1060827,STD
4867051680000,0.00498,1.30529511319015,9.78117634093031,0.0460410823154401,0.009468411,-0.0015271631,0.012217305,267.2395,-86.38431,3.1574764,STD
4867056731000,0.010031,1.30694196991557,9.78305845307576,0.0505111250203591,0.006414085,-0.0012217305,0.010079277,267.22974,-86.368965,3.1992872,STD
4867061696000,0.014996,1.30856078671258,9.78490851975604,0.0549050592967248,0.0015271631,-0.00580322,0.007941248,267.22067,-86.353325,3.238308,STD
4867066687000,0.019987,1.31018808069725,9.78676827460021,0.059322003098002,0.0009162979,-0.0018325958,0.0070249503,267.2096,-86.33785,3.2757518,STD
4867071762000,0.025062,1.31184276251897,9.78865932966616,0.0638132853643778,-0.005497787,-0.0070249503,0.009162978,267.20294,-86.320625,3.312412,STD
4867076730000,0.03003,1.31346255745302,9.79051051421151,0.0682098745859256,0.0027488936,-0.005497787,0.00061086525,267.19373,-86.308044,3.344549,STD
4867081684000,0.034984,1.31507778774756,9.79235648205323,0.0725940740632903,-0.0033597588,-0.0070249503,0.004886922,267.1872,-86.28905,3.3799548,STD
4867086974000,0.040274,1.3168025693903,9.79432765078207,0.0772756274010496,-0.01160644,-0.008552114,0.007330383,267.18066,-86.27346,3.4114084,STD
4867091706000,0.045006,1.31834541754406,9.79609089660908,0.0814633609349393,-0.014049901,-0.008246681,0.005497787,267.17444,-86.25789,3.4418912,STD
4867096932000,0.050232,1.32004933226334,9.7980382175499,0.0860882754421472,-0.016187929,-0.004276057,0.00061086525,267.1679,-86.241714,3.471234,STD
4867101743000,0.055043,1.32161793802576,9.79983090049025,0.0903459225324987,-0.014660766,-0.004276057,0.005192355,267.16454786182,-86.2348150833578,3.48410583449624,STD
4867107165000,0.060465,1.32338575769814,9.8018512552819,0.0951442934582701,-0.0125227375,0.0027488936,-0.0061086523,267.16077,-86.22704,3.4986124,STD
4867111738000,0.065038,1.32487676458893,9.80355525426053,0.0991913148975089,-0.014660766,-0.0018325958,-0.0061086523,267.157212267126,-86.218582624269,3.51270608418964,STD
4867116741000,0.070041,1.32650797112175,9.80541948056496,0.103618878479514,-0.0106901415,0.0076358155,0.002443461,267.15332,-86.20933,3.528125,STD
4867121731000,0.075031,1.32813493906074,9.80727886278744,0.108034937299064,-0.004886922,0.005497787,-0.0036651916,267.14636,-86.19818,3.5507982,STD
4867126756000,0.080056,1.3297733185985,9.809151286769,0.112481970479072,-0.01038471,-0.005497787,0.00030543262,267.14075,-86.18123,3.578062,STD
4867131757000,0.085057,1.33140387303996,9.81101476783005,0.116907764097623,-0.012217305,0.0021380284,0.008246681,267.13077,-86.1659,3.603912,STD
4867136966000,0.090266,1.33310224498269,9.81295575420217,0.121517633915465,-0.0009162979,0.0012217305,-0.0015271631,267.12677,-86.15515,3.625248,STD
4867141831000,0.095131,1.33468845721178,9.81476855871367,0.125823070019095,-0.00030543262,0.0021380284,0.012217305,267.12012,-86.13491,3.6547868,STD
4867146686000,0.099986,1.33627140898409,9.81657763700829,0.13011965630545,0.01282817,-0.0067195175,0.010995574,267.117,-86.12367,3.6766713,STD
4867151678000,0.104978,1.33789902901444,9.81843776447414,0.134537485088455,0.008246681,-0.010079277,0.014049901,267.11218,-86.106186,3.7029328,STD
4867156738000,0.110038,1.33954882015097,9.82032323021478,0.13901549262892,0.016493361,-0.008552114,0.009468411,267.10886,-86.093544,3.7259853,STD
4867161704000,0.115004,1.34116796299366,9.82217366951675,0.143410311887013,0.025045475,-0.0009162979,0.016798794,267.10486,-86.076584,3.752599,STD
4867166683000,0.119983,1.34279134443018,9.82402895290067,0.147816635907562,0.021685716,-0.00030543262,0.01282817,267.1028,-86.063774,3.7740602,STD
4867171913000,0.125213,1.34449656333217,9.82597776432824,0.152445090341679,0.036651913,-0.0018325958,0.013744468,267.09937,-86.0499,3.7983074,STD
4867176991000,0.130291,1.34615222329092,9.82786993725925,0.156939027553237,0.037873644,0.0061086523,0.020463986,267.09332,-86.034225,3.8224041,STD
4867181690000,0.13499,1.34768431193728,9.82962088657056,0.161097556690124,0.039095376,0.004276057,0.02687807,267.09082,-86.01958,3.8461347,STD
4867187601000,0.140901,1.34961156794677,9.83182345336757,0.166328683680577,0.04642576,0.02076942,0.022907447,267.08105,-86.00656,3.8680236,STD
4867191704000,0.145004,1.35094933336835,9.83335232015291,0.169959763707954,0.033292156,0.0061086523,0.0290161,267.08102,-85.98776,3.8941147,STD
4867196688000,0.149988,1.35257434503327,9.83520946664527,0.17437051263714,0.040317107,0.011911872,0.0290161,267.0708,-85.97376,3.9165154,STD
4867201688000,0.154988,1.35420457342905,9.83707257508463,0.178795421273963,0.024129177,0.0021380284,0.025961773,267.06955,-85.95671,3.9392657,STD
4867206725000,0.160025,1.35584686551496,9.83894947052644,0.183253074234699,0.023823744,0.0106901415,0.028405234,267.06165,-85.93983,3.9628513,STD
4867211687000,0.164987,1.35746470417494,9.84079841934166,0.187644353565883,0.034513887,0.004886922,0.027488936,267.0609,-85.92463,3.9840982,STD
4867216682000,0.169982,1.35909330234232,9.84265966467258,0.192064837294069,0.022907447,0.004886922,0.022907447,267.05634,-85.90871,4.0043387,STD
4867221779000,0.175079,1.36075515716898,9.84455891741566,0.196575589158447,0.01160644,0.0015271631,0.025350908,267.05457,-85.89199,4.0257998,STD
4867226724000,0.180024,1.36236745305241,9.84640153166219,0.200951823800266,0.013439035,0.004886922,0.01985312,267.05115,-85.87911,4.043145,STD
4867231730000,0.18503,1.36399963772227,9.84826687583168,0.205382042327453,0.014966198,0.00580322,0.013133603,267.0495,-85.865555,4.0603437,STD
4867236841000,0.190141,1.36566605718844,9.85017134527839,0.209905183936014,0.0033597588,0.011301007,0.017104227,267.04575,-85.8502,4.078546,STD
4867241713000,0.195013,1.36725455173729,9.85198675814171,0.214216814911735,-0.0106901415,-0.0030543262,0.016493361,267.04764,-85.83818,4.0932217,STD
4867246918000,0.200218,1.3689516194973,9.85392625402708,0.218823144802668,0.003970624,0.0030543262,0.017104227,267.04224,-85.82584,4.1088805,STD
4867251747000,0.205047,1.37821264391329,9.85683116776758,0.214140764968823,-0.00061086525,0.0033597588,0.011301007,267.0427,-85.81407,4.1222305,STD
4867256712000,0.210012,1.39176508169613,9.86039759614971,0.204630282579893,0.0061086523,0.0012217305,0.015882496,267.04218,-85.80076,4.1383405,STD
4867261702000,0.215002,1.40538575934695,9.86398198237868,0.195071912565642,-0.016493361,-0.0015271631,0.014966198,267.08813,-85.742485,4.1899037,STD
4867266684000,0.219984,1.41898460024002,9.86756062209666,0.185528866591494,-0.0036651916,-0.0018325958,0.01740966,267.13266,-85.68593,4.2419586,STD
4867271797000,0.225097,1.43294101804135,9.87123336093207,0.17573488946066,-0.010079277,-0.0015271631,0.017715093,267.1765,-85.62986,4.291425,STD
4867276748000,0.230048,1.44645524149811,9.87478973291997,0.166251224141911,-0.009468411,-0.0012217305,0.015577064,267.21918,-85.5766,4.33921,STD
4867281689000,0.234989,1.45994216900768,9.87833892176913,0.15678671387329,-0.0021380284,0.008552114,0.012217305,267.2578,-85.52532,4.3850894,STD
4867286777000,0.240077,1.47383034694102,9.88199370275771,0.147040624367778,-0.004276057,0.00580322,0.014966198,267.29877,-85.47402,4.4306626,STD
4867292856000,0.246156,1.49042355324149,9.88636033279496,0.135396269394505,-0.01863139,0.0067195175,0.01985312,267.33484,-85.42428,4.4744163,STD
4867296688000,0.249988,1.50088336020702,9.88911291155837,0.128056054185164,-0.008246681,0.007330383,0.014660766,267.3708,-85.37944,4.5146976,STD
4867301680000,0.25498,1.51450949704728,9.89269873441508,0.118493853160887,-0.015882496,0.0033597588,0.009162978,267.4067,-85.332855,4.5549283,STD
4867306724000,0.260024,1.52827757281296,9.89632190959322,0.108832045875941,-0.008857546,0.00580322,0.015577064,267.43964,-85.28736,4.595753,STD
4867311753000,0.265053,1.54200470465785,9.89993431006326,0.0991989711661875,-0.009773844,0.004886922,0.009468411,267.47375,-85.24724,4.6302752,STD
4867316797000,0.270097,1.55577278042353,9.90355748524139,0.0895371638812411,-0.01160644,0.0015271631,0.009468411,267.50693,-85.205345,4.667176,STD
4867321767000,0.275067,1.56933886617996,9.90712750519289,0.0800171039672476,-0.008552114,-0.0106901415,0.015271631,267.542,-85.16504,4.702943,STD
4867326748000,0.280048,1.58293497747831,9.91070542659699,0.0704759734981124,-0.016493361,-0.009773844,0.010995574,267.5735,-85.1279,4.7346997,STD
4867331740000,0.28504,1.59656111431857,9.91429124945371,0.0609137724738355,-0.018325957,-0.0106901415,0.007941248,267.60803,-85.09065,4.7674537,STD
4867336895000,0.290195,1.61063217509813,9.91799415747181,0.0510393441324599,-0.017104227,-0.014660766,0.009468411,267.6423,-85.054146,4.7993116,STD
4867341725000,0.295025,1.62381611759382,9.92146361348101,0.041787454920269,-0.01863139,-0.019547688,0.014049901,267.67624,-85.018425,4.83023,STD
4867346700000,0.3,1.63739585132385,9.92503722500187,0.0322578174812111,-0.01863139,-0.020158553,0.007330383,267.7093,-84.98668,4.8574333,STD
4867351679000,0.304979,1.65098650343276,9.92861370977823,0.0227205180221017,-0.02443461,-0.014660766,0.007941248,267.74103,-84.95222,4.8870907,STD
4867356765000,0.310065,1.66486922217666,9.93226705413906,0.0129782595266145,-0.024129177,-0.0033597588,0.008857546,267.7705,-84.92095,4.9140472,STD
4867362498000,0.315798,1.68051798870415,9.93638514757607,0.0019966692877966,-0.029932396,-0.002443461,0.007941248,267.8006,-84.890144,4.9398637,STD
4867366689000,0.319989,1.69195772017401,9.93939560102008,-0.00603121222116657,-0.015882496,0.007330383,-0.0012217305,267.82422,-84.86377,4.96266,STD
4867371888000,0.325188,1.70614888312123,9.94313011484861,-0.0159899227831087,-0.007941248,0.0021380284,-0.005192355,267.85114,-84.83627,4.9860053,STD
4867376709000,0.330009,1.71930825926444,9.94659310603295,-0.0252245724501837,-0.01282817,-0.005497787,-0.0012217305,267.87537,-84.80997,5.008317,STD
4867381695000,0.334995,1.73291801853639,9.95017461900643,-0.0347752804443833,-0.002443461,-0.025045475,-0.0076358155,267.90402,-84.790085,5.026043,STD
4867387891000,0.341191,1.74983058741906,9.95462529176688,-0.0466437495041628,-0.015271631,-0.040011674,0.0027488936,267.9328,-84.76306,5.0491514,STD
4867391726000,0.345026,1.76029858316874,9.95738002547191,-0.0539897112285421,-0.023518313,-0.03970624,0.008246681,267.96222,-84.74095,5.068527,STD
4867396686000,0.349986,1.77383737297797,9.96094286228467,-0.0634906160924069,-0.029932396,-0.054367006,0.0030543262,267.99945,-84.718834,5.0874176,STD
4867401686000,0.354986,1.78748534657599,9.96453443165237,-0.0730681411567868,-0.03848451,-0.07422013,0.0036651916,268.03726,-84.693596,5.108947,STD
4867406722000,0.360022,1.80123158558392,9.96815186031952,-0.0827146244016301,-0.06352998,-0.079107046,-0.004886922,268.07425,-84.671265,5.1258,CSI
4867411701000,0.365001,1.81482223769283,9.97172834509588,-0.0922519238607395,-0.0729984,-0.08552113,-0.0015271631,268.11633,-84.64676,5.1458387,CSI
4867416738000,0.370038,1.82857120629547,9.97534649207691,-0.101900322610596,-0.09162979,-0.092240654,-0.014660766,268.15912,-84.627106,5.1582947,CSI
4867421729000,0.375029,1.84219461354102,9.97893159661975,-0.11146060812986,-0.109650314,-0.10140363,-0.009773844,268.20325,-84.60151,5.176473,CSI
4867426713000,0.380013,1.85579891362352,9.98251167296547,-0.121007485114034,-0.1142318,-0.094989546,-0.015882496,268.24396,-84.58267,5.1873465,CSI
4867431700000,0.385,1.86941140249019,9.98609390425282,-0.130560108613246,-0.11484267,-0.080634214,-0.028405234,268.28387,-84.56368,5.1974277,CSI
4867436857000,0.390157,1.88348792245918,9.98979824889867,-0.140438367964647,-0.11209377,-0.06047566,-0.042455133,268.31927,-84.54719,5.2049413,CSI
4867441823000,0.395123,1.89704308983674,9.99336539559467,-0.149950765858589,-0.12980886,-0.057726767,-0.04642576,268.3546,-84.52989,5.211627,CSI
4867446689000,0.399989,1.91032529774233,9.99686071090332,-0.159271613251244,-0.14019357,-0.05955936,-0.058643065,268.38483,-84.519714,5.2117867,CSI
4867451682000,0.404982,1.89427513308753,9.97363556954082,-0.121536885485329,-0.15943582,-0.06047566,-0.06261369,268.4131,-84.50614,5.2131805,CSI
4867456735000,0.410035,1.86042859347232,9.93422854123389,-0.0552943757005041,-0.17806722,-0.06688975,-0.08002335,268.44284,-84.49863,5.2074337,CSI
4867461709000,0.415009,1.82711122002168,9.89543761331015,0.00991248035920725,-0.18845193,-0.06963864,-0.080634214,268.5301,-84.44124,5.25819,CSI
4867466680000,0.41998,1.79381394148869,9.85667008160349,0.0750800077964459,-0.21135938,-0.06841691,-0.09254608,268.6175,-84.38936,5.3003635,CSI
4867471803000,0.425103,1.75949852046182,9.81671714156463,0.142240185438967,-0.23304509,-0.056199603,-0.09621128,268.70163,-84.335236,5.344207,CSI
4867476720000,0.43002,1.72656295044639,9.77837074176546,0.206699797671698,-0.25442538,-0.03940081,-0.099571034,268.78333,-84.28277,5.384271,CSI
4867481690000,0.43499,1.69327237021927,9.73961100879783,0.271854215568112,-0.2742785,-0.01282817,-0.103847094,268.85788,-84.23026,5.4224153,CSI
4867486992000,0.440292,1.65775795243976,9.69826209447301,0.34136100101817,-0.29168814,0.01740966,-0.10751228,268.9257,-84.17726,5.45919,CSI
4867491700000,0.445,1.62622232835339,9.66154563113063,0.403080719218637,-0.30665436,0.056199603,-0.12522738,268.9828,-84.12807,5.4899654,CSI
4867496698000,0.449998,1.59274419556162,9.62256753347022,0.46860220425813,-0.32895094,0.0842994,-0.121256754,269.03333,-84.072105,5.525293,CSI
4867501667000,0.454967,1.55946031364038,9.58381559924162,0.53374351261372,-0.34483343,0.10140363,-0.12950343,269.0756,-84.02367,5.551483,CSI
4867506713000,0.460013,1.52566066216633,9.54446316210788,0.599894255612776,-0.3484986,0.12156218,-0.14049901,269.1083,-83.974304,5.577344,CSI
4867511703000,0.465003,1.49223611582161,9.5055474543597,0.665310864325675,-0.36254853,0.13805555,-0.14508049,269.13663,-83.92297,5.602238,CSI
4867516684000,0.469984,1.4588718542298,9.46670193526276,0.730609487171155,-0.3753767,0.16157386,-0.15485434,269.1569,-83.87594,5.6219335,CSI
4867521870000,0.47517,1.42413443993245,9.42625767466515,0.798595565885603,-0.38606682,0.17104226,-0.16676621,269.17606,-83.82959,5.6394553,CSI
4867526722000,0.480022,1.39163425979926,9.38841819290279,0.862203057964759,-0.3817908,0.18967366,-0.17989981,269.1856,-83.78658,5.653273,CSI
4867531686000,0.484986,1.35838386940743,9.34970525236932,0.927278818616228,-0.408058,0.21013765,-0.19242255,269.1917,-83.74173,5.66361,CSI
4867536818000,0.490118,1.32400816362764,9.3096821236792,0.994556982126167,-0.43310347,0.23487769,-0.19914207,269.191,-83.699326,5.671554,CSI
4867541701000,0.495001,1.29130033601215,9.27160088100698,1.05857086997087,-0.441961,0.25503623,-0.20861048,269.18573,-83.65949,5.6749964,CSI
4867546800000,0.5001,1.25714567432642,9.23183511070478,1.12541641863361,-0.47158796,0.29443705,-0.20708331,269.16757,-83.61248,5.679147,CSI
4867551688000,0.504988,1.22440435518153,9.19371487433742,1.18949585418244,-0.49113566,0.3472769,-0.20066923,269.1397,-83.566414,5.681669,CSI
4867556717000,0.510017,1.19071857490745,9.15449501576715,1.25542373498749,-0.5122105,0.39736784,-0.20097467,269.10138,-83.51714,5.6822677,CSI
4867561686000,0.514986,1.15743469298622,9.11574308153855,1.32056504334308,-0.548557,0.44929138,-0.18875736,269.04727,-83.45789,5.687485,CSI
4867566679000,0.519979,1.12399005172385,9.07680397757328,1.38602098067845,-0.5726862,0.4886922,-0.17654006,268.98273,-83.39701,5.692048,CSI
4867572046000,0.525346,1.08804024406209,9.03494814521165,1.45637988628208,-0.6056729,0.54092115,-0.1685988,268.89993,-83.32721,5.697704,CSI
4867576695000,0.529995,1.05689982002268,8.99869180747191,1.51732614157392,-0.64751714,0.5830709,-0.16432275,268.80927,-83.24998,5.7050533,CSI
4867581822000,0.535122,1.0225576057723,8.95870767247693,1.58453875737974,-0.66981375,0.600786,-0.16676621,268.71136,-83.17001,5.7119584,CSI
4867587394000,0.540694,0.985234645404995,8.91525309861463,1.65758511885234,-0.6918049,0.61269784,-0.160963,268.60376,-83.080246,5.7214003,CSI
4867591990000,0.54529,0.954449231577265,8.87941009404335,1.71783656848049,-0.7315111,0.60048056,-0.16371189,268.49915,-82.98621,5.727473,CSI
4867596700000,0.55,0.922900210879134,8.84267803322292,1.7795825057626,-0.75625116,0.5861252,-0.16982053,268.3927,-82.89005,5.733653,CSI
4867601687000,0.554987,0.889495759452047,8.80378572169182,1.84495978585303,-0.7910705,0.5656612,-0.16798794,268.29227,-82.784035,5.7412944,CSI
4867606717000,0.560017,0.855803280872089,8.76455806438253,1.9109007761989,-0.81061816,0.5403103,-0.17348573,268.19843,-82.6792,5.745172,CSI
4867611693000,0.564993,0.82247251080969,8.72575153898073,1.97613385134026,-0.84879726,0.5128214,-0.17928895,268.1117,-82.564415,5.749625,CSI
4867616678000,0.569978,0.789081455994365,8.68687482492768,2.04148491234904,-0.8848383,0.49357912,-0.20219639,268.03088,-82.45129,5.747708,CSI
4867621759000,0.575059,0.755047363814491,8.64724943192798,2.10809448927694,-0.91599244,0.4560109,-0.22266038,267.96368,-82.33267,5.745659,CSI
4867626723000,0.580023,0.721796973422661,8.60853649139451,2.17317024992841,-0.9663888,0.41722095,-0.23548855,267.90292,-82.20665,5.7397175,CSI
4867631684000,0.584984,0.688566677948472,8.56984694707813,2.2382066819574,-1.024421,0.3839288,-0.2648101,267.85236,-82.080536,5.7241635,CSI
4867637043000,0.590343,0.652670456733762,8.52805350462873,2.30846071123444,-1.106277,0.3555236,-0.29168814,267.81165,-81.941376,5.7067475,CSI
4867641723000,0.595023,0.621322385212052,8.49155540597913,2.36981336229183,-1.2006557,0.33108896,-0.33078352,267.78012,-81.795586,5.6787357,CSI
4867646695000,0.599995,0.588018408373176,8.45278007553344,2.4349939992699,-1.2993103,0.31703907,-0.37934732,267.75424,-81.63807,5.6415257,CSI
4867651686000,0.604986,0.581913237157683,8.42284378666106,2.4930368213484,-1.4230106,0.3222314,-0.4392121,267.73068,-81.46338,5.5910025,CSI
4867656722000,0.610022,0.594220751351757,8.39871140045334,2.54661069806656,-1.5555683,0.3378085,-0.5137377,267.70935,-81.27474,5.523875,CSI
4867661689000,0.614989,0.606359635982807,8.37490966052209,2.59945054033405,-1.6777414,0.38026363,-0.57726765,267.59976,-80.88515,5.3822775,CSI
4867666683000,0.619983,0.618564506095041,8.35097853726526,2.65257761347354,-1.8093829,0.42913285,-0.6356053,267.48798,-80.45582,5.2224846,CSI
4867671746000,0.625046,0.630938005770299,8.32671676773196,2.70643872106369,-1.9465221,0.47708577,-0.68508536,267.36832,-79.98701,5.048245,CSI
4867676710000,0.63001,0.643069558681218,8.30292940372578,2.75924664878985,-2.043955,0.5177083,-0.73914695,267.24146,-79.4891,4.8574495,CSI
4867681687000,0.634987,0.655232882379373,8.27907974404431,2.81219287286178,-2.0861049,0.5213735,-0.81306165,267.11688,-78.96644,4.649918,CSI
4867687801000,0.641101,0.670174928007366,8.24978160876353,2.87723470809903,-2.078469,0.47311515,-0.8729264,266.99982,-78.425606,4.435598,CSI
4867691718000,0.645018,0.679747710592391,8.23101144260474,2.91890446089987,-2.090381,0.37323865,-0.91721416,266.90155,-77.86665,4.2120337,CSI
4867696684000,0.649984,0.691884151316731,8.20721449464851,2.97173366498692,-2.1438315,0.2910773,-0.947452,266.8164,-77.29697,3.9824846,CSI
4867701683000,0.654983,0.704101240962517,8.18325941151658,3.02491392902863,-2.239432,0.09132435,-0.9630291,266.79556,-76.71162,3.7632139,CSI
4867706754000,0.660054,0.716494291891459,8.15895930618311,3.07886014206234,-2.2828035,-0.12217305,-1.0024298,266.80585,-76.12885,3.5414276,CSI
4867711740000,0.66504,0.728679610750009,8.13506651872645,3.13190210975827,-2.4000895,-0.33628133,-1.0189233,266.87183,-75.49997,3.341491,CSI
4867716680000,0.66998,0.740752509899875,8.11139416212078,3.18445472115376,-2.5540276,-0.47342056,-1.0118983,266.97586,-74.85348,3.1534266,CSI
4867721741000,0.675041,0.753121121761712,8.08714197653752,3.23829455238303,-2.7250698,-0.5714644,-0.9767735,267.1256,-74.17493,2.9880264,CSI
4867726716000,0.680016,0.765279557646447,8.0633019008061,3.29121950009407,-2.898861,-0.61361414,-1.0085385,267.2997,-73.4638,2.8191915,CSI
4867731683000,0.684983,0.777418442277497,8.03950016087485,3.34405934236156,-2.989269,-0.53878313,-1.0806206,267.46613,-72.73815,2.6538603,CSI
4867736874000,0.690174,0.790104762011699,8.01462501853881,3.3992821370486,-2.9895744,-0.45234573,-1.1734722,267.6422,-72.00276,2.4830284,CSI
4867741715000,0.695015,0.801935714397226,7.99142706746026,3.45078156858009,-2.9691105,-0.42302418,-1.2495248,267.81512,-71.2617,2.3028753,CSI
4867746853000,0.700153,0.814492507075771,7.96680589980035,3.50544053970358,-2.9245174,-0.45081854,-1.3011429,267.98312,-70.54146,2.1095347,CSI
4867751683000,0.704983,0.826296576487483,7.94366066044703,3.55682295125018,-2.946203,-0.35185838,-1.3744467,268.1153,-69.82235,1.8832052,CSI
4867757733000,0.711033,0.841082212086004,7.91466921156762,3.62118394293899,-2.9794953,-0.16462818,-1.4202617,268.23108,-69.12442,1.6517277,CSI
4867761733000,0.715033,0.850857838928001,7.89550131148205,3.66373666471671,-3.0240884,-0.009162978,-1.4248432,268.3296,-68.42894,1.4126536,CSI
4867766679000,0.719979,0.862945401518131,7.87180020302625,3.71635310519487,-3.1004465,0.17592919,-1.4330899,268.37357,-67.726425,1.1460865,CSI
4867771774000,0.725074,0.875397106208125,7.84738509029227,3.77055463455925,-3.147483,0.30176744,-1.4175128,268.3888,-67.02998,0.8822716,CSI
4867776747000,0.730047,0.887550654279438,7.82355459851089,3.8234583059094,-3.1874948,0.35216382,-1.4150693,268.37665,-66.32483,0.60901666,CSI
4867781719000,0.735019,0.899701758444041,7.79972889870453,3.87635133907911,-3.211624,0.3032946,-1.409877,268.3551,-65.62171,0.34590504,CSI
4867788626000,0.741926,0.91658182209346,7.76663072723179,3.9498292514088,-3.2018502,0.21838433,-1.3750577,268.32547,-64.92827,0.09773321,CSI
4867791703000,0.745003,0.924101723041666,7.75188582009097,3.98256293263631,-3.170696,0.15271631,-1.38025,268.30698,-64.24613,-0.14826822,CSI
4867796894000,0.750194,0.936788042775868,7.72701067775493,4.03778572732336,-3.1126637,0.11026118,-1.3561208,268.29544,-63.58697,-0.36312938,CSI
4867801684000,0.754984,0.94849435591916,7.70405711740247,4.08874261165218,-3.0637946,0.0012217305,-1.3191634,268.31525,-62.946747,-0.55259645,CSI
4867806745000,0.760045,0.960862967780997,7.67980493181921,4.14258244288145,-3.0720413,-0.089491755,-1.2660183,268.33386,-62.319263,-0.7220451,CSI
4867811713000,0.765013,0.973004296318758,7.65599839991294,4.19543292332938,-3.079677,-0.14966199,-1.1609493,268.35815,-61.71897,-0.8530127,CSI
4867816681000,0.769981,0.985145624856518,7.63219186800666,4.24828340377731,-3.0998356,-0.15790866,-1.0045679,268.37506,-61.126244,-0.9477814,CSI
4867821775000,0.775075,0.997594885639802,7.6077815472477,4.30247429496125,-3.0836477,-0.12003502,-0.86254174,268.3798,-60.555176,-1.0144899,CSI
4867826703000,0.780003,1.00963845790914,7.58416669434228,4.3548992481914,-2.9972103,-0.044898596,-0.7519751,268.35675,-60.01205,-1.0519866,CSI
4867831724000,0.785024,1.02190931350256,7.56010618775988,4.40831355220289,-2.8872545,0.015577064,-0.6979135,268.31314,-59.49293,-1.0705237,CSI
4867837031000,0.790331,1.03487912641518,7.53467517632136,4.46477037582149,-2.7311785,0.087659165,-0.6597345,268.23215,-59.023407,-1.0777853,CSI
4867841740000,0.79504,1.04638748311492,7.51210976594563,4.51486556753431,-2.5314255,0.15210545,-0.6795876,268.13693,-58.60739,-1.0938066,CSI
4867846762000,0.800062,1.05866078261505,7.4880444673882,4.56829050972625,-2.3530529,0.20250183,-0.7174612,268.02332,-58.23838,-1.1135001,CSI
4867851692000,0.804992,1.05490695929974,7.4521231794017,4.64772907157623,-2.211332,0.22357668,-0.7611381,267.90417,-57.92257,-1.1443905,CSI
4867856707000,0.810007,1.04195690105808,7.40847669552752,4.74413506376923,-2.1200078,0.17165314,-0.82833326,267.7993,-57.64827,-1.1859199,CSI
4867861702000,0.815002,1.02905848811349,7.36500427539759,4.84015658540513,-2.0922134,0.12522738,-0.88086766,267.7552,-57.151146,-1.2051493,CSI
4867866689000,0.819989,1.01618073328773,7.32160148076537,4.93602431881819,-2.1313088,0.047036625,-0.9636399,267.7438,-56.669575,-1.2329801,CSI
4867871756000,0.825056,1.00309639727367,7.2775024311561,5.03342993445965,-2.2043073,-0.032375857,-1.0173961,267.74484,-56.195427,-1.2567616,CSI
4867876682000,0.829982,0.990376160603988,7.23463053094388,5.12812503267356,-2.3203716,-0.08002335,-1.0677924,267.76663,-55.70656,-1.289811,CSI
4867881686000,0.834986,0.977454507275714,7.19107978212904,5.22431956606015,-2.4294112,-0.14874569,-1.0961977,267.81415,-55.208637,-1.3118781,CSI
4867886753000,0.840053,0.964370171261653,7.14698073251976,5.32172518170161,-2.5292876,-0.20708331,-1.0882565,267.86923,-54.6907,-1.3285669,CSI
4867891715000,0.845015,0.951556973057238,7.10379551756787,5.4171123269183,-2.6117544,-0.2611449,-1.0497719,267.93524,-54.157906,-1.3317097,CSI
4867896728000,0.850028,0.938612079345281,7.06016644006811,5.51347987205559,-2.6762006,-0.2932153,-1.0167851,268.00516,-53.613472,-1.3260988,CSI
4867901715000,0.855015,0.925734324519521,7.01676364543589,5.60934760546865,-2.703995,-0.33567044,-1.0005972,268.0821,-53.068233,-1.3029572,CSI
4867906715000,0.860015,0.912823000250663,6.9732477093699,5.70546524474382,-2.7409523,-0.42943826,-0.91965765,268.15686,-52.515175,-1.2417539,CSI
4867911706000,0.865006,0.899934916365488,6.92981010198882,5.8014098722683,-2.763249,-0.5510005,-0.8555168,268.24258,-51.970406,-1.1675957,CSI
4867916718000,0.870018,0.886992604918385,6.88618972767627,5.89775819387773,-2.794403,-0.68539083,-0.79351395,268.3334,-51.42535,-1.0567738,CSI
4867921736000,0.875036,0.874034799882158,6.84251713424045,5.9942218566543,-2.8093693,-0.80970186,-0.7293731,268.43182,-50.8911,-0.91220176,CSI
4867926758000,0.880058,0.861066665786517,6.79880972805577,6.09076241354229,-2.8264735,-0.92149025,-0.6392705,268.5355,-50.359863,-0.72806484,CSI
4867931688000,0.884988,0.848336100057423,6.7559030150947,6.18553440586761,-2.8625145,-1.0103711,-0.5537493,268.6443,-49.830936,-0.51527643,CSI
4867936728000,0.890028,0.835321485194414,6.71203895154018,6.28242098625698,-2.9107728,-1.1194105,-0.48166725,268.7613,-49.30538,-0.26533327,CSI
4867941891000,0.895191,0.82198925175439,6.66710439595844,6.38167206057253,-2.9553661,-1.2113458,-0.3933972,268.8682,-48.782066,0.015366219,CSI
4867946688000,0.899988,0.809602127250848,6.62535520689672,6.47388732369313,-3.0216448,-1.310306,-0.35430184,268.98877,-48.249928,0.31713924,CSI
4867951685000,0.904985,0.796698549776551,6.58186538039237,6.56994729238474,-3.0735686,-1.3518448,-0.35002577,269.09964,-47.720318,0.6304988,CSI
4867956729000,0.910029,0.783673605854126,6.537966504089,6.66691076688554,-3.097087,-1.4123205,-0.36071593,269.22394,-47.191223,0.96448874,CSI
4867961689000,0.914989,0.770865572179419,6.49479869551154,6.76225946504651,-3.1035008,-1.4367551,-0.38698313,269.34433,-46.663822,1.2900772,CSI
4867966701000,0.920001,0.757923260732315,6.45117832119899,6.85860778665595,-3.1111367,-1.4477507,-0.4382958,269.47458,-46.14137,1.6100993,CSI
4867971741000,0.925041,0.744908645869306,6.40731425764447,6.95549436704532,-3.1713068,-1.486846,-0.38728857,269.59366,-45.61274,1.949172,CSI
4867976746000,0.930046,0.731984410276179,6.36375480564241,7.05170812395977,-3.3264668,-1.6786577,-0.4156938,269.76514,-45.067898,2.2873497,CSI
4867981689000,0.934989,0.719220275103985,6.32073495124757,7.14673002214721,-3.4852917,-1.88849,-0.35735616,269.91327,-44.514423,2.6587412,CSI
4867989489000,0.942789,0.699078609244566,6.25285009098463,7.29667353941649,-3.6227365,-2.043955,-0.3118467,270.08954,-43.935802,3.0422769,CSI
4867991740000,0.94504,0.693265931058726,6.23325921656772,7.33994570061817,-3.7274997,-2.1035144,-0.25228736,270.26544,-43.333088,3.4552014,CSI
4867996688000,0.949988,0.680488884562264,6.19019584623681,7.43506371644488,-3.8105774,-2.0909917,-0.20616703,270.44266,-42.710533,3.8823192,CSI
4868001686000,0.954986,0.667582724823113,6.14669731654525,7.53114290866435,-3.8368447,-2.0292943,-0.13408493,270.5954,-42.08632,4.3184824,CSI
4868006716000,0.960016,0.654593932608641,6.10292028486286,7.62783725377517,-3.798971,-1.9489655,-0.13713925,270.73984,-41.471786,4.732493,CSI
4868012690000,0.96599,0.639167482372209,6.05092744445121,7.74267860918115,-3.7360518,-1.840537,-0.16554448,270.84946,-40.86964,5.1266217,CSI
4868016687000,0.969987,0.628846169751684,6.01614080516006,7.81951505001773,-3.6673295,-1.6749926,-0.09315695,270.90485,-40.289925,5.5000324,CSI
4868021767000,0.975067,0.615728264294524,5.97192861411701,7.9171705715213,-3.532023,-1.4984524,0.021685716,270.92822,-39.758675,5.8407,CSI
4868026734000,0.980034,0.60290215476584,5.92869988322906,8.01265383437726,-3.424205,-1.2605205,-0.059253927,270.9312,-39.255234,6.1003346,CSI
4868031684000,0.984984,0.59011994373967,5.88561910652373,8.10781029725969,-3.3276885,-1.1236867,-0.04886922,270.8711,-38.789467,6.3732452,CSI
4868036748000,0.990048,0.57704335452017,5.84154616647609,8.20515824231758,-3.3279939,-1.0341948,-0.06169739,270.79556,-38.339993,6.5785847,CSI
4868041705000,0.995005,0.564243067640024,5.79840446746027,8.30044926989499,-3.311806,-1.0247264,-0.079107046,270.7057,-37.930622,6.7667856,CSI
4868046693000,0.999993,0.551362730549411,5.75499296964083,8.39633622683591,-3.2763758,-0.9673051,-0.111177474,270.59473,-37.535725,6.9144354,CSI
4868051687000,1.004987,0.567861840462705,5.64980862234242,8.40405383034978,-3.215289,-0.9257663,-0.059864793,270.4677,-37.157547,7.070358,CSI
4868056718000,1.010018,0.606398670207607,5.49782898805835,8.34600771309882,-3.0946434,-1.0253373,-0.106901415,270.383,-36.819244,7.2181034,CSI
4868061710000,1.01501,0.644636764838208,5.34702749047415,8.28841156574902,-2.946814,-0.95447695,-0.079107046,270.3008,-36.005245,7.2879734,CSI
4868066747000,1.020047,0.683219553831464,5.1948666043901,8.23029622235942,-2.8542678,-1.0687088,-0.063224554,270.27835,-35.229595,7.413228,CSI
4868071753000,1.025053,0.721564886708225,5.04364218593928,8.17253854735279,-2.7800477,-1.1462886,-0.07819075,270.23477,-34.50655,7.513994,CSI
4868076931000,1.030231,0.761227718037802,4.88722188255568,8.11279638970511,-2.6392434,-1.1169671,0.00061086525,270.16312,-33.838573,7.633747,CSI
4868082629000,1.035929,0.804873684224734,4.71509308984038,8.04705463337516,-2.5079072,-1.1624765,0.0106901415,270.13245,-33.206852,7.7744474,CSI
4868086799000,1.040099,0.836815361830825,4.58912308885359,7.99894246701926,-2.3503041,-1.1814134,0.032070424,270.06723,-32.63128,7.914887,CSI
4868091763000,1.045063,0.874838979969106,4.43916743300263,7.94166937498313,-2.2131648,-1.1004738,0.09162979,269.97797,-32.09669,8.047484,CSI
4868096761000,1.050061,0.913123033848061,4.28818468361846,7.88400400149469,-2.0861049,-0.86162543,0.108123146,269.86902,-31.615465,8.140181,CSI
4868101744000,1.055044,0.951292189606131,4.13765506373423,7.82651169335286,-2.053729,-0.89675015,0.1151481,269.7745,-31.153568,8.284729,CSI
4868106727000,1.060027,0.9894613453642,3.98712544385001,7.76901938521103,-1.9422461,-0.9477574,0.105068825,269.64307,-30.758604,8.373847,CSI
4868111703000,1.065003,1.02757688199919,3.8368072843991,7.71160784089762,-1.7901406,-0.9560041,0.09040806,269.50726,-30.392431,8.45982,CSI
4868116684000,1.069984,1.06573071800781,3.68633808178153,7.65413860813533,-1.6190983,-0.93951076,0.067500606,269.37744,-30.071424,8.54753,CSI
4868121785000,1.075085,1.10480373898351,3.53224384316435,7.59528485260022,-1.4547756,-0.89919364,0.032070424,269.24976,-29.79921,8.625435,CSI
4868126709000,1.080009,1.14252096213276,3.38349653264661,7.53847326815503,-1.2822062,-0.8335256,0.11301007,269.0904,-29.578314,8.704596,CSI
4868131701000,1.085001,1.18075905676336,3.23269503506241,7.48087712080523,-1.1734722,-0.782213,0.042455133,268.9721,-29.399231,8.748949,CSI
4868136741000,1.090041,1.2193648253808,3.08044352307837,7.42272716434631,-1.0268645,-0.70341134,0.023518313,268.80554,-29.276175,8.787858,CSI
4868141768000,1.095068,1.2578710156268,2.92858472332762,7.36472719785444,-0.9410379,-0.9428705,-0.036651913,268.70386,-29.174753,8.876545,CSI
4868146719000,1.100019,1.29579505539364,2.77902177970996,7.30760409578537,-0.7724391,-0.9639453,-0.079107046,268.5584,-29.139696,8.890974,CSI
4868152498000,1.105798,1.34006147143336,2.60444608769492,7.24092778658375,-0.5751296,-0.8582657,-0.103847094,268.43835,-29.140179,8.925997,CSI
4868156717000,1.110017,1.37237848290101,2.47699586367495,7.19225027342895,-0.3399465,-0.7266242,-0.12461651,268.32584,-29.200935,8.952958,CSI
4868161711000,1.115011,1.41063189728106,2.32613394882409,7.13463105069961,-0.1572978,-0.6826419,-0.17898351,268.22418,-29.304474,8.966553,CSI
4868166686000,1.119986,1.44873977404132,2.17584599800651,7.07723104407597,0.03726278,-0.64568454,-0.21624629,268.1046,-29.475555,8.948877,CSI
4868171815000,1.125115,1.48802727150934,2.02090591765608,7.01805423322719,0.22907446,-0.6728681,-0.258396,268.00192,-29.69707,8.928494,CSI
4868176693000,1.129993,1.52539214042121,1.87354820427152,6.96177338251159,0.38148534,-0.66675943,-0.26908615,267.88965,-29.958275,8.890948,CSI
4868181692000,1.134992,1.56368385417489,1.72253524625402,6.90409647133338,0.52748215,-0.623388,-0.22449298,267.77176,-30.265747,8.85401,CSI
4868186749000,1.140049,1.60241984066266,1.56977018750336,6.8457503741483,0.65209866,-0.6249151,-0.24190263,267.67703,-30.607742,8.817273,CSI
4868192199000,1.145499,1.64416615791763,1.40513313585395,6.7828699648822,0.743423,-0.6123924,-0.26847526,267.56442,-30.972881,8.772867,CSI
4868197058000,1.150358,1.68138548920971,1.25834938650267,6.72680833027229,0.86620694,-0.58368176,-0.29352075,267.45306,-31.375422,8.723899,CSI
4868201836000,1.155136,1.71798437064902,1.11401253645113,6.67168124853405,0.9941832,-0.50823987,-0.30543262,267.3355,-31.79805,8.660122,CSI
4868206842000,1.160142,1.75632970352578,0.96278811800031,6.61392357352743,1.0512991,-0.5155703,-0.3454443,267.23886,-32.22963,8.603233,CSI
4868211782000,1.165082,1.79416948467064,0.813557469349283,6.55692738604586,1.1749994,-0.4596761,-0.3933972,267.12518,-32.708088,8.511954,CSI
4868216833000,1.170133,1.83285951191006,0.660973662398608,6.49865051499943,1.3066407,-0.36682457,-0.4260785,267.01224,-33.19699,8.412218,CSI
4868221734000,1.175034,1.87040055794062,0.512921150447459,6.44210429741903,1.3845261,-0.2864958,-0.44409904,266.89978,-33.697575,8.29988,CSI
4868226729000,1.180029,1.9086616321954,0.362029026963273,6.38447353699991,1.4712689,-0.20219639,-0.46181414,266.7789,-34.229073,8.162981,CSI
4868231708000,1.185008,1.94680014845457,0.211620241612369,6.32702737961718,1.5592335,-0.1432479,-0.5006041,266.65775,-34.774174,8.010885,CSI
4868236879000,1.190179,1.98640936066106,0.0554113986620742,6.26736598579791,1.6701056,-0.040011674,-0.5290093,266.51627,-35.33959,7.832103,CSI
4868241719000,1.195019,2.02348315433336,-0.0907983866559353,6.21152356729371,1.7464638,0.032986723,-0.5360342,266.37335,-35.909626,7.64905,CSI
4868246694000,1.199994,2.06159103109363,-0.241086337473518,6.15412356067006,1.829236,0.10781772,-0.5513059,266.22043,-36.502716,7.4414096,CSI
4868251696000,1.204996,2.00568284731879,-0.277981891869702,6.34660859319935,1.8506162,0.118507855,-0.56413406,266.06644,-37.08816,7.237225,CSI
4868256715000,1.210015,1.8774946999238,-0.227622243072674,6.73117327440709,1.8689423,0.13500121,-0.5500842,265.89532,-37.68323,7.023351,CSI
4868261691000,1.214991,1.64925701009889,-0.20111294,7.1099969433623,1.8958203,0.0983493,-0.5345071,265.8408,-37.874203,7.0097466,CSI
4868266688000,1.219988,1.30507741668165,-0.20111294,7.48763856717611,1.8912388,0.042760566,-0.53786683,265.78723,-38.05575,6.9986978,CSI
4868271834000,1.225134,0.956954064950045,-0.189432059796221,7.73689949154219,1.8979583,-0.024740042,-0.5329799,265.73123,-38.19449,6.985865,CSI
4868276741000,1.230041,0.631547265237907,-0.166188718693244,7.82987279770502,1.9080375,-0.06780604,-0.54305923,265.68506,-38.328323,6.9795094,CSI
4868281659000,1.234959,0.400524146283654,-0.0826645295400201,7.87599056778315,1.9278907,-0.11759156,-0.54275376,265.64484,-38.40465,6.9537473,CSI
4868286823000,1.240123,0.283172639816556,0.0843356815944145,7.86245001967692,1.9428569,-0.10934488,-0.53969944,265.60468,-38.478485,6.92618,CSI
4868291899000,1.245199,0.214792760319813,0.307815522210413,7.89265307435647,1.922393,0.01038471,-0.52778757,265.57114,-38.52324,6.8251863,CSI
4868296725000,1.250025,0.259856796404056,0.659314950024376,8.02333876394306,1.8548924,0.013439035,-0.5204572,265.5598,-38.555145,6.7511644,CSI
4868301731000,1.255031,0.38198970897851,1.02929949546659,8.13168722946718,1.8194622,-0.014660766,-0.4978552,265.5525,-38.60869,6.637312,CSI
4868306767000,1.260067,0.793716277370229,1.42209610504367,8.13641956721617,1.724778,-0.00061086525,-0.47952923,265.5395,-38.622616,6.5169306,CSI
4868311731000,1.265031,1.20464410721279,1.79343059466451,8.13370481420102,1.6212363,0.05222898,-0.47067168,265.55627,-38.651985,6.4163313,CSI
4868316753000,1.270053,1.64528565547471,2.09151166855295,8.09482457410402,1.5381587,0.13194689,-0.4550946,265.56268,-38.656506,6.313662,CSI
4868322325000,1.275625,2.1508340860331,2.41786080939953,8.04733455101655,1.4544702,0.21624629,-0.44409904,265.6107,-38.673252,6.310228,CSI
4868326767000,1.280067,2.77837707947045,2.61899641760757,7.95078962373523,1.3836098,0.29260445,-0.43066,265.64307,-38.667088,6.2954555,CSI
4868331676000,1.284976,3.4718954393948,2.84127798012293,7.8440946556974,1.3277156,0.4184427,-0.3998113,265.71942,-38.6615,6.4122543,CSI
4868337784000,1.291084,3.62838159789939,3.0083433742794,8.04034010803127,1.3041973,0.5299256,-0.38148534,265.7845,-38.643005,6.5147185,CSI
4868341699000,1.294999,3.64910750834715,3.10309042438601,8.20318685643212,1.2925909,0.59803706,-0.35338554,265.826,-38.608788,6.605721,CSI
4868346703000,1.300003,3.62662148419719,3.23644510927367,8.48822289528887,1.255328,0.63804877,-0.31429017,265.94766,-38.550785,6.9268727,CSI
4868351809000,1.305109,3.48130452782974,3.40313228897824,8.97118819325234,1.2345587,0.62980205,-0.27855456,266.0583,-38.49051,7.243121,CSI
4868357127000,1.310427,3.31687605122366,3.58835503065942,9.47023990907546,1.2006557,0.5384777,-0.24098633,266.35568,-38.27999,7.760157,CSI
4868361708000,1.315008,3.04845849121346,3.86050053123725,9.86168223274983,1.1612549,0.4260785,-0.19486602,266.64386,-38.061058,8.279849,CSI
4868366695000,1.319995,2.75625190492862,4.15676545404487,10.2878168907206,1.099252,0.3023783,-0.16157386,267.4253,-37.459236,9.252689,CSI
4868371765000,1.325065,2.38771681325515,4.63276114841825,10.7411986439342,1.0118983,0.172264,-0.13897185,268.19788,-36.85788,10.224387,CSI
4868376706000,1.330006,1.99133213673992,5.18769967606189,11.1935433714398,0.87689704,0.021380283,-0.086437434,268.96118,-36.242065,11.207176,CSI
4868381710000,1.33501,1.78697855527577,5.53332819526009,11.4945022580814,0.71929383,-0.1001819,-0.09254608,270.35843,-35.17726,12.686,CSI
4868387911000,1.341211,1.68349193192472,5.79721891731289,11.7480441124858,0.5552765,-0.20189096,-0.093767814,271.71332,-34.133724,14.140769,CSI
4868391713000,1.345013,1.66662266592654,5.95929558539116,11.7479615669226,0.41905355,-0.24281894,-0.08674286,272.68536,-33.433453,15.0022745,CSI
4868396711000,1.350011,1.7262178782735,6.17284522162274,11.4748170813447,0.34300083,-0.27152961,-0.05589417,273.654,-32.743927,15.854677,CSI
4868401571000,1.354871,1.80608879068612,6.25208802701025,11.0519651999379,0.22937989,-0.24129178,-0.044593163,274.5722,-32.09646,16.572807,CSI
4868407125000,1.360425,1.93819582200145,6.1034675161958,10.2758363765911,0.13591751,-0.2098322,-0.017715093,275.4765,-31.466698,17.278044,CSI
4868411575000,1.364875,2.07952893219925,5.8465044240603,9.63315653499032,0.06780604,-0.18509217,0.0061086523,276.32938,-30.93401,17.917562,CSI
4868416578000,1.369878,2.27963323571356,5.39749014291535,8.88642629632271,0.04795292,-0.1863139,0.049785517,277.16748,-30.412113,18.543177,CSI
4868421601000,1.374901,2.41859713964497,4.98977332692308,8.30891344741617,0.06688975,-0.18661933,0.089491755,277.99713,-29.943024,19.217245,CSI
4868426584000,1.379884,2.48919062248521,4.63209933653846,7.92300201475345,0.09101892,-0.20097467,0.13408493,278.8153,-29.484459,19.88593,CSI
4868431574000,1.384874,2.48876633576964,4.47169066660796,7.79211380582952,0.1255328,-0.22907446,0.1704314,279.77582,-28.943733,20.802296,CSI
4868436640000,1.38994,2.39904826091934,4.55713636720676,7.98009443636844,0.14477506,-0.27275133,0.20158553,280.72232,-28.420574,21.7118,CSI
4868441579000,1.394879,2.327164,4.6255975,8.130709,0.124005646,-0.34025195,0.22418754,281.8632,-27.761951,22.899288,CSI
4868446578000,1.399878,2.327164,4.6255975,8.130709,0.058643065,-0.42119157,0.23609942,282.98785,-27.120855,24.075134,CSI
4868451613000,1.404913,2.41718135584264,4.64560140713939,8.38575820679942,-0.012217305,-0.4831944,0.24617869,284.0412,-26.532661,25.164597,CSI
4868456660000,1.40996,2.67070679944633,4.70194053623118,9.10408038688684,-0.0842994,-0.5317582,0.24617869,285.0916,-25.952374,26.243795,CSI
4868461623000,1.414923,2.86919008786631,4.75572296807125,9.58766817036966,-0.1414153,-0.54183745,0.24190263,286.14417,-25.378042,27.336704,CSI
4868466622000,1.419922,2.95171633932197,4.80615570655047,9.56015930817851,-0.17806722,-0.5164866,0.24495697,287.18604,-24.815792,28.405317,CSI
4868471699000,1.424999,2.98949798161361,4.82773362896402,9.48184153468838,-0.20066923,-0.43066,0.23823744,288.48083,-24.080256,29.746168,CSI
4868477223000,1.430523,2.85783206963601,4.73995639250233,9.20753709789485,-0.22204952,-0.3494149,0.22204952,289.7522,-23.386726,31.024862,CSI
4868481636000,1.434936,2.70568567463087,4.65451250026846,8.96250686756152,-0.23060162,-0.30115658,0.19517145,290.99512,-22.753214,32.24611,CSI
4868486713000,1.440013,2.4185255117047,4.51963412421476,8.61878465404922,-0.23304509,-0.21991149,0.16340645,292.2127,-22.163279,33.385372,CSI
4868491781000,1.445081,2.13971503240155,4.38630076279229,8.28211599786732,-0.22327125,-0.15027285,0.124005646,293.38058,-21.648127,34.429195,CSI
4868496624000,1.449924,1.95954864504532,4.27325513144185,8.0312964044634,-0.1777618,-0.10048734,0.09101892,294.53928,-21.180346,35.413612,CSI
4868501709000,1.455009,1.7703795185315,4.15456071983396,7.7679435999086,-0.14049901,-0.057421334,0.054367006,295.5067,-20.83812,36.129383,CSI
4868506781000,1.460081,1.64458737980018,3.97249233142598,7.50831401395095,-0.110872045,-0.05100725,0.02107485,296.48285,-20.530266,36.817223,CSI
4868511780000,1.46508,1.59675639386921,3.715944423297,7.25611405531335,-0.09162979,-0.043676864,0.005497787,297.46002,-20.251575,37.470783,CSI
4868516724000,1.470024,1.5824231528257,3.47839984182218,7.04526016868838,-0.09560041,-0.061086524,-0.0143553335,298.35345,-20.038893,38.011826,CSI
4868521779000,1.475079,1.67191485260563,3.28663196457746,6.95150713950704,-0.07819075,-0.048563786,-0.025045475,299.24725,-19.849842,38.528767,CSI
4868527412000,1.480712,1.7793406894597,3.0781249126956,6.85648757974609,-0.05681047,-0.014660766,-0.0421497,300.21323,-19.630957,39.13834,CSI
4868531706000,1.485006,1.91694291467375,2.95671116467867,6.85244050270643,-0.01863139,0.051618114,-0.06047566,301.1777,-19.43714,39.717236,CSI
4868536848000,1.490148,2.08171949642752,2.811320039317,6.84759418921366,0.024740042,0.14294247,-0.07941248,302.33658,-19.179058,40.515163,CSI
4868541711000,1.495011,2.29898925326117,2.74801544256638,6.87226932422056,0.07666359,0.26328292,-0.109650314,303.48474,-18.95934,41.252953,CSI
4868546679000,1.499979,2.52347404859839,2.6863922032658,6.89867923795911,0.15088372,0.364992,-0.14355333,304.62415,-18.779003,41.938313,CSI
4868551683000,1.504983,2.62694739257553,2.63807154804716,6.89472043441415,0.22968534,0.43890667,-0.19303341,305.7636,-18.615026,42.61982,CSI
4868556667000,1.509967,2.69289811748342,2.59410436750184,6.88153028025055,0.32467487,0.50732356,-0.23579398,306.89157,-18.494003,43.24169,CSI
4868561740000,1.51504,2.70112474365368,2.5761611,6.89483555634632,0.42302418,0.5873469,-0.27947086,308.00815,-18.402416,43.843517,CSI
4868566695000,1.519995,2.67065409205908,2.5761611,6.92530620794092,0.5027421,0.64599,-0.3191771,309.12558,-18.349794,44.397346,CSI
4868572298000,1.525598,2.50522299415817,2.61357281158262,7.09447859419491,0.5687156,0.6719518,-0.355829,310.2367,-18.33046,44.91848,CSI
4868576707000,1.530007,2.34233018685588,2.65235678439423,7.26124992027188,0.6178902,0.68416905,-0.38148534,311.34528,-18.341837,45.395447,CSI
4868581728000,1.535028,2.20338636955416,2.65831150406849,7.34995015124597,0.64660084,0.6759224,-0.4034765,312.4651,-18.37925,45.8365,CSI
4868586884000,1.540184,2.09875418179352,2.63319979998305,7.35832063186981,0.6658431,0.6704246,-0.4089743,313.58026,-18.436611,46.245094,CSI
4868591752000,1.545052,1.99967632663346,2.60299744546342,7.37316752593027,0.6914995,0.6435465,-0.41050145,314.70682,-18.521143,46.58087,CSI
4868596705000,1.550005,1.89775757635511,2.54740532949507,7.41486154034574,0.7150178,0.5910121,-0.39553526,315.83017,-18.616222,46.900757,CSI
4868601698000,1.554998,1.78911830516357,2.47043830311097,7.43806741500962,0.73639804,0.52106804,-0.38056904,316.95343,-18.729698,47.194946,CSI
4868606726000,1.560026,1.64498096135343,2.26967559534958,7.35055548890314,0.782213,0.54000485,-0.3943135,318.06897,-18.86342,47.45412,CSI
4868611703000,1.565003,1.56276692358915,2.13265149165973,7.21094651689695,0.83169305,0.51923543,-0.32895094,319.15787,-18.990482,47.72079,CSI
4868616873000,1.570173,1.64106965906442,2.1573786712835,6.92246245338771,0.9098838,0.5342017,-0.3118467,320.25247,-19.15171,47.94253,CSI
4868621993000,1.575293,1.71861511469952,2.18186670990511,6.63676837115032,0.9773844,0.605062,-0.28008172,321.28333,-19.291098,48.144203,CSI
4868626766000,1.580066,2.13634465405405,2.18785430622441,6.42651178078419,1.0885619,0.7333437,-0.26358834,322.29025,-19.457115,48.30817,CSI
4868631687000,1.584987,2.59468925405405,2.19267898198198,6.21422599707207,1.2198979,0.86284715,-0.20280726,323.2449,-19.625877,48.446465,CSI
4868637031000,1.590331,3.18190003925698,2.68981940782756,6.85693936700109,1.3243558,1.0332786,-0.14874569,324.1559,-19.819567,48.574417,CSI
4868642356000,1.595656,3.75492483664844,3.26229145784595,7.6466429201965,1.3799446,1.2400564,-0.13194689,325.01157,-20.023285,48.64951,CSI
4868646687000,1.599987,3.77414686558532,4.53478534170915,10.0032558319956,1.3029755,1.4566082,-0.16707164,325.63367,-20.228428,48.62566,CSI
4868651658000,1.604958,3.79620936982111,5.99531803547131,12.7081098575215,0.9602802,1.6438384,-0.26450464,326.2601,-20.435436,48.513462,CSI
4868656717000,1.610017,2.80978972227654,8.53525193557961,14.4218688027235,0.28588495,1.858252,-0.46822822,326.8806,-20.602657,48.3158,CSI
4868661731000,1.615031,1.48526783034218,11.4148292941515,15.7631562571578,-0.73945236,1.8719965,-0.63316184,327.52643,-20.663137,48.108692,CSI
4868666684000,1.619984,-0.597006703147655,13.6427867532348,16.8004597330458,-1.9086485,1.2788464,-1.131017,328.65546,-20.829855,47.567238,CSI
4868671824000,1.625124,-3.70941184217675,15.1967304019455,17.5232242976048,-2.2812762,0.55955255,-1.6954565,329.896,-21.012257,47.026752,CSI
4868676670000,1.62997,-6.28663628725893,15.9165458855517,16.2020158064496,-2.0176878,0.65026605,-2.2214115,331.0096,-21.58417,45.56664,CSI
4868681691000,1.634991,-8.0045058504795,14.6750180473179,9.49269643416588,-1.2638801,1.0360274,-2.5396724,332.28622,-22.221556,44.220654,CSI
4868686713000,1.640013,-7.44318855767998,12.5851370124356,4.74961516527737,-0.6789767,1.7211128,-2.5518897,333.5032,-23.111458,42.33855,CSI
4868691749000,1.645049,-3.1558718458875,9.1037423352764,3.20805539665792,0.5702427,1.6032158,-2.2950208,334.71326,-24.225903,40.631588,CSI
4868696690000,1.64999,1.23541460674076,5.99967196630594,2.8755686625914,1.3011429,0.655153,-1.7018706,335.86807,-25.38194,39.302513,CSI
4868701688000,1.654988,6.06996817565565,3.52172993343083,5.04551797227259,1.2043208,-0.30176744,-1.0519099,336.8789,-26.538986,38.051216,CSI
4868706704000,1.660004,9.06383030213494,1.49021876454013,6.77076031303486,0.73853606,-0.6957755,-0.6151413,337.5687,-27.280107,37.629475,CSI
4868711707000,1.665007,7.02232597910098,0.696060706948923,7.26710906522836,0.3494149,-0.44593164,-0.39584067,338.1889,-27.93441,37.34295,CSI
4868716857000,1.670157,4.95746540913642,0.0109072521652065,7.64739795869837,0.06169739,0.3115413,-0.36377025,338.52454,-27.937593,37.677708,CSI
4868721741000,1.675041,3.40841826824877,0.839467455973813,6.54865500654664,-0.22388211,1.2803736,-0.43066,338.72214,-27.832653,37.920685,CSI
4868727128000,1.680428,1.69186544341085,1.72649780891473,5.44834929496124,-0.4428773,2.2996023,-0.4605924,338.62558,-27.625048,37.705513,CSI
4868732527000,1.685827,-0.170459532633768,2.13708910484023,6.33307599355266,-0.3475823,2.9825497,-0.43310347,338.41034,-27.424587,37.344677,CSI
4868736867000,1.690167,-1.66749424203063,2.46714397135564,7.0442658197958,-0.086132,3.0677652,-0.40011674,338.67352,-27.455051,36.991817,CSI
4868741747000,1.695047,-4.00483261170889,1.92818874942979,7.26822794904675,0.013744468,2.8225029,-0.37110063,338.86948,-27.465876,36.566013,CSI
4868746675000,1.699975,-6.44939856515191,1.26671798574911,7.42024291358057,-0.025045475,2.5466971,-0.39584067,338.72586,-27.545723,35.589397,CSI
4868751682000,1.704982,-8.51459029742198,0.900266254409769,8.16412846307424,-0.11178834,2.1820107,-0.48624873,338.67786,-27.635887,34.691483,CSI
4868756751000,1.710051,-10.2648011367707,0.777939660786974,9.39680383494863,-0.24770586,1.6991217,-0.52595496,338.71487,-27.695114,33.896767,CSI
4868761688000,1.714988,-10.7646793868641,0.967870808375805,10.3862165967882,-0.46883908,1.1527027,-0.5006041,338.62857,-27.680895,32.719112,CSI
4868766681000,1.719981,-10.0473558814309,1.47367611264545,11.1725139871141,-0.7480045,0.5849035,-0.41080686,338.63934,-27.601952,31.666237,CSI
4868771760000,1.72506,-9.03134388378634,2.20865773286063,11.2730399639959,-0.92271197,-0.23915374,-0.34391713,338.76443,-27.43993,30.487757,CSI
4868776711000,1.730011,-7.65667772918932,3.22097976664303,10.4325514481998,-0.99265605,-0.60903263,-0.49877146,338.9485,-27.237743,29.334808,CSI
4868781722000,1.735022,-6.26535232004254,4.24556989212952,9.58187725053179,-0.9272934,-0.86742866,-0.5161811,339.23508,-26.988811,28.458405,CSI
4868788143000,1.741443,-5.75260563713287,5.02050424818208,9.27023851166305,-0.8750645,-1.0454959,-0.48197266,339.5984,-26.729044,27.656496,CSI
4868791739000,1.745039,-5.53795642723581,5.42378466219662,9.14014780356974,-0.7715228,-1.0647382,-0.48624873,339.9921,-26.500807,26.888445,CSI
4868796690000,1.74999,-5.01933585970201,5.35672765046778,9.95832758264033,-0.73273283,-1.0415252,-0.49327368,340.52353,-26.476557,26.44748,CSI
4868802641000,1.755941,-4.3133589969508,5.04570284199584,11.3110387525988,-0.7110472,-0.95233893,-0.36896262,341.01108,-26.45505,26.015676,CSI
4868806748000,1.760048,-3.37508787041357,4.71136232873807,11.2677889533404,-0.7296785,-0.9315695,-0.3118467,341.57214,-26.535654,25.62743,CSI
4868811697000,1.764997,-1.81701366148655,4.19505037742215,10.289994321797,-0.75594574,-0.829555,-0.20066923,342.0557,-26.594013,25.224237,CSI
4868816685000,1.769985,-0.646479301880852,3.60371532011199,9.34993927822655,-0.7809912,-0.59620446,-0.09743301,342.56967,-26.540274,24.914215,CSI
4868821751000,1.775051,-0.138783713114558,2.88225307195704,8.47260564081146,-0.75777835,-0.3463606,-0.03268129,343.04834,-26.485985,24.588997,CSI
4868826706000,1.780006,0.269351019261135,2.26566037746202,7.73303750790534,-0.70738196,-0.13164146,-0.01282817,343.80167,-26.50539,24.72908,CSI
4868831692000,1.784992,0.32362916553994,2.00413852031621,7.46658117499225,-0.67164636,-0.024740042,-0.016493361,344.52087,-26.523521,24.82803,CSI
4868836776000,1.790076,0.296886026965969,1.9302129334555,7.32080451324607,-0.6383542,0.058337633,-0.03268129,345.72858,-26.689754,25.350805,CSI
4868841723000,1.795023,0.0571098623821989,2.36015635811518,7.50683787277487,-0.65301496,0.16829337,-0.06688975,346.88974,-26.846922,25.796093,CSI
4868847031000,1.800331,-0.206840292636444,2.81979320053333,7.71990600177778,-0.66523224,0.30634892,-0.12614368,347.9586,-26.982553,26.171324,CSI
4868851690000,1.80499,-0.607413852879111,3.18070605213333,8.24739384044445,-0.6765333,0.42730024,-0.19181168,348.99893,-27.114548,26.486076,CSI
4868856696000,1.809996,-1.03782193241867,3.5684995132,8.81416871066667,-0.6780604,0.4092797,-0.24617869,349.8034,-27.218225,26.557856,CSI
4868861696000,1.814996,-1.47993968460043,3.75108979955279,9.26450658895586,-0.6743952,0.2134974,-0.2950479,350.6272,-27.32644,26.622053,CSI
4868866690000,1.81999,-1.92630860931363,3.85338270847754,9.66902835718452,-0.6786713,-0.12461651,-0.32895094,351.48178,-27.43536,26.707222,CSI
4868872291000,1.825591,-2.29661881536109,3.938595516899,9.73607324615523,-0.6768387,-0.4978552,-0.37384954,352.1617,-27.499172,26.583117,CSI
4868876721000,1.830021,-2.54463048682435,3.99582893357316,9.65594638312798,-0.68966687,-0.68233645,-0.4196644,352.8766,-27.563574,26.485567,CSI
4868881683000,1.834983,-2.78233556413167,4.07697249454133,9.5561015908575,-0.7049385,-0.93370754,-0.45173484,353.57813,-27.593987,26.344633,CSI
4868886775000,1.840075,-2.97355143473326,4.18264470925601,9.44036591115468,-0.69913524,-1.0812315,-0.50426924,354.31198,-27.637363,26.210402,CSI
4868891710000,1.84501,-3.01164210501301,4.17760675095057,9.32752252251351,-0.7012733,-1.1139128,-0.53786683,355.0058,-27.669846,26.025986,CSI
4868896693000,1.849993,-2.90659249739844,4.06778180988593,9.21292249729838,-0.68569624,-1.0500773,-0.5684101,355.72183,-27.716587,25.843899,CSI
4868901682000,1.854982,-2.53216929305199,4.08971339173082,8.96738010464785,-0.66675943,-0.8762862,-0.60994893,356.41315,-27.782396,25.59456,CSI
4868906719000,1.860019,-1.88110475090771,4.24560215032792,8.58682879412603,-0.6264423,-0.7086037,-0.6728681,357.10864,-27.864613,25.321629,CSI
4868911680000,1.86498,-1.14560397577097,4.33482715632882,8.13176739193593,-0.5510005,-0.56596667,-0.7809912,357.81482,-27.973003,25.02998,CSI
4868916685000,1.869985,-0.25871129506582,4.32600235949554,7.54932997161005,-0.47800204,-0.43371433,-0.86406887,358.50482,-28.093996,24.693071,CSI
4868921707000,1.875007,0.54956675,4.25814033528184,6.97554390490606,-0.42485678,-0.26236662,-0.9239337,359.2879,-28.315746,24.45075,CSI
4868926699000,1.879999,1.07355203,3.98866217043841,6.44157795985386,-0.38331795,-0.12034045,-0.97494096,0.070341185,-28.557228,24.168167,CSI
4868931664000,1.884964,1.38273271732052,3.74254216637897,6.05329407029227,-0.3231477,0.01863139,-0.9954049,1.1214128,-28.974815,24.132444,CSI
4868936779000,1.890079,1.20016664837191,3.54075852671636,5.99083734172224,-0.2648101,0.15699236,-1.0076222,2.1405973,-29.391968,24.041014,CSI
4868942079000,1.895379,0.793035378383855,3.39436415679386,6.0917074676199,-0.20738874,0.2669481,-1.0369438,3.4286432,-29.941223,24.137934,CSI
4868946692000,1.899992,0.0458495900204265,3.37992583239644,6.47793387963069,-0.14508049,0.3381139,-1.0549643,4.6530724,-30.476593,24.181719,CSI
4868951686000,1.904986,-0.763048269742626,3.36429500819511,6.89605976334668,-0.09040806,0.3830125,-1.0876455,5.830015,-30.980682,24.15981,CSI
4868956703000,1.910003,-1.17676388494255,3.66550515088529,7.54663663942362,-0.058948494,0.4089743,-1.1337659,6.965042,-31.4727,24.09836,CSI
4868961667000,1.914967,-1.4991246985195,4.0326381121586,8.24060823399887,-0.084910266,0.34330627,-1.1520919,8.071113,-31.939322,24.027319,CSI
4868966696000,1.919996,-1.67390616717898,4.28994964426771,8.57266480931105,-0.14935656,0.26236662,-1.1976013,8.742501,-32.20253,23.586176,CSI
4868971838000,1.925138,-1.78391409036726,4.5011649560361,8.74427693423286,-0.23671028,0.20799962,-1.2534955,9.424034,-32.447174,23.149458,CSI
4868976788000,1.930088,-1.66148733602792,4.62860150044587,8.76777528564505,-0.2837469,0.18295415,-1.2883148,10.0682535,-32.653263,22.594446,CSI
4868981765000,1.935065,-1.29189334780459,4.6748008635456,8.6384176671513,-0.29077184,0.0983493,-1.3023647,10.739322,-32.841724,22.063858,CSI
4868988731000,1.942031,-0.712413884439182,4.65960918714099,8.44547583926232,-0.29046643,0.0067195175,-1.2956452,11.397359,-33.015,21.498272,CSI
4868991707000,1.945007,-0.445301743320568,4.62801515178877,8.35931039735967,-0.30085114,0.010079277,-1.2956452,12.055843,-33.175926,20.93212,CSI
4868996708000,1.950008,-0.0377963671029982,4.47891553057789,8.12458128864088,-0.312763,0.04520403,-1.2681563,12.767805,-33.361816,20.47522,CSI
4869001684000,1.954984,0.309254868202024,4.1949646298307,7.76400855340963,-0.34025195,0.121256754,-1.215011,13.460982,-33.527702,20.01524,CSI
4869006688000,1.959988,0.584330741418274,3.95915226764076,7.54396760522112,-0.36743546,0.25778514,-1.1753048,14.223509,-33.72665,19.651968,CSI
4869011731000,1.965031,0.68312407423534,3.84154111737775,7.66628329581142,-0.3857614,0.40439278,-1.1545353,14.954118,-33.905308,19.274364,CSI
4869016678000,1.969978,0.716218477371383,3.76678940076367,7.77796461639871,-0.38148534,0.50671273,-1.1273518,15.828749,-34.147053,19.032835,CSI
4869022698000,1.975998,0.513461949638264,3.83051296386656,7.88223933987138,-0.37293324,0.5925393,-1.1203269,16.661064,-34.368664,18.755335,CSI
4869026911000,1.980211,0.325008707802347,3.87390880864093,7.92718673189318,-0.38881573,0.6407976,-1.1010846,17.530804,-34.58262,18.502775,CSI
4869031686000,1.984986,0.0138724449600272,3.92057921517265,7.91940833080456,-0.41538838,0.64996064,-1.0629056,18.363873,-34.774975,18.236914,CSI
4869036956000,1.990256,-0.329517734135057,3.97208770573227,7.91082358237796,-0.44959682,0.6252206,-1.039998,19.147556,-34.938637,17.918646,CSI
4869041703000,1.995003,-0.698205776767289,4.18382114801615,8.18097754525997,-0.462425,0.625526,-1.0708468,19.913164,-35.08707,17.58698,CSI
4869046706000,2.000006,-1.09002142180313,4.41600818083796,8.48088610536093,-0.47800204,0.57726765,-1.0522153,20.660122,-35.2037,17.282005,CSI
4869051685000,2.004985,-1.39986066321046,4.38217770528418,8.4603032794625,-0.5222898,0.52534413,-1.0341948,21.26904,-35.25759,16.85892,CSI
4869056751000,2.010051,-1.70820707223534,4.32491336889413,8.4118487879063,-0.5626069,0.505491,-1.0338894,21.876356,-35.2984,16.443193,CSI
4869061696000,2.014996,-1.81241756755109,4.29108763497669,8.39578069747221,-0.589485,0.45478916,-1.0045679,22.412651,-35.290627,15.950698,CSI
4869066681000,2.019981,-1.84237296697741,4.26541166769451,8.39150126532808,-0.6209445,0.40194935,-0.98868537,22.955002,-35.26431,15.467888,CSI
4869071730000,2.02503,-1.79487052020292,4.23319330953186,8.32835388643645,-0.66645396,0.38820487,-0.9822713,23.442556,-35.194088,14.927061,CSI
4869076878000,2.030178,-1.66323630681737,4.19370284392132,8.20110720220719,-0.6985244,0.38515055,-1.0326678,23.947523,-35.116196,14.396512,CSI
4869081663000,2.034963,-1.52984134498843,4.14660574311874,8.12871499402467,-0.7086037,0.32284227,-1.0256428,24.452656,-35.02617,13.893753,CSI
4869086947000,2.040247,-1.34451502632999,4.05881969134541,8.20674718716268,-0.7165449,0.2706133,-1.0183123,24.968533,-34.926292,13.388587,CSI
4869092509000,2.045809,-1.18902815587213,3.96501759249479,8.28786421125782,-0.7263188,0.25870144,-1.0241156,25.508413,-34.84151,12.928651,CSI
4869096752000,2.050052,-1.14314150407401,3.89089298695275,8.34786993207088,-0.7425067,0.22449298,-1.0125091,26.054586,-34.74539,12.496147,CSI
4869101663000,2.054963,-1.09003065161571,3.80509851657401,8.41732270013899,-0.7770206,0.19761491,-0.9999864,26.656977,-34.65906,12.110339,CSI
4869106787000,2.060087,-1.30588130624301,3.709998879836,8.52178043169959,-0.8249735,0.16462818,-0.98532563,27.260542,-34.55754,11.740538,CSI
4869111835000,2.065135,-1.56264534269474,3.61540165523668,8.62989168663809,-0.8558222,0.15088372,-0.9728029,27.860449,-34.445,11.378437,CSI
4869116752000,2.070052,-1.66831961376882,3.67182762753763,8.54000109518526,-0.8738427,0.160963,-0.9593639,28.495533,-34.329796,11.038702,CSI
4869121855000,2.075155,-1.72490446856426,3.78499733712852,8.37496183278657,-0.8750645,0.19211712,-0.95447695,29.124739,-34.20494,10.700824,CSI
4869126893000,2.080193,-1.67439048132815,3.93088721676999,8.17478012022696,-0.91232723,0.20861048,-0.9447031,29.715391,-34.0197,10.308134,CSI
4869131720000,2.08502,-1.57724382222339,4.08632173946622,7.96591481075969,-0.93554014,0.22204952,-0.9239337,30.296219,-33.83287,9.916735,CSI
4869136930000,2.09023,-1.40940669155775,4.23686209967083,7.69556745187337,-0.95294976,0.24251351,-0.8918633,30.84587,-33.656223,9.517202,CSI
4869141706000,2.095006,-1.23670710491819,4.36970809560461,7.43430402207377,-0.9804387,0.26053402,-0.88208944,31.393034,-33.466686,9.120607,CSI
4869146692000,2.099992,-1.10972169474703,4.37931206436273,7.37210788977974,-1.0118983,0.33108896,-0.8585711,31.92157,-33.319176,8.740905,CSI
4869151679000,2.104979,-1.00848959317114,4.32649536367155,7.41172032338033,-1.0436633,0.3408628,-0.82619524,32.4506,-33.15901,8.379511,CSI
4869156722000,2.110022,-0.995248403281853,4.19197922548263,7.5137813953668,-1.0818423,0.36254853,-0.8060367,32.9719,-33.04993,8.045505,CSI
4869162483000,2.115783,-1.08045609564672,3.94700704737452,7.70017332320463,-1.0937542,0.38973203,-0.7901542,33.480865,-32.933495,7.7166843,CSI
4869166687000,2.119987,-1.1664291996997,3.86150947987988,7.82025363393393,-1.1374311,0.4972443,-0.7452556,34.012062,-32.81892,7.401155,CSI
4869171768000,2.125068,-1.29794206034034,3.8663803228028,7.94689544820821,-1.1575897,0.5155703,-0.7134906,34.547394,-32.701946,7.104268,CSI
4869176758000,2.130058,-1.37307439752379,3.88698498761897,8.01937807251748,-1.196685,0.5186246,-0.700357,35.097416,-32.544155,6.7762074,CSI
4869181689000,2.134989,-1.38102911845363,3.92675859226817,8.02733295957214,-1.2153164,0.50671273,-0.657291,35.627117,-32.37818,6.4608784,CSI
4869188671000,2.141971,-1.4251539695732,3.95317896974147,7.96688664525012,-1.2342533,0.4783075,-0.6026186,36.134422,-32.17937,6.1241193,CSI
4869191745000,2.145045,-1.47469199449289,3.93741687838458,7.87456577742084,-1.2852604,0.46761733,-0.58246,36.635754,-31.962114,5.792204,CSI
4869196698000,2.149998,-1.55451041916017,3.91202011895365,7.72581325355668,-1.2947289,0.4560109,-0.5421429,37.12553,-31.762304,5.4791775,CSI
4869201683000,2.154983,-1.60117594366567,3.89221266900298,7.642292,-1.3344351,0.4813618,-0.50946164,37.605137,-31.536127,5.1661754,CSI
4869206716000,2.160016,-1.60539883085684,3.87954400742947,7.642292,-1.3680327,0.505491,-0.47861293,38.074284,-31.305494,4.8663716,CSI
4869211738000,2.165038,-1.56918294224476,3.85976186248364,7.6628142669748,-1.3888022,0.49632803,-0.44715336,38.487965,-31.050564,4.554491,CSI
4869216681000,2.169981,-1.33682943102094,3.80554600006545,7.78286345710079,-1.4315627,0.5213735,-0.40500367,38.881874,-30.77877,4.239619,CSI
4869221787000,2.175087,-1.09681384770942,3.74954231940445,7.90687138038285,-1.4902058,0.57879484,-0.32498032,39.257324,-30.499027,3.9308841,CSI
4869226713000,2.180013,-0.854716186067148,3.68139601088647,7.79109892073003,-1.5677856,0.66156703,-0.25900686,39.617805,-30.201923,3.6185694,CSI
4869232280000,2.18558,-0.576708451399689,3.59848147651633,7.5618645688958,-1.6447546,0.75441855,-0.1731803,39.94358,-29.887758,3.3089051,CSI
4869236963000,2.190263,-0.525197640356745,3.59478313154961,7.46642880936455,-1.6832392,0.8167268,-0.093767814,40.37009,-29.638271,3.0548594,CSI
4869241703000,2.195003,-0.585005367386237,3.63158786003851,7.42962398479781,-1.7192802,0.8582657,-0.02321288,40.762226,-29.363718,2.796658,CSI
4869246745000,2.200045,-0.674847560970294,3.7678631963614,7.04562080534364,-1.7559321,0.8570439,0.030543262,41.195038,-29.145416,2.5945802,CSI
4869251722000,2.205022,-0.783764582408156,3.97731891596941,6.40049679876955,-1.7968601,0.80573124,0.07696902,41.603664,-28.90905,2.403873,CSI
4869256800000,2.2101,-1.04157935436735,4.12465816076531,6.08046983709184,-1.8298469,0.8356637,0.12950343,41.972313,-28.668064,2.1910436,CSI
4869261788000,2.215088,-1.63625604367347,4.11490942015306,6.55328668341837,-1.8365663,0.8338311,0.106901415,42.351845,-28.419891,1.9954485,CSI
4869266659000,2.219959,-2.13831552042629,4.01077678436945,6.96868338898757,-1.8460348,0.77274454,0.14446963,42.54453,-28.177113,1.7975457,CSI
4869271790000,2.22509,-2.4922841425893,3.6907504309848,7.30325633496152,-1.8753563,0.7147123,0.17012598,42.74481,-27.929792,1.5981025,CSI
4869276707000,2.230007,-2.77317389767352,3.40523194663578,7.50000507288348,-1.9110919,0.5561928,0.19303341,42.894066,-27.568806,1.3403198,CSI
4869281687000,2.234987,-2.92050079660199,3.16582566977507,7.40792579109953,-1.9608774,0.6065892,0.25137106,43.009712,-27.201958,1.0570138,CSI
4869286837000,2.240137,-3.04369547406043,2.61738997951363,7.66936378297716,-1.9547688,0.6441574,0.29443705,43.162838,-26.7554,0.7544323,CSI
4869291709000,2.245009,-3.07425850781135,1.2114930997298,8.9682903238762,-1.9770653,0.6808093,0.30634892,43.3051,-26.295664,0.44753644,CSI
4869296788000,2.250088,-3.10612009410464,-0.254137083443871,10.3224052461312,-1.9801197,0.66339964,0.364992,43.422077,-25.809563,0.12707064,CSI
4869301718000,2.255018,-3.40418816791377,-0.491422493825267,10.1913114735206,-2.0250182,0.5329799,0.40591997,43.552784,-25.315033,-0.16942051,CSI
4869306692000,2.259992,-3.77444702655197,-0.422307493132967,9.68282242791999,-2.1636846,0.7104363,0.54000485,43.611355,-24.803032,-0.5177481,CSI
4869311696000,2.264996,-3.89667841276725,0.0169091129030297,9.11911409757828,-2.1615467,0.73456544,0.5992588,44.03111,-24.056501,-0.82922745,CSI
4869316658000,2.269958,-3.97371978530753,0.517678396421117,8.55093367342183,-2.1911736,0.6429357,0.6197228,44.42061,-23.27943,-1.1408942,CSI
4869321879000,2.275179,-4.67162933119825,-0.0756672962824129,9.37382751442089,-2.2644775,0.6160576,0.6783658,44.647633,-22.45933,-1.5228263,CSI
4869326735000,2.280035,-5.40362474169775,-0.778044305529979,10.3300757971977,-2.2540927,0.5510005,0.743423,44.886166,-21.673738,-1.8618954,CSI
4869331681000,2.284981,-5.81917321582249,-1.2414602440221,10.5551520734014,-2.2840252,0.33536503,0.72692966,45.058865,-20.960724,-2.1620507,CSI
4869336837000,2.290137,-6.09192885008894,-1.60205242456699,10.4257087649097,-2.3860397,0.30390546,0.816116,45.17681,-20.24778,-2.4715757,CSI
4869341727000,2.295027,-6.35691688581036,-1.96415986117783,10.2558034954366,-2.3170118,0.1704314,0.80573124,45.41156,-19.35339,-2.8355017,CSI
4869346693000,2.299993,-6.63105511405514,-2.3479534188875,10.0456308680949,-2.3612995,0.06169739,0.7761043,45.625732,-18.425583,-3.182058,CSI
4869351682000,2.304982,-6.64785017870992,-2.62836918530947,9.69871325205071,-2.331978,0.05100725,0.8145888,45.81841,-17.488869,-3.5585434,CSI
4869356728000,2.310028,-6.35505598167412,-2.78602771126025,9.18519714690529,-2.2229385,-0.12308934,0.7076874,46.0786,-16.58596,-3.8686419,CSI
4869361685000,2.314985,-6.24297754907652,-3.08601304807388,8.98121049952507,-2.2122486,-0.06261369,0.72692966,46.255985,-15.599485,-4.266639,CSI
4869366680000,2.31998,-6.51560570343008,-3.70699935572559,9.43559049319261,-2.0576997,-0.06963864,0.72143185,46.483555,-14.70829,-4.60273,CSI
4869371757000,2.325057,-6.94391884877796,-4.30980062446919,9.93901452873455,-1.9428569,-0.025350908,0.7021896,46.679867,-13.824444,-4.9339333,CSI
4869376752000,2.330052,-7.56686751396622,-4.86503779178069,10.4897376716052,-1.9031507,-0.030848695,0.65209866,46.888126,-12.982078,-5.2481055,CSI
4869381753000,2.335053,-8.06380845564354,-5.39886072136127,10.9428221026464,-1.8106046,0.021380283,0.5708536,47.13814,-12.088544,-5.628344,CSI
4869386971000,2.340271,-8.28922255117281,-5.90479001953689,11.1882731403368,-1.7232509,0.04886922,0.49174652,47.400337,-11.226662,-5.9967446,CSI
4869391717000,2.345017,-8.48928627362525,-6.31616870418534,11.3946170023422,-1.6203201,0.04642576,0.4269948,47.70141,-10.278937,-6.453441,CSI
4869396695000,2.349995,-8.68832972800407,-6.64143472196538,11.5742411874745,-1.5164729,0.009162978,0.41691554,48.0026,-9.384997,-6.8982363,CSI
4869401661000,2.354961,-9.02383771047449,-7.05610129612716,11.6633400292573,-1.3658947,0.023518313,0.42852196,48.330727,-8.468049,-7.375803,CSI
4869406718000,2.360018,-9.64147339066017,-7.660112762003,11.5725113015754,-1.2516629,0.005192355,0.47067168,48.64838,-7.6020203,-7.8210535,CSI
4869411704000,2.365004,-10.0358263137626,-8.11222851205608,11.4638600397565,-1.1670581,-0.04642576,0.3943135,49.004612,-6.7388415,-8.280184,CSI
4869417465000,2.370765,-9.55744198210497,-8.01044448620054,11.2552030072872,-1.1157454,-0.013133603,0.46944994,49.29586,-5.9365983,-8.739404,CSI
4869421782000,2.375082,-9.19454788585243,-7.93034179416649,11.0826032259828,-0.9978484,-0.09987647,0.37201694,49.661274,-5.0595703,-9.227388,CSI
4869426753000,2.380053,-8.70417341791045,-7.77522365671642,10.6172478208955,-0.97158116,-0.06811147,0.47158796,49.93346,-4.2165017,-9.737055,CSI
4869431732000,2.385032,-8.60264210373876,-7.77785572399432,10.318169575769,-0.84482664,-0.06780604,0.4859433,50.250454,-3.480772,-10.155415,CSI
4869436848000,2.390148,-10.8703685442499,-8.74245101183152,11.0277038144818,-0.752586,-0.113926366,0.41141775,50.55928,-2.7673223,-10.559634,CSI
4869442072000,2.395372,-12.7971160979682,-9.53576617883726,11.6156568664253,-0.7110472,-0.12064589,0.35918877,50.8405,-2.1226988,-10.9196,CSI
4869446725000,2.400025,-11.1970124863207,-8.60797473375578,10.9747189868236,-0.63194007,0.004581489,0.4428773,51.101604,-1.534438,-11.2984,CSI
4869451931000,2.405231,-9.50767918415079,-7.58117282226389,10.3045099740945,-0.47800204,0.03756821,0.4297437,51.429375,-0.7963989,-11.9018955,CSI
4869456702000,2.410002,-9.03873032912267,-6.76051232596467,10.1917817390704,-0.3885103,0.06383542,0.22235495,51.777145,-0.087784626,-12.518038,CSI
4869461956000,2.415256,-8.50629237492749,-5.88512526436615,10.0616803957942,-0.310625,0.12370021,0.24831672,52.012814,0.38495016,-12.957623,CSI
4869466782000,2.420082,-7.77687154126429,-5.50661498658079,9.85271134332878,-0.24007004,0.17592919,0.23823744,52.320198,0.83859736,-13.395348,CSI
4869471725000,2.425025,-7.02976686227606,-5.11892822671899,9.6386761120116,-0.19700404,0.22815818,0.18692477,52.6089,1.1342878,-13.7964325,CSI
4869476684000,2.429984,-6.05076161967616,-4.45908213053904,9.47196823734372,-0.1423316,0.29077184,0.08307768,52.918945,1.4077781,-14.208706,CSI
4869481695000,2.434995,-4.94586159063333,-3.65581660525381,9.3277081307645,-0.12064589,0.35430184,-0.006414085,53.242878,1.6779692,-14.629218,CSI
4869488269000,2.441569,-3.55111710950019,-2.64953726033957,9.13246861989699,-0.09987647,0.50701815,-0.13927728,53.6329,1.8451395,-14.990015,CSI
4869491711000,2.445011,-3.52596385074399,-2.7344295743037,8.95325184824494,-0.071776666,0.50946164,-0.099571034,54.00002,2.0001452,-15.321233,CSI
4869496818000,2.450118,-3.48864319633728,-2.86038688035101,8.68734247787104,-0.06169739,0.5204572,-0.1133155,54.689053,1.7589488,-15.502275,CSI
4869501699000,2.454999,-3.50485170631149,-2.94163168559495,8.51171301800631,-0.03756821,0.56199604,-0.13194689,55.343166,1.5347432,-15.68532,CSI
4869506755000,2.460055,-3.54979360525339,-3.0045502127158,8.37239285910525,-0.024129177,0.59528816,-0.16035213,55.981976,1.3407267,-15.861994,CSI
4869511724000,2.465024,-3.55492896453635,-3.01671437166002,8.26482434332004,-0.002443461,0.61269784,-0.16890424,56.5811,1.206284,-16.041777,CSI
4869516701000,2.470001,-3.52000471168281,-2.97790973631035,8.1872150726207,0.0009162979,0.6395759,-0.1881465,57.176674,1.0970013,-16.227905,CSI
4869522018000,2.475318,-3.50911182501164,-2.929020967228,8.11328292643179,0.007330383,0.6563747,-0.21533,57.727352,1.0449355,-16.421015,CSI
4869526960000,2.48026,-3.75519393255471,-2.8114892309716,8.1316472542294,0.008246681,0.62980205,-0.23396139,58.271923,1.0086333,-16.604338,CSI
4869531830000,2.48513,-3.9976908697734,-2.69566981462828,8.14974403212789,-0.007941248,0.6178902,-0.24678956,58.81805,0.9798703,-16.788534,CSI
4869536766000,2.490066,-4.18519874751708,-2.60071043612701,8.21292047923205,-0.031154128,0.6230826,-0.24984388,59.357716,0.9667481,-16.965643,CSI
4869541701000,2.495001,-4.30734423376408,-2.53091302842902,8.3263416653129,-0.056505036,0.6102544,-0.24831672,59.89131,0.97149354,-17.130154,CSI
4869546696000,2.499996,-4.36068798893548,-2.47389924873725,8.41752817039931,-0.07452556,0.5644395,-0.23457226,60.337997,1.0153991,-17.332266,CSI
4869551676000,2.504976,-4.23796822147146,-2.45117340102926,8.44934407242924,-0.055283304,0.5467244,-0.2489276,60.790108,1.0648115,-17.533834,CSI
4869557364000,2.510664,-4.13340441222962,-2.43628488777038,8.44778400740192,-0.044898596,0.5198463,-0.24648413,61.2203,1.1158792,-17.728224,CSI
4869561699000,2.514999,-4.12316131242701,-2.44652798757299,8.37266753811991,-0.027488936,0.5170974,-0.2434298,61.651955,1.1667157,-17.919891,CSI
4869566653000,2.519953,-4.11145558776215,-2.45823371223785,8.28682509548483,-0.016187929,0.5183192,-0.23273966,62.10747,1.1944621,-18.077055,CSI
4869571767000,2.525067,-4.1122322452097,-2.55579649658717,8.24209021278783,-0.015271631,0.51251596,-0.20250183,62.551025,1.2256467,-18.227997,CSI
4869576670000,2.52997,-4.11705898864104,-2.6764664431949,8.2131293489926,0.00580322,0.5170974,-0.18112154,62.98919,1.2550741,-18.378824,CSI
4869581748000,2.535048,-4.16493333970178,-2.69440532708715,8.26673821409776,0.014660766,0.5204572,-0.16615535,63.41019,1.3009971,-18.526796,CSI
4869586778000,2.540078,-4.22255004243681,-2.68672315620764,8.33971953935093,0.027488936,0.52198434,-0.15577064,63.822,1.3445504,-18.67238,CSI
4869591681000,2.544981,-4.30574512150593,-2.7020701593605,8.41572276493038,0.03604105,0.50671273,-0.14508049,64.23859,1.410404,-18.809708,CSI
4869596756000,2.550056,-4.45613891211965,-2.77225382362042,8.50595935337803,0.034513887,0.46211955,-0.129198,64.646355,1.4792794,-18.936182,CSI
4869601653000,2.554953,-4.6322573782349,-2.84921104379562,8.58248451094891,0.05589417,0.40133846,-0.11728613,65.05077,1.53641,-19.058847,CSI
4869606710000,2.56001,-4.87098670404778,-2.9456209822732,8.64216660271116,0.06169739,0.355829,-0.1151481,65.4492,1.6023884,-19.170507,CSI
4869611668000,2.564968,-5.06425913761737,-3.02015042752347,8.69883754753521,0.06719518,0.33505958,-0.115453534,65.83768,1.6828895,-19.28741,CSI
4869616740000,2.57004,-5.13552336688185,-3.03440327337637,8.75109789964789,0.10629055,0.2779437,-0.12034045,66.222786,1.7563432,-19.378761,CSI
4869621806000,2.575106,-5.08722195188285,-2.97613080479712,8.83095301128734,0.112399206,0.21624629,-0.121256754,66.57839,1.8785421,-19.50294,CSI
4869626751000,2.580051,-4.64023740167364,-2.67660517299796,9.00145181881872,0.11301007,0.18448131,-0.1441642,66.94003,1.9953958,-19.616491,CSI
4869631712000,2.585012,-4.261679,-2.40715537442604,9.14226438225322,0.13927728,0.19456059,-0.22235495,67.30835,2.116052,-19.735048,CSI
4869636743000,2.590043,-4.261679,-2.30447399491427,9.11892771616778,0.19058995,0.18906279,-0.23915374,67.66259,2.226555,-19.838337,CSI
4869641720000,2.59502,-4.25462009342707,-2.20964175449771,9.10613947281044,0.226631,0.16615535,-0.2742785,68.071884,2.246485,-19.85158,CSI
4869646691000,2.599991,-4.17800475592919,-2.18141509774691,9.19485199102151,0.26511553,0.18387043,-0.31306845,68.48157,2.2593615,-19.875528,CSI
4869651659000,2.604959,-4.1014356558106,-2.15320547579197,9.28351097120108,0.30665436,0.21868975,-0.33261612,68.87664,2.252459,-19.901524,CSI
4869656722000,2.610022,-3.87277501482259,-2.05508375549409,9.32200752918733,0.33353242,0.267559,-0.37018433,69.28363,2.2499917,-19.93645,CSI
4869661724000,2.615024,-3.58948647764212,-1.9317160859214,9.34028458145746,0.34574974,0.29443705,-0.38423425,69.68381,2.2453163,-19.975275,CSI
4869666681000,2.619981,-3.15819687811424,-1.82896929885558,9.51691395229897,0.36163223,0.3399465,-0.3924809,70.099174,2.2205327,-20.01715,CSI
4869671765000,2.625065,-2.62565117339477,-1.73528071457363,9.7930486782459,0.36041048,0.42730024,-0.46609017,70.532616,2.2115743,-20.07797,CSI
4869676698000,2.629998,-2.43449877803542,-1.69608972408253,9.77742174420303,0.38698313,0.45662177,-0.44135013,70.90938,2.163319,-20.110796,CSI
4869681771000,2.635071,-2.40788766509951,-1.68278414445865,9.61331941026109,0.36651915,0.43401974,-0.43463063,71.30812,2.1438491,-20.15239,CSI
4869686709000,2.640009,-2.41461665861894,-1.73945414085223,9.49262987063968,0.36468655,0.44990227,-0.43157628,71.67524,2.0906208,-20.152328,CSI
4869691726000,2.645026,-2.45859319176243,-1.87627012378725,9.41444926522933,0.36163223,0.4615087,-0.44135013,72.03819,2.049975,-20.14621,CSI
4869696666000,2.649966,-2.480393,-1.97720233003876,9.375694,0.3463606,0.46273044,-0.44257188,72.38688,2.0207155,-20.148054,CSI
4869701689000,2.654989,-2.480393,-2.04500265306554,9.375694,0.34880406,0.462425,-0.44012842,72.73261,1.9933344,-20.153515,CSI
4869706856000,2.660156,-2.52218120882434,-2.09054431776742,9.33842340668676,0.344528,0.4605924,-0.40622538,73.08525,1.9930378,-20.17027,CSI
4869711687000,2.664987,-2.67855521101672,-2.06518631182972,9.19895459468347,0.3136793,0.46181414,-0.37293324,73.4326,2.0037127,-20.188255,CSI
4869716913000,2.670213,-2.84933436575082,-2.04019160376706,9.05235930326594,0.2724459,0.4831944,-0.33628133,73.76534,2.03401,-20.221855,CSI
4869721777000,2.675077,-3.02641993934681,-2.04421627589425,8.96381634836703,0.2321288,0.50915617,-0.30268374,74.08542,2.0728407,-20.257215,CSI
4869726708000,2.680008,-3.20594480846725,-2.04829638655607,8.87405374339036,0.21655174,0.5329799,-0.28008172,74.40372,2.1112115,-20.317907,CSI
4869731686000,2.684986,-3.30949315081967,-2.02117719016393,8.71709195081967,0.18478674,0.56779927,-0.2773328,74.71482,2.1666026,-20.387983,CSI
4869736690000,2.68999,-3.38368989245902,-1.9818966104918,8.53378285245902,0.17104226,0.59864795,-0.2434298,75.0066,2.2189195,-20.462782,CSI
4869742575000,2.695875,-3.46811174788791,-1.95973170372229,8.41512080687997,0.16462818,0.5885687,-0.2003638,75.302475,2.2818468,-20.553616,CSI
4869746687000,2.699987,-3.52575679414471,-1.95561420041824,8.37806336313258,0.15363261,0.6068946,-0.17898351,75.592445,2.3508813,-20.658625,CSI
4869751682000,2.704982,-3.57500458998494,-1.97017559939759,8.30002693335843,0.14080444,0.6637051,-0.15241088,75.86798,2.408932,-20.793013,CSI
4869756718000,2.710018,-3.61132152575301,-1.99741323012048,8.20015495707831,0.13439035,0.68233645,-0.115453534,76.13126,2.467164,-20.91838,CSI
4869761687000,2.714987,-3.69132006800448,-2.0087559300601,8.14511520882143,0.1001819,0.6722572,-0.10629055,76.38817,2.5417535,-21.061623,CSI
4869766687000,2.719987,-3.81813936106754,-2.00387826886014,8.13536019201385,0.082161374,0.6743952,-0.07727446,76.62664,2.6094563,-21.209858,CSI
4869771773000,2.725073,-3.93961233304519,-2.04984870007859,8.10783184548134,0.03970624,0.67103547,-0.038179077,76.854836,2.7030756,-21.365688,CSI
4869776861000,2.730161,-4.05448877721022,-2.14079265166994,8.06475302897839,0.007330383,0.6637051,-0.0061086523,77.07545,2.7971342,-21.516682,CSI
4869781684000,2.734984,-4.15870967125971,-2.22573011294219,8.06663166466782,-0.031154128,0.6630942,0.03023783,77.28054,2.8993797,-21.687515,CSI
4869786738000,2.740038,-4.26311262175151,-2.3134285686799,8.11256877450388,-0.05589417,0.6603453,0.05497787,77.47877,3.0042224,-21.85118,CSI
4869791759000,2.745059,-4.36625033844911,-2.37961224717286,8.14819114054927,-0.06994407,0.64721173,0.07727446,77.677124,3.1290147,-22.034603,CSI
4869796705000,2.750005,-4.4652783015965,-2.352604539675,8.13918888472869,-0.08735373,0.63804877,0.08368854,77.872604,3.259295,-22.21351,CSI
4869801817000,2.755117,-4.56999108827003,-2.32361642471379,8.13425656705433,-0.09315695,0.63713247,0.10934488,78.067245,3.4019148,-22.407185,CSI
4869806702000,2.760002,-4.69326010857714,-2.28536056318372,8.17251233981465,-0.11301007,0.6395759,0.13713925,78.25893,3.5501828,-22.594336,CSI
4869812695000,2.765995,-4.84334276264167,-2.24314364982563,8.22124173931997,-0.14446963,0.60231316,0.1469131,78.438515,3.6992664,-22.783089,CSI
4869816714000,2.770014,-4.93058922589364,-2.2699887127463,8.27493235571055,-0.16523905,0.6032294,0.15699236,78.610054,3.8456266,-22.978971,CSI
4869821795000,2.775095,-5.04089011660854,-2.30392744494333,8.34281044027899,-0.1966986,0.5910121,0.15943582,78.76999,3.993963,-23.176937,CSI
4869826696000,2.779996,-5.14194156760228,-2.31192136394614,8.41828857897463,-0.22388211,0.55955255,0.15515977,78.9281,4.1438017,-23.364906,CSI
4869831782000,2.785082,-5.24283806228897,-2.30183175135163,8.50404996996375,-0.2452624,0.5183192,0.15241088,79.08408,4.29732,-23.54197,CSI
4869836712000,2.790012,-5.36303867073694,-2.29555956664179,8.55880034020522,-0.28130344,0.47891834,0.14660765,79.24455,4.466074,-23.721981,CSI
4869841705000,2.795005,-5.49685475027985,-2.29109902910448,8.59894508488806,-0.30848694,0.46181414,0.16401732,79.39749,4.632493,-23.892801,CSI
4869846694000,2.799994,-5.57935143842771,-2.31495999760858,8.57562061755543,-0.34238997,0.44868052,0.16554448,79.55205,4.8068376,-24.058243,CSI
4869851687000,2.804987,-5.61002009686641,-2.36753513474437,8.48799561773868,-0.35918877,0.48380527,0.18875736,79.694466,4.975593,-24.229574,CSI
4869856739000,2.810039,-5.59817592766911,-2.44147703867156,8.38989146291769,-0.3576616,0.5207626,0.18173242,79.839066,5.149432,-24.41337,CSI
4869861747000,2.815047,-5.49557080330073,-2.55874025660147,8.27262793887531,-0.34391713,0.56169057,0.183565,79.97395,5.316682,-24.604841,CSI
4869866708000,2.820008,-5.37014092988646,-2.66272034717153,8.14639601553123,-0.3387248,0.63346726,0.19425514,80.11925,5.492911,-24.82575,CSI
4869871854000,2.825154,-5.19527479987835,-2.74765517107664,7.99651114878345,-0.32528573,0.6942484,0.20372356,80.26468,5.6594553,-25.050272,CSI
4869876701000,2.830001,-5.00668476184328,-2.79822701391399,7.86185556190287,-0.29749137,0.7476991,0.21380283,80.428276,5.836642,-25.2856,CSI
4869881668000,2.834968,-4.77519883429338,-2.80295121349687,7.73430227182441,-0.25717425,0.7870999,0.21777347,80.592186,6.003035,-25.528692,CSI
4869886688000,2.839988,-4.54172047445079,-2.77077598605439,7.62335077102487,-0.22510384,0.786489,0.20952678,80.772675,6.1786275,-25.756268,CSI
4869891731000,2.845031,-4.30802332536533,-2.67262328592858,7.54389362808478,-0.1826487,0.77488256,0.21319197,80.94922,6.336243,-25.986523,CSI
4869896665000,2.849965,-4.10556938004203,-2.5441938982097,7.50857294787888,-0.14996742,0.77121735,0.2125811,81.14093,6.48423,-26.189903,CSI
4869901685000,2.854985,-3.96336728087491,-2.33463271458706,7.57593191510859,-0.13041973,0.7312057,0.21319197,81.32934,6.622277,-26.374449,CSI
4869906745000,2.860045,-3.82003209725228,-2.12340172073636,7.64382760717677,-0.12095132,0.68875057,0.2134974,81.51794,6.7252803,-26.523268,CSI
4869911701000,2.865001,-3.81580052212891,-2.00632893600672,7.85555424656729,-0.13744467,0.64568454,0.2302962,81.699196,6.8273425,-26.65682,CSI
4869916667000,2.869967,-3.86073296936805,-1.9214567326055,8.12015582187697,-0.1563815,0.5888741,0.23396139,81.88178,6.9288673,-26.770006,CSI
4869921771000,2.875071,-3.95279521326975,-1.88757472473206,8.42031205812897,-0.17654006,0.54092115,0.24251351,82.03333,6.963084,-26.83378,CSI
4869926675000,2.879975,-4.05090474416894,-1.86624651161671,8.71464114078111,-0.20922135,0.49602258,0.25411993,82.179184,7.005719,-26.880812,CSI
4869931701000,2.885001,-4.1152065534744,-1.83976345513758,8.94641128840125,-0.22937989,0.46273044,0.2593123,82.31731,7.0169215,-26.903198,CSI
4869936728000,2.890028,-4.15712829284221,-1.81041845207245,9.13505773667712,-0.25320363,0.43279803,0.26847526,82.44685,7.037395,-26.91444,CSI
4869941717000,2.895017,-4.19334455227345,-1.77430377816225,9.30382570640363,-0.28191432,0.44532076,0.28680122,82.563034,7.048292,-26.92003,CSI
4869946696000,2.899996,-4.21849640753244,-1.72400001511763,9.43461545880367,-0.29779682,0.48075095,0.2959642,82.67718,7.0639963,-26.924942,CSI
4869951697000,2.904997,-4.2439624961039,-1.676738890103,9.46571470891178,-0.3313944,0.52534413,0.30695978,82.777214,7.073234,-26.938322,CSI
4869956708000,2.910008,-4.26975157506494,-1.63375689734886,9.36255767496641,-0.35888332,0.5635232,0.31337386,82.87545,7.086616,-26.960917,CSI
4869961693000,2.914993,-4.2904096,-1.60916219292165,9.2269647355382,-0.36468655,0.6398814,0.3155119,82.96536,7.0886335,-27.006691,CSI
4869966679000,2.919979,-4.2904096,-1.65966658808885,8.95501841359531,-0.39614612,0.7076874,0.3182608,83.05296,7.105408,-27.061026,CSI
4869971741000,2.925041,-4.2904096,-1.71094080556505,8.67892690102514,-0.43310347,0.77366084,0.3109304,83.12733,7.130138,-27.15302,CSI
4869976705000,2.930005,-4.2904096,-1.7986457250897,8.3362919404453,-0.46120325,0.79076505,0.30665436,83.20001,7.160782,-27.247864,CSI
4869981755000,2.935055,-4.2904096,-1.90098690919128,7.96252415178029,-0.4642576,0.79259765,0.29779682,83.27814,7.196599,-27.353289,CSI
4869988713000,2.942013,-4.36631688565422,-2.06269711031583,7.50146806107465,-0.44226643,0.77579886,0.29657507,83.361015,7.25852,-27.487083,CSI
4869991769000,2.945069,-4.41433441100287,-2.13772460531173,7.30939770898277,-0.3820962,0.7684685,0.29138273,83.44826,7.312544,-27.619062,CSI
4869996731000,2.950031,-4.50426772002336,-2.21238316674779,7.10268132278789,-0.35430184,0.7538077,0.2910773,83.544426,7.406678,-27.782454,CSI
4870001739000,2.955039,-4.60230844830137,-2.25906925104643,6.95795436396379,-0.29993483,0.7431176,0.29779682,83.639984,7.477419,-27.939825,CSI
4870006758000,2.960058,-4.72582837791317,-2.29046303728241,6.895301,-0.24220806,0.7339546,0.29932398,83.74624,7.5816116,-28.128685,CSI
4870011746000,2.965046,-4.86767824148065,-2.3100284494061,6.895301,-0.18112154,0.7302894,0.3051272,83.84918,7.6682224,-28.31128,CSI
4870016676000,2.969976,-5.03055518599211,-2.3500101050451,6.94933920067644,-0.12339478,0.7339546,0.30207285,83.95777,7.75663,-28.521748,CSI
4870021786000,2.975086,-5.21446156075723,-2.405182118292,7.0412923160466,-0.061391957,0.73761976,0.3203988,84.05791,7.823799,-28.727032,CSI
4870026723000,2.980023,-5.416041201998,-2.47854654811189,7.13287457214785,-0.015882496,0.70341134,0.31978795,84.162766,7.886064,-28.941404,CSI
4870031903000,2.985203,-5.65392118801199,-2.57766313132867,7.23199120711289,-0.0027488936,0.6783658,0.32589662,84.26049,7.9369354,-29.15496,CSI
4870036747000,2.990047,-5.80924274611212,-2.64290429566004,7.24903667341772,0.007941248,0.6872234,0.33536503,84.3612,7.9828386,-29.389946,CSI
4870041732000,2.995032,-5.8998888863472,-2.6817526801085,7.18860585316456,0.01985312,0.73364913,0.34269542,84.46147,8.024121,-29.623222,CSI
4870046727000,3.000027,-5.98428438259134,-2.6987074311639,7.09433952824915,0.03573562,0.77946407,0.35002577,84.56877,8.075983,-29.880861,CSI
4870051740000,3.00504,-6.05137546627071,-2.65557741663007,6.90744264848273,0.03481932,0.7877107,0.37232238,84.669266,8.124948,-30.136015,CSI
4870056723000,3.010023,-6.09509761962854,-2.63336924065006,6.72551377511608,0.030848695,0.7669413,0.38789943,84.7754,8.181509,-30.412552,CSI
4870061747000,3.015047,-6.07478785044323,-2.66891133672436,6.55288057798649,0.023518313,0.7443393,0.39095375,84.87871,8.236673,-30.684916,CSI
4870066678000,3.019978,-6.06560113072954,-2.74332247004958,6.37902056157037,0.015271631,0.7449502,0.40194935,84.96817,8.286886,-30.97967,CSI
4870071792000,3.025092,-6.07551219002327,-2.89198923912779,6.19070914135384,0.03634648,0.7150178,0.41508293,85.05299,8.32991,-31.253618,CSI
4870076712000,3.030012,-6.12608829311651,-3.03871647619884,6.02438996803104,0.04062254,0.6951646,0.44043383,85.13845,8.38815,-31.539814,CSI
4870081791000,3.035091,-6.24293734483045,-3.19601314843389,5.87608204176291,0.06719518,0.6927212,0.46914452,85.21782,8.432247,-31.817667,CSI
4870086686000,3.039986,-6.35063770080049,-3.31727864384236,5.75042456662562,0.09468412,0.66523224,0.5183192,85.30678,8.504983,-32.097145,CSI
4870091713000,3.045013,-6.44380599090429,-3.33421832491203,5.68266557702322,0.13194689,0.6337727,0.54305923,85.39406,8.566897,-32.369648,CSI
4870097138000,3.050438,-6.54600430664747,-3.34806029842973,5.61323170986653,0.16187929,0.57360244,0.5864306,85.488625,8.650117,-32.657696,CSI
4870101700000,3.055,-6.6717785630725,-3.25277678168891,5.64372256894356,0.18478674,0.50579643,0.65301496,85.56468,8.716891,-32.932114,CSI
4870106708000,3.060008,-6.80984903132688,-3.14817795401727,5.67719434059147,0.1777618,0.38545597,0.6933321,85.63254,8.783779,-33.19632,CSI
4870111697000,3.064997,-6.92367201580384,-3.0553093631547,5.74260111106168,0.14446963,0.28130344,0.7281514,85.67649,8.840375,-33.444633,CSI
4870116705000,3.070005,-7.02550946793731,-2.96801997379171,5.82504099425683,0.09682214,0.2275473,0.75808376,85.70391,8.894987,-33.671215,CSI
4870121779000,3.075079,-7.17182682280718,-2.85794831284805,5.98094384168013,0.03970624,0.20219639,0.795652,85.68615,8.92453,-33.89676,CSI
4870126888000,3.080188,-7.33921306311888,-2.73705829355697,6.17157804684976,-0.047036625,0.19028452,0.81092364,85.663025,8.969629,-34.107914,CSI
4870131717000,3.085017,-7.4907970631059,-2.60778496024278,6.40835972656342,-0.15332718,0.2125811,0.820392,85.61025,9.00387,-34.32868,CSI
4870137624000,3.090924,-7.67076092678108,-2.43729301681038,6.74460787583926,-0.25228736,0.26145032,0.8179486,85.55721,9.054312,-34.550087,CSI
4870141740000,3.09504,-7.79480430859056,-2.21687407489798,7.0244950587946,-0.3726278,0.269697,0.8002335,85.474365,9.098655,-34.76969,CSI
4870146697000,3.099997,-7.9388550812912,-1.55125940131841,7.54109137865439,-0.4810564,0.28069258,0.7706065,85.39976,9.163088,-34.998417,CSI
4870151657000,3.104957,-8.08467493133633,-1.01729080555995,8.03156731037213,-0.5671884,0.29016098,0.7263188,85.29337,9.20144,-35.221024,CSI
4870156715000,3.110015,-8.23808602476467,-0.842572837072227,8.45770881631037,-0.61086524,0.29260445,0.6963864,85.1924,9.254756,-35.4386,CSI
4870162055000,3.115355,-8.40510402593933,-0.743329085660117,8.81412284686315,-0.68477994,0.30634892,0.5815437,85.00267,9.205558,-35.630196,CSI
4870166740000,3.12004,-8.61389700206825,-1.70609771613237,7.97508351602896,-0.766025,0.32436943,0.52534413,84.805504,9.1640835,-35.819458,CSI
4870171760000,3.12506,-8.83761967873147,-2.73770892743881,7.07604884350224,-0.7648033,0.42913285,0.4175264,84.62654,9.089108,-36.002716,CSI
4870176993000,3.130293,-8.67695615846786,-3.48357743795969,6.13135921912313,-0.68630713,0.55771995,0.31642818,84.470604,9.025529,-36.189465,CSI
4870181717000,3.135017,-8.38310025513421,-4.03239654224854,5.2757200375394,-0.51893,0.66798115,0.2574797,84.34567,8.954053,-36.391014,CSI
4870186770000,3.14007,-7.97682029194957,-4.36405156935015,4.74557246750727,-0.32925636,0.7602218,0.2321288,84.489815,9.134813,-36.73593,CSI
4870191768000,3.145068,-7.51256377982541,-4.5188037400582,4.48249366957646,-0.16157386,0.7675522,0.2275473,84.64712,9.283117,-37.077633,CSI
4870196750000,3.15005,-7.17815372271213,-4.30871854007447,4.6473993686067,-0.024740042,0.6985244,0.21288654,84.95475,9.549911,-37.45737,CSI
4870201737000,3.155037,-6.88802134038801,-3.97179064373898,4.96092950793651,0.040011674,0.5467244,0.19120082,85.25997,9.791783,-37.80753,CSI
4870206702000,3.160002,-6.7878886627361,-3.63614371067961,5.24286315304501,0.061086524,0.34574974,0.16554448,85.59731,10.055751,-38.08418,CSI
4870211842000,3.165142,-6.77051006414828,-3.28857241941748,5.52092036751986,0.04642576,0.14721853,0.15271631,85.92487,10.310985,-38.312946,CSI
4870216687000,3.169987,-6.81904652946836,-3.00917583029161,5.73127840898631,0.021991149,-0.020158553,0.14935656,86.17365,10.486854,-38.421635,CSI
4870222739000,3.176039,-6.98576004063678,-2.73898482453878,5.90948921946042,0.026572637,-0.09743301,0.13103059,86.42146,10.66204,-38.495956,CSI
4870226720000,3.18002,-7.06691684151552,-2.69006058308803,5.93465831246795,0.03390302,-0.11453723,0.13988814,86.57166,10.747415,-38.510544,CSI
4870231694000,3.184994,-7.134766669661,-2.78052692615136,5.85776200115848,0.06872234,-0.083383106,0.14508049,86.7258,10.828317,-38.515633,CSI
4870236689000,3.189989,-7.17840334537055,-2.82750380835463,5.89738903852959,0.10445796,-0.028710667,0.12492194,86.834564,10.860403,-38.531036,CSI
4870241709000,3.195009,-7.16422739628465,-2.77079976530372,6.21398653410655,0.15821409,-0.04642576,0.15088372,86.920746,10.871277,-38.53827,CSI
4870246675000,3.199975,-7.13118386217671,-2.73803421020656,6.51218376167332,0.19333886,-0.07819075,0.15882497,87.04277,10.904294,-38.5753,CSI
4870251685000,3.204985,-7.04373570795001,-2.77134766646416,6.77036355858358,0.23335053,-0.089186326,0.16401732,87.15602,10.9200945,-38.613785,CSI
4870257090000,3.21039,-6.93753044528039,-2.84576383672945,7.00888608272688,0.258396,-0.1151481,0.16584991,87.244286,10.905517,-38.597496,CSI
4870261701000,3.215001,-6.57363761879281,-3.7956665510274,6.29055159803082,0.33353242,-0.12339478,0.16890424,87.330284,10.870884,-38.58395,CSI
4870266702000,3.220002,-6.22955778404113,-4.68318195831918,5.60143498268216,0.36041048,0.07666359,0.06505715,87.472565,10.855758,-38.55595,CSI
4870271749000,3.225049,-6.38512563665624,-4.16030025926688,5.80021652627626,0.559858,-0.047036625,0.19730948,87.499504,10.744247,-38.45513,CSI
4870276670000,3.22997,-6.53680968712561,-3.65047247225749,5.99403542384444,0.49174652,-0.03145956,0.17989981,87.84721,10.952934,-38.445454,CSI
4870281683000,3.234983,-6.60020836006994,-3.18901178947656,6.08618265339307,0.4166101,0.02687807,0.15149458,88.14188,11.09542,-38.42255,CSI
4870287046000,3.240346,-6.64594807066329,-2.72184850241699,6.14186999773358,0.40530908,0.12095132,0.116675265,88.44678,11.241265,-38.412945,CSI
4870291727000,3.245027,-6.64239560749663,-2.45541079732942,5.98200733758618,0.35705075,0.22540927,0.086132,88.6461,11.294062,-38.43391,CSI
4870296685000,3.249985,-6.63863292593708,-2.17320653716618,5.81268474219827,0.28405234,0.29443705,0.046731193,88.78395,11.28313,-38.47888,CSI
4870301681000,3.254981,-6.64424573344566,-1.925024853254,5.66177073879528,0.18570304,0.3051272,0.0125227375,88.93402,11.294862,-38.53321,CSI
4870306703000,3.260003,-6.65943992771693,-1.71230597479992,5.53008751023589,0.10995574,0.2602286,-0.02321288,89.098625,11.32639,-38.58623,CSI
4870311714000,3.265014,-6.66832003701909,-1.48207782236178,5.51228144422906,0.052839845,0.19547687,-0.056199603,89.21204,11.322058,-38.67341,CSI
4870316684000,3.269984,-6.67302745428741,-1.24199939421422,5.56877045144892,0.017715093,0.10903945,-0.080634214,89.32812,11.33548,-38.737644,CSI
4870321754000,3.275054,-6.73345817172524,-1.09715000903026,5.75750382939297,-0.00061086525,0.034208454,-0.09621128,89.411415,11.331167,-38.806854,CSI
4870326804000,3.280104,-6.83343768450479,-1.02443755413456,6.03926478785943,0.015882496,-0.018325957,-0.10354166,89.49382,11.330385,-38.855507,CSI
4870331685000,3.284985,-6.85486072741224,-0.990526203011702,6.27920719627854,0.028099801,-0.052534413,-0.10903945,89.525085,11.289183,-38.88902,CSI
4870336708000,3.290008,-6.78565259428352,-0.99975395409553,6.48683154748705,0.05497787,-0.09621128,-0.10629055,89.55001,11.24209,-38.904644,CSI
4870341717000,3.295017,-6.67816396428424,-1.01834631476968,6.70156670039248,0.087659165,-0.1563815,-0.10873401,89.548454,11.164097,-38.887638,CSI
4870346728000,3.300028,-6.50468445888246,-1.05304223655237,6.92956828726503,0.106595986,-0.19822577,-0.09407325,89.537796,11.081723,-38.865124,CSI
4870351686000,3.304986,-6.31709723856297,-1.09825566649623,7.09292159795479,0.093462385,-0.2678644,-0.08979719,89.51914,10.998364,-38.777996,CSI
4870356722000,3.310022,-6.1051119503319,-1.15882287234482,7.17512006813778,0.08368854,-0.33322698,-0.076358154,89.48936,10.9084835,-38.68439,CSI
4870361750000,3.31505,-5.90957358782474,-1.2199218395347,7.25564733105855,0.052839845,-0.355829,-0.046120327,89.4572,10.818614,-38.530323,CSI
4870366683000,3.319983,-5.77768326250485,-1.28220338417216,7.32891969150834,-0.00030543262,-0.36560285,-0.019242255,89.41759,10.7371,-38.36868,CSI
4870371756000,3.325056,-5.64204985071733,-1.34625249747964,7.40427154323381,-0.041233405,-0.37507126,0.013133603,89.38413,10.662456,-38.14905,CSI
4870376755000,3.330055,-5.59880038885723,-1.39623764985752,7.45538355542891,-0.076052725,-0.3549127,0.048258353,89.34201,10.595664,-37.947514,CSI
4870381694000,3.334994,-5.60809582271789,-1.43806710223052,7.49256529087157,-0.118202426,-0.33628133,0.08368854,89.28784,10.536131,-37.754883,CSI
4870387073000,3.340373,-5.65494093316353,-1.46909090157922,7.48138379684157,-0.1386664,-0.29016098,0.11178834,89.24329,10.489279,-37.55217,CSI
4870391726000,3.345026,-5.7154755229241,-1.48800788680591,7.44354982638818,-0.16615535,-0.22785273,0.13164146,89.192505,10.450078,-37.371056,CSI
4870396682000,3.349982,-5.80620311535344,-1.50746005604683,7.41927591243584,-0.16676621,-0.16340645,0.16462818,89.137985,10.410103,-37.214115,CSI
4870401678000,3.354978,-5.98715954002702,-1.52469407409275,7.44943528655561,-0.18509217,-0.10995574,0.1908954,89.08354,10.379018,-37.079796,CSI
4870406959000,3.360259,-6.1735188103808,-1.53379290456442,7.48781138732394,-0.20311269,-0.08093964,0.21777347,89.03272,10.342344,-36.97872,CSI
4870411692000,3.364992,-6.26809774613111,-1.40768742371761,7.61785778403756,-0.22449298,-0.05375614,0.23884831,88.97923,10.308256,-36.89775,CSI
4870416654000,3.369954,-6.36725275969397,-1.2754804945053,7.75419630516432,-0.25167647,-0.037873644,0.25045475,88.925934,10.275322,-36.84158,CSI
4870421786000,3.375086,-6.35243959211284,-1.21815140465879,7.77481289351346,-0.28985557,-0.028099801,0.26847526,88.86524,10.246051,-36.795345,CSI
4870427095000,3.380395,-6.28678328878514,-1.19289898030198,7.74450987881196,-0.3182608,0.0015271631,0.29779682,88.79995,10.217612,-36.762497,CSI
4870431685000,3.384985,-6.15388251691341,-1.21428242678331,7.70238223095559,-0.33475417,0.036957346,0.3381139,88.68988,10.156697,-36.73704,CSI
4870436731000,3.390031,-5.98044291712876,-1.25330627561238,7.65035043251682,-0.35002577,0.087964594,0.37659842,88.57506,10.098465,-36.727093,CSI
4870441705000,3.395005,-5.92152255959996,-1.30323136904254,7.52777872120012,-0.3549127,0.15393804,0.43066,88.4422,10.031568,-36.72854,CSI
4870446750000,3.40005,-5.99020058665854,-1.36700377517514,7.32174464002437,-0.35216382,0.1704314,0.44898596,88.30992,9.967028,-36.730774,CSI
4870451729000,3.405029,-6.07649061557885,-1.47379703463554,7.21862209809433,-0.33658674,0.22021692,0.46120325,88.19037,9.8976345,-36.744637,CSI
4870456753000,3.410053,-6.18193319783706,-1.62508415543592,7.21403764424011,-0.3203988,0.27977628,0.49205196,88.060905,9.822363,-36.768097,CSI
4870462402000,3.415702,-6.37679794565305,-1.77930718463405,7.31542964128589,-0.2846632,0.3222314,0.5204572,87.943016,9.761632,-36.828053,CSI
4870466744000,3.420044,-6.59118410786494,-1.88439842082491,7.48357543483623,-0.2724459,0.3371976,0.54305923,87.819786,9.698872,-36.896168,CSI
4870471755000,3.425055,-6.82281637606425,-1.96270070006144,7.66666447594137,-0.26145032,0.33322698,0.5580254,87.71897,9.657197,-36.980175,CSI
4870476776000,3.430076,-7.03384574922321,-1.98380361974897,7.83548800972527,-0.2556471,0.2864958,0.5546656,87.61557,9.61355,-37.053608,CSI
4870481710000,3.43501,-7.23909022396157,-1.98437122703804,7.99664380987966,-0.25961772,0.2489276,0.5647449,87.516556,9.5810175,-37.13563,CSI
4870487225000,3.440525,-7.45437320518245,-1.85110080244565,8.14529136471273,-0.28221974,0.18112154,0.57726765,87.41314,9.551695,-37.1934,CSI
4870491738000,3.445038,-7.62685750734068,-1.73883078794399,8.26893187027695,-0.29657507,0.10567969,0.5815437,87.3015,9.518388,-37.246647,CSI
4870496744000,3.450044,-7.77986742032328,-1.58088501977762,8.42687830845259,-0.30268374,0.06536258,0.5946773,87.18121,9.484585,-37.29013,CSI
4870501759000,3.455059,-7.93971896031002,-1.43111918778107,8.54532547421299,-0.3191771,0.0030543262,0.61117065,87.01856,9.428274,-37.318684,CSI
4870506730000,3.46003,-8.13559215183236,-1.33090495031098,8.43600009912927,-0.36010507,-0.071776666,0.64476824,86.843506,9.374139,-37.332844,CSI
4870511788000,3.465088,-8.33017137453215,-1.24435723184729,8.31929223890876,-0.4147775,-0.12705997,0.63713247,86.636566,9.301651,-37.33721,CSI
4870516750000,3.47005,-8.45269682758047,-1.38269241012227,8.12562335250769,-0.45540005,-0.19242255,0.6264423,86.41613,9.231082,-37.31905,CSI
4870521737000,3.475037,-8.57583959951759,-1.52172456128254,7.93097870589703,-0.47983465,-0.25167647,0.6105598,86.17397,9.1605,-37.325558,CSI
4870526792000,3.480092,-8.54231553089027,-1.45705011320097,7.76904969352624,-0.47861293,-0.29565877,0.6096435,85.93031,9.093207,-37.31765,CSI
4870531705000,3.485005,-8.42803029929243,-1.28810631679164,7.62991938616538,-0.47555858,-0.33261612,0.6258314,85.686066,9.03126,-37.295086,CSI
4870536773000,3.490073,-8.27677871469687,-1.21107351448333,7.54693170985052,-0.47616947,-0.35063666,0.64843345,85.475784,9.006209,-37.302048,CSI
4870541749000,3.495049,-8.11750328845975,-1.1668304483242,7.48499148190512,-0.4810564,-0.4025602,0.66553766,85.259125,8.978961,-37.289616,CSI
4870546750000,3.50005,-7.95802796927548,-1.15221886933776,7.55639874419763,-0.50610185,-0.4334089,0.679893,85.00999,8.930619,-37.282677,CSI
4870551710000,3.50501,-7.80025064729085,-1.15714942030309,7.71417658102553,-0.50976706,-0.51159966,0.6817256,84.7555,8.877801,-37.248207,CSI
4870556717000,3.510017,-7.71286902508346,-1.12112839468555,7.91165633691239,-0.52839845,-0.6032294,0.6985244,84.483536,8.82565,-37.19038,CSI
4870561713000,3.515013,-7.6610644313814,-1.06500690176847,8.12750787905802,-0.589485,-0.6942484,0.69913524,84.21484,8.786471,-37.111103,CSI
4870566687000,3.519987,-7.60579893140945,-0.987192120493517,8.20974210372229,-0.62949663,-0.77763146,0.70738196,83.93723,8.738885,-36.976814,CSI
4870571760000,3.52506,-7.54484124571309,-0.880516488780845,8.12846563148264,-0.6606508,-0.84421575,0.73792523,83.65066,8.698952,-36.826363,CSI
4870576745000,3.530045,-7.58026291473029,-0.811453564834025,7.96202983080913,-0.679893,-0.8958339,0.7528914,83.34956,8.651594,-36.630604,CSI
4870581686000,3.534986,-7.69316117686722,-0.772184659802905,7.72641665689834,-0.68203104,-0.9462303,0.7770206,83.035355,8.600427,-36.424225,CSI
4870586702000,3.540002,-7.78041378409132,-0.772450385618771,7.52947759599565,-0.6441574,-0.9786061,0.7974846,82.69915,8.533221,-36.2156,CSI
4870591718000,3.545018,-7.85004557071933,-0.798562332870085,7.35975002520384,-0.61208695,-0.9786061,0.80573124,82.3632,8.465727,-36.008236,CSI
4870596700000,3.55,-7.78020703866459,-0.751300056661464,7.26836747347493,-0.56413406,-0.9425651,0.79045963,82.022964,8.391886,-35.84156,CSI
4870602180000,3.55548,-7.47750785809866,-0.580364105246658,7.29329554241705,-0.5357288,-0.9129381,0.79259765,81.67877,8.311038,-35.67843,CSI
4870609942000,3.563242,-7.03928746766316,-0.331454299246316,7.33874112572632,-0.5390886,-0.8582657,0.7825184,81.35436,8.2468815,-35.557423,CSI
4870611719000,3.565019,-6.90851771967368,-0.252634153007368,7.38173393854737,-0.57910025,-0.82863873,0.7742717,81.033394,8.184196,-35.44071,CSI
4870616704000,3.570004,-6.54167067762105,-0.0315207996021053,7.50234123844211,-0.6068946,-0.77366084,0.75777835,80.68916,8.088367,-35.30285,CSI
4870621748000,3.575048,-6.30788097083296,0.125194019599211,7.58275548422846,-0.7012733,-0.7984009,0.7696902,80.33983,8.014352,-35.154922,CSI
4870626701000,3.580001,-6.18454332151887,0.227266485447862,7.62953884077827,-0.7602218,-0.7476991,0.8127562,79.99774,7.9362397,-35.04707,CSI
4870631695000,3.584995,-6.07450510776355,0.274009905737931,7.69651461501478,-0.81122905,-0.6731735,0.8304713,79.634964,7.8421965,-34.89033,CSI
4870636691000,3.589991,-5.99436941542857,0.2033019312,7.80493342628571,-0.83291477,-0.625526,0.84757555,79.26382,7.7479916,-34.746017,CSI
4870641751000,3.595051,-5.89846481993831,0.156129297465924,7.89476370649687,-0.8399397,-0.5656612,0.8677341,78.87289,7.6437325,-34.60699,CSI
4870646749000,3.600049,-5.76988558869764,0.165653697304746,7.9376233839419,-0.8594874,-0.535118,0.88453287,78.48314,7.5449905,-34.47681,CSI
4870651689000,3.604989,-5.6412088327983,0.178906267657126,7.87004684645136,-0.8717047,-0.55863625,0.9184359,78.094086,7.455267,-34.32665,CSI
4870656727000,3.610027,-5.50591666022046,0.202232485326823,7.52015380061884,-0.89980453,-0.6722572,0.9260717,77.70999,7.374767,-34.162384,CSI
4870661690000,3.61499,-5.44829043795814,0.16245555531308,7.14124733839089,-0.9233228,-0.795652,0.981355,77.2906,7.2906084,-33.972786,CSI
4870666701000,3.620001,-5.66867796193588,-0.10879060046984,6.63266057778857,-0.9251554,-0.9636399,0.99296147,76.88079,7.2127504,-33.74177,CSI
4870672327000,3.625627,-5.93136580094507,-0.423981587190392,6.04316284703682,-0.8961393,-1.1282681,1.0002918,76.44727,7.139701,-33.491745,CSI
4870676718000,3.630018,-6.29980519610159,-0.784141375339634,5.38493984347312,-0.81489426,-1.2470814,0.9605856,76.02566,7.058552,-33.21187,CSI
4870682210000,3.63551,-6.75067318060523,-1.23374627601312,4.56871428147286,-0.7357872,-1.2174544,0.9098838,75.65338,7.0498276,-33.001797,CSI
4870686742000,3.640042,-6.7093422133425,-1.56898619462491,4.18755111918315,-0.6780604,-1.1652255,0.8399397,75.30063,7.0345087,-32.76762,CSI
4870692010000,3.64531,-6.64770877723988,-1.9450536482659,3.79979869465318,-0.6426302,-1.1044444,0.75594574,75.0518,7.1110306,-32.642323,CSI
4870696718000,3.650018,-6.46445893435694,-2.15273682904624,3.97490423330925,-0.61758476,-1.0170907,0.68661255,74.826416,7.1829743,-32.54176,CSI
4870701685000,3.654985,-6.27112801473085,-2.37184523153902,4.1596428081828,-0.5907067,-0.9306532,0.6081163,74.69972,7.3320894,-32.47766,CSI
4870706797000,3.660097,-6.15964649234639,-2.61822102352303,4.53739742284249,-0.54519725,-0.8011498,0.5335908,74.60094,7.478525,-32.451946,CSI
4870711721000,3.665021,-6.07127786005523,-2.86007149828385,4.94203172437124,-0.516792,-0.6899723,0.47036624,74.52752,7.6306396,-32.446392,CSI
4870716706000,3.670006,-6.05636253101842,-3.17116600873659,5.10424025974894,-0.48563787,-0.6038403,0.4129449,74.51921,7.8176713,-32.425182,CSI
4870721772000,3.675072,-6.06127405853412,-3.50515013623203,5.20247111777688,-0.45875978,-0.50610185,0.3631594,74.53565,8.004643,-32.438454,CSI
4870726744000,3.680044,-5.73528954659306,-4.03825390392189,5.23553963944962,-0.4016439,-0.42149702,0.28955013,74.61985,8.220232,-32.415863,CSI
4870731748000,3.685048,-5.33649606138255,-4.61867605618357,5.25528187690533,-0.34025195,-0.3662137,0.22082779,74.72226,8.431405,-32.411724,CSI
4870736797000,3.690097,-5.02089542169858,-5.0063973110162,5.27862328622484,-0.30909783,-0.33017266,0.16462818,74.90044,8.702313,-32.40468,CSI
4870741749000,3.695049,-4.83930020913107,-5.09486701540501,5.30656092895434,-0.26236662,-0.30207285,0.12522738,75.097244,8.95816,-32.408974,CSI
4870746740000,3.70004,-4.67698257805888,-5.16150504444044,5.32011323577023,-0.20647246,-0.30298916,0.106901415,75.438354,9.334714,-32.320065,CSI
4870751798000,3.705098,-4.55050857908526,-5.18767198606284,5.30702978772846,-0.17898351,-0.30207285,0.06627888,75.798065,9.708589,-32.240005,CSI
4870756622000,3.709922,-4.42206256425796,-5.19373950404369,5.29431463557399,-0.10751228,-0.28405234,0.019547688,76.18108,10.082275,-32.11943,CSI
4870761627000,3.714927,-4.22572336900536,-5.0477436908413,5.27921168929734,-0.023823744,-0.28099802,-0.034513887,76.573944,10.44511,-31.998707,CSI
4870766614000,3.719914,-4.03842045407443,-4.90313224568702,5.31855938206107,0.046120327,-0.24220806,-0.10629055,76.98832,10.809909,-31.873669,CSI
4870771646000,3.724946,-3.88207731842557,-4.76058394431298,5.57146731793893,0.1160644,-0.15241088,-0.18692477,77.42209,11.156871,-31.766222,CSI
4870776613000,3.729913,-3.74079710002063,-4.62343792863627,5.77849731751599,0.17073683,-0.07513642,-0.22937989,77.83472,11.473772,-31.648138,CSI
4870781606000,3.734906,-3.70626865595214,-4.51491996156385,5.6354508033629,0.24007004,-0.01160644,-0.25289822,78.268555,11.774494,-31.552832,CSI
4870787831000,3.741131,-3.7217340231692,-4.40855825144136,5.60295140193375,0.3313944,0.00061086525,-0.23365596,78.65095,12.031717,-31.426552,CSI
4870791637000,3.744937,-3.80331265174575,-4.37919000376007,5.76284544852283,0.42149702,0.09315695,-0.26633725,79.064896,12.2797575,-31.340675,CSI
4870796604000,3.749904,-3.90977640585497,-4.34086312876455,5.97151432119964,0.48502702,0.11148291,-0.22999077,79.42459,12.493128,-31.24379,CSI
4870801585000,3.754885,-4.01744192547285,-4.15399206797779,6.1321075709043,0.56016344,0.12950343,-0.21135938,79.80422,12.687324,-31.173143,CSI
4870806590000,3.75989,-4.12569112232991,-3.95553484599605,6.2899713558389,0.61666846,0.15577064,-0.18845193,80.16916,12.862917,-31.116573,CSI
4870811600000,3.7649,-4.19603719464513,-3.77728718206545,6.22213232511687,0.6722572,0.13347405,-0.09407325,80.47605,12.991206,-31.058237,CSI
4870816574000,3.769874,-4.25677051678708,-3.60520992923927,6.10066594507012,0.70188415,0.14905111,-0.05100725,80.79398,13.115784,-31.01861,CSI
4870821613000,3.774913,-4.16439065803625,-3.40114833591914,6.11738222615017,0.7443393,0.18112154,-0.004581489,81.02925,13.166655,-30.988136,CSI
4870826559000,3.779859,-4.06061922405895,-3.19832258863772,6.14568357110138,0.7583892,0.17104226,0.054061573,81.24141,13.209573,-30.956997,CSI
4870831558000,3.784858,-3.85898308832188,-2.98322701207066,6.20804521707556,0.7733554,0.17531833,0.10415252,81.42171,13.214953,-30.953394,CSI
4870836547000,3.789847,-3.64798804573111,-2.76754299491658,6.27368816817468,0.77091193,0.18509217,0.17470746,81.57413,13.211096,-30.95575,CSI
4870841582000,3.794882,-3.44428114128121,-2.47748229277528,6.31667831940237,0.77304995,0.13775012,0.20586158,81.67332,13.170847,-30.927887,CSI
4870846548000,3.799848,-3.24474210826852,-2.18060722046664,6.35561273512075,0.72234815,0.11026118,0.28099802,81.73709,13.129118,-30.91797,CSI
4870851560000,3.80486,-3.1774416922004,-1.78853848205712,6.65865307717051,0.6609562,0.090713486,0.34697145,81.74442,13.045243,-30.873314,CSI
4870856814000,3.810114,-3.12014991058924,-1.3683984511244,7.00240391639624,0.5494733,0.086132,0.3930918,81.73233,12.979968,-30.831316,CSI
4870861564000,3.814864,-3.2075642387275,-0.71367296768617,7.45271281890344,0.3830125,0.13041973,0.41508293,81.64886,12.887058,-30.77735,CSI
4870866548000,3.819848,-3.32474299339198,0.023576616356383,7.9507225007365,0.18325958,0.24678956,0.42394048,81.561066,12.826254,-30.746681,CSI
4870871597000,3.824897,-3.71310452984868,0.728983354336861,8.64064573237069,-0.06291912,0.27214047,0.42180246,81.36356,12.727186,-30.67504,CSI
4870876557000,3.829857,-4.1406178250717,1.4148838539907,9.35003610720997,-0.30665436,0.2660318,0.37873647,81.18538,12.681708,-30.625679,CSI
4870881561000,3.834861,-4.81761883604202,1.71093512211547,9.79659811834426,-0.48502702,0.16829337,0.3182608,80.84775,12.525558,-30.5383,CSI
4870886557000,3.839857,-5.54366068558858,1.9257404232199,10.1875439780911,-0.52412236,0.07391469,0.24556783,80.53185,12.403498,-30.4473,CSI
4870891674000,3.844974,-6.40659793770601,1.73064629613586,10.0758250517817,-0.45998153,0.03970624,0.1731803,80.07295,12.1465845,-30.338387,CSI
4870896578000,3.849878,-7.30614368184855,1.29133325194878,9.65743139031181,-0.32650748,0.046120327,0.093462385,79.6451,11.89866,-30.212023,CSI
4870901570000,3.85487,-7.79853610972872,0.572203039818522,8.97496233544434,-0.19333886,0.1731803,0.029321533,79.20187,11.57728,-30.184597,CSI
4870906721000,3.860021,-8.20462138652947,-0.235352921287184,8.20893765861553,-0.1160644,0.37293324,-0.033292156,78.80271,11.259023,-30.174372,CSI
4870911618000,3.864918,-8.22539308096067,-0.896747697427284,7.65308468202581,-0.06536258,0.56413406,-0.076052725,78.549416,11.013121,-30.31556,CSI
4870916625000,3.869925,-8.08297382732487,-1.52535658916837,7.16198397894306,-0.05375614,0.66950834,-0.09743301,78.32508,10.771628,-30.482706,CSI
4870921683000,3.874983,-7.86843267235563,-1.79722396693788,7.04698446437785,-0.089186326,0.71929383,-0.10720685,78.32214,10.715665,-30.784168,CSI
4870926626000,3.879926,-7.63357371308791,-1.93344211917047,7.07047033578091,-0.12675454,0.7113526,-0.11484267,78.32922,10.661431,-31.092497,CSI
4870931605000,3.884905,-7.49410315102975,-1.73320480366133,7.29509417391304,-0.18448131,0.6765333,-0.116675265,78.46688,10.748423,-31.417435,CSI
4870936602000,3.889902,-7.39335539798627,-1.39591800661785,7.60171878434783,-0.24862215,0.6401868,-0.12339478,78.606346,10.845944,-31.73299,CSI
4870941674000,3.894974,-7.26843029981213,-1.07289342080893,7.91015138147862,-0.2687807,0.5626069,-0.13591751,78.759865,10.972452,-31.988548,CSI
4870946611000,3.899911,-7.12735616587468,-0.775070491645486,8.20797376505691,-0.28710666,0.4831944,-0.13897185,78.907936,11.110754,-32.227875,CSI
4870951673000,3.904973,-6.97233197778194,-0.676443811746508,8.25098369982188,-0.2666427,0.41325033,-0.13225232,78.970985,11.163387,-32.40422,CSI
4870956702000,3.910002,-6.81430624871098,-0.658383728424112,8.1922886176057,-0.25717425,0.37690386,-0.11026118,79.025826,11.219819,-32.564575,CSI
4870961691000,3.914991,-6.61705363689906,-0.769337158427504,7.84488856416395,-0.24740042,0.35460728,-0.089186326,79.01269,11.212461,-32.669678,CSI
4870966678000,3.919978,-6.39293775182915,-0.966010215782417,7.30518121107068,-0.23854288,0.38056904,-0.06383542,78.99245,11.199318,-32.777184,CSI
4870971761000,3.925061,-6.26798718994077,-1.12061819058082,7.00055792290791,-0.23182335,0.44104472,-0.040927973,78.96585,11.182535,-32.869827,CSI
4870976675000,3.929975,-6.24101337643294,-1.22851372627054,6.92862753448605,-0.22327125,0.48472157,-0.022602014,78.933815,11.160441,-32.964073,CSI
4870981742000,3.935042,-6.24888946482476,-1.33480758642976,6.92167135979694,-0.21135938,0.5222898,-0.0143553335,78.962204,11.189343,-33.091568,CSI
4870988486000,3.941786,-6.32455381331641,-1.46722042673045,7.03516808005467,-0.20677789,0.5488624,-0.002443461,78.98587,11.21391,-33.226288,CSI
4870991709000,3.945009,-6.38700486900349,-1.51661807681881,7.13356070858837,-0.18448131,0.55833083,0.013439035,79.031944,11.249014,-33.368534,CSI
4870997052000,3.950352,-6.52247252335063,-1.58164260748703,7.35030929503336,-0.16462818,0.5726862,0.025045475,79.077896,11.281742,-33.516243,CSI
4871001727000,3.955027,-6.63211984923033,-1.65294832453489,7.51385293058835,-0.16279559,0.56077427,0.043676864,79.13179,11.319385,-33.65724,CSI
4871006774000,3.960074,-6.74166949073567,-1.74423958918689,7.66448345530267,-0.16340645,0.5366451,0.06078109,79.182274,11.3508415,-33.795517,CSI
4871011746000,3.965046,-6.84400755594959,-1.81963354901329,7.76942781951934,-0.15577064,0.5305365,0.07788532,79.22809,11.380258,-33.929688,CSI
4871016714000,3.970014,-6.93696870788394,-1.87076225780578,7.8019641426143,-0.16340645,0.52106804,0.09621128,79.26542,11.409952,-34.05386,CSI
4871021768000,3.975068,-7.02066164459448,-1.92846938737446,7.824251,-0.16035213,0.5216789,0.11453723,79.30732,11.443077,-34.17566,CSI
4871026758000,3.980058,-7.081158351152,-1.99703213055954,7.824251,-0.14049901,0.54702985,0.12950343,79.34532,11.470955,-34.29926,CSI
4871032196000,3.985496,-7.14329577850578,-2.07119595830376,7.82344923368823,-0.13072516,0.57818395,0.12614368,79.39273,11.502833,-34.436565,CSI
4871036774000,3.990074,-7.12334721328601,-2.12306187793248,7.8074905981436,-0.11728613,0.59773165,0.13713925,79.43133,11.523969,-34.57568,CSI
4871041717000,3.995017,-7.10180816612977,-2.17906302269542,7.79025959432159,-0.09101892,0.6411031,0.1328632,79.4935,11.556789,-34.7364,CSI
4871046698000,3.999998,-7.10415591061555,-2.20083090850972,7.78981513509719,-0.076358154,0.69974613,0.14996742,79.54757,11.583288,-34.90446,CSI
4871051666000,4.004966,-7.11443210595032,-2.21110683559395,7.79495320593952,-0.030848695,0.7452556,0.16249016,79.607,11.597672,-35.07552,CSI
4871056751000,4.010051,-7.14071892925794,-2.20385865691402,7.81648035771495,0.013439035,0.7651087,0.1731803,79.67508,11.616387,-35.254913,CSI
4871061689000,4.014989,-7.16809916957445,-2.19473191014185,7.83929722464537,0.05467244,0.7657196,0.17501289,79.74401,11.624793,-35.43626,CSI
4871066690000,4.01999,-7.18488635566596,-2.18123098560674,7.81968928866807,0.10476339,0.74189585,0.18051068,79.80942,11.619139,-35.613853,CSI
4871071715000,4.025015,-7.19937704747566,-2.16674034423366,7.79070790504868,0.14752395,0.7110472,0.1957823,79.870026,11.604511,-35.78497,CSI
4871076706000,4.030006,-7.2051813042042,-2.2191158033033,7.71407471831832,0.172264,0.68661255,0.2171626,79.91953,11.578795,-35.95431,CSI
4871081683000,4.034983,-7.20927081393393,-2.28454859951952,7.62819394642643,0.19486602,0.6945538,0.24648413,79.961006,11.541209,-36.120674,CSI
4871086725000,4.040025,-7.17049691534418,-2.36563263162071,7.5439920905971,0.20738874,0.73761976,0.27916542,79.99399,11.491959,-36.29829,CSI
4871091742000,4.045042,-7.08948142201944,-2.46094478351518,7.46297674655822,0.22082779,0.8167268,0.3173445,80.018776,11.433279,-36.485462,CSI
4871096689000,4.049989,-7.00529459813688,-2.57829936167026,7.44796610495272,0.24587326,0.9108001,0.36285394,80.05263,11.378664,-36.702618,CSI
4871101706000,4.055006,-6.91532777758637,-2.72224639667634,7.50194641335081,0.27366763,0.9822713,0.43066,80.07056,11.311801,-36.933254,CSI
4871106741000,4.060041,-6.84096273053961,-2.8529866326062,7.60641457152698,0.29565877,1.0338894,0.48563787,80.10555,11.256247,-37.177593,CSI
4871111791000,4.065091,-6.79553265434715,-2.95899024913892,7.80327834044463,0.33444872,1.0641272,0.514654,80.1307,11.185615,-37.430958,CSI
4871116702000,4.070002,-6.76060699005318,-3.01057671532401,7.93083333472523,0.37690386,1.0479393,0.5448918,80.15985,11.133682,-37.657536,CSI
4871121739000,4.075039,-6.73685362113453,-2.99632474357889,7.97833987413827,0.42180246,1.0259482,0.56199604,80.186005,11.07185,-37.88429,CSI
4871126717000,4.080017,-6.74726189702028,-2.92362756114701,7.96447849856399,0.44043383,0.9960158,0.5726862,80.21432,11.016028,-38.06605,CSI
4871131733000,4.085033,-6.80762100698259,-2.76410701122779,7.86100582866631,0.45051312,0.97127575,0.5580254,80.24387,10.955906,-38.236935,CSI
4871136683000,4.089983,-6.88181016557654,-2.58655632146851,7.7455603795759,0.44959682,0.96486163,0.5531385,80.25736,10.883984,-38.40865,CSI
4871141722000,4.095022,-7.0294490912438,-2.30655165308577,7.56228462949678,0.4447099,0.94897914,0.5314528,80.278854,10.818919,-38.563614,CSI
4871146697000,4.099997,-7.153679407735,-2.05239295520143,7.41501366965085,0.43401974,0.87109387,0.4978552,80.267845,10.734877,-38.72445,CSI
4871151682000,4.104982,-7.22206303078782,-1.85578973210385,7.35517804968666,0.39492437,0.763887,0.48899764,80.2521,10.660511,-38.86709,CSI
4871156735000,4.110035,-7.28895469471255,-1.66108971997482,7.27240947482165,0.3539964,0.64660084,0.4783075,80.19628,10.551447,-39.03585,CSI
4871161728000,4.115028,-7.30902045751154,-1.55574381051196,6.77076226195971,0.30818152,0.5195409,0.4700608,80.13335,10.45628,-39.16613,CSI
4871166734000,4.120034,-7.34093663157895,-1.44707662882012,6.26435078316197,0.24617869,0.38698313,0.47250426,80.0205,10.33372,-39.28953,CSI
4871171744000,4.125044,-7.44350978947369,-1.32008136576402,5.73683190400081,0.19486602,0.31520647,0.4569272,79.91273,10.226633,-39.38866,CSI
4871176748000,4.130048,-7.53761879226841,-1.19507370378722,5.25772338598256,0.15699236,0.31398472,0.45020768,79.802216,10.121502,-39.535984,CSI
4871182608000,4.135908,-7.60376187893455,-1.05837825686336,4.9490561853854,0.12522738,0.3417791,0.44532076,79.69415,10.030738,-39.66731,CSI
4871188945000,4.142245,-7.67319441068,-0.91213338353,4.63589830986,0.10934488,0.37751472,0.4654793,79.58729,9.928157,-39.875,CSI
4871191728000,4.145028,-7.68918569566,-0.858828872985,4.64122878457,0.07513642,0.38148534,0.48533243,79.48251,9.838656,-40.078136,CSI
4871196714000,4.150014,-7.71783555082,-0.763328948595,4.65077881939,0.056505036,0.37598756,0.54641896,79.3475,9.7198,-40.337284,CSI
4871201682000,4.154982,-7.64762127616764,-0.615874925145955,4.67920860785029,0.013439035,0.35002577,0.58459806,79.212364,9.615013,-40.588646,CSI
4871206763000,4.160063,-7.51572451251042,-0.433248656563803,4.71979235375313,-0.016798794,0.3182608,0.659429,79.04056,9.493898,-40.839783,CSI
4871211698000,4.164998,-7.39784929318817,-0.360213968453608,4.7799247240871,-0.062002823,0.27030787,0.72204274,78.83592,9.361949,-41.082577,CSI
4871216853000,4.170153,-7.27893512997399,-0.326917982886598,4.85127322201561,-0.081855945,0.2501493,0.75991637,78.61287,9.222527,-41.32388,CSI
