timestamp,rel_time,acc_x,acc_y,acc_z,gyro_x,gyro_y,gyro_z,azimuth,pitch,roll,label
8142107288000,0,1.21664364831065,9.70068881064131,0.460806711008061,-0.086132,0.077579886,0.04795292,178.47896,-87.49158,2.2176907,STD
8142112288000,0.005,1.22286524225789,9.70260313647699,0.461046002736986,-0.09193522,0.0852157,0.044593163,178.67793,-87.4631,2.19426,STD
8142117300000,0.010012,1.2291017680306,9.70452205669467,0.46128586876606,-0.09010262,0.08032878,0.03940081,178.87204,-87.43208,2.17478,STD
8142122284000,0.014996,1.23530345287721,9.70643025668767,0.461524394761453,-0.093462385,0.0842994,0.040927973,179.05609,-87.3948,2.1598632,STD
8142127290000,0.020002,1.24153251273719,9.70834687971435,0.461763973640452,-0.093462385,0.080634214,0.033292156,179.23877,-87.358574,2.1444163,STD
8142132331000,0.025043,1.24780512375479,9.71027690302188,0.462005227561555,-0.0870483,0.08735373,0.032070424,179.4125,-87.31851,2.1343446,STD
8142137255000,0.029967,1.25393214947403,9.71216213110486,0.4622408820562,-0.10323623,0.080634214,0.023823744,179.58672,-87.275734,2.1232636,STD
8142142281000,0.034993,1.2601860957098,9.71408641143488,0.462481418102115,-0.09987647,0.08307768,0.021685716,179.75203,-87.23479,2.1162755,STD
8142147305000,0.040017,1.26643755330798,9.71600992603457,0.462721858431339,-0.10262536,0.094989546,0.01863139,179.91249,-87.19047,2.1093466,STD
8142152340000,0.045052,1.27270269841285,9.7179376521511,0.462962825202367,-0.101098195,0.11484267,0.01863139,180.06601,-87.14634,2.1051142,STD
8142157279000,0.049991,1.27884838891393,9.71982862321158,0.463199197572199,-0.11209377,0.116980694,0.020463986,180.2175,-87.09878,2.102936,STD
8142162285000,0.054997,1.28507744877391,9.72174524623826,0.463438776451199,-0.08674286,0.116675265,0.016798794,180.36061,-87.059425,2.1011512,STD
8142167284000,0.059996,1.29129779840235,9.72365918920877,0.463678020321778,-0.08735373,0.12675454,0.022296581,180.49675,-87.01034,2.1043525,STD
8142172268000,0.06498,1.29749948324896,9.72556738920178,0.46391654631717,-0.094989546,0.12950343,0.02687807,180.63197,-86.96574,2.1081898,STD
8142177248000,0.06996,1.30369619082041,9.72747405773411,0.46415488087918,-0.086437434,0.119729586,0.025045475,180.76498,-86.92464,2.1134737,STD
8142182205000,0.074917,1.3098642790597,9.7293719203676,0.464392114699236,-0.0693332,0.11056661,0.025350908,180.89415,-86.882744,2.1221745,STD
8142187251000,0.079963,1.31614311167126,9.73130385800097,0.464633607912067,-0.063224554,0.099265605,0.028099801,181.02399,-86.84055,2.1326587,STD
8142192228000,0.08494,1.32233608628634,9.7332093779378,0.464871798899039,-0.06291912,0.09101892,0.029932396,181.1529,-86.80112,2.144441,STD
8142197261000,0.089973,1.32859874275363,9.735136338324,0.465112669953375,-0.061391957,0.089491755,0.032070424,181.28046,-86.76293,2.158475,STD
8142202292000,0.095004,1.33485891058334,9.73706253297986,0.465353445291019,-0.055283304,0.07513642,0.029932396,181.41151,-86.72656,2.1733139,STD
8142207247000,0.099959,1.34102451018505,9.73895962988301,0.465590583394384,-0.042455133,0.060170226,0.03390302,181.54059,-86.69074,2.1917012,STD
8142212253000,0.104965,1.34725357004503,9.74087625290969,0.465830162273384,-0.048258353,0.054367006,0.036651913,181.66872,-86.65315,2.2103302,STD
8142217895000,0.110607,1.35427401665509,9.74303637818267,0.466100179060303,-0.048258353,0.03848451,0.032375857,181.80157,-86.62033,2.2294784,STD
8142222253000,0.114965,1.3596967579395,9.74470490458105,0.466308745731234,-0.04184427,0.019547688,0.038179077,181.9344,-86.58547,2.2534182,STD
8142227244000,0.119956,1.36590715301764,9.74661578463022,0.466547606735047,-0.040927973,0.007330383,0.038789943,182.06754,-86.55143,2.2757828,STD
8142232246000,0.124958,1.37213123560245,9.74853087619623,0.466786994180663,-0.03359759,0.008857546,0.041233405,182.19962,-86.518875,2.3013573,STD
8142237261000,0.129973,1.37837149433153,9.75045094500942,0.467027003784775,-0.03176499,0.014660766,0.041233405,182.33156,-86.48581,2.3274345,STD
8142242262000,0.134974,1.38459433259756,9.75236565371026,0.467266343372046,-0.03145956,0.023518313,0.04337143,182.45978,-86.45322,2.355599,STD
8142247264000,0.139976,1.39081841518238,9.75428074527628,0.467505730817663,-0.0290161,0.029932396,0.04550946,182.58478,-86.42156,2.384484,STD
8142252257000,0.144969,1.39703129889809,9.75619239105579,0.467744687538167,-0.023518313,0.028405234,0.047647487,182.70734,-86.39034,2.4146395,STD
8142257250000,0.149962,1.4032441826138,9.75810403683529,0.467983644258672,-0.030543262,0.035124753,0.04886922,182.82364,-86.35686,2.4455364,STD
8142262256000,0.154968,1.40947324247378,9.76002065986197,0.468223223137671,-0.022602014,0.046731193,0.047647487,182.937,-86.327866,2.4768314,STD
8142267263000,0.159975,1.41570354665254,9.76193766575382,0.468462849875017,-0.021685716,0.055283304,0.048563786,183.04736,-86.2954,2.5094998,STD
8142272255000,0.164967,1.42191518604946,9.76384892866816,0.468701758737176,-0.022602014,0.06994407,0.0421497,183.15096,-86.26601,2.5398803,STD
8142277239000,0.169951,1.42811687089607,9.76575712866117,0.468940284732568,-0.029626964,0.07238753,0.03970624,183.25383,-86.2347,2.5720437,STD
8142282259000,0.174971,1.4343633512191,9.76767911180019,0.469180533628409,-0.022296581,0.077579886,0.042455133,183.35013,-86.20657,2.6039312,STD
8142287938000,0.18065,1.44483408229608,9.78440237182135,0.432988251583711,-0.025045475,0.08277224,0.040011674,183.44426,-86.17657,2.6338942,STD
8142292293000,0.185005,1.4540111351223,9.80213077848345,0.392942929922637,-0.03145956,0.09040806,0.03573562,183.5347,-86.14729,2.6642458,STD
8142297349000,0.190061,1.46466536683053,9.82271282764156,0.346451736738162,-0.03481932,0.087659165,0.03390302,183.74133,-86.06772,2.6606429,STD
8142302394000,0.195106,1.47529641884161,9.84325009781614,0.300061691323668,-0.036651913,0.09560041,0.02565634,183.94022,-85.989006,2.6558619,STD
8142307288000,0.2,1.48560927682818,9.86317267467132,0.255060128933474,-0.038789943,0.09010262,0.02321288,184.141,-85.90884,2.6545653,STD
8142312255000,0.204967,1.49607596371401,9.88339242114449,0.209387313160672,-0.04184427,0.0842994,0.013439035,184.33722,-85.831215,2.6507835,STD
8142317298000,0.21001,1.5067028012347,9.9039215496857,0.163015658249811,-0.03726278,0.08368854,0.015577064,184.53072,-85.75357,2.651763,STD
8142322290000,0.215002,1.51722216925043,9.92424306657598,0.117112961181595,-0.03268129,0.06811147,0.009468411,184.72774,-85.67913,2.6500041,STD
8142327292000,0.220004,1.5277626097181,9.94460529163312,0.0711183115952131,-0.028099801,0.07544186,0.014660766,184.91548,-85.604164,2.653692,STD
8142332290000,0.225002,1.538294621205,9.96495123342352,0.0251604430160977,-0.023518313,0.076358154,0.008552114,185.10709,-85.5341,2.6547854,STD
8142337258000,0.22997,1.54876341533603,9.98517505071337,-0.0205215680085214,-0.023518313,0.06414085,0.004276057,185.29756,-85.463806,2.6598704,STD
8142342282000,0.234994,1.55935021519801,10.0056268337376,-0.0667185131348672,-0.022296581,0.061391957,0.006414085,185.4824,-85.39584,2.666702,STD
8142347394000,0.240106,1.57012245263719,10.02643684863,-0.11372464042107,-0.0061086523,0.051923547,0.00061086525,185.67021,-85.33445,2.6722417,STD
8142352323000,0.245035,1.58050906420559,10.0465019040692,-0.159048036624843,-0.014966198,0.03726278,0.006414085,185.85736,-85.266335,2.6836312,STD
8142357385000,0.250097,1.591175939385,10.0671083781274,-0.205594401320218,-0.013133603,0.04153884,0.0076358155,186.03932,-85.20724,2.693634,STD
8142362267000,0.254979,1.60146351042922,10.0869821051824,-0.250485620688614,-0.021685716,0.029932396,0.005192355,186.22725,-85.14437,2.70654,STD
8142367301000,0.260013,1.61207138274315,10.1074745963734,-0.296774518333125,-0.022907447,0.016798794,0.00061086525,186.41174,-85.08497,2.720733,STD
8142372290000,0.265002,1.62258442902329,10.1277839008136,-0.342649629645892,-0.01985312,0.0070249503,0.007330383,186.59572,-85.024345,2.739208,STD
8142377270000,0.269982,1.63307851009667,10.1480565679037,-0.388441983692309,-0.02321288,-0.00061086525,-0.0015271631,186.78052,-84.96625,2.7537332,STD
8142382299000,0.275011,1.64367584618462,10.1685287050113,-0.434684905077738,-0.031154128,-0.014660766,0.0030543262,186.9668,-84.9058,2.7758458,STD
8142387293000,0.280005,1.65419942869073,10.188858363535,-0.480605992649587,-0.02443461,-0.03023783,0.005192355,187.15317,-84.85098,2.7964356,STD
8142392224000,0.284936,1.66459025474953,10.2089315606075,-0.525947779356994,-0.034208454,-0.028099801,0.010995574,187.33554,-84.79022,2.820741,STD
8142397333000,0.290045,1.67535617045312,10.2297293630499,-0.572926320887747,-0.043676864,-0.034208454,0.004276057,187.52214,-84.7339,2.8439913,STD
8142402355000,0.295067,1.68593875582471,10.2501730044407,-0.619104875510459,-0.041233405,-0.027488936,-0.0018325958,187.7016,-84.67834,2.8700182,STD
8142407257000,0.299969,1.69626847177284,10.2701281478294,-0.664179999915186,-0.03176499,-0.024740042,-0.0070249503,187.8813,-84.62434,2.8958867,STD
8142412256000,0.304968,1.70680259050493,10.2904781604365,-0.710147063746118,-0.029321533,-0.02443461,-0.0033597588,188.057,-84.57,2.9236844,STD
8142417259000,0.309971,1.71734513821781,10.3108444563103,-0.756150908584316,-0.014660766,-0.016187929,-0.015577064,188.22751,-84.52522,2.9464216,STD
8142422249000,0.314961,1.72786029174314,10.3311578315672,-0.8020352151489,-0.0027488936,-0.02107485,-0.0070249503,188.3985,-84.477646,2.9775457,STD
8142427375000,0.320087,1.73866203061505,10.3520248378933,-0.849170075960534,0.009773844,-0.015271631,-0.012217305,188.56213,-84.43862,3.001938,STD
8142432262000,0.324974,1.74896013788525,10.3719189190316,-0.894107271588012,0.035124753,-0.008552114,-0.018325957,188.72424,-84.40514,3.0296118,STD
8142437255000,0.329967,1.75948161314617,10.3922445067386,-0.940019163908045,0.044898596,-0.009162978,-0.02107485,188.8844,-84.371826,3.057775,STD
8142442232000,0.334944,1.76996937248396,10.4125049613786,-0.985783932199013,0.07086037,-0.0106901415,-0.014049901,189.04044,-84.348274,3.0877974,STD
8142447263000,0.339975,1.78057092306231,10.4329852401196,-1.03204524408807,0.10140363,-0.02443461,-0.0125227375,189.19801,-84.3297,3.1166894,STD
8142452255000,0.344967,1.79109029107803,10.4533067570099,-1.07794794115629,0.121256754,-0.034208454,-0.021991149,189.3527,-84.31542,3.1452067,STD
8142457248000,0.34996,1.80161176633895,10.4736323447169,-1.12385983347632,0.14446963,-0.047036625,-0.02321288,189.50969,-84.307396,3.1776986,STD
8142462254000,0.354966,1.8121606357874,10.4940108530408,-1.16989126406997,0.16340645,-0.05955936,-0.022907447,189.66728,-84.3038,3.208981,STD
8142467259000,0.359971,1.82270739799067,10.5143852905479,-1.2159134994118,0.2003638,-0.064751714,-0.03176499,189.82437,-84.310875,3.238248,STD
8142472250000,0.364962,1.8332246587612,10.5347027366215,-1.2618070012282,0.21930063,-0.08277224,-0.040927973,189.98637,-84.3172,3.2689075,STD
8142477233000,0.369945,1.84372506157016,10.5549876161617,-1.30762694103007,0.25381452,-0.09865474,-0.05375614,190.14722,-84.33657,3.2968817,STD
8142482292000,0.375004,1.85438561501398,10.5755818777698,-1.35414571997,0.30298916,-0.101098195,-0.06536258,190.30716,-84.363495,3.323577,STD
8142487251000,0.379963,1.87991965326613,10.5675877092669,-1.36445045115126,0.3399465,-0.11453723,-0.08093964,190.47273,-84.39648,3.3470564,STD
8142492226000,0.384938,1.91320597581217,10.5452383180797,-1.35684214956435,0.3811799,-0.13683382,-0.09896017,190.6394,-84.44172,3.3677619,STD
8142497371000,0.390083,1.94762972043515,10.5221252291032,-1.34897386581267,0.4437936,-0.16432275,-0.121256754,190.91228,-84.5363,3.4078717,STD
8142502254000,0.394966,1.98030049691601,10.5001891331903,-1.34150626045611,0.50732356,-0.19761491,-0.14508049,191.19366,-84.638306,3.4435427,STD
8142507247000,0.399959,2.01370725238784,10.4777588798842,-1.33387043134588,0.56596667,-0.21838433,-0.1695151,191.47966,-84.75098,3.473671,STD
8142512240000,0.404952,2.04711400785967,10.4553286265782,-1.32623460223564,0.6392705,-0.24953845,-0.2049453,191.77852,-84.87985,3.4955788,STD
8142517254000,0.409966,2.0806612684116,10.4328040341334,-1.31856665768152,0.6969972,-0.2764165,-0.23732115,192.082,-85.01388,3.5126777,STD
8142522259000,0.414971,2.11414831250062,10.4103198727481,-1.31091247688907,0.73945236,-0.2929099,-0.27091873,192.39136,-85.158066,3.5208964,STD
8142527238000,0.41995,2.14746139791906,10.3879525122012,-1.30329805807475,0.7996226,-0.3191771,-0.2996294,192.71074,-85.31261,3.5232887,STD
8142532264000,0.424976,2.18108894708818,10.3653740116772,-1.29561176183842,0.84940815,-0.36896262,-0.33475417,193.04109,-85.47062,3.5164425,STD
8142537252000,0.429964,2.21446224896951,10.3429662200709,-1.28798357926244,0.9077458,-0.4260785,-0.36957347,193.38016,-85.634995,3.5036535,STD
8142542998000,0.43571,2.25290711517042,10.3171532347922,-1.27919618209292,0.9776898,-0.5158757,-0.40194935,193.74168,-85.8033,3.4845088,STD
8142547317000,0.440029,2.28180432664305,10.2977508186037,-1.27259110580069,1.0543534,-0.5867361,-0.42577308,194.11255,-85.972115,3.460372,STD
8142552256000,0.444968,2.31484978333749,10.2755631516543,-1.26503785926044,1.1319333,-0.61819565,-0.45081854,194.49594,-86.14081,3.4295301,STD
8142557268000,0.44998,2.34838366245322,10.2530475438894,-1.25737297332003,1.1829406,-0.68752885,-0.46486846,194.90805,-86.29767,3.3984928,STD
8142562259000,0.454971,2.38177703648885,10.2306262752632,-1.24974020282349,1.2089024,-0.75625116,-0.47311515,195.32639,-86.441,3.364588,STD
8142567260000,0.459972,2.41523731770547,10.2081600832377,-1.24209213925845,1.2455542,-0.8200866,-0.47983465,195.76024,-86.565506,3.3300178,STD
8142572249000,0.464961,2.4486173103049,10.1857477992914,-1.23446242737562,1.2479976,-0.86070913,-0.48716503,196.20386,-86.66179,3.295761,STD
8142577239000,0.469951,2.48200399362244,10.1633310230051,-1.22683118618594,1.2351695,-0.8680395,-0.4999932,196.65273,-86.73164,3.260808,STD
8142582269000,0.474981,2.51565830566396,10.1407345531214,-1.21913877272219,1.1979067,-0.86070913,-0.50885075,197.1053,-93.22859,3.2277653,STD
8142587253000,0.479965,2.54900484467289,10.1183447308748,-1.21151670737362,1.1707232,-0.84391034,-0.49938235,197.55345,-93.21933,3.1991796,STD
8142592231000,0.484943,2.58231123937322,10.0959818626678,-1.20390381786616,1.1499538,-0.80878556,-0.47128254,197.99046,-93.23829,3.1764143,STD
8142597347000,0.490059,2.61654095317132,10.0729990515495,-1.19607988401317,1.146594,-0.75716746,-0.43890667,198.4142,-93.283676,3.1606123,STD
8142602325000,0.495037,2.64984734787165,10.0506361833425,-1.18846699450571,1.131017,-0.659429,-0.40530908,198.81114,-93.353874,3.1562717,STD
8142607242000,0.499954,2.6827456087679,10.0285473478717,-1.1809473927162,1.087951,-0.4746423,-0.37751472,199.16502,-93.44318,3.1627975,STD
8142612833000,0.505545,2.72015341366336,10.0034306752832,-1.17239703810869,1.0216721,-0.27275133,-0.35094208,199.48311,-93.5475,3.181552,STD
8142617257000,0.509969,2.74975315053645,9.98355656340137,-1.16563138459704,0.947452,-0.1337795,-0.3390302,199.7639,-93.65587,3.206599,STD
8142622248000,0.51496,2.78314652457208,9.96113529477519,-1.1579986141005,0.8509353,-0.07666359,-0.3115413,200.00879,-93.76641,3.245724,STD
8142627234000,0.519946,2.81650644501722,9.9387364878487,-1.15037349013823,0.7602218,-0.08735373,-0.28160888,200.23204,-93.87198,3.2902741,STD
8142632291000,0.525003,2.85034140644743,9.91601872478667,-1.14263978538949,0.6743952,-0.15027285,-0.26328292,200.45282,-93.967865,3.3398154,STD
8142637260000,0.529972,2.88358758468486,9.8936962876391,-1.13504065964369,0.57787853,-0.22815818,-0.24404067,200.68001,-94.05518,3.398179,STD
8142642281000,0.534993,2.91718168026349,9.87114024881481,-1.12736200994161,0.47219884,-0.28130344,-0.24037547,200.91664,-94.128044,3.4572601,STD
8142647374000,0.540086,2.95125750754529,9.84826076151505,-1.11957325014621,0.36865717,-0.30634892,-0.22724187,201.16605,-94.19328,3.5244434,STD
8142652385000,0.545097,2.98478469594291,9.82574964609012,-1.11190989351265,0.25228736,-0.3032946,-0.2098322,201.42065,-94.2432,3.5941937,STD
8142657294000,0.550006,3.01762943109437,9.80369674933879,-1.10440252617795,0.13958271,-0.2910773,-0.20097467,201.67766,-94.28122,3.6656413,STD
8142662298000,0.55501,3.05110978446529,9.78121708029343,-1.09674987469235,0.062308256,-0.2510656,-0.17867808,201.92389,-94.31818,3.7467065,STD
8142667292000,0.560004,3.08452323065522,9.75878233464744,-1.08911251627526,-0.0711658,-0.22021692,-0.16462818,202.16695,-94.33637,3.8283658,STD
8142672276000,0.564988,3.11786976966415,9.73639251240082,-1.08149045092669,-0.19547687,-0.19364429,-0.14966199,202.3978,-94.35796,3.9171364,STD
8142677284000,0.569996,3.15137688590748,9.71389487399571,-1.07383168221368,-0.3200934,-0.16829337,-0.13561209,202.6181,-94.37478,4.0098963,STD
8142682650000,0.575362,3.1872792792305,9.68978897789311,-1.06562542164779,-0.40011674,-0.11759156,-0.11301007,202.82153,-94.39927,4.1095963,STD
8142687286000,0.579998,3.11113861230954,9.7238660234563,-1.0851509381235,-0.4709771,-0.049480084,-0.100792766,203.01054,-94.42543,4.210214,STD
8142692254000,0.584966,2.96305483777065,9.79445024298316,-1.12258918056135,-0.54153204,0.011911872,-0.09010262,203.18506,-94.464294,4.3163695,STD
8142697266000,0.589978,2.81365953221732,9.86565960455092,-1.16035900163593,-0.5757405,0.067500606,-0.093767814,203.65254,-94.5687,4.5027943,STD
8142702249000,0.594961,2.6651286448326,9.93645694068264,-1.19791028224539,-0.6151413,0.07574729,-0.09865474,204.10625,-94.707634,4.690615,STD
8142707259000,0.599971,2.51579295432538,10.0076378867031,-1.23566503156375,-0.6246097,0.03634648,-0.09896017,204.54832,-94.87737,4.877205,STD
8142712238000,0.60495,2.36738129703288,10.0783783917402,-1.27318616866079,-0.61391956,-0.027488936,-0.09743301,204.986,-84.92914,5.0613723,STD
8142717259000,0.609971,2.21771772377205,10.1497156232709,-1.31102381263833,-0.59589905,-0.10598512,-0.105374254,205.43036,-84.71908,5.2413635,STD
8142722249000,0.614961,2.06897818372594,10.2206124138182,-1.34862784439455,-0.5705481,-0.17073683,-0.099571034,205.88036,-84.49119,5.424559,STD
8142727240000,0.619952,1.92020883615678,10.2915234121391,-1.38623941202887,-0.5494733,-0.23243423,-0.10720685,206.34343,-84.26022,5.600895,STD
8142732251000,0.624963,1.7708433381265,10.3627185659332,-1.42400169722534,-0.5305365,-0.27152961,-0.10354166,206.80997,-84.01974,5.781373,STD
8142737254000,0.629966,1.62171630028067,10.4338000575381,-1.46170369539695,-0.49296826,-0.3051272,-0.103847094,207.28424,-83.78213,5.958065,STD
8142742230000,0.634942,1.47339406555734,10.5044979392542,-1.49920222485966,-0.4529566,-0.32620203,-0.10995574,207.75783,-83.545876,6.133505,STD
8142747290000,0.640002,1.32256799889735,10.5763892739575,-1.5373337680834,-0.42546764,-0.3417791,-0.11056661,208.23132,-83.311035,6.309791,STD
8142752295000,0.645007,1.17338134600541,10.6474991811097,-1.57505083801123,-0.42760566,-0.34483343,-0.115453534,208.69946,-83.08162,6.482273,STD
8142757255000,0.649967,1.02553603165096,10.7179697384473,-1.61242879342422,-0.4266894,-0.35063666,-0.112399206,209.1651,-82.85575,6.6560717,STD
8142762237000,0.654949,0.877034951789294,10.7887528668053,-1.64997253815557,-0.43401974,-0.32650748,-0.110872045,209.61554,-82.63356,6.8266454,STD
8142767258000,0.65997,0.727371378528468,10.860090098336,-1.68781018213312,-0.42821655,-0.30879238,-0.08979719,210.06184,-82.41036,7.002694,STD
8142772250000,0.664962,0.578572223436247,10.9310153044306,-1.72542928564555,-0.410196,-0.28955013,-0.070249505,210.49367,-82.1916,7.1771035,STD
8142777237000,0.669949,0.429922105959302,11.001869471657,-1.76301070976744,-0.37659842,-0.28619036,-0.033292156,210.91759,-81.96949,7.3609447,STD
8142782224000,0.674936,0.281271988482358,11.0727236388833,-1.80059213388933,-0.35521814,-0.3005457,0.010079277,211.33417,-81.745926,7.5503874,STD
8142787251000,0.679963,0.1314295700832,11.1441461170559,-1.83847499313553,-0.32406402,-0.3454443,0.06627888,211.75162,-81.51935,7.752375,STD
8142792239000,0.684951,-0.0172503549168004,11.2150144920559,-1.87606395313553,-0.30390546,-0.40439278,0.13927728,212.17029,-81.28352,7.9695735,STD
8142797374000,0.690086,-0.170311985805935,11.2879714097835,-1.91476068721732,-0.30909783,-0.4392121,0.204029,212.58833,-81.04133,8.197966,STD
8142802277000,0.694989,-0.316458271346231,11.3576321240227,-1.95170909757819,-0.33108896,-0.44348818,0.2782491,213.00742,-80.78374,8.447053,STD
8142807246000,0.699958,-0.46457185340818,11.4282305513232,-1.98915487589415,-0.3594942,-0.43860126,0.32162055,213.42776,-80.522064,8.702481,STD
8142812237000,0.704949,-0.613341200977345,11.4991415496441,-2.02676644352847,-0.4016439,-0.44715336,0.34330627,213.84697,-80.24917,8.968916,STD
8142817257000,0.709969,-0.762974966715116,11.5704645734012,-2.06459655162791,-0.453262,-0.4129449,0.34605515,214.24681,-79.972534,9.236784,STD
8142822220000,0.714932,-0.910909703638733,11.6409777540597,-2.10199711467522,-0.49296826,-0.172264,0.35979962,214.5836,-79.690926,9.505353,STD
8142827243000,0.719955,-1.06063289194567,11.7123434011377,-2.13984983040898,-0.46609017,0.048563786,0.37751472,214.91109,-79.416275,9.770666,STD
8142832236000,0.724948,-1.20946185456095,11.783282815006,-2.17747646979952,-0.4007276,0.15424347,0.3753767,215.19836,-79.15049,10.026482,STD
8142837253000,0.729965,-1.35900619772955,11.8545632154421,-2.21528397026464,-0.3567453,0.16523905,0.37232238,215.44583,-78.88837,10.2788925,STD
8142842226000,0.734938,-1.50723900988372,11.9252184738372,-2.25275989209302,-0.34055737,0.1554652,0.3277292,215.66739,-78.64909,10.511396,STD
8142847262000,0.739974,-1.65734969599038,11.9967688219727,-2.29071057424218,-0.31978795,0.12522738,0.28985557,215.88963,-78.42082,10.739636,STD
8142852221000,0.744933,-1.80516520282177,12.0672251715367,-2.32808099377707,-0.27458394,0.10140363,0.26633725,216.11148,-78.21095,10.954308,STD
8142857201000,0.749913,-1.95360666763733,12.1379798843474,-2.36560966675221,-0.23945917,0.03848451,0.22266038,216.35258,-78.02306,11.149388,STD
8142862223000,0.754935,-2.10330004842121,12.2093313236518,-2.40345484660786,-0.15241088,-0.040011674,0.16401732,216.60388,-77.8603,11.330157,STD
8142867208000,0.75992,-2.25189055085204,12.2801570753308,-2.44102119897354,-0.09621128,-0.041233405,0.10995574,216.84943,-77.71234,11.495797,STD
8142872224000,0.764936,-2.40140508649759,12.3514232679932,-2.47882116356055,-0.06994407,0.03848451,0.064446285,217.09264,-77.58644,11.6440935,STD
8142877216000,0.769928,-2.55020424158982,12.4223484740878,-2.51644026707298,-0.11056661,0.19975294,0.015577064,217.31093,-77.477104,11.771787,STD
8142882212000,0.774924,-2.69912262677426,12.4933305112771,-2.55408951409784,-0.20219639,0.3894266,-0.020158553,217.49586,-77.37596,11.885783,STD
8142887211000,0.779923,-2.72088429011473,12.4655655732239,-2.56258700700559,-0.2874121,0.59498274,-0.05222898,217.62802,-77.28563,11.981171,STD
8142892236000,0.784948,-2.6792837125411,12.3883760582433,-2.55657536683889,-0.33475417,0.77396625,-0.07941248,217.71175,-77.20071,12.062374,STD
8142897271000,0.789983,-2.63760034774842,12.3110329322877,-2.55055176320918,-0.34208453,0.89888823,-0.079107046,217.56435,-77.60742,11.629343,STD
8142902234000,0.794946,-2.59651305093291,12.2347958053526,-2.5446142965132,-0.35643986,0.93828905,-0.10720685,217.3954,-78.01491,11.186857,STD
8142907189000,0.799901,-2.55549198389265,12.1586815671977,-2.53868640058763,-0.38453966,0.8561276,-0.14630222,217.23013,-78.4139,10.749522,STD
8142912176000,0.804888,-2.51420599775142,12.0820757739224,-2.5327202215804,-0.42363504,0.64721173,-0.1826487,217.09503,-78.80743,10.315131,STD
8142917176000,0.809888,-2.47281238822542,12.0052702863796,-2.52673849007126,-0.4868596,0.34483343,-0.19853121,217.01509,-79.190094,9.887662,STD
8142922166000,0.814878,-2.43150156591847,11.9286184098118,-2.52076872202512,-0.57635134,-0.012217305,-0.22327125,217.01572,-79.5664,9.461652,STD
8142927172000,0.819884,-2.39005828406104,11.8517207556839,-2.51477981243816,-0.6585127,-0.3155119,-0.22602014,217.09065,-79.923195,9.051555,STD
8142932177000,0.824889,-2.34862328092552,11.7748384626535,-2.50879209919751,-0.7031059,-0.49602258,-0.21533,217.23521,-80.26489,8.652259,STD
8142937577000,0.830289,-2.30391818263744,11.6918885361073,-2.50233182916762,-0.74006325,-0.59712076,-0.18600847,217.44502,-80.580956,8.271333,STD
8142942150000,0.834862,-2.26605958736496,11.6216422372006,-2.49686093752936,-0.7528914,-0.61453044,-0.1432479,217.68268,-80.876144,7.90824,STD
8142947200000,0.839912,-2.2242520417437,11.5440686947823,-2.49081938870512,-0.77763146,-0.6123924,-0.09896017,217.94328,-81.144745,7.564336,STD
8142952247000,0.844959,-2.18246933228816,11.4665412356565,-2.48478142891978,-0.8023715,-0.5488624,-0.08032878,218.19089,-81.39536,7.2324877,STD
8142957240000,0.849952,-2.1411336738155,11.3898432757962,-2.47880807183474,-0.84299403,-0.45173484,-0.0421497,218.42668,-81.61273,6.925806,STD
8142962242000,0.854954,-2.09972350684569,11.3130070660584,-2.47282394763299,-0.91996306,-0.32284227,0.0076358155,218.6343,-81.80138,6.633035,STD
8142967257000,0.859969,-2.05820571649111,11.2359711620529,-2.46682427092931,-0.99082345,-0.21135938,0.06688975,218.81781,-81.96156,6.3590326,STD
8142972246000,0.864958,-2.01690317290607,11.1593346465827,-2.46085569922949,-1.0412198,-0.14996742,0.13408493,218.97725,-82.08763,6.1061716,CSI
8142977234000,0.869946,-1.97560890804293,11.0827134922099,-2.45488832387596,-1.0338894,-0.12644911,0.17623462,219.11472,-82.19333,5.8672743,CSI
8142982936000,0.875648,-1.92840363573948,10.995124514216,-2.44806675726292,-1.0320568,-0.11453723,0.19639318,219.23676,-82.26906,5.645462,CSI
8142987257000,0.879969,-1.89263127838712,10.9287492118815,-2.44289734489272,-1.0091494,-0.095294975,0.20189096,219.34933,-82.33567,5.4357314,CSI
8142992294000,0.885006,-1.85093135615062,10.8513753637308,-2.4368713485704,-0.9975429,-0.08979719,0.1966986,219.46222,-82.39032,5.233565,CSI
8142997329000,0.890041,-1.80924799135794,10.7740322377752,-2.43084774494069,-0.9975429,-0.06658431,0.18600847,219.5646,-82.43947,5.0351076,CSI
8143002303000,0.895015,-1.76806962860148,10.6976261387676,-2.42489711843539,-1.0009027,0.0061086523,0.17806722,219.6514,-82.483376,4.8390603,CSI
8143007582000,0.900294,-1.72436625566393,10.6165349050198,-2.41858160630803,-1.010982,0.118507855,0.15974127,219.72089,-82.522385,4.639777,CSI
8143012239000,0.904951,-1.68581224775142,10.5449982739224,-2.4130102215804,-1.0155635,0.24953845,0.13133603,219.76492,-82.5577,4.4372015,CSI
8143017259000,0.909971,-1.64425306378731,10.4678855644294,-2.40700456314522,-1.0201449,0.38056904,0.119729586,219.77711,-82.58364,4.235313,CSI
8143022246000,0.914958,-1.60296707764608,10.3912797711542,-2.40103838413799,-1.0152581,0.4804455,0.108123146,219.76202,-82.60797,4.026789,CSI
8143027240000,0.919952,-1.56162314045152,10.3145664501964,-2.39506383070666,-1.0088439,0.52015173,0.106901415,219.72726,-82.62437,3.820144,CSI
8143032266000,0.924978,-1.52001428415598,10.2373615741183,-2.38905099419366,-0.9972375,0.5152648,0.1020145,219.67784,-82.638245,3.6117759,CSI
8143037250000,0.929962,-1.47875313418047,10.1608018641356,-2.38308840422534,-0.9786061,0.4465425,0.09987647,219.63597,-82.64834,3.4088778,CSI
8143042280000,0.934992,-1.43711116299731,10.0835355436675,-2.37707078232713,-0.95417154,0.34422258,0.090713486,219.60614,-82.657906,3.2080877,CSI
8143047367000,0.940079,-1.39499730466556,10.0053936406414,-2.37098496868973,-0.9462303,0.2312125,0.09193522,219.59924,-82.66086,3.016478,CSI
8143052265000,0.944977,-1.35444812477389,9.93015498504442,-2.36512526450336,-0.91446525,0.1777618,0.08093964,219.60565,-82.67323,2.8244774,CSI
8143057272000,0.949984,-1.31299656419456,9.85324196981901,-2.3591351585701,-0.9025534,0.064751714,0.051923547,219.662,-82.67897,2.6376624,CSI
8143062243000,0.954955,-1.27184303760381,9.77688195410391,-2.3531881211037,-0.89644474,-0.023518313,0.015271631,219.72734,-82.688156,2.4508314,CSI
8143067257000,0.959969,-1.23033352597114,9.69986141119595,-2.34718964074633,-0.8735373,-0.10598512,-0.015271631,219.8239,-82.70211,2.2655458,CSI
8143072250000,0.964962,-1.18899786749848,9.62316345133566,-2.34121628366129,-0.8454375,-0.1826487,-0.060170226,219.9454,-82.718414,2.0731497,CSI
8143077355000,0.970067,-1.14673499217243,9.54474504855441,-2.33510893579045,-0.8035932,-0.24098633,-0.099571034,220.08559,-82.74137,1.8805382,CSI
8143082242000,0.974954,-1.10627687822172,9.46967536503003,-2.32926239141341,-0.7498371,-0.28924468,-0.13225232,220.2454,-82.77269,1.6842544,CSI
8143087253000,0.979965,-0.992642841167301,9.5808047232531,-2.28945113147076,-0.7067711,-0.3576616,-0.16768251,220.4283,-82.80956,1.4837561,CSI
8143092310000,0.985022,-0.8387542184418,9.79518414035193,-2.23089602672641,-0.6105598,-0.39461896,-0.20158553,220.61623,-82.87202,1.2800958,CSI
8143097323000,0.990035,-0.686204551500345,10.0076982827123,-2.17285039886732,-0.514654,-0.44715336,-0.22907446,221.13112,-82.83686,1.2069836,CSI
8143102302000,0.995014,-0.534689532210198,10.2187710764112,-2.11519845769229,-0.40317106,-0.48349985,-0.26267207,221.64955,-82.83706,1.126398,CSI
8143107294000,1.000006,-0.382778912347492,10.43039497401,-2.0573959892557,-0.2919936,-0.54428095,-0.3036,222.1875,-82.86729,1.0418644,CSI
8143112293000,1.005005,-0.23065527679187,10.6423156198627,-1.99951246767828,-0.14874569,-0.6236934,-0.33261612,222.73839,-82.93992,0.95642465,CSI
8143117299000,1.010011,-0.0783186255433317,10.8545330139692,-1.94154789296003,-0.0061086523,-0.70646566,-0.3631594,223.3057,-83.04579,0.86458796,CSI
8143122288000,1.015,0.0735007018795529,11.066029733745,-1.8837801615838,0.1600467,-0.7855727,-0.39522982,223.89241,-83.19968,0.76992875,CSI
8143127290000,1.020002,0.225715629874996,11.2780775574208,-1.82586190294602,0.33292156,-0.8866709,-0.4071417,224.50627,-83.395294,0.67904085,CSI
8143132275000,1.024987,0.377413234044785,11.4894047067658,-1.76814048765027,0.4978552,-0.9923506,-0.4297437,225.14244,-83.63528,0.58177817,CSI
8143137274000,1.029986,0.529536869600408,11.7013253526185,-1.71025696607285,0.659429,-1.0903945,-0.49021935,225.80394,-83.92203,0.47602013,CSI
8143142350000,1.035062,0.684003677778111,11.9165102292635,-1.65148185994623,0.84757555,-1.1557571,-0.56596667,226.48445,-84.26044,0.3641454,CSI
8143147415000,1.040127,0.838135747009803,12.1312287872238,-1.59283412304092,1.0231993,-1.1972959,-0.6239988,227.18437,-84.637146,0.2447418,CSI
8143152288000,1.045,0.986425100092929,12.3378079645073,-1.53640955799856,1.1850786,-1.2211196,-0.64721173,227.89606,-85.05752,0.11747079,CSI
8143157289000,1.050001,1.1386095972751,12.5498133955754,-1.4785028783809,1.2388347,-1.2550226,-0.70432764,228.62189,-85.48864,-0.03223337,CSI
8143162290000,1.055002,1.29079409445727,12.7618188266435,-1.42059619876324,1.351234,-1.3252722,-0.7626653,229.3624,-85.97096,-0.18559363,CSI
8143167280000,1.059992,1.44264385269343,12.9733579390269,-1.3628168883669,1.4724907,-1.3811663,-0.8176431,230.10638,-86.45517,-0.3517023,CSI
8143172293000,1.065005,1.59519351963488,13.1858720813873,-1.3047712605078,1.6081028,-1.3277156,-0.8854492,230.8369,-86.951355,-0.5363535,CSI
8143177278000,1.06999,1.74689112380467,13.3971992307323,-1.24704984521206,1.7611245,-1.1914927,-0.97035944,231.55685,-87.447525,-0.73910666,CSI
8143182257000,1.074969,1.89840614309482,13.6082720244312,-1.18939790403703,1.887879,-1.1212431,-1.0323622,232.27707,-87.90817,-0.95151126,CSI
8143187277000,1.079989,2.05116882572919,13.8210829150454,-1.1312712230371,2.0250182,-1.044885,-1.0531317,232.95346,-88.28781,-1.1748303,CSI
8143193175000,1.085887,2.23064976241794,14.0711145152133,-1.06297816237224,2.1682663,-0.9147707,-1.0537425,233.59128,-88.47004,-1.4072456,CSI
8143197307000,1.090019,2.35638988286519,14.2462807701969,-1.01513365123843,2.324953,-0.8054258,-1.0781772,234.21008,-91.650536,-1.6487532,CSI
8143202302000,1.095014,2.50839179516772,14.4580318456189,-0.957296445741489,2.4944682,-0.70616025,-1.094976,234.79156,-92.04253,-1.8847156,CSI
8143207289000,1.100001,2.66015026096406,14.6694437801793,-0.899551872405503,2.6673431,-0.57940567,-1.1142182,235.3312,-92.618774,-2.1241086,CSI
8143212299000,1.105011,2.81260863546569,14.8818307447166,-0.841540981606768,2.8399124,-0.44837508,-1.1236867,235.83896,-93.304184,-2.3607216,CSI
8143217305000,1.110017,2.96494528671423,15.0940481388231,-0.783576406888511,2.9914072,-0.29871312,-1.1319333,236.30319,-94.06104,-2.596709,CSI
8143222291000,1.115003,3.11667332169729,15.3054176807758,-0.725843412572644,3.136182,-0.086132,-1.1459832,236.71039,-94.87302,-2.8295908,CSI
8143227291000,1.120003,3.26882738806619,15.5173807192362,-0.667948311975104,3.275154,0.14782938,-1.1511755,237.06795,-95.72312,-3.053883,CSI
8143232290000,1.125002,3.42095102362181,15.7293013650889,-0.610064790397684,3.3976326,0.37232238,-1.1771374,237.36664,-96.60658,-3.2780025,CSI
8143237253000,1.129965,3.57197914989958,15.9396958770647,-0.552598113544566,3.4898732,0.46517387,-1.2095132,237.63641,-97.51073,-3.4972985,CSI
8143242348000,1.13506,3.72702414352948,16.1556862132558,-0.493603006035672,3.5411859,0.46486846,-1.2470814,237.86911,-98.42823,-3.716353,CSI
8143247265000,1.139977,3.87665245239665,16.3641306652777,-0.436668964108052,3.588528,0.41508293,-1.2757921,238.09009,-99.35741,-3.935242,CSI
8143252255000,1.144967,4.02850221063281,16.5756697776612,-0.378889653711707,3.6022723,0.25900686,-1.2947289,238.34169,-100.27887,-4.161104,CSI
8143257248000,1.14996,4.18044326130879,16.7873360678677,-0.321075606255004,3.6334264,-0.06627888,-1.2721269,238.65698,-101.1992,-4.3889704,CSI
8143262890000,1.155602,4.35213390979945,17.0265151604664,-0.255746774740739,3.6050212,-0.5714644,-1.2742649,239.06548,-102.09533,-4.6427755,CSI
8143267262000,1.159974,4.48517742543242,17.2118556412962,-0.205123298778251,3.5332446,-1.106277,-1.2733486,239.57416,-102.968254,-4.9062676,CSI
8143272256000,1.164968,4.63714890692167,17.4235643241104,-0.147297672301428,3.408628,-1.5470163,-1.2302825,240.19807,-103.79869,-5.1796737,CSI
8143277230000,1.169942,4.78851177214545,17.6344251547708,-0.0897036262269953,3.3154712,-1.9449949,-1.1728612,240.95647,-104.600945,-5.4762034,CSI
8143282267000,1.174979,4.94179177860547,17.8479567197158,-0.0313801018850336,3.2018502,-1.9941696,-1.1255192,241.73663,-105.34666,-5.76574,CSI
8143287243000,1.179955,3.913445606118,17.1759641846766,0.34388982314973,3.0952542,-1.8417587,-1.1194105,242.56528,-106.054565,-6.0589156,CSI
8143292347000,1.185059,2.12193435543139,15.935331100483,0.927172616646084,3.0027082,-1.933083,-1.1438452,243.46873,-106.72227,-6.36425,CSI
8143297263000,1.189975,0.64644319307318,15.4008704095029,0.669692126638679,2.8661797,-2.7531698,-1.3264939,244.78485,-106.77936,-6.310726,CSI
8143302260000,1.194972,-0.618313955405019,15.4784910165061,-0.362203582244061,2.6511552,-3.0271428,-1.5088371,245.93446,-106.82327,-6.257707,CSI
8143307238000,1.19995,-1.85426294794842,15.5469973817898,-1.09946906514263,2.5240953,-2.756224,-1.5925257,247.93251,-106.80844,-6.598321,CSI
8143312229000,1.204941,-3.05901516113716,15.6030325226651,-1.42167019874951,2.4926357,-2.3243423,-1.6459764,249.83109,-106.81516,-6.9667006,CSI
8143317231000,1.209943,-4.25654170228013,15.6635600976181,-1.64037418555578,2.5271494,-1.9459113,-1.7486018,251.95963,-107.083275,-7.64006,CSI
8143322290000,1.215002,-5.45001418241042,15.7326038094463,-1.67489614446254,2.5864034,-1.6539177,-1.9184223,253.86032,-107.39345,-8.282502,CSI
8143327201000,1.219913,-6.51380538818441,15.9162601702546,-2.24976632467315,2.5347853,-1.400714,-2.1252003,255.2721,-107.98931,-9.1351,CSI
8143332264000,1.224976,-7.46229495782955,16.288029098496,-3.68918299787673,2.362216,-1.0760391,-2.3451116,256.5227,-108.60452,-9.981651,CSI
8143337184000,1.229896,-8.26031377005667,16.4395142782583,-4.4246616961527,2.1120665,0.1423316,-2.329229,257.2484,-109.34611,-10.869411,CSI
8143342345000,1.235057,-8.86468641813302,16.2036623759817,-3.94804260219704,2.1740694,1.0797043,-2.2996023,257.9253,-110.1546,-11.779216,CSI
8143347342000,1.240054,-9.20957640221602,15.9560049261328,-3.5331800275831,2.2192733,1.4416419,-2.332589,258.50842,-111.11908,-12.765462,CSI
8143352367000,1.245079,-9.14888575497703,15.6742265007657,-3.19504569081164,2.2241604,1.9917262,-2.4706445,258.74298,-112.08876,-13.6465,CSI
8143357234000,1.249946,-9.07594709101917,15.4189395837538,-2.93273910386478,2.1923954,2.3802364,-2.631913,258.78793,-113.10693,-14.573552,CSI
8143362285000,1.254997,-8.9051060629667,15.2725039071645,-3.0986990106559,2.1853704,2.6942213,-2.758973,258.67633,-114.137085,-15.457084,CSI
8143367271000,1.259983,-8.68000006566809,15.106162694574,-3.2569160028767,2.257147,3.0983086,-2.7791314,258.35648,-115.17561,-16.296078,CSI
8143372288000,1.265,-8.14619942743775,14.8201981735939,-3.3856001368515,2.4550674,3.361897,-2.7855456,257.9707,-116.24655,-17.121315,CSI
8143377238000,1.26995,-7.59753288860737,14.5707212085784,-3.54502079203692,2.6688702,3.504534,-2.7375927,257.50467,-117.3385,-17.88897,CSI
8143382254000,1.274966,-6.89768673387024,14.5315994950683,-3.91885172947245,2.8863382,3.5414913,-2.6578746,256.99234,-118.449814,-18.606743,CSI
8143387180000,1.279892,-6.21039762736404,14.4931797261786,-4.2859751740114,3.0906727,3.5585954,-2.522568,256.40878,-119.55292,-19.205393,CSI
8143392352000,1.285064,-5.23455882307279,14.2807125665665,-4.53785703136139,3.2571335,3.631594,-2.3802364,255.8091,-120.657394,-19.74531,CSI
8143397364000,1.290076,-4.28802668461906,14.046818430781,-4.79051016027306,3.3991597,3.6251798,-2.269059,255.23993,-121.76053,-20.24023,CSI
8143402278000,1.29499,-3.59609368230857,13.6873729833874,-5.25778947646553,3.503312,3.5277467,-2.1233675,254.55356,-122.815994,-20.553179,CSI
8143407628000,1.30034,-2.83994927332419,13.2984441785574,-5.74446973010584,3.556152,3.5604281,-2.0161607,253.70427,-123.823074,-20.686598,CSI
8143412292000,1.305004,-2.12206798394747,13.0095403682869,-5.70945133575069,3.5613444,3.6935966,-1.8964312,252.88582,-124.79652,-20.757011,CSI
8143417205000,1.309917,-1.3658606994904,12.7052126624853,-5.67256339161113,3.5317173,3.9266417,-1.7660115,251.92096,-125.74953,-20.652403,CSI
8143422292000,1.315004,-0.887157845983817,12.3395094018157,-5.14815089624038,3.4761286,4.1996984,-1.6420058,250.94247,-126.66419,-20.473114,CSI
8143427203000,1.319915,-0.450905623059009,11.982153949477,-4.60051493505032,3.424816,4.397619,-1.582141,249.9505,-127.54863,-20.23474,CSI
8143432319000,1.325031,-0.248202322890475,11.3386721558664,-3.51119505394424,3.4058793,4.3844852,-1.6203201,248.85864,-128.37756,-19.855282,CSI
8143437187000,1.329899,-0.0840633833087829,10.6954249471881,-2.41545679960986,3.3631186,4.327369,-1.6132951,247.76639,-129.16136,-19.411243,CSI
8143442282000,1.334994,-0.108955156584592,10.2051764504757,-1.95479760658459,3.331659,4.1706824,-1.563815,246.71753,-129.87778,-18.929155,CSI
8143447273000,1.339985,-0.184739836545234,9.77275810968103,-1.68286430754523,3.3221905,4.0381246,-1.5244142,245.6978,-130.57874,-18.441954,CSI
8143452367000,1.345079,-0.294618524514563,9.15958579234088,-1.62821726639698,3.3209689,3.8481457,-1.45783,244.84482,-131.18295,-17.996971,CSI
8143457242000,1.349954,-0.415490836407767,8.48975185221143,-1.68361709244876,3.3371568,3.644422,-1.402852,244.04846,-131.77303,-17.564672,CSI
8143462285000,1.354997,-0.470945111468504,7.9328106636811,-1.83575035899606,3.3551774,3.4568865,-1.3613132,243.38168,-132.35312,-17.193344,CSI
8143467280000,1.359992,-0.508611364204724,7.41489946732283,-2.00995678527559,3.3426547,3.2464433,-1.3377949,242.78757,-132.91165,-16.850395,CSI
8143472282000,1.364994,-0.605137826200415,6.83924408072015,-2.28774365064794,3.334408,3.0833423,-1.3054191,242.31516,-133.51367,-16.576141,CSI
8143477293000,1.370005,-0.719070468099713,6.24584467283609,-2.596311255505,3.2916474,3.0213394,-1.278541,241.88168,-134.08784,-16.314028,CSI
8143482264000,1.374976,-0.924657396550357,5.78417952611023,-3.03792203688541,3.2467487,3.040887,-1.25319,241.52028,-134.69614,-16.083752,CSI
8143487273000,1.379985,-1.16241627478192,5.36096897708168,-3.52770526447264,3.1871893,3.1496212,-1.2027937,241.17282,-135.2703,-15.832523,CSI
8143492355000,1.385067,-1.04198059205656,5.04381178696973,-3.77750267482206,3.1410692,3.1612277,-1.1646146,240.93637,-135.89238,-15.644843,CSI
8143497308000,1.39002,-0.798891281740533,4.7737126211825,-3.93506053328272,3.071125,3.2305608,-1.0861185,240.69055,-136.47047,-15.401275,CSI
8143502292000,1.395004,-0.645339858878058,4.51224297589832,-3.94746018470948,3.083037,3.415653,-0.9978484,240.57501,-137.09752,-15.196066,CSI
8143507274000,1.399986,-0.545028664831804,4.25690514434251,-3.87450664097859,3.140458,3.5873063,-0.9440922,240.46182,-137.70341,-14.96363,CSI
8143512238000,1.40495,-0.567260805573198,4.07856994687202,-3.72307872683392,3.1340442,3.7922513,-0.9224065,240.14323,-138.33469,-14.550437,CSI
8143517219000,1.409931,-0.698546272700328,3.96748236356515,-3.50090324386578,3.0741794,3.9507709,-0.91629785,239.823,-138.95412,-14.102605,CSI
8143522251000,1.414963,-0.812567125024362,3.91754859598519,-3.22219135605145,2.980106,4.019493,-0.9077458,239.46063,-139.55391,-13.580184,CSI
8143527263000,1.419975,-0.915468828162152,3.90351655887741,-2.91348629547846,2.8680124,4.070806,-0.87781334,239.09465,-140.12233,-13.02557,CSI
8143532239000,1.424951,-1.03962108678387,3.85537741283217,-2.62014442739214,2.7525587,4.0430117,-0.8555168,238.97263,-140.51868,-12.533119,CSI
8143537262000,1.429974,-1.18057538911791,3.78246996607053,-2.33337538379307,2.6688702,3.9929206,-0.8304713,238.85837,-140.88799,-12.033679,CSI
8143542238000,1.43495,-1.11980129383749,3.54916888998638,-2.07205584857013,2.595872,3.9587123,-0.81183994,238.8393,-141.09326,-11.522927,CSI
8143547307000,1.440019,-0.92588636980118,3.2054106628325,-1.82084789741262,2.562885,3.8621955,-0.7510588,238.85258,-141.28531,-11.031661,CSI
8143552304000,1.445016,-0.742153433388405,2.92005729352914,-1.68505212537861,2.518292,3.8628063,-0.6753115,238.54027,-141.56537,-10.422938,CSI
8143557247000,1.449959,-0.570769569017388,2.71246558490133,-1.70677682588343,2.4541512,3.8289034,-0.65393126,238.26471,-141.82616,-9.852475,CSI
8143562235000,1.454947,-0.397825463113559,2.50298400637907,-1.72869930335016,2.3942864,3.7992764,-0.61300325,237.99034,-142.04022,-9.20648,CSI
8143567294000,1.460006,-0.222419642791291,2.29052063313447,-1.75093382891235,2.3096814,3.7614028,-0.5867361,237.7348,-142.22714,-8.582224,CSI
8143572269000,1.464981,0.217844462615798,2.06080313142743,-1.77370872340871,2.214081,3.6771033,-0.56321776,237.41582,-142.3965,-7.916905,CSI
8143577278000,1.46999,0.944159292011156,1.80754861033968,-1.79760069042733,2.1013765,3.5747833,-0.5564982,237.11897,-142.53465,-7.277996,CSI
8143582486000,1.475198,1.45799710811287,1.57694286124339,-1.80561657689594,1.9929478,3.442531,-0.5589417,237.04121,-142.4557,-6.6028004,CSI
8143587939000,1.480651,1.7435159957672,1.36971140587302,-1.79640629640212,1.8802432,3.2849278,-0.5681047,236.98389,-142.35907,-5.9809833,CSI
8143592319000,1.485031,1.94008940109115,1.19750714348227,-1.80965617545856,1.7641789,3.1401527,-0.58246,236.36304,-142.73853,-5.2218747,CSI
8143597427000,1.490139,2.05512640434578,0.976636123179381,-1.89708427294704,1.6490307,2.9379563,-0.5891795,235.7909,-143.08066,-4.513242,CSI
8143602261000,1.494973,2.15614995325764,0.774351336080349,-1.97829562017467,1.520749,2.6966646,-0.6230826,235.17874,-143.42996,-3.7787337,CSI
8143607289000,1.500001,2.17297166518777,0.639777544031441,-2.04558255572052,1.3912456,2.5054638,-0.6545421,234.60039,-143.74167,-3.0792005,CSI
8143612248000,1.50496,2.18956253023581,0.507050528365065,-2.11194610253275,1.2586879,2.3197608,-0.70402217,234.04654,-144.06854,-2.420738,CSI
8143617307000,1.510019,2.20041056844517,0.405622608208457,-2.20659072935,1.1447614,2.1572707,-0.7415904,233.52374,-144.3606,-1.8033274,CSI
8143622273000,1.514985,2.20948919568579,0.314836264703637,-2.30645572379498,1.0033462,1.9859229,-0.7852673,233.027,-144.60425,-1.2399024,CSI
8143627338000,1.52005,2.26299354672856,0.191772680334063,-2.45615531619515,0.88208944,1.8075503,-0.8381071,232.55466,-144.85275,-0.7170741,CSI
8143632386000,1.525098,2.334977752597,0.056273070535342,-2.62552971016905,0.7535023,1.6374242,-0.8943067,232.10388,-145.05621,-0.24004002,CSI
8143637338000,1.53005,2.44883781115108,-0.0994541042805755,-2.80879467589928,0.6258314,1.5790867,-0.93615097,231.66484,-145.24397,0.22175714,CSI
8143642288000,1.535,2.61936002179433,-0.285022464172662,-3.01442459919594,0.46670106,1.4358387,-0.95630956,231.26466,-145.38396,0.61750376,CSI
8143647320000,1.540032,2.75015515143032,-0.417781007926295,-3.29481448096305,0.3930918,1.2993103,-0.99265605,230.87146,-145.5562,1.006458,CSI
8143652181000,1.544893,2.84019944843734,-0.498346894329635,-3.62655622933931,0.23640485,1.1646146,-1.0341948,230.50037,-145.65776,1.3569372,CSI
8143657604000,1.550316,2.89755682455442,-0.533313635089117,-3.91130407834312,0.09682214,1.0775663,-1.0537425,230.14584,-145.79887,1.7153319,CSI
8143662195000,1.554907,2.91944624444887,-0.528935751110226,-4.09955336371602,-0.021991149,1.0146471,-1.0748174,229.80408,-145.9003,2.0401182,CSI
8143667171000,1.559883,2.8821950072442,-0.519096821497802,-4.26074713875899,-0.13255776,0.9477574,-1.1010846,229.49232,-145.99878,2.3590026,CSI
8143672165000,1.564877,2.79139707129297,-0.504760303981815,-4.38499669109712,-0.24007004,0.8579602,-1.1099422,229.19917,-146.0643,2.6552446,CSI
8143677157000,1.569869,2.70109537704107,-0.490502145640772,-4.47110819455715,-0.3399465,0.73945236,-1.1212431,228.9274,-146.10057,2.9366183,CSI
8143682176000,1.574888,2.61071885744681,-0.476232177489362,-4.52343130680851,-0.4370741,0.6291912,-1.1450669,228.6697,-146.10751,3.1922736,CSI
8143687169000,1.579881,2.52398900016525,-0.48346186810401,-4.55489897219927,-0.5155703,0.52839845,-1.1859949,228.4387,-146.06506,3.4148667,CSI
8143692170000,1.584882,2.44018978923937,-0.511394967580073,-4.56653775149453,-0.61453044,0.41630468,-1.2159272,228.23044,-145.99097,3.6027203,CSI
8143697202000,1.589914,2.35587112709599,-0.53950121764277,-4.57824867679222,-0.70554936,0.30634892,-1.2547172,228.03542,-145.86566,3.7584286,CSI
8143702259000,1.594971,2.27113355268044,-0.567747105275334,-4.59001778434994,-0.8206975,0.18906279,-1.2959507,227.85823,-145.70813,3.8764827,CSI
8143707204000,1.599916,2.23514416773233,-0.578474523073868,-4.61970991540905,-0.93431836,0.08124508,-1.3384057,227.68486,-145.5112,3.9778545,CSI
8143712246000,1.604958,2.26870285270056,-0.564092188038126,-4.677239375695,-1.0564915,-0.010079277,-1.3686435,227.52715,-145.2832,4.046954,CSI
8143717183000,1.609895,2.32391831799087,-0.5237323908621,-4.76688577347945,-1.1691961,-0.08368854,-1.4022411,227.39195,-145.00162,4.0708427,CSI
8143722250000,1.614962,2.41698129251142,-0.439532575722374,-4.91312744515068,-1.294118,-0.12644911,-1.4092661,227.27162,-144.68855,4.076709,CSI
8143727300000,1.620012,2.50024559656961,-0.337529909670124,-5.06276138181093,-1.3900238,-0.13744467,-1.400714,227.15431,-144.34517,4.0876894,CSI
8143732288000,1.625,2.54788144423614,-0.170804849218987,-5.22472295548464,-1.4947872,-0.112704635,-1.3888022,227.04321,-143.97208,4.093095,CSI
8143737247000,1.629959,2.58663499863504,0.00923422958147416,-5.35702301327309,-1.5720617,-0.092240654,-1.3594806,226.94987,-143.57849,4.1173325,CSI
8143742256000,1.634968,2.59115064301986,0.248566044673538,-5.3750856851172,-1.6093245,-0.09285152,-1.3365731,226.86366,-143.17686,4.139316,CSI
8143747345000,1.640057,2.59797204291056,0.492736733283479,-5.38155553734134,-1.6578883,-0.11148291,-1.2947289,226.79242,-142.68689,4.2075615,CSI
8143752257000,1.644969,2.62574410328643,0.738056783599331,-5.2750961658959,-1.700038,-0.17104226,-1.2388347,226.7446,-142.20425,4.265825,CSI
8143757407000,1.650119,2.65824742753315,0.979912262808478,-5.17421196019549,-1.7333301,-0.27152961,-1.174083,226.72147,-141.62485,4.337241,CSI
8143762246000,1.654958,2.73000530648408,1.02027611654892,-5.21009085284041,-1.7736472,-0.37690386,-1.1148291,226.7293,-141.05359,4.394676,CSI
8143767579000,1.660291,2.80378914915207,1.06727130579186,-5.25030545277546,-1.8029687,-0.46761733,-1.0351112,226.76323,-140.40552,4.4606175,CSI
8143772251000,1.664963,2.75403345318321,1.16263638973218,-5.30006119203966,-1.8490891,-0.5323691,-0.956615,226.83186,-139.7672,4.51197,CSI
8143777214000,1.669926,2.70117867597998,1.2639413793717,-5.35291601523492,-1.8781052,-0.57604593,-0.8781188,226.93314,-139.16263,4.565458,CSI
8143782438000,1.67515,2.60437840281601,1.4436949181029,-5.31098943074317,-1.9193386,-0.6224717,-0.82741696,227.06476,-138.565,4.609224,CSI
8143787227000,1.679939,2.50727202320559,1.62334168489308,-5.25272561311666,-1.9544634,-0.6960809,-0.7816021,227.23198,-137.98453,4.648238,CSI
8143792286000,1.684998,2.40742796342896,1.83064411257221,-5.12526552349946,-1.9877555,-0.80664754,-0.74372846,227.45276,-137.35611,4.671879,CSI
8143797330000,1.690042,2.30810220488593,2.03875516691472,-4.9928311129247,-2.0158553,-0.9630291,-0.72173727,227.70811,-136.74458,4.6742616,CSI
8143802253000,1.694965,2.30269327294259,2.2847814549177,-4.81806795026094,-2.0561724,-1.1621711,-0.6973027,228.02034,-136.05768,4.641892,CSI
8143807182000,1.699894,2.30743073251706,2.53586691130068,-4.63804428855881,-2.10046,-1.4379768,-0.691194,228.3827,-135.39014,4.5632267,CSI
8143812271000,1.704983,2.44430162427877,2.81361196966392,-4.70546198718152,-2.1615467,-1.7406605,-0.675617,228.81213,-134.62761,4.4373364,CSI
8143817189000,1.709901,2.59371774839893,3.08442863368692,-4.80351643443046,-2.2229385,-2.0216584,-0.65301496,229.2959,-133.88571,4.2690597,CSI
8143822294000,1.715006,2.99423883357912,3.49337023734556,-5.42898661199681,-2.2766948,-2.2327125,-0.65087694,229.82019,-133.08394,4.050819,CSI
8143827231000,1.719943,3.41823863554205,3.90794787614588,-6.11209749970108,-2.2901337,-2.2996023,-0.625526,230.38004,-132.3103,3.826784,CSI
8143832267000,1.724979,3.87403161305687,4.36244885499856,-7.04123900971808,-2.2947154,-2.2162192,-0.5705481,230.96234,-131.54901,3.6108134,CSI
8143837196000,1.729908,4.32368081185413,4.81209810122198,-7.98595610535938,-2.2149973,-2.1197023,-0.52381694,231.55733,-130.83733,3.4015157,CSI
8143842302000,1.735014,4.76076281221773,5.3020776642343,-8.31109846080268,-2.1331415,-1.8616118,-0.41722095,232.17258,-130.2181,3.3246157,CSI
8143847310000,1.740022,5.18167777997239,5.78920381431811,-8.45298027127502,-1.9275852,-1.5647314,-0.321926,232.7626,-129.68285,3.2891915,CSI
8143852269000,1.744981,5.32903461809301,6.07833213105729,-7.8361065671619,-1.7318029,-1.3716979,-0.25992316,233.40529,-129.28842,3.3669837,CSI
8143857252000,1.749964,5.39702049576676,6.31142654706421,-6.99113920138394,-1.597718,-1.2916746,-0.2434298,234.01361,-128.9551,3.487982,CSI
8143862250000,1.754962,5.19925687675456,6.44970213629064,-6.05149484101903,-1.5170839,-1.2965615,-0.25137106,234.60828,-128.66501,3.668362,CSI
8143867282000,1.759994,4.9317441743755,6.56435038030333,-5.08176150065424,-1.5021176,-1.3390167,-0.25228736,235.19391,-128.40797,3.855183,CSI
8143872255000,1.764967,4.63731737369153,6.7223114645943,-4.61136526472341,-1.5439619,-1.4043792,-0.25350907,235.71967,-128.04208,4.009413,CSI
8143877269000,1.769981,4.3321073905949,6.89399203962658,-4.2727730665508,-1.681712,-1.4398094,-0.2648101,236.2439,-127.666016,4.1563034,CSI
8143882267000,1.774979,4.05664934844232,7.11300896422813,-4.57907217755549,-1.8521434,-1.4926492,-0.2519819,236.72333,-127.12485,4.2287045,CSI
8143887271000,1.779983,3.7895396435752,7.34672998088982,-5.07990284927839,-1.9660698,-1.5161675,-0.226631,237.20401,-126.57631,4.302966,CSI
8143892298000,1.78501,3.56172617893945,7.68036778098383,-5.78721771783616,-1.9953914,-1.5063937,-0.18692477,237.68314,-125.9198,4.3266296,CSI
8143897271000,1.789983,3.34895767919196,8.04114909027339,-6.55040929454183,-1.9657644,-1.4428637,-0.15577064,238.15686,-125.26772,4.3636413,CSI
8143902162000,1.794874,3.13969752792211,8.39598146182684,-7.3010165741854,-1.8551978,-1.368949,-0.12644911,238.70587,-124.63541,4.3763466,CSI
8143907195000,1.799907,2.92436194392269,8.76111565238673,-8.07341617313165,-1.7122552,-1.3154984,-0.10140363,239.24174,-124.04631,4.405009,CSI
8143912163000,1.804875,2.63614304593547,9.05531000251414,-8.57182835449403,-1.5445728,-1.2614367,-0.1133155,239.88284,-123.51837,4.414163,CSI
8143917172000,1.809884,2.2994569664362,9.31159386612194,-8.91353912319296,-1.382999,-1.2339478,-0.14966199,240.50093,-123.05906,4.427823,CSI
8143922166000,1.814878,1.94660983333016,9.49223079773355,-9.09928780792306,-1.2605205,-1.2342533,-0.17959438,241.21405,-122.64694,4.3982277,CSI
8143927164000,1.819876,1.58651790259975,9.64264865622322,-9.222357311018,-1.1545353,-1.2406673,-0.19242255,241.89597,-122.304794,4.3696256,CSI
8143932170000,1.824882,1.26093932435459,9.80450814727838,-9.30373828615863,-1.0839803,-1.2522738,-0.18325958,242.5922,-122.005066,4.2665453,CSI
8143937172000,1.829884,0.957974589196475,9.97337374841887,-9.3583713281493,-1.0445796,-1.2745703,-0.1863139,243.26852,-121.7473,4.1619606,CSI
8143942186000,1.834898,0.801070180920796,10.1037701400702,-9.28603133632462,-0.98746365,-1.3011429,-0.20922135,243.91354,-121.52337,4.00555,CSI
8143947485000,1.840197,0.707020012104955,10.2225704430843,-9.14743085358954,-0.93309665,-1.3100005,-0.25870144,244.53812,-121.325966,3.8503878,CSI
8143952221000,1.844933,0.800213683477024,10.2977581142121,-8.9954822108257,-0.8933904,-1.3274102,-0.32528573,245.13379,-121.137436,3.648336,CSI
8143957216000,1.849928,0.987289552510888,10.3615343772109,-8.82116154999555,-0.8570439,-1.3686435,-0.37659842,245.7178,-120.97615,3.4437814,CSI
8143962202000,1.854914,1.24784379333333,10.2945992840722,-8.67012691198686,-0.77182823,-1.4172074,-0.41447207,246.38106,-120.77138,3.1702428,CSI
8143967233000,1.859945,1.62759485333333,10.0203340574713,-8.55409228045977,-0.66431594,-1.459357,-0.44715336,247.03061,-120.597305,2.8941178,CSI
8143972226000,1.864938,2.07747419526902,9.76162668135436,-8.42123835204082,-0.54000485,-1.4963144,-0.4709771,247.69237,-120.42845,2.631309,CSI
8143977215000,1.869927,2.58274053876623,9.51342601396104,-8.27497665357143,-0.41905355,-1.5387696,-0.48075095,248.3483,-120.30166,2.3688822,CSI
8143982980000,1.875692,3.29196908064516,9.22878699468922,-7.95048237863887,-0.31703907,-1.602605,-0.4905248,249.04195,-120.22072,2.1316814,CSI
8143987226000,1.879938,3.91183371774194,9.02083217102675,-7.59056101012982,-0.24465153,-1.7305813,-0.4981606,249.74567,-120.17424,1.8862803,CSI
8143992234000,1.884946,4.61584120989761,8.76344803412969,-7.15122701706485,-0.18692477,-1.9040669,-0.49632803,250.41235,-120.210396,1.6811504,CSI
8143997273000,1.889985,5.27922212030717,8.4843701753887,-6.68457300436102,-0.15485434,-2.0845776,-0.49266282,251.10248,-120.26038,1.460162,CSI
8144002228000,1.89494,5.85283846143224,8.18928367981851,-6.2863207338331,-0.15332718,-2.2421808,-0.4886922,251.7667,-120.33252,1.2969741,CSI
8144007271000,1.899983,6.21965428329059,7.83199573545078,-6.04812857194713,-0.18845193,-2.3829854,-0.48808134,252.46375,-120.40088,1.1138606,CSI
8144012239000,1.904951,6.43178321624051,7.43268549056133,-5.88099062644826,-0.24007004,-2.5103507,-0.4877759,253.16464,-120.4532,0.99143946,CSI
8144017976000,1.910688,6.14093874690372,6.80160832790651,-5.93037925153815,-0.28893927,-2.604424,-0.47036624,253.88751,-120.49365,0.8619597,CSI
8144022233000,1.914945,5.81047338974685,6.34617095621151,-5.95788864398397,-0.37843102,-2.7198775,-0.47647488,254.63739,-120.51314,0.75412923,CSI
8144027269000,1.919981,5.07037754320203,5.84648836467598,-5.962602627446,-0.46089783,-2.796541,-0.4718934,255.39828,-120.51863,0.65013015,CSI
8144032252000,1.924964,4.24305289055267,5.36424471070339,-6.03448546906514,-0.5516113,-2.8081474,-0.46273044,256.16998,-120.539536,0.5144037,CSI
8144037255000,1.929967,3.02223601101741,4.93008095038579,-6.38267622486991,-0.6044512,-2.7644706,-0.4529566,256.94177,-120.54642,0.38293058,CSI
8144042362000,1.935074,1.77604136704647,4.48689199896824,-6.73810500558048,-0.68539083,-2.6471846,-0.41905355,257.69415,-120.54739,0.17986819,CSI
8144047317000,1.940029,-0.0474060109171761,3.97089427867704,-7.1488270770428,-0.75991637,-2.5143213,-0.38973203,258.4279,-120.53552,-0.0064716046,CSI
8144052273000,1.944985,-1.8016245570329,3.50701107258996,-7.51122399340004,-0.7648033,-2.404671,-0.36010507,259.139,-120.5214,-0.16404772,CSI
8144057296000,1.950008,-3.20856192778526,3.29411933151818,-7.64081033781028,-0.7284568,-2.3564126,-0.3481932,259.8431,-120.56172,-0.48383588,CSI
8144062269000,1.954981,-4.58812740325929,3.10208162495448,-7.68044307357975,-0.67011917,-2.3301454,-0.3390302,260.59604,-120.63283,-1.0015327,CSI
8144067296000,1.960008,-5.85042458608886,3.09331572505462,-6.8432946217043,-0.59956425,-2.287385,-0.3436117,261.32217,-120.72748,-1.4975203,CSI
8144072185000,1.964897,-7.07806948898398,3.08479046453933,-6.02912736862709,-0.5491679,-2.179567,-0.36346483,261.9211,-120.9115,-2.186531,CSI
8144077283000,1.969995,-7.7073118781798,2.99270211862528,-5.65928859834711,-0.51007247,-2.0595322,-0.39492437,262.49762,-121.12287,-2.8616574,CSI
8144082307000,1.975019,-8.24072462206208,2.89086864634146,-5.35863749090909,-0.49174652,-1.9343048,-0.47036624,263.031,-121.35364,-3.5259228,CSI
8144087587000,1.980299,-9.46325012863977,2.86320640922421,-5.49443495717554,-0.48899764,-1.7507398,-0.605062,263.4164,-121.512665,-4.4001102,CSI
8144092628000,1.98534,-10.7035642578024,2.91217389393639,-5.70177817596354,-0.49235737,-1.5650368,-0.8081747,263.74615,-121.69943,-5.2818556,CSI
8144097301000,1.990013,-12.1534841595165,3.97633507603289,-6.50876726414347,-0.5174029,-1.4202617,-1.0729848,263.9946,-121.88605,-6.265276,CSI
8144102670000,1.995382,-13.7909334162874,5.24680063452787,-7.41998167804323,-0.5500842,-1.3967434,-1.3793337,264.16382,-122.15675,-7.4573555,CSI
8144107267000,1.999979,-14.6882867307546,7.18341501478953,-7.91665641069397,-0.52473325,-1.5326608,-1.7027869,264.29355,-122.48888,-8.703914,CSI
8144112260000,2.004972,-15.6629408745734,9.28685543259386,-8.45611626279863,-0.34330627,-1.772731,-1.9862283,264.3753,-122.97302,-10.205257,CSI
8144117262000,2.009974,-15.4756898091659,11.6112719143961,-8.11680341528343,-0.04917465,-1.9660698,-2.1853704,264.4433,-123.55479,-11.74057,CSI
8144122183000,2.014895,-15.101779601733,13.9334516922435,-7.63957583933605,0.27763826,-1.815797,-2.2721133,264.45862,-124.24605,-13.263514,CSI
8144127225000,2.019937,-13.9025574959029,14.6061114492053,-8.0680993289071,0.5671884,-1.1695015,-2.3774874,264.36554,-124.967545,-14.829112,CSI
8144132225000,2.024937,-12.6497911813604,15.1403097906012,-8.56447829030506,0.84299403,-0.6872234,-2.4599543,264.26956,-125.80166,-16.352192,CSI
8144137255000,2.029967,-11.0480345454191,14.949365943897,-10.6619703316909,0.98868537,0.3707952,-2.6893342,263.85672,-126.45319,-17.590082,CSI
8144142215000,2.034927,-9.43516150024393,14.6898232607084,-12.8866222821251,1.2180653,1.4049901,-2.7937922,263.34186,-127.202484,-18.693598,CSI
8144147276000,2.039988,-7.67431462796328,13.6737885425199,-13.4794513640674,1.3475688,2.2950208,-2.6762006,262.61935,-127.90463,-19.434284,CSI
8144152186000,2.044898,-5.94768809008373,12.5685580926057,-13.7877778676485,1.4001031,2.6929994,-2.4669793,261.76266,-128.63512,-20.059727,CSI
8144157284000,2.049996,-4.69326240895216,11.4636344602289,-11.8223556976812,1.396438,2.5173757,-2.3338106,260.85062,-129.49855,-20.3557,CSI
8144162213000,2.054925,-3.557149995656,10.4014149471676,-9.59631445817435,1.3445144,2.122146,-2.3151793,259.91418,-130.31833,-20.582916,CSI
8144167294000,2.060006,-5.41979532891854,10.1014095120494,-6.90835851073491,1.2180653,1.5225816,-2.3948972,259.10144,-131.12534,-20.679497,CSI
8144172183000,2.064895,-7.79767927158932,9.96619667566222,-4.24606062013543,1.0635164,0.72143185,-2.610227,258.41696,-131.90561,-20.893995,CSI
8144177255000,2.069967,-8.30033849071071,10.8082407476654,-3.1779108006881,1.063211,-0.6612616,-3.2183435,257.95255,-132.60747,-21.382761,CSI
8144182266000,2.074978,-8.36638143143615,11.8554875343556,-2.49389831618991,1.1175779,-1.9443841,-3.623958,257.6533,-133.27542,-21.98774,CSI
8144187287000,2.079999,-7.19464208195572,10.8316931876565,-2.31741844710951,0.84421575,-1.7919732,-3.6092973,257.26337,-133.83658,-22.98099,CSI
8144192230000,2.084942,-5.73385132213205,9.30924572096984,-2.26999011201282,0.73761976,-0.9477574,-3.5170567,256.9627,-134.51617,-24.131847,CSI
8144197296000,2.090008,-4.78954057314872,8.34533455416703,-2.34484976901236,0.79351395,-0.15607607,-3.510948,256.66855,-135.05632,-25.249191,CSI
8144202269000,2.094981,-4.00072175295767,7.54816875547279,-2.44919085719919,0.8542951,0.5821546,-3.5647042,256.199,-135.57837,-26.20026,CSI
8144207287000,2.099999,-3.26088314706685,6.99975746152797,-2.75363891105048,0.91446525,1.3231341,-3.6829066,255.4854,-136.1857,-26.918766,CSI
8144212246000,2.104958,-2.58058363572403,6.68968881042682,-3.23493924198987,0.9098838,2.2058344,-3.7592647,254.55426,-136.78922,-27.467085,CSI
8144217258000,2.10997,-2.07890996523565,6.33935044969035,-3.52828274216438,0.8188649,3.0757065,-3.771482,253.39441,-137.43266,-27.815264,CSI
8144222247000,2.114959,-1.79305026732445,5.94817415050908,-3.59849394932298,0.7360926,3.7504072,-3.737579,252.06317,-138.06822,-28.0251,CSI
8144227248000,2.11996,-1.3981873469337,5.71576638232044,-3.45246532679558,0.7049385,3.9749002,-3.663359,250.62021,-138.68622,-28.034945,CSI
8144232270000,2.124982,-0.915468651414365,5.60947959049724,-3.13360527502762,0.7049385,4.3041563,-3.5979962,249.00714,-139.26709,-27.87143,CSI
8144237183000,2.129895,-0.140240146448972,5.33953504181694,-2.56402736453845,0.7134906,4.391205,-3.3264668,247.47296,-139.79146,-27.60721,CSI
8144242289000,2.135001,1.18007093119797,4.77709214504338,-1.53447067560191,0.7076874,4.057367,-2.9275718,246.02362,-140.25888,-27.304245,CSI
8144247308000,2.14002,2.36025324291429,4.34070415142857,-0.735712172189714,0.5849035,3.248276,-2.5176811,244.68994,-140.62714,-26.980385,CSI
8144252327000,2.145039,3.31699538571429,4.12555157142857,-0.342028806285714,0.39920044,1.9168952,-2.140472,243.64893,-140.90074,-26.744785,CSI
8144257196000,2.149908,3.54697726529258,4.39147335254374,-0.462707274066358,0.1966986,0.5317582,-1.8698585,242.78568,-141.05621,-26.549484,CSI
8144262250000,2.154962,1.35709878127891,6.31856649977881,-2.33626997773336,0.07696902,-0.25900686,-1.7635679,242.13977,-141.14287,-26.453848,CSI
8144267209000,2.159921,-0.408804227114902,7.58168461216257,-3.39985382289012,0.047647487,-0.48441613,-1.8594738,241.66849,-141.13615,-26.404716,CSI
8144272844000,2.165556,-1.03158493604616,6.7476999186854,-1.80770131107376,0.0027488936,-0.77121735,-2.0073032,241.40567,-141.0834,-26.512373,CSI
8144277224000,2.169936,-1.25397637755558,5.69708781950952,-0.786029470923138,-0.28099802,-1.5470163,-2.1190915,241.36526,-140.97745,-26.872055,CSI
8144282224000,2.174936,-0.747974264107268,3.3293795650982,-0.24661207983551,-0.6713409,-2.638327,-2.1881194,241.4469,-140.85468,-27.368143,CSI
8144287236000,2.179948,-0.283909806378828,1.35858557845326,-0.370937570103875,-0.8191703,-3.441004,-2.0986276,241.71558,-140.73346,-28.134686,CSI
8144292253000,2.184965,0.0459212689025381,0.642504998420378,-2.57125810128805,-0.6420194,-3.5769215,-1.9498819,242.1016,-140.6074,-28.974312,CSI
8144297386000,2.190098,0.33276437136731,0.00556695119922421,-4.82549936251481,-0.3136793,-3.143207,-1.8741345,242.46115,-140.73355,-29.945553,CSI
8144302261000,2.194973,-0.180334132296089,0.885882975172934,-7.01371331440578,-0.0106901415,-2.5735753,-1.8750509,242.85062,-140.88911,-30.893915,CSI
8144307373000,2.200085,-0.531037219444389,1.60901561054668,-9.0708586556206,0.20616703,-2.0088303,-1.7614299,242.9246,-141.35902,-31.565275,CSI
8144312246000,2.204958,-0.132840070375037,1.51641164038099,-10.1033931574561,0.34025195,-1.5198327,-1.6245961,242.86868,-141.87129,-32.126923,CSI
8144317247000,2.209959,0.198326575139704,1.41720354507998,-11.0799435205001,0.5183192,-0.9807441,-1.4804319,242.52628,-142.49533,-32.390163,CSI
8144322290000,2.215002,0.120098857673618,1.29497277323345,-11.622648278194,0.7644979,-0.46914452,-1.4019357,242.08229,-143.13982,-32.535904,CSI
8144327262000,2.219974,-0.156864249576457,1.21844448079141,-12.0927721501293,0.9636399,-0.5403103,-1.4404203,241.54611,-143.88075,-32.56011,CSI
8144332303000,2.225015,-1.31362311098429,1.33364040238616,-12.2847654363193,0.9062186,-0.5131268,-1.4052955,240.90842,-144.58057,-32.422676,CSI
8144337260000,2.229972,-2.64030554130497,1.63144587150522,-11.9414485377024,1.0613784,-0.4642576,-1.4480561,240.18289,-145.45566,-32.290943,CSI
8144342931000,2.235643,-5.16925970965795,2.95836625137492,-8.70480339503689,1.1432343,-1.5351044,-1.5839735,239.70096,-146.30042,-32.39744,CSI
8144347310000,2.240022,-7.07585870567993,3.89319530754717,-6.50264787408349,0.8045095,-1.8527542,-1.6291776,239.0448,-147.11801,-32.44529,CSI
8144352398000,2.24511,-8.86220646112034,4.14566570754717,-6.70271883781406,0.7855727,-2.1676552,-1.7476854,238.5758,-148.03879,-32.752075,CSI
8144357441000,2.250153,-10.5070046583439,4.4127924031687,-6.98347541937534,0.8949176,-2.1810944,-1.8457294,238.44574,-148.68819,-33.60069,CSI
8144362229000,2.254941,-10.6402274762121,4.85825737687489,-8.18664713137824,1.0329732,-1.9355265,-1.8640553,238.31107,-149.33702,-34.44894,CSI
8144367222000,2.259934,-10.7791542785546,5.32279509903759,-9.44133308752497,1.1337659,-1.5625933,-1.8619173,238.12827,-150.0999,-35.506447,CSI
8144372253000,2.264965,-10.5396868595478,5.36992186847411,-9.94776951786239,1.2486086,-1.1896601,-1.8671097,237.87878,-150.88353,-36.48158,CSI
8144377202000,2.269914,-10.2288807467946,5.33281071396692,-10.2956870757561,1.3573426,-0.83260936,-1.8671097,237.54877,-151.66801,-37.34549,CSI
8144382219000,2.274931,-9.67992321147558,5.27699534806455,-10.2166265990929,1.493871,-0.5012149,-1.8729129,237.06087,-152.4764,-37.97054,CSI
8144387189000,2.279901,-9.07247608775446,5.21675272049362,-10.0208376401224,1.6282613,-0.21960606,-1.8887954,236.50575,-153.28464,-38.501423,CSI
8144392308000,2.28502,-8.4554707357821,5.0261493136089,-9.73525631053995,1.7739527,-0.014966198,-1.8875736,235.85251,-154.10997,-38.874733,CSI
8144397268000,2.28998,-7.85869097554426,4.82570409254819,-9.44825559317157,1.8942931,0.14813483,-1.8851302,235.1539,-154.93668,-39.175186,CSI
8144402313000,2.295025,-7.28129558713651,4.40975022885703,-9.25534385440226,2.0152445,0.24831672,-1.8713857,234.42192,-155.74367,-39.36042,CSI
8144407187000,2.299899,-6.72987684713247,3.96201707903877,-9.09038917084007,2.133447,0.30024028,-1.8591684,233.68068,-156.55402,-39.50398,CSI
8144412254000,2.304966,-6.23700860625309,3.6815654204017,-8.89020371969922,2.2452352,0.33017266,-1.822211,232.92871,-157.35315,-39.56372,CSI
8144417237000,2.309949,-5.76957002569506,3.44548530630256,-8.68717518838429,2.3671029,0.29901853,-1.7864754,232.19742,-158.15845,-39.612614,CSI
8144422288000,2.315,-5.60139046310776,3.26386842397301,-8.84199673407422,2.468201,0.18112154,-1.738828,231.44115,-158.99927,-39.622917,CSI
8144427254000,2.319966,-5.5070095586029,3.09870216138123,-9.07794825620163,2.574797,0.08368854,-1.6465873,230.72961,-159.8336,-39.614075,CSI
8144432301000,2.325013,-6.08717383048998,2.84304622567943,-9.51246771979766,2.6169467,-0.059253927,-1.5989398,230.02148,-160.67148,-39.600067,CSI
8144437253000,2.329965,-6.82568049266019,2.57022221512597,-9.98755764878,2.6899452,-0.0018325958,-1.4697418,229.37149,-161.48859,-39.527107,CSI
8144442308000,2.33502,-7.84604829891957,2.13921394927509,-10.5162091596639,2.791654,0.090713486,-1.3274102,228.72322,-162.32985,-39.435432,CSI
8144447327000,2.340039,-8.93351436614646,1.66871850292732,-11.0532843361345,2.8997774,0.20250183,-1.1890492,228.12572,-163.14847,-39.300674,CSI
8144452370000,2.345082,-9.90846092927553,1.31624952322136,-11.3576391795387,2.9856038,0.40225476,-1.0604621,227.50626,-164.04105,-39.168304,CSI
8144457291000,2.350003,-10.7924668449612,1.04112510232558,-11.5200076899225,3.042109,0.6270532,-0.9282097,226.9434,-164.90596,-38.977444,CSI
8144462283000,2.354995,-11.4038164868534,0.836751507404874,-11.5596378156263,3.1154127,0.7828238,-0.8005389,226.35844,-165.89375,-38.861458,CSI
8144467291000,2.360003,-11.7626501781744,0.698344347285165,-11.4878712914707,3.1731396,0.88025683,-0.6774496,225.8312,-166.84407,-38.682358,CSI
8144472289000,2.365001,-11.7449859682075,0.752377460396226,-11.2908801400943,3.1871893,0.9932669,-0.5708536,225.32962,-167.83562,-38.56151,CSI
8144477229000,2.369941,-11.5352181889623,0.904124660018868,-11.0320171495283,3.2162056,1.1047498,-0.45937067,224.8988,-168.79463,-38.396984,CSI
8144482393000,2.375105,-11.2086390512712,0.892058495864543,-10.622570970672,3.2641585,1.1820242,-0.36926803,224.50784,-169.75252,-38.25227,CSI
8144487266000,2.379978,-10.8147763458171,0.744360071283891,-10.1253193371664,3.2974505,1.2229522,-0.29871312,224.17612,-170.67409,-38.075356,CSI
8144492256000,2.384968,-10.5003539029777,0.416190731351804,-9.77852379639124,3.3108897,1.1972959,-0.25809056,223.91628,-171.53726,-37.88114,CSI
8144497267000,2.389979,-10.2353756618024,-0.014398258367186,-9.52300973437192,3.2922583,1.1246029,-0.22571471,223.70598,-172.37193,-37.68416,CSI
8144502257000,2.394969,-9.98851711410807,-0.349660717363994,-9.41026837578861,3.249803,1.074512,-0.21655174,223.52039,-173.19489,-37.486774,CSI
8144507254000,2.399966,-9.75223810167322,-0.625319872843559,-9.38839068099113,3.211013,1.042747,-0.18295415,223.38092,-173.98943,-37.30198,CSI
8144512242000,2.404954,-9.45101718320367,-0.919559224784184,-9.2073348415219,3.1367931,1.0079277,-0.15118915,223.19298,-174.82301,-37.126648,CSI
8144517261000,2.409973,-9.05657181754236,-1.24228730618352,-8.8026439332836,3.0497448,0.883922,-0.1142318,223.0451,-175.62282,-36.98392,CSI
8144522249000,2.414961,-8.73014451366441,-1.47513500340876,-8.45376213870114,2.9236012,0.7984009,-0.06811147,222.8876,-176.42334,-36.813755,CSI
8144527262000,2.419974,-8.45739537907729,-1.63502235263003,-8.14809508977373,2.7782152,0.6001751,-0.040011674,222.76195,-177.18156,-36.710426,CSI
8144532386000,2.425098,-8.22688565826303,-1.70421058282878,-7.87868906962779,2.6994135,0.40133846,0.019547688,222.65767,-177.94206,-36.624878,CSI
8144537256000,2.429968,-8.05097656952854,-1.68569385191067,-7.66111733632754,2.5341744,0.20708331,0.079107046,222.57933,-178.63164,-36.593517,CSI
8144542276000,2.434988,-7.89997468136603,-1.80898304354214,-7.44849283974983,2.3655756,-0.005497787,0.14172074,222.52293,-179.30315,-36.619057,CSI
8144547366000,2.440078,-7.77899311768093,-2.08482132607962,-7.24524372786657,2.1951442,-0.22296582,0.18875736,222.49045,-179.91705,-36.699093,CSI
8144552187000,2.444899,-7.61998918416715,-2.44069978514472,-7.0032883233755,2.0332649,-0.48899764,0.20189096,222.4401,179.51007,-36.848125,CSI
8144557289000,2.450001,-7.39989514353076,-2.92771624629097,-6.6895371807073,1.8295414,-0.8155051,0.1966986,222.40079,179.00162,-37.07242,CSI
8144562202000,2.454914,-7.24001151408019,-3.57979867679222,-6.47997272960875,1.5867225,-1.0488557,0.15851954,222.32149,178.49756,-37.347996,CSI
8144567291000,2.460003,-7.16184380626489,-4.56281662940462,-6.41838613391981,1.3301591,-1.1765264,0.11148291,222.23232,178.05095,-37.679115,CSI
8144572180000,2.464892,-7.08674812469502,-5.50720153219927,-6.35921991927582,1.0922271,-1.1863003,0.1301143,222.10083,177.58502,-38.044468,CSI
8144577277000,2.469989,-7.00845753582989,-6.49176480680437,-6.29753650834508,0.8399397,-1.0803152,0.16554448,221.9529,177.18405,-38.403885,CSI
8144582651000,2.475363,-6.96638548396745,-7.47657911047813,-6.28090258571719,0.5842926,-0.98929626,0.1423316,221.77815,176.83452,-38.7615,CSI
8144587290000,2.480002,-7.00254151018311,-8.23133780356053,-6.35321468534079,0.3585779,-0.90194255,0.11362094,221.61209,176.54613,-39.08248,CSI
8144592240000,2.484952,-7.04891493046127,-8.98550198699352,-6.34128892006576,0.19975294,-0.84482664,0.079107046,221.22821,175.98895,-39.359386,CSI
8144598114000,2.490826,-7.12507397328111,-9.74164983410695,-6.08561291652645,0.0720821,-0.84665924,0.025350908,220.8234,175.47578,-39.616974,CSI
8144602232000,2.494944,-7.15045435731029,-10.1768399154703,-5.85387852757105,-0.07086037,-0.9569204,-0.032375857,220.31114,174.88254,-39.862484,CSI
8144607289000,2.500001,-7.09369480464889,-10.4133372695576,-5.40453362888954,-0.24495697,-1.1291844,-0.0729984,219.78171,174.33012,-40.11409,CSI
8144612221000,2.504933,-7.02919253937735,-10.3992292865207,-5.04623326630175,-0.43279803,-1.2296717,-0.15943582,219.12648,173.69518,-40.386906,CSI
8144617234000,2.509946,-6.92243407582963,-9.28236980230072,-5.0421271682518,-0.5671884,-1.1337659,-0.24007004,218.45877,173.09511,-40.637016,CSI
8144622203000,2.514915,-6.81661265046185,-8.17531319406432,-5.03805711016079,-0.6249151,-1.0601566,-0.2706133,217.72635,172.48236,-40.941154,CSI
8144627237000,2.519949,-6.81513450360889,-7.35306770883457,-5.053001785064,-0.65484756,-0.9645562,-0.27672195,216.9798,171.89572,-41.195103,CSI
8144632230000,2.524942,-6.83354147608507,-6.59377564945626,-5.07140885364258,-0.73792523,-0.9789116,-0.3005457,216.21341,171.33658,-41.44338,CSI
8144637252000,2.529964,-6.77106220727346,-5.88965725868997,-5.10909647068515,-0.8524625,-0.9935723,-0.33292156,215.6008,170.98286,-41.67862,CSI
8144642196000,2.534908,-6.68544254771951,-5.21421243891903,-5.15190652397026,-0.95264435,-0.9624182,-0.37415496,214.97638,170.6417,-41.89486,CSI
8144647256000,2.539968,-6.6407524987546,-4.6965657410133,-5.22895557469573,-1.0213667,-0.9611965,-0.410196,214.43057,170.43288,-42.13904,CSI
8144652247000,2.544959,-6.6091847416077,-4.23658074341919,-5.31463897569582,-1.056186,-1.0015136,-0.45173484,213.86333,170.23009,-42.37732,CSI
8144657253000,2.549965,-6.5891677271345,-3.90701590990253,-5.44254597497076,-1.0619892,-1.0177015,-0.50976706,213.3639,170.12471,-42.60944,CSI
8144662295000,2.555007,-6.5750489477193,-3.64346521339181,-5.59314638701754,-1.0549643,-1.072374,-0.5491679,212.84576,170.01889,-42.857533,CSI
8144667928000,2.56064,-6.54410038135071,-3.38622929012625,-5.71246066940367,-1.0430524,-1.1139128,-0.5839872,212.37694,169.9787,-43.101234,CSI
8144672289000,2.565001,-6.51409412315509,-3.20190508787848,-5.78533318977728,-1.0442741,-1.1383474,-0.59681535,211.89583,169.93544,-43.350258,CSI
8144677280000,2.569992,-6.52965754997259,-3.18403890832378,-5.77499605512635,-1.0442741,-1.1866057,-0.5919284,211.44897,169.93103,-43.602108,CSI
8144682382000,2.575094,-6.57105894617455,-3.26440615245477,-5.71654696535912,-1.0180069,-1.2596041,-0.5662721,210.99907,169.92221,-43.86451,CSI
8144687285000,2.579997,-6.61084550940039,-3.34163872751832,-5.6603776421273,-0.9950995,-1.3326025,-0.5308419,210.58908,169.95111,-44.13193,CSI
8144692304000,2.585016,-6.65157338230075,-3.42069854686238,-5.60287940975926,-0.99173975,-1.409877,-0.5143485,210.17294,169.97874,-44.41736,CSI
8144697369000,2.590081,-6.77108590550075,-3.3932357858296,-5.7017097955157,-1.0021244,-1.5247196,-0.51893,209.75363,170.00635,-44.73202,CSI
8144702406000,2.595118,-6.92971717297459,-3.31151652179372,-5.87956935246637,-1.026559,-1.5919148,-0.5161811,209.339,170.03947,-45.051846,CSI
8144707288000,2.6,-7.21504490737918,-3.34879360482381,-6.05995726070116,-1.0213667,-1.5830573,-0.4905248,208.89896,170.0446,-45.40241,CSI
8144712268000,2.60498,-7.57424610526316,-3.44714630526316,-6.24811030526316,-0.97494096,-1.4688255,-0.47769663,208.45625,170.043,-45.735535,CSI
8144717264000,2.609976,-8.04809158309038,-3.53921172575316,-6.35686844217687,-0.93218035,-1.2999213,-0.49541172,208.03812,170.06047,-46.04391,CSI
8144722288000,2.615,-8.68711606511176,-3.62233692778318,-6.35167317808012,-0.9111055,-1.2009611,-0.55741453,207.61024,170.06519,-46.332336,CSI
8144727273000,2.619985,-9.24322566030459,-3.61843523265427,-6.36006425425237,-0.9126327,-0.9801333,-0.5919284,207.20874,170.0615,-46.561657,CSI
8144732267000,2.624979,-9.73984271034415,-3.54748991157041,-6.37898288142801,-0.91996306,-0.74220127,-0.6740898,206.7753,170.03156,-46.74618,CSI
8144737719000,2.630431,-10.1534729312955,-3.31606665637069,-6.41985996943232,-0.9101892,-0.49418998,-0.74372846,206.3272,169.99194,-46.93587,CSI
8144742280000,2.634992,-10.4205111825327,-3.0278350469869,-6.46648573799127,-0.83169305,-0.29352075,-0.732122,205.90074,169.94135,-47.068985,CSI
8144747304000,2.640016,-10.5868300809476,-2.5757469221875,-6.48371828751008,-0.79504114,-0.12858713,-0.6743952,205.49168,169.91779,-47.20183,CSI
8144752291000,2.645003,-10.6157169768145,-1.983567165625,-6.46446037368952,-0.691194,0.023518313,-0.5662721,205.13107,169.88113,-47.284664,CSI
8144757274000,2.649986,-10.5284256291802,-1.52258966660615,-6.46381929114275,-0.56596667,0.124311075,-0.41355577,204.8804,169.9211,-47.381718,CSI
8144762286000,2.654998,-10.3220472148863,-1.19238473050831,-6.48216404440092,-0.42485678,0.1704314,-0.28130344,204.67665,169.95679,-47.4566,CSI
8144767285000,2.659997,-9.95481714810244,-0.944308794168466,-6.59047020119305,-0.2406809,0.20219639,-0.15424347,204.6405,170.09079,-47.54156,CSI
8144772287000,2.664999,-9.34882199290342,-0.816212219654428,-6.83188288522061,-0.06291912,0.30024028,-0.041233405,204.66136,170.22148,-47.60196,CSI
8144777254000,2.669966,-8.64911233531327,-0.732015751859892,-7.06716452633448,0.10598512,0.45845437,0.059864793,204.80406,170.39798,-47.622257,CSI
8144782640000,2.675352,-7.76356338036507,-0.696390244844598,-7.31654328801184,0.23243423,0.6252206,0.14508049,204.99178,170.56569,-47.618237,CSI
8144787271000,2.679983,-7.10631218571429,-0.698002315925059,-7.5699778515808,0.32070425,0.7703011,0.21533,205.27821,170.74,-47.48304,CSI
8144792291000,2.685003,-6.52460175714286,-0.740223219906323,-7.893671595726,0.39950588,0.85918194,0.28313604,205.60066,170.90562,-47.324593,CSI
8144797228000,2.68994,-6.05493689493264,-0.733993940649507,-8.1888532936859,0.48075095,0.9428705,0.3323107,205.9991,171.06221,-47.000053,CSI
8144802341000,2.695053,-5.74477458322944,-0.645376253340036,-8.45470667434144,0.54702985,1.0180069,0.37659842,206.41867,171.21524,-46.661938,CSI
8144807359000,2.700071,-5.52436449047179,-0.579303799481961,-8.66918968316374,0.5897904,1.0338894,0.4025602,206.88435,171.3567,-46.204735,CSI
8144812286000,2.704998,-5.42833602986124,-0.544384313681776,-8.81323241965772,0.59864795,0.98899084,0.41630468,207.3504,171.49307,-45.752792,CSI
8144817256000,2.709968,-5.32982673475987,-0.525359098868283,-8.90813441730861,0.58246,0.90285885,0.42394048,207.862,171.65453,-45.23951,CSI
8144822295000,2.715007,-5.22427034740846,-0.562074311944841,-8.83011449966714,0.5900958,0.84574294,0.42913285,208.36095,171.80473,-44.739952,CSI
8144827264000,2.719976,-5.11977140200118,-0.618225453105749,-8.73190748597214,0.59223384,0.68630713,0.4361578,208.85724,171.97156,-44.262585,CSI
8144832294000,2.725006,-5.0110860988817,-0.816694756205611,-8.48145799313322,0.5742133,0.54000485,0.42546764,209.33025,172.13046,-43.806004,CSI
8144837270000,2.729982,-4.90654363278689,-1.01251966803279,-8.23189298688525,0.54550266,0.42546764,0.41263947,209.77663,172.27568,-43.387947,CSI
8144842295000,2.735007,-4.83258345860656,-1.20481627535861,-7.96070568155738,0.5021312,0.35827246,0.40653083,210.20294,172.42023,-43.00448,CSI
8144847313000,2.740025,-4.76450238158677,-1.39186501043978,-7.68236330457607,0.47311515,0.31795537,0.4016439,210.55127,172.50919,-42.663204,CSI
8144852242000,2.744954,-4.73177369465135,-1.54615725919176,-7.3644276699683,0.419359,0.30298916,0.3930918,210.88657,172.60616,-42.33826,CSI
8144857240000,2.749952,-4.70988310606357,-1.69881407452323,-7.05117924870416,0.36468655,0.27580565,0.3707952,211.16844,172.65627,-42.05679,CSI
8144862283000,2.754995,-4.78073269393643,-1.82162012547677,-6.81029055129584,0.3359759,0.25381452,0.3359759,211.43805,172.70541,-41.78073,CSI
8144867297000,2.760009,-4.85856506021402,-1.9364201120428,-6.57995247381808,0.301462,0.26816985,0.31856623,211.65465,172.71942,-41.541443,CSI
8144872259000,2.764971,-5.02528773794404,-1.96142848758881,-6.46324667774757,0.26145032,0.3023783,0.30115658,211.85643,172.73264,-41.30361,CSI
8144877200000,2.769912,-5.1913048178844,-1.98633102357688,-6.34703479979826,0.19181168,0.30451632,0.28955013,212.01604,172.7247,-41.113285,CSI
8144882269000,2.774981,-5.44206479033914,-1.98055823437657,-6.19890497438865,0.11026118,0.30024028,0.2574797,212.16269,172.71997,-40.91545,CSI
8144887201000,2.779913,-5.70824553016001,-1.96629856518064,-6.04680163776794,0.060170226,0.33414328,0.23762658,212.31148,172.72267,-40.708504,CSI
8144892282000,2.784994,-5.98418857903242,-1.93682029545588,-6.03688455582215,0.0070249503,0.38453966,0.21288654,212.433,172.72905,-40.544918,CSI
8144897273000,2.789985,-6.25568729703261,-1.90405316582117,-6.06497062504162,-0.060170226,0.4437936,0.18967366,212.54971,172.74504,-40.37038,CSI
8144902369000,2.795081,-6.50395649660705,-1.85039174071538,-6.11369346201329,-0.13775012,0.45814893,0.15027285,212.6333,172.76894,-40.252773,CSI
8144907185000,2.799897,-6.73020602433316,-1.79382940800204,-6.16554251309147,-0.21685717,0.43004912,0.105068825,212.70631,172.80148,-40.13107,CSI
8144912278000,2.80499,-6.6479295741508,-1.43313259361869,-6.43058710967014,-0.3036,0.35888332,0.057726767,212.75891,172.8551,-40.056618,CSI
8144917194000,2.809906,-6.48615992141174,-1.00790957812291,-6.74026031253682,-0.37048978,0.32528573,0.03176499,212.80214,172.91614,-39.9801,CSI
8144922956000,2.815668,-6.21472970272297,-0.648419561308208,-7.08329014071626,-0.39553526,0.22052236,0.024740042,212.8267,172.99654,-39.97244,CSI
8144927206000,2.819918,-5.99789097936069,-0.411503185518942,-7.33225305261444,-0.4297437,0.09040806,0.018020526,212.83687,173.08723,-39.981224,CSI
8144932304000,2.825016,-5.73502541835652,-0.392378772017816,-7.61976400438395,-0.4196644,-0.015882496,0.008246681,212.92204,173.26436,-39.95431,CSI
8144937223000,2.829935,-5.48041145973376,-0.467819969924932,-7.89323824894405,-0.39950588,-0.06414085,-0.025350908,212.9883,173.4374,-39.947212,CSI
8144942287000,2.834999,-5.26489042557966,-0.71406201682652,-8.04090583918428,-0.39278635,-0.032070424,-0.046731193,213.12146,173.67374,-39.871937,CSI
8144947310000,2.840022,-5.06779663350405,-1.01866136271999,-8.13945280538225,-0.3830125,0.05100725,-0.065973446,213.238,173.8939,-39.79609,CSI
8144952285000,2.844997,-4.95387242323064,-1.37132535407993,-8.12512699875104,-0.36377025,0.15302174,-0.08032878,213.36783,174.09433,-39.62883,CSI
8144957308000,2.85002,-4.89379215711907,-1.76184734520192,-8.03500628590758,-0.3640757,0.2669481,-0.08246681,213.49472,174.29048,-39.438583,CSI
8144962279000,2.854991,-4.83444678656404,-1.97816807354656,-7.84561854748169,-0.36163223,0.3744604,-0.08674286,213.58923,174.40833,-39.175793,CSI
8144967281000,2.859993,-4.77478550819011,-2.11419568557266,-7.6069737330145,-0.3640757,0.45723262,-0.094989546,213.6831,174.52306,-38.8938,CSI
8144972280000,2.864992,-4.71516001227021,-2.25014171366512,-7.36847204818413,-0.39003745,0.4978552,-0.09896017,213.72714,174.56017,-38.597805,CSI
8144977273000,2.869985,-4.65560608125841,-2.3859245738903,-7.13025662262741,-0.4279111,0.4886922,-0.08277224,213.77759,174.60165,-38.299465,CSI
8144982831000,2.875543,-4.48625594810614,-2.42887680622411,-7.05216175584928,-0.44012842,0.4092797,-0.038179077,213.83604,174.6464,-38.017117,CSI
8144987365000,2.880077,-4.31065235708226,-2.42459374599527,-7.0564447713553,-0.41263947,0.2941316,0.025350908,213.90547,174.69547,-37.755238,CSI
8144992788000,2.8855,-4.11647617398058,-2.38545791747573,-7.19778277561165,-0.3494149,0.17562376,0.100792766,213.93152,174.68066,-37.55768,CSI
8144997284000,2.889996,-3.96180417087379,-2.33947431359223,-7.36917605747573,-0.2519819,0.10934488,0.15882497,213.97266,174.65947,-37.382786,CSI
8145002291000,2.895003,-3.70453611243054,-2.2469534895143,-7.5468173291418,-0.16493362,0.089491755,0.23854288,214.0586,174.64285,-37.20188,CSI
8145007291000,2.900003,-3.38425796877958,-2.12376965539206,-7.71434737647664,-0.0842994,0.07147124,0.3417791,214.17155,174.61922,-37.04435,CSI
8145012285000,2.904997,-3.21008062106184,-2.0606058084014,-7.82319690538701,-0.004276057,0.036957346,0.4822781,214.35936,174.61305,-36.850155,CSI
8145017300000,2.910012,-3.12134818378063,-2.03258500793466,-7.89791913749514,0.08582657,0.03604105,0.60994893,214.57933,174.60043,-36.657326,CSI
8145022288000,2.915,-3.17261339959465,-2.040149064167,-7.885155242197,0.16615535,0.076052725,0.6808093,214.87344,174.61603,-36.394375,CSI
8145027332000,2.920044,-3.32925832606405,-2.07441524406161,-7.80683267673287,0.20922135,0.1459968,0.79198676,215.22487,174.64487,-36.132168,CSI
8145032219000,2.924931,-3.50468074168937,-2.1208191880109,-7.73565912942779,0.2669481,0.24740042,0.9007208,215.62276,174.67448,-35.827473,CSI
8145037267000,2.929979,-3.70227092399637,-2.17790074325159,-7.66540499929155,0.28252518,0.3399465,0.9960158,216.05222,174.71564,-35.512756,CSI
8145042258000,2.93497,-3.9584787188896,-2.33365249204425,-7.58532211967666,0.31429017,0.37140608,1.0836749,216.48239,174.74023,-35.227215,CSI
8145047354000,2.940066,-4.31664020070198,-2.65028802380345,-7.48669787989789,0.36346483,0.30909783,1.1624765,216.93723,174.76662,-34.948856,CSI
8145052390000,2.945102,-4.98242574063904,-3.1429137565352,-7.63367124563155,0.43188173,0.20586158,1.2244794,217.37384,174.77075,-34.72365,CSI
8145057295000,2.950007,-5.89705151572641,-3.77611609942087,-7.98545010733899,0.47525316,0.13408493,1.2336423,217.81343,174.76973,-34.510807,CSI
8145062991000,2.955703,-7.4009369033675,-4.23601914128843,-8.4956789443631,0.47158796,0.11636983,1.176221,218.19315,174.70158,-34.37799,CSI
8145067290000,2.960002,-8.78334004421669,-4.42891256474378,-8.93772650424597,0.441961,0.14721853,1.0537425,218.55003,174.61957,-34.250942,CSI
8145072283000,2.964995,-10.4144994702309,-3.96031973001215,-9.334215654516,0.3943135,0.07819075,0.90224797,218.78564,174.42358,-34.259056,CSI
8145077243000,2.969955,-12.0642388626974,-2.70016875066829,-9.59394166504658,0.2932153,-0.17012598,0.7846564,218.98564,174.23761,-34.30622,CSI
8145082214000,2.974926,-13.4876701740291,-1.2406739051092,-9.12615677359423,0.21074851,-0.4654793,0.7425067,219.07867,174.04968,-34.59133,CSI
8145087263000,2.979975,-14.6775082632671,0.460459983298745,-7.8407494320585,0.27091873,-0.83260936,0.6789767,219.1128,173.8391,-34.95235,CSI
8145092240000,2.984952,-15.3559919960892,1.94563674827923,-6.52224016767697,0.44226643,-1.2858714,0.5882632,219.1454,173.89612,-35.673485,CSI
8145097281000,2.989993,-15.4503929518968,3.22005053883457,-5.12510493742667,0.6704246,-1.5424347,0.45998153,219.14021,173.90775,-36.407463,CSI
8145102236000,2.994948,-14.7672648271457,4.1391283787026,-4.55195867065868,0.88453287,-1.3451253,0.34574974,219.15341,174.19936,-37.441677,CSI
8145107277000,2.999989,-12.9508667536926,4.59202338986028,-5.12530450299401,0.99204516,-0.8735373,0.32162055,219.17406,174.44363,-38.414032,CSI
8145112218000,3.00493,-11.087693585001,4.57309588346674,-6.41582000733753,1.0106765,-0.6026186,0.3484986,219.27136,174.88087,-39.471363,CSI
8145117297000,3.010009,-9.04825535315418,3.859292574919,-8.83533528721174,0.97066486,0.05100725,0.44532076,219.43951,175.2984,-40.23743,CSI
8145122182000,3.014894,-7.20592121207474,3.06272261487763,-10.6463057407332,0.9233228,0.70096785,0.49754974,219.74747,175.72734,-40.644604,CSI
8145127221000,3.019933,-5.58867890419417,1.97966031147558,-11.28830207647,0.7959574,1.0213667,0.6215554,220.13135,176.20099,-40.945484,CSI
8145132270000,3.024982,-4.34935419743004,0.966242014563107,-11.1495673738816,0.7470882,1.0042624,0.73914695,220.59508,176.5224,-40.633007,CSI
8145137280000,3.029992,-3.85156262889777,0.0985319029126214,-9.51005178850181,0.81061816,0.7834347,0.83016586,221.0795,176.85117,-40.29606,CSI
8145142293000,3.035005,-3.65420049052291,-0.684461230246247,-8.05935026674188,0.87872964,0.4560109,0.8707884,221.54099,176.99826,-39.74528,CSI
8145147378000,3.04009,-4.38517310677916,-1.21477464803296,-7.17549450391445,0.8216137,0.16584991,0.88117313,222.00723,177.16133,-39.259476,CSI
8145152387000,3.045099,-5.15498847585525,-1.53335334304924,-6.44230854676686,0.69974613,0.093767814,0.8979719,222.38147,177.19359,-38.883457,CSI
8145157286000,3.049998,-6.07346993940083,-1.1668885257366,-6.1825360444038,0.60231316,0.09315695,0.9492846,222.76276,177.23712,-38.5735,CSI
8145162241000,3.054953,-6.93329608199408,-0.807129106148075,-6.00785325263574,0.5748242,0.12217305,1.0396926,223.07571,177.19397,-38.482635,CSI
8145167294000,3.060006,-7.48265779306022,-0.491843235494571,-6.24670621820336,0.5861252,0.21899518,1.0836749,223.3895,177.16338,-38.372414,CSI
8145172265000,3.064977,-7.94476096904762,-0.232637501088435,-6.49827967630385,0.59498274,0.44532076,1.1175779,223.74234,177.2222,-38.37865,CSI
8145177251000,3.069963,-7.98085307976191,-0.250683598843537,-6.84115550538549,0.5928447,0.75441855,1.1542299,224.1124,177.28783,-38.333115,CSI
8145182340000,3.075052,-8.0127287860771,-0.282932002598401,-7.17838037569564,0.5687156,1.0345002,1.1701124,224.51376,177.41931,-38.28183,CSI
8145187291000,3.080003,-7.9551576182738,-0.561193311589598,-7.27912994439947,0.5018258,1.2272283,1.1517864,224.91418,177.55788,-38.16724,CSI
8145192358000,3.08507,-7.90830675548851,-0.839164166435354,-7.37617041503239,0.40653083,1.3112222,1.1307116,225.3214,177.70512,-37.970867,CSI
8145197255000,3.089967,-7.99986288219008,-1.03060003355577,-7.40114037838317,0.3539964,1.3347405,1.1038336,225.71417,177.84859,-37.73963,CSI
8145202211000,3.094923,-8.09252209475552,-1.22434235690656,-7.4264111846659,0.3390302,1.3344351,1.0641272,226.08311,177.94461,-37.4811,CSI
8145207251000,3.099963,-7.8398430248307,-1.26051567366441,-7.48956722136945,0.33628133,1.3072516,1.0442741,226.44301,178.04413,-37.22781,CSI
8145212211000,3.104923,-7.50476311512415,-1.25604794153499,-7.56105093544018,0.33841935,1.2837334,1.0384709,226.78773,178.1373,-36.977665,CSI
8145217254000,3.109966,-7.16453230619531,-1.27743798644272,-7.50312996711254,0.3231477,1.2263119,1.0320568,227.1074,178.1896,-36.762066,CSI
8145222257000,3.114969,-6.82722026460827,-1.31116921575983,-7.3826615713165,0.30115658,1.1548407,1.0256428,227.42052,178.23907,-36.56108,CSI
8145227233000,3.119945,-6.4454704933687,-1.21836291909814,-7.16797330371353,0.27550024,1.042747,1.0161743,227.7447,178.28717,-36.335365,CSI
8145232263000,3.124975,-6.03848202053247,-1.0669253282739,-6.90768995220552,0.26511553,0.9111055,1.001819,228.05972,178.33182,-36.13973,CSI
8145237256000,3.129968,-5.71819738903097,-0.819180277823245,-6.76227346015914,0.23793201,0.79045963,0.9801333,228.37387,178.37245,-35.941776,CSI
8145242270000,3.134982,-5.44074133238609,-0.518981815252439,-6.67585275079094,0.21197024,0.71929383,0.97005403,228.68248,178.41203,-35.770542,CSI
8145247320000,3.140032,-5.1673458351836,-0.152873143304868,-6.66514692425278,0.19639318,0.68630713,0.95630956,228.99974,178.47543,-35.593884,CSI
8145252273000,3.144985,-4.90404905017079,0.257262189425705,-6.71578088070026,0.19120082,0.65393126,0.945314,229.30957,178.53822,-35.439743,CSI
8145257250000,3.149962,-4.67154321588325,0.586770005136467,-6.8477544886467,0.19058995,0.61666846,0.92057395,229.63705,178.65453,-35.2667,CSI
8145262243000,3.154955,-4.45402831908643,0.876789687723654,-7.01995350986543,0.21319197,0.5934556,0.91415983,229.96173,178.76404,-35.10124,CSI
8145267257000,3.159969,-4.28690667699787,1.13307988183936,-7.22935492784361,0.25961772,0.5879578,0.89858276,230.30399,178.93436,-34.898174,CSI
8145272255000,3.164967,-4.16085714737162,1.36093861578041,-7.46690972103717,0.28863382,0.6087272,0.8765916,230.63463,179.0962,-34.696796,CSI
8145277228000,3.16994,-4.08022214226212,1.43001295986672,-7.66319139328027,0.31520647,0.63621616,0.8567385,231.0134,179.30252,-34.45225,CSI
8145282382000,3.175094,-4.02996777998889,1.38432726271751,-7.83679732867456,0.3371976,0.64965516,0.83291477,231.3748,179.49297,-34.209038,CSI
8145287252000,3.179964,-3.96709627377778,1.23587629466667,-7.98560955555556,0.36987892,0.6575964,0.81092364,231.73985,179.69952,-33.931187,CSI
8145292248000,3.18496,-3.88203736304198,0.942895015496296,-8.11792337283951,0.39767328,0.65057147,0.786489,232.08804,179.89217,-33.65756,CSI
8145297311000,3.190023,-3.80136290958641,0.608859504923373,-8.19355186758577,0.4361578,0.6267477,0.76174897,232.44571,-179.93588,-33.35962,CSI
8145302283000,3.194995,-3.73011968111574,0.227199673043924,-8.18337459752057,0.4886922,0.61544675,0.72234815,232.7826,-179.78552,-33.064915,CSI
8145307253000,3.199965,-3.65320955742849,-0.128280481430403,-8.22444420443892,0.50488013,0.55955255,0.68600166,233.09444,-179.70276,-32.76252,CSI
8145312235000,3.204947,-3.57105035784942,-0.461481546696259,-8.31116808466469,0.52473325,0.5036584,0.6575964,233.39026,-179.6423,-32.469223,CSI
8145317750000,3.210462,-3.48211310750899,-0.854078057657935,-8.32893884550591,0.53786683,0.44776422,0.6545421,233.67966,-179.6506,-32.17867,CSI
8145322247000,3.214959,-3.41133037370313,-1.19472019506934,-8.27585114843349,0.5864306,0.40286562,0.62888575,233.94853,-179.68245,-31.90674,CSI
8145327227000,3.219939,-3.3732457728833,-1.598563347254,-8.20806439168574,0.61575216,0.33536503,0.6081163,234.21944,-179.77829,-31.634996,CSI
8145332335000,3.225047,-3.37791003729977,-2.04166408352403,-8.12877301678108,0.65179324,0.26511553,0.5861252,234.47958,-179.89236,-31.382557,CSI
8145337186000,3.229898,-3.40921095287209,-2.33418112674694,-8.04350257698381,0.66798115,0.20647246,0.5513059,234.7284,179.92194,-31.135178,CSI
8145342263000,3.234975,-3.48599165854718,-2.43015717169364,-7.93792883734702,0.67256266,0.17379116,0.52595496,234.97281,179.72949,-30.905209,CSI
8145347215000,3.239927,-3.5858219746181,-2.4732018773208,-7.87716538707403,0.70341134,0.10629055,0.5152648,235.18802,179.43793,-30.705025,CSI
8145352401000,3.245113,-3.73658831844888,-2.4245676891696,-7.89175576032119,0.74128497,0.076052725,0.5149594,235.39978,179.14455,-30.5072,CSI
8145357182000,3.249894,-3.90324279033872,-2.4325947194669,-7.87527030055812,0.7476991,0.07452556,0.5137377,235.5948,178.83257,-30.34631,CSI
8145362243000,3.254955,-4.1411064786759,-2.55852250003849,-7.79131838190916,0.7809912,0.10140363,0.50823987,235.7901,178.50812,-30.18833,CSI
8145367206000,3.259918,-4.36777704708479,-2.65691481947765,-7.71399536021703,0.79198676,0.12339478,0.50976706,235.9833,178.20213,-30.059574,CSI
8145372247000,3.264959,-4.57644032738643,-2.67467338074306,-7.65184030307155,0.7858781,0.14202617,0.5183192,236.17896,177.89671,-29.926262,CSI
8145377303000,3.270015,-4.78337998772526,-2.68755020101946,-7.5912675927093,0.7870999,0.11636983,0.5342017,236.35567,177.56552,-29.850246,CSI
8145382690000,3.275402,-4.97463185676038,-2.6397372060241,-7.54876704176707,0.81397796,0.08674286,0.5644395,236.54199,177.23766,-29.77181,CSI
8145387275000,3.279987,-5.12515563317081,-2.60011677466375,-7.51620145073975,0.8335256,0.0693332,0.59742624,236.72192,176.9155,-29.743452,CSI
8145392271000,3.284983,-5.20961785126093,-2.56391870519502,-7.50413562357095,0.8576548,0.04886922,0.6435465,236.91714,176.59697,-29.725552,CSI
8145397277000,3.289989,-5.29424912903497,-2.52764818162408,-7.49204564542703,0.88086766,0.04795292,0.6731735,237.14803,176.30501,-29.737965,CSI
8145402253000,3.294965,-5.31871060606,-2.52586546176,-7.47831488254,0.8949176,0.038789943,0.68966687,237.39035,176.01872,-29.758957,CSI
8145407188000,3.2999,-5.32343665816,-2.53531776336,-7.46413633144,0.9059132,0.039095376,0.70707655,237.64412,175.7364,-29.777891,CSI
8145412238000,3.30495,-5.33154372923814,-2.51391674766651,-7.49452804619071,0.9233228,0.03390302,0.74220127,237.90631,175.46767,-29.821032,CSI
8145417257000,3.309969,-5.34075617949209,-2.48167317177767,-7.54059029746047,0.93431836,0.029321533,0.7464773,238.16512,175.20033,-29.862894,CSI
8145422252000,3.314964,-5.33753489084008,-2.39177470248726,-7.67624334006593,0.9431759,0.015882496,0.7593055,238.453,174.94147,-29.914307,CSI
8145427230000,3.319942,-5.3280107053641,-2.27272233431226,-7.85720296356008,0.97127575,0.03604105,0.77213365,238.74414,174.67996,-29.956848,CSI
8145432349000,3.325061,-5.29561681933718,-2.15059644802946,-7.93941094376991,0.99204516,0.004581489,0.80848014,239.04892,174.43546,-30.015808,CSI
8145437241000,3.329953,-5.25365355687699,-2.03403159747213,-7.96738658190685,1.0277808,0.006414085,0.8527679,239.36305,174.18732,-30.059639,CSI
8145442266000,3.334978,-5.25654953004044,-1.96191571854419,-7.86024586751396,1.0809261,-0.00580322,0.87598073,239.70319,173.9666,-30.099037,CSI
8145447263000,3.339975,-5.28419555522819,-1.9158389617851,-7.68054680001926,1.0754282,-0.07849618,0.86651236,240.04488,173.75673,-30.154928,CSI
8145452268000,3.34498,-5.40263580477029,-1.85257347451153,-7.66943624963915,1.071763,-0.1255328,0.87872964,240.4169,173.56908,-30.200972,CSI
8145457611000,3.350323,-5.60079033188699,-1.77151030803556,-7.79103083476501,1.0934488,-0.122783914,0.8970556,240.78668,173.37918,-30.252531,CSI
8145462240000,3.354952,-5.70802717902785,-1.68340908399782,-7.84390485544511,1.0934488,-0.19211712,0.88606006,241.14752,173.20328,-30.363277,CSI
8145467224000,3.359936,-5.67674529765156,-1.54785462763517,-7.7813414193337,1.0797043,-0.22266038,0.8582657,241.51042,173.02856,-30.460548,CSI
8145472251000,3.364963,-5.71083064898256,-1.49112826894985,-7.74967446340843,1.0693196,-0.23365596,0.8323039,241.86739,172.87744,-30.594099,CSI
8145477233000,3.369945,-5.81918733866279,-1.52580245490552,-7.75400864047965,1.0693196,-0.21197024,0.8402451,242.22661,172.73099,-30.724499,CSI
8145482239000,3.374951,-5.95561867068012,-1.61873485175182,-7.68168159819937,1.0662653,-0.16340645,0.8527679,242.58621,172.61092,-30.850172,CSI
8145487255000,3.379967,-6.16925652554507,-1.87405817488882,-7.39509421466537,1.0598512,-0.15790866,0.86498517,242.94717,172.49509,-30.979494,CSI
8145492232000,3.384944,-6.37136468591772,-2.12591470443038,-7.16498208670886,1.0500773,-0.2049453,0.840856,243.30856,172.37607,-31.130737,CSI
8145497276000,3.389988,-6.56244634038766,-2.37909776566456,-7.00733972800633,1.047023,-0.18570304,0.84299403,243.68628,172.26479,-31.2605,CSI
8145502181000,3.394893,-6.68705523167904,-2.59353255167904,-6.92132349977737,1.033584,-0.20189096,0.8045095,244.01099,172.1001,-31.466175,CSI
8145507248000,3.39996,-6.71856534415585,-2.76458784415584,-6.93932930519481,1.0363328,-0.20433442,0.7651087,244.33829,171.93579,-31.6588,CSI
8145512201000,3.404913,-6.74793932811031,-2.92505276192416,-6.91638427796929,1.0189233,-0.19394971,0.75625116,244.63652,171.72978,-31.893093,CSI
8145517261000,3.409973,-6.7732493709391,-3.06678910747937,-6.75946206528779,1.01312,-0.21135938,0.752586,244.92267,171.51993,-32.129974,CSI
8145522186000,3.414898,-6.78406461682515,-3.15445487068698,-6.63820669668154,0.9969321,-0.20189096,0.75777835,245.20062,171.28668,-32.35108,CSI
8145527240000,3.419952,-6.76527909596352,-3.13566920270716,-6.5818496437027,0.97524637,-0.24801129,0.73945236,245.46608,171.05731,-32.586994,CSI
8145532246000,3.424958,-6.73122757741614,-3.1003412959789,-6.57542009147009,0.9642508,-0.2968805,0.71837753,245.7313,170.80655,-32.838024,CSI
8145537252000,3.429964,-6.6548798242759,-3.01922202314124,-6.70425670379218,0.9560041,-0.33536503,0.7119634,245.99368,170.56535,-33.09417,CSI
8145542244000,3.434956,-6.60724723590568,-2.91730270032154,-6.77305047293676,0.9324858,-0.35460728,0.713796,246.25858,170.33694,-33.36057,CSI
8145547264000,3.439976,-6.64159935237585,-2.75413090932476,-6.66999443738835,0.91965765,-0.35338554,0.68477994,246.51031,170.1074,-33.624805,CSI
8145552529000,3.445241,-6.68177636497214,-2.58679865633004,-6.56578611501613,0.8940013,-0.37690386,0.636827,246.77045,169.90752,-33.874184,CSI
8145557249000,3.449961,-6.76573837729006,-2.48074133146935,-6.51717652893733,0.8588765,-0.3894266,0.6062838,247.02808,169.71556,-34.11471,CSI
8145562580000,3.455292,-6.85853837147982,-2.36656175834789,-6.46988715778145,0.8078693,-0.38881573,0.58276546,247.28513,169.56467,-34.377945,CSI
8145567256000,3.459968,-6.89447311695067,-2.39192750777437,-6.59882978358272,0.75716746,-0.37140608,0.5558874,247.5318,169.42006,-34.63284,CSI
8145573190000,3.465902,-6.94007550780269,-2.42411749004484,-6.76246227748879,0.6814202,-0.40622538,0.5552765,247.77982,169.31892,-34.924564,CSI
8145577225000,3.469937,-6.97108421139014,-2.44600602702856,-6.87372906429549,0.5928447,-0.43004912,0.52778757,248.01245,169.22644,-35.19963,CSI
8145582682000,3.475394,-7.01302088932735,-2.47560844247345,-7.02420808675006,0.54183745,-0.5009095,0.49693888,248.23767,169.14459,-35.491802,CSI
8145587323000,3.480035,-7.07851423378106,-2.41822408804567,-7.18322874694426,0.50671273,-0.58184916,0.49388456,248.46059,169.08174,-35.78793,CSI
8145592345000,3.485057,-7.15695741123477,-2.33516681860309,-7.36318594725127,0.4905248,-0.66706485,0.4822781,248.66414,169.02164,-36.09658,CSI
8145597310000,3.490022,-7.22167679673624,-2.32429017813587,-7.36992978434622,0.49021935,-0.72204274,0.46639562,248.88565,168.97034,-36.395996,CSI
8145602327000,3.495039,-7.28066617354205,-2.34886921774095,-7.29127745303867,0.49968776,-0.75319684,0.45540005,249.1,168.92117,-36.70527,CSI
8145607356000,3.500068,-7.30756630307154,-2.43955665866058,-7.21859922071345,0.4868596,-0.75686204,0.45020768,249.33986,168.90494,-37.013454,CSI
8145612254000,3.504966,-7.32124432989891,-2.55354185012636,-7.15020818200817,0.48533243,-0.77213365,0.45906523,249.5776,168.88579,-37.326527,CSI
8145617262000,3.509974,-7.35974932980408,-2.60444895442311,-7.0520703692361,0.4886922,-0.75319684,0.44806966,249.80011,168.8582,-37.64391,CSI
8145622251000,3.514963,-7.41175469344944,-2.61863220849001,-6.93860418860083,0.48899764,-0.7339546,0.42332962,250.02011,168.8321,-37.957737,CSI
8145627239000,3.519951,-7.4466477723892,-2.62705428589913,-6.82609041558838,0.4801401,-0.7110472,0.41905355,250.23541,168.78629,-38.269913,CSI
8145632262000,3.524974,-7.47115325705553,-2.63195543400917,-6.71336513494651,0.4813618,-0.6936375,0.42210788,250.44632,168.73694,-38.57015,CSI
8145637248000,3.52996,-7.55813754873256,-2.62128445890155,-6.60255168155826,0.49174652,-0.6203337,0.4474588,250.67535,168.68962,-38.870842,CSI
8145642962000,3.535674,-7.69523789939084,-2.59977844613873,-6.47620426710552,0.47433686,-0.68600166,0.46211955,250.89082,168.64871,-39.197815,CSI
8145647305000,3.540017,-7.79944280364512,-2.58343252149243,-6.38017227183631,0.462425,-0.71776664,0.4560109,251.10867,168.60204,-39.508266,CSI
8145652308000,3.54502,-7.91948359019454,-2.5646025281686,-6.26954642050501,0.44226643,-0.7504479,0.43279803,251.31943,168.56221,-39.830074,CSI
8145657285000,3.549997,-8.05038761236575,-2.5484744326207,-6.2192360019472,0.40378192,-0.77304995,0.43310347,251.54066,168.53497,-40.155403,CSI
8145662249000,3.554961,-8.18876328515507,-2.53415974736525,-6.20969284522734,0.355829,-0.7987063,0.41141775,251.74223,168.5072,-40.48025,CSI
8145667226000,3.559938,-8.34670154340426,-2.50965858629787,-6.30684221012766,0.3100141,-0.7828238,0.41416663,251.93242,168.49704,-40.860767,CSI
8145672254000,3.564966,-8.51973107021277,-2.47778477489362,-6.47987116638298,0.26053402,-0.75441855,0.40622538,252.10983,168.49312,-41.234287,CSI
8145677318000,3.57003,-8.61417808714919,-2.44851079710487,-6.62754622251108,0.21074851,-0.7357872,0.38759398,252.28043,168.50351,-41.61928,CSI
8145682281000,3.574993,-8.62353899913836,-2.42276851516987,-6.74455677932546,0.18417588,-0.70432764,0.36987892,252.45268,168.5187,-41.984104,CSI
8145687238000,3.57995,-8.63288859428853,-2.39705735426883,-6.86142587667159,0.160963,-0.6713409,0.364992,252.64961,168.56172,-42.34468,CSI
8145692277000,3.584989,-8.64239285290497,-2.37092087257016,-6.98022825341704,0.12889257,-0.6273586,0.34025195,252.837,168.60449,-42.68237,CSI
8145697239000,3.589951,-8.67299274208056,-2.36169517450137,-7.06399789961869,0.102319926,-0.6035349,0.3200934,253.02849,168.65099,-43.01138,CSI
8145702268000,3.59498,-8.73420709894407,-2.37582160993352,-7.10166863994916,0.0888809,-0.5907067,0.31215215,253.2186,168.69836,-43.322887,CSI
8145707189000,3.599901,-8.7059132195477,-2.32482732821508,-6.98229455061632,0.082161374,-0.5879578,0.30787608,253.42908,168.76363,-43.596924,CSI
8145712854000,3.605566,-8.49528496758226,-2.13526168151024,-6.52944342400272,0.08399397,-0.58368176,0.3136793,253.64157,168.8291,-43.860687,CSI
8145717224000,3.609936,-8.33386515929825,-1.99173382933333,-6.25341296842105,0.115453534,-0.5842926,0.30757064,253.85075,168.8862,-44.12574,CSI
8145722249000,3.614961,-8.15053754275689,-1.83252842933333,-6.09420736691729,0.11301007,-0.5891795,0.30573806,254.06332,168.95062,-44.385166,CSI
8145727225000,3.619937,-7.99674998535777,-1.70338662421033,-5.94735207532922,0.13775012,-0.57635134,0.29871312,254.2764,169.01561,-44.669945,CSI
8145732273000,3.624985,-7.90325901712865,-1.63660738111244,-5.82269776093563,0.16676621,-0.5561928,0.29718593,254.491,169.08,-44.948154,CSI
8145737257000,3.629969,-7.80871245146394,-1.5764573582924,-5.69539733002555,0.20372356,-0.5177083,0.27947086,254.72086,169.15326,-45.21351,CSI
8145742282000,3.634994,-7.69996425314404,-1.55045234146689,-5.54173122052466,0.23396139,-0.46211955,0.26816985,254.95654,169.22208,-45.463535,CSI
8145747369000,3.640081,-7.58987428600904,-1.52412646672234,-5.38616913116526,0.25595254,-0.3998113,0.25320363,255.19553,169.28772,-45.704506,CSI
8145752328000,3.64504,-7.48255442223423,-1.49846300832678,-5.23452132280409,0.29535335,-0.34208453,0.24556783,255.43835,169.34242,-45.926502,CSI
8145757268000,3.64998,-7.37908347872255,-1.47055018035928,-5.0820269448004,0.30604348,-0.2724459,0.24831672,255.68787,169.39693,-46.126976,CSI
8145762241000,3.654953,-7.31729400335329,-1.41351374155689,-4.91091767802395,0.30115658,-0.22143865,0.25778514,255.94098,169.44598,-46.312763,SIT
8145767291000,3.660003,-7.25778155391374,-1.35559244672524,-4.74074895726837,0.31673363,-0.16157386,0.26450464,256.18903,169.48395,-46.488,SIT
8145772287000,3.664999,-7.2386738990016,-1.29826928246805,-4.61654862671725,0.31612277,-0.10354166,0.27672195,256.44794,169.52869,-46.64783,SIT
8145777321000,3.670033,-7.2241763633848,-1.24679816332654,-4.49602188086222,0.33383787,-0.04428773,0.2779437,256.71735,169.57191,-46.810516,SIT
8145782479000,3.675191,-7.26734304886882,-1.27077973316827,-4.42887372570152,0.33750305,0.02107485,0.28038713,256.9983,169.62024,-46.953964,SIT
8145787459000,3.680171,-7.30922293436413,-1.29647186841902,-4.37020300154619,0.3390302,0.08857546,0.27550024,257.2791,169.66983,-47.094482,SIT
8145792301000,3.685013,-7.3540343622729,-1.37265129586394,-4.43742014340936,0.35063666,0.14660765,0.2648101,257.56354,169.71541,-47.217293,SIT
8145797757000,3.690469,-7.40507520817188,-1.45835040757506,-4.51209259985309,0.35033122,0.21655174,0.2574797,257.84003,169.75574,-47.33288,SIT
8145802279000,3.694991,-7.46074401349738,-1.52594818329814,-4.54787955256634,0.36957347,0.28252518,0.24465153,258.11456,169.78607,-47.430744,SIT
8145807186000,3.699898,-7.52115242299146,-1.59930118760444,-4.58671338205858,0.36254853,0.30818152,0.23823744,258.383,169.80846,-47.512196,SIT
8145812292000,3.705004,-7.58424483839809,-1.65486323215741,-4.62961179470337,0.3717115,0.36896262,0.22296582,258.65213,169.81883,-47.56321,SIT
8145817194000,3.709906,-7.64489197515652,-1.7015148495876,-4.67159845011428,0.37384954,0.4083634,0.19181168,258.91092,169.82648,-47.610634,SIT
8145822291000,3.715003,-7.72120631581666,-1.75076887211104,-4.72953929141382,0.38087448,0.42119157,0.1740966,259.16006,169.81763,-47.64763,SIT
8145827236000,3.719948,-7.79982210185373,-1.79881189807249,-4.79068494838144,0.3866777,0.43004912,0.14049901,259.39246,169.79807,-47.671112,SIT
8145832343000,3.725055,-7.84667011285141,-1.7682246846988,-4.89561379044177,0.3820962,0.40775254,0.10567969,259.62,169.771,-47.704784,SIT
8145837257000,3.729969,-7.86793229026104,-1.68317570370482,-5.0255496698996,0.38087448,0.4266894,0.073303826,259.83914,169.7353,-47.72207,SIT
8145842313000,3.735025,-7.8898088814257,-1.5956690598494,-5.15924031022088,0.36102137,0.4343252,0.03573562,260.0326,169.68913,-47.745193,SIT
8145847305000,3.740017,-7.91140855371486,-1.50927009503012,-5.29123866395582,0.33658674,0.47403142,-0.0033597588,260.2174,169.63692,-47.751446,SIT
8145852311000,3.745023,-7.84972121194605,-1.31372885514654,-5.51374479129906,0.29810223,0.464563,-0.04642576,260.38016,169.5824,-47.765865,SIT
8145857273000,3.749985,-7.73406550096339,-1.04868411072913,-5.79324653732887,0.2648101,0.453262,-0.083383106,260.53345,169.5247,-47.767433,SIT
8145862276000,3.754988,-7.68424456258064,-0.915480928709677,-6.05946190322581,0.24801129,0.5467244,-0.10903945,260.7528,169.51202,-47.721466,SIT
8145867281000,3.759993,-7.6747295483871,-0.863148325806452,-6.31636743548387,0.25595254,0.6218608,-0.13041973,260.95358,169.49344,-47.68159,SIT
8145872240000,3.764952,-7.65960191386109,-0.934122471732884,-6.49069339158823,0.2764165,0.6401868,-0.14477506,261.22256,169.53027,-47.586918,SIT
8145877272000,3.769984,-7.64050324777569,-1.08691110242742,-6.61483427243634,0.28771752,0.65179324,-0.15790866,261.48602,169.56152,-47.474148,SIT
8145882264000,3.774976,-7.62204583023873,-1.27991353076923,-6.66279044933687,0.3155119,0.6609562,-0.15607607,261.79678,169.6067,-47.32307,SIT
8145887273000,3.779985,-7.60386832298219,-1.50258697445055,-6.65824614370027,0.35613444,0.6765333,-0.14355333,262.10178,169.64488,-47.170105,SIT
8145892251000,3.784963,-7.58061123720506,-1.70125883692152,-6.62598863250633,0.3894266,0.65576386,-0.12736541,262.39514,169.65305,-47.001038,SIT
8145897309000,3.790021,-7.55117977241519,-1.87784839396456,-6.56221992951899,0.40653083,0.56138515,-0.11789699,262.67847,169.65646,-46.852608,SIT
8145902359000,3.795071,-7.58620235690302,-1.96570816784515,-6.52399372218053,0.39675698,0.42943826,-0.12950343,262.9121,169.60918,-46.71488,SIT
8145907295000,3.800007,-7.67956811791428,-1.97037645589571,-6.50998890677464,0.36102137,0.3622431,-0.14385876,263.14197,169.56496,-46.58939,SIT
8145912273000,3.804985,-7.82329588188976,-1.95663464304462,-6.56508951627297,0.34025195,0.18234327,-0.17531833,263.30698,169.4777,-46.528435,SIT
8145917301000,3.810013,-8.02259319382193,-1.92260829004644,-6.696334223723,0.30024028,-0.0033597588,-0.21013765,263.4556,169.39815,-46.48845,SIT
8145922180000,3.814892,-8.13604653491075,-1.93135241227222,-6.78466286124953,0.24007004,-0.16218472,-0.24831672,263.56845,169.32062,-46.501835,SIT
8145927264000,3.819976,-8.16773290995723,-1.98567199338044,-6.83445581059874,0.17989981,-0.29779682,-0.29779682,263.64493,169.24226,-46.55598,SIT
8145932242000,3.824954,-8.14977944919387,-2.02390537090051,-6.93695230991939,0.096516706,-0.37904188,-0.3576616,263.69656,169.18526,-46.643833,SIT
8145937255000,3.829967,-8.03650733342509,-2.03334471388124,-7.14461800334251,0.03481932,-0.42332962,-0.41141775,263.72055,169.12732,-46.75286,SIT
8145942180000,3.834892,-7.88196300465116,-2.0245871496289,-7.32404902078179,-0.030848695,-0.45081854,-0.46120325,263.7124,169.0667,-46.867477,SIT
8145947261000,3.839973,-7.61711528883721,-1.97161763663533,-7.44924978842157,-0.06658431,-0.45051312,-0.48533243,263.69263,169.00722,-46.98135,SIT
8145952204000,3.844916,-7.34562102762475,-1.93583778355289,-7.60440898882236,-0.06994407,-0.45081854,-0.49418998,263.68518,168.95238,-47.05349,SIT
8145957253000,3.849965,-7.03195200340319,-1.94066345852295,-7.85051851307385,-0.04795292,-0.30726522,-0.45875978,263.7045,168.90482,-47.085964,SIT
8145962219000,3.854931,-6.76440278408937,-1.97091594421124,-8.03302806025728,-0.011911872,-0.16279559,-0.41355577,263.72656,168.85973,-47.05834,SIT
8145967905000,3.860617,-6.58006375300319,-2.08151934086469,-8.0646291092949,0.027794369,-0.024129177,-0.35185838,263.78683,168.82181,-46.998043,SIT
8145972227000,3.864939,-6.47896577446723,-2.16134710776035,-8.03742472979493,0.07574729,0.0888809,-0.2929099,263.865,168.77844,-46.833984,SIT
8145977295000,3.870007,-6.50336023687173,-2.23940933650985,-7.8178745681544,0.1282817,0.1740966,-0.23884831,263.97833,168.73967,-46.648346,SIT
8145982232000,3.874944,-6.58366184258675,-2.30923386514196,-7.61259499526814,0.16035213,0.23762658,-0.20158553,264.08844,168.68004,-46.418102,SIT
8145987359000,3.880071,-6.87066500443496,-2.35934560458341,-7.43037072172945,0.17073683,0.26450464,-0.17898351,264.21896,168.62407,-46.183136,SIT
8145992319000,3.885031,-7.12556799873959,-2.39912010059816,-7.27345487729118,0.1695151,0.2932153,-0.1740966,264.3522,168.55086,-45.96463,SIT
8145997307000,3.890019,-7.13067044249092,-2.34299305949583,-7.32958165199744,0.14782938,0.32253686,-0.16187929,264.4998,168.48712,-45.745804,SIT
8146002428000,3.89514,-7.11393461343107,-2.28311703920102,-7.39930379864213,0.13836098,0.30695978,-0.15485434,264.66187,168.4194,-45.588005,SIT
8146007274000,3.899986,-7.02717123435009,-2.21918631652071,-7.50433301674702,0.1518,0.31245756,-0.14905111,264.83276,168.3544,-45.421253,SIT
8146012254000,3.904966,-6.93379416902353,-2.14697148010015,-7.61495580807211,0.16157386,0.28160888,-0.13683382,265.00708,168.3058,-45.265186,SIT
8146017259000,3.909971,-6.81858483342013,-2.04136282221332,-7.73976622239359,0.18692477,0.2742785,-0.10995574,265.1909,168.25613,-45.106743,SIT
8146022260000,3.914972,-6.70584590359567,-1.94995717273895,-7.8493432526142,0.22327125,0.25289822,-0.09101892,265.38373,168.21707,-44.937946,SIT
8146027288000,3.92,-6.60425890392589,-1.92787308248028,-7.88467761254816,0.25473082,0.25167647,-0.0580322,265.59116,168.18248,-44.773132,SIT
8146032476000,3.925188,-6.49969784704171,-1.90824614413191,-7.91673694115745,0.2932153,0.23457226,-0.04153884,265.80032,168.1587,-44.596996,SIT
8146037875000,3.930587,-6.39939689030068,-1.99183027474943,-7.80529143366742,0.32436943,0.21410827,-0.027794369,266.01715,168.13611,-44.428806,SIT
8146042276000,3.934988,-6.32072245754496,-2.06089283221267,-7.70747991868647,0.3707952,0.21746802,0.0033597588,266.24048,168.11098,-44.24801,SIT
8146047344000,3.940056,-6.24957040230649,-2.14627545699765,-7.55094518913213,0.42088616,0.20738874,0.0106901415,266.45288,168.07669,-44.079727,SIT
8146052245000,3.944957,-6.18199345985141,-2.23453498410845,-7.38740215040525,0.4437936,0.20677789,0.027794369,266.64557,168.02312,-43.904324,SIT
8146057286000,3.949998,-6.12609590040525,-2.38825265243149,-7.0846248261675,0.46944994,0.2125811,0.04550946,266.83875,167.96101,-43.73449,SIT
8146062560000,3.955272,-6.07492770223792,-2.54528817755664,-6.78349123265156,0.49327368,0.20830505,0.074830994,267.0304,167.87843,-43.573517,SIT
8146067292000,3.960004,-6.11649217884069,-2.64088586179033,-6.70036275685591,0.5143485,0.19883664,0.08674286,267.2206,167.79208,-43.41602,SIT
8146072280000,3.964992,-6.16030528308722,-2.74165535649821,-6.61273705160048,0.5161811,0.172264,0.11362094,267.39005,167.67249,-43.294662,SIT
8146077266000,3.969978,-6.17541947016531,-2.83767591543517,-6.45521978328022,0.5195409,0.24831672,0.1554652,267.58,167.55504,-43.152737,SIT
8146082280000,3.974992,-6.18498281886079,-2.9333105008564,-6.28307775920135,0.51343226,0.31764993,0.19150625,267.77356,167.4447,-43.024162,SIT
8146087272000,3.979984,-6.20167732317931,-2.98354132715345,-6.21600519205172,0.4990769,0.35246924,0.22418754,267.9653,167.32065,-42.905113,SIT
8146092186000,3.984898,-6.21957441205552,-3.02380977712493,-6.17126246986119,0.4978552,0.37598756,0.25503623,268.176,167.20316,-42.775887,SIT
8146097343000,3.990055,-6.21792306597284,-3.05335164473189,-6.21740000267618,0.48472157,0.38881573,0.27580565,268.36777,167.06976,-42.66037,SIT
8146102235000,3.994947,-6.20863578168302,-3.0765700009218,-6.2963418706512,0.46822822,0.3979787,0.3032946,268.57562,166.94597,-42.545174,SIT
8146107752000,4.000464,-6.13001078170335,-3.07615583973157,-6.32826846249877,0.45753807,0.43982297,0.3371976,268.7957,166.82089,-42.426174,SIT
8146112244000,4.004956,-6.04510187437087,-3.0676647938419,-6.33675928673641,0.41233405,0.43768495,0.35033122,269.0136,166.70866,-42.319603,SIT
8146117293000,4.010005,-5.97350705482934,-3.04421429513435,-6.39754329963689,0.4007276,0.4025602,0.36774087,269.24445,166.59758,-42.202717,SIT
8146122285000,4.014997,-5.91398966422865,-3.01445562572881,-6.48185972814607,0.3830125,0.33200526,0.37598756,269.47116,166.49855,-42.099056,SIT
8146127245000,4.019957,-5.84610386566375,-3.00196803240411,-6.40309913937806,0.3539964,0.37232238,0.4111123,269.73346,166.41458,-41.964745,SIT
8146132372000,4.025084,-5.77294665682976,-2.99488830728636,-6.26622437984235,0.3191771,0.42760566,0.41813725,269.98016,166.33208,-41.84603,SIT
8146137249000,4.029961,-5.7033567002307,-2.98815379989426,-6.13602383327406,0.28893927,0.4437936,0.43982297,270.25336,166.27223,-41.715904,SIT
8146142307000,4.035019,-5.63118405301355,-2.98116935486879,-6.00099115651735,0.2574797,0.37995818,0.44806966,270.5184,166.21846,-41.594887,SIT
8146147406000,4.040118,-5.58844901960042,-2.9951664764795,-5.87728209800208,0.24037547,0.33933565,0.4474588,270.7826,166.16844,-41.46587,SIT
8146152378000,4.04509,-5.56590577104441,-3.02221837474671,-5.76456585522204,0.21563543,0.3399465,0.46089783,271.04932,166.13063,-41.34753,SIT
8146157287000,4.049999,-5.52738406349887,-3.04078658816904,-5.40156564987665,0.19975294,0.3042109,0.4633413,271.2894,166.07932,-41.264275,SIT
8146162283000,4.054995,-5.47093188930602,-3.05105060035396,-4.76519630494476,0.18081611,0.1777618,0.45570546,271.51712,166.03413,-41.207523,SIT
8146167277000,4.059989,-5.48722732485331,-3.04622645580308,-4.70159957169567,0.14782938,0.1423316,0.46609017,271.75095,165.98781,-41.147926,SIT
8146172286000,4.064998,-5.5492474626554,-3.03191411631029,-4.99738807066136,0.11636983,0.18784106,0.47891834,271.9754,165.94403,-41.10085,SIT
8146177466000,4.070178,-5.56465789852681,-3.0021548960715,-5.30694288324494,0.09315695,0.2406809,0.4813618,272.16174,165.87715,-41.130344,SIT
8146182740000,4.075452,-5.54977633011196,-2.9624707136319,-5.62441675714005,0.056505036,0.32528573,0.4792238,272.3589,165.82112,-41.139267,SIT
8146187304000,4.080016,-5.57778783221878,-2.9387175940014,-5.83905435792993,0.03970624,0.43310347,0.49266282,272.59647,165.78824,-41.101276,SIT
8146192317000,4.085029,-5.63528897864058,-2.91955061190738,-6.03551587435872,0.03940081,0.48899764,0.50335294,272.83405,165.758,-41.054604,SIT
8146197293000,4.090005,-5.74298440334157,-2.92475113924864,-6.22679412594167,0.036651913,0.5140431,0.48808134,273.11145,165.7519,-40.945854,SIT
8146202373000,4.095085,-5.8920851906871,-2.94879965333663,-6.41918243953534,0.03726278,0.5357288,0.48075095,273.39822,165.74753,-40.826744,SIT
8146207287000,4.099999,-6.04406574906784,-2.9567392458005,-6.5300862961945,0.041233405,0.5671884,0.46273044,273.68845,165.75107,-40.682716,SIT
8146212287000,4.104999,-6.20512100565059,-2.95213766978666,-6.58070363234672,0.036651913,0.5403103,0.43890667,273.96533,165.7525,-40.550198,SIT
8146217301000,4.110013,-6.38957518682892,-2.8111821097965,-6.67836878976378,0.034208454,0.45906523,0.4202753,274.24405,165.75787,-40.421253,SIT
8146222269000,4.114981,-6.59878239656407,-2.51440006901524,-6.82919257559055,0.026572637,0.36835176,0.39645153,274.504,165.7587,-40.3026,SIT
8146227275000,4.119987,-6.76416352385135,-2.11458492918919,-7.03032086263513,0.03268129,0.3032946,0.36774087,274.74268,165.75974,-40.220055,SIT
8146232364000,4.125076,-6.88647474067568,-1.60652235459459,-7.28435200256757,0.027794369,0.21746802,0.33658674,274.95563,165.75902,-40.166973,SIT
8146237251000,4.129963,-6.94238983755214,-1.22953186136942,-7.53818996771798,0.0421497,0.15974127,0.32559118,275.20233,165.82716,-40.155792,SIT
8146242309000,4.135021,-6.91774874771594,-0.988048975134805,-7.81417043118323,0.079107046,0.093767814,0.3136793,275.423,165.88351,-40.167095,SIT
8146247318000,4.14003,-6.89442474159366,-0.966442271382459,-8.04613139074057,0.12736541,0.04153884,0.3100141,275.70447,166.05418,-40.19858,SIT
8146252288000,4.145,-6.87247662022503,-1.1859236684128,-8.23049611443327,0.18692477,0.048563786,0.30970868,275.9776,166.20854,-40.229576,SIT
