timestamp,rel_time,acc_x,acc_y,acc_z,gyro_x,gyro_y,gyro_z,azimuth,pitch,roll,label
43373111895000,0,2.16702137477523,9.605537,0.0195673012456678,-0.014660766,-0.048563786,0.0009162979,245.87494,-75.622826,0.6663921,STD
43373117905000,0.00601,2.16476384238827,9.60451804539106,-0.0637289067562849,-0.011911872,-0.05009095,0.0027488936,246.3597,-75.54226,0.9157434,STD
43373121834000,0.009939,2.13520333044693,9.60123381843576,0.62601685202514,-0.017104227,-0.05222898,0.0021380284,246.84189,-75.45983,1.1596574,STD
43373126801000,0.014906,2.09783324574022,9.59708193365922,1.49798610218226,-0.009468411,-0.04917465,0.011301007,247.25294,-75.53069,1.3941705,STD
43373131870000,0.019975,2.10642652768184,9.62211630465725,1.3485416566405,-0.008246681,-0.04428773,0.0070249503,247.66505,-75.59513,1.6206679,STD
43373136835000,0.02494,2.13130816661434,9.6569502873888,0.83597953089482,-0.007330383,-0.049785517,0.00061086525,248.07867,-75.6581,1.8454539,STD
43373141894000,0.029999,2.14343945264794,9.65128098416092,0.559515914099699,-0.005497787,-0.04153884,0.01038471,248.60757,-75.46827,2.0802119,STD
43373146799000,0.034904,2.15256863426295,9.63758740239044,0.340415412350598,-0.005497787,-0.03176499,0.010079277,249.1334,-75.28296,2.305413,STD
43373151885000,0.03999,2.14748276078815,9.63791730528529,0.398611574194495,-0.0018325958,-0.03390302,0.002443461,249.59586,-75.22657,2.5208046,STD
43373156853000,0.044958,2.13817800502616,9.64256953742727,0.540509196724197,-0.004276057,-0.02565634,0.009162978,250.04959,-75.16822,2.734144,STD
43373161852000,0.049957,2.12881518818755,9.64725079919816,0.683292251278541,-0.008246681,-0.02565634,0.002443461,250.4621,-75.17646,2.9313443,STD
43373166864000,0.054969,2.11942802315553,9.6519442346844,0.826446616036767,-0.008246681,-0.025350908,0.0015271631,250.87051,-75.18324,3.1274674,STD
43373171825000,0.05993,2.12286585867272,9.63744235331821,1.0184930829504,-0.013744468,-0.026572637,0.008246681,251.27838,-75.186226,3.320124,STD
43373176871000,0.064976,2.13239638481412,9.6136160379647,1.23769538323637,-0.013133603,-0.0125227375,0.006414085,251.68167,-75.190605,3.5052462,STD
43373181852000,0.069957,2.1413389758366,9.60839254755175,1.35199946067293,-0.017104227,-0.02443461,0.0021380284,252.11815,-75.12686,3.6859295,STD
43373187628000,0.075733,2.15142662000547,9.61343647497037,1.42261302252211,-0.011911872,-0.0076358155,0.009773844,252.53993,-75.06636,3.862482,STD
43373191887000,0.079992,2.14995760810083,9.60546606657331,1.4991618360767,-0.03023783,-0.022602014,0.006414085,252.98984,-74.949814,4.038495,STD
43373196855000,0.08496,2.13970714113972,9.58496523968545,1.61191702616611,-0.017715093,-0.020158553,0.005497787,253.42645,-74.84528,4.2107987,STD
43373201899000,0.090004,2.12492906319815,9.56789125036426,1.65857074992715,-0.015271631,-0.019242255,0.00030543262,253.86227,-74.72577,4.378145,STD
43373206880000,0.094985,2.10755332005828,9.55341151481302,1.6614666970374,-0.013133603,-0.018020526,-0.0009162979,254.294,-74.61247,4.542235,STD
43373211905000,0.10001,2.09002408711753,9.53880387153958,1.66438822569208,-0.020463986,-0.020158553,0.0067195175,254.72124,-74.48098,4.701264,STD
43373216822000,0.104927,2.08205133795798,9.53135070488628,1.65179815547243,-0.0143553335,-0.02076942,-0.0021380284,255.14577,-74.35886,4.851502,STD
43373221872000,0.109977,2.09497354262717,9.53942706172139,1.60333996386226,-0.009162978,-0.01740966,-0.0015271631,255.56528,-74.23653,5.002701,STD
43373226847000,0.114952,2.10770383336562,9.5473834726629,1.55560144836512,-0.01282817,-0.012217305,-0.005192355,255.98886,-74.11351,5.144554,STD
43373231833000,0.119938,2.12046227148058,9.55535747566882,1.5077573803714,-0.011301007,-0.025045475,-0.007941248,256.41318,-73.99681,5.284547,STD
43373236830000,0.124935,2.13324885697205,9.56334907073912,1.4598077598811,-0.016493361,-0.0290161,-0.0021380284,256.82996,-73.88044,5.4215693,STD
43373241920000,0.130025,2.14627341573762,9.57148939871748,1.41096574101065,-0.0143553335,-0.02321288,-0.018020526,257.24615,-73.77243,5.5488334,STD
43373246830000,0.134935,2.1563234210259,9.57218160132047,1.34359820030472,-0.003970624,-0.021685716,-0.024129177,257.64008,-73.67718,5.673271,STD
43373251820000,0.139925,2.16117748217369,9.5576196206196,1.23195474321991,-0.014049901,-0.022296581,-0.026572637,258.03116,-73.581314,5.7911687,STD
43373257169000,0.145274,2.16248890073239,9.54994634309859,1.13635960878873,-0.01160644,-0.022602014,-0.013439035,258.40378,-73.52526,5.9138556,STD
43373261756000,0.149861,2.15836413250704,9.55407076676056,1.08686239008451,-0.016798794,-0.019242255,-0.021380283,258.77524,-73.46888,6.027084,STD
43373266779000,0.154884,2.158628239683,9.55861468000387,1.03521705067169,-0.016187929,-0.020463986,-0.02321288,259.1366,-73.436554,6.1446657,STD
43373271781000,0.159886,2.17714690348893,9.56324444264038,0.993550008765826,-0.00580322,-0.020158553,-0.023518313,259.49536,-73.40738,6.2575355,STD
43373276764000,0.164869,2.19534236051442,9.56835680378867,0.94472271527633,-0.0021380284,-0.029932396,-0.0290161,259.85376,-73.39075,6.3656144,STD
43373281769000,0.169874,2.21200273034411,9.57668716266945,0.84892550177268,-0.01038471,-0.038789943,-0.030543262,260.2099,-73.37424,6.472162,STD
43373286758000,0.174863,2.22860984025026,9.58499089103233,0.753434533107403,-0.008246681,-0.044593163,-0.032986723,260.5598,-73.37191,6.5793085,STD
43373291811000,0.179916,2.2825164558011,9.58173659760589,0.709530267955801,-0.010079277,-0.042455133,-0.03726278,260.90872,-73.367355,6.683199,STD
43373296810000,0.184915,2.34067319602649,9.57533244701987,0.676512625397351,-0.0070249503,-0.06352998,-0.03634648,261.26395,-73.364944,6.7876573,STD
43373301772000,0.189877,2.37769702275029,9.56144870529801,0.644116748019088,-0.01282817,-0.076052725,-0.03848451,261.60815,-73.38338,6.8896422,STD
43373306907000,0.195012,2.41636802723468,9.548869796205,0.610378690322761,-0.013133603,-0.0983493,-0.04337143,261.94666,-73.4097,7.0010266,STD
43373311762000,0.199867,2.45745315426937,9.55968166579853,0.575780682786252,-0.0061086523,-0.10323623,-0.049785517,262.283,-73.43647,7.1085978,STD
43373316733000,0.204838,2.49951992388615,9.57075186224537,0.5403560287257,-0.011301007,-0.118507855,-0.04886922,262.61792,-73.46528,7.2233653,STD
43373321806000,0.209911,2.54244986198028,9.58204920816668,0.50420449582504,-0.016187929,-0.1301143,-0.05375614,262.95303,-73.496826,7.3323793,STD
43373326782000,0.214887,2.58455894377732,9.59313053939169,0.468744210448795,-0.017715093,-0.14263703,-0.047647487,263.2906,-73.52578,7.4434114,STD
43373331763000,0.219868,2.59902811220736,9.60338759176421,0.426265992991221,-0.023518313,-0.15363261,-0.0421497,263.6318,-73.55246,7.5504236,STD
43373336738000,0.224843,2.60400768787625,9.61334643112458,0.381449775573788,-0.01282817,-0.16065755,-0.04337143,263.97418,-73.58254,7.655456,STD
43373341759000,0.229864,2.59690910670762,9.62309660167187,0.385469120787592,-0.02443461,-0.1685988,-0.043066,264.3081,-73.61538,7.7762785,STD
43373346728000,0.234833,2.5873236759996,9.63268228260651,0.399847351926679,-0.013133603,-0.16584991,-0.05009095,264.64044,-73.65675,7.8917346,STD
43373351764000,0.239869,2.57008211744739,9.60687025661914,0.394397991853361,-0.0106901415,-0.16768251,-0.05497787,264.96484,-73.70341,8.00567,STD
43373356762000,0.244867,2.5515135125594,9.57437525865581,0.385113752423625,-0.01038471,-0.16646078,-0.05375614,265.28656,-73.7511,8.116378,STD
43373361750000,0.249855,2.54362308074013,9.55580790124719,0.356420309278266,-0.0076358155,-0.15790866,-0.058337633,265.60617,-73.79869,8.219983,STD
43373366734000,0.254839,2.53874363162952,9.54116975771826,0.322264145123697,-0.018325957,-0.14752395,-0.05497787,265.92313,-73.84055,8.323461,STD
43373371740000,0.259845,2.52272359314567,9.53093478858575,0.342512322793792,-0.019242255,-0.13133603,-0.053450707,266.2356,-73.8867,8.419274,STD
43373376739000,0.264844,2.50426242542177,9.52170401195411,0.374819385587583,-0.039095376,-0.124005646,-0.05955936,266.54678,-73.92532,8.511534,STD
43373381746000,0.269851,2.46997575165563,9.53413129697848,0.420035730167632,-0.044898596,-0.10751228,-0.06536258,266.85333,-73.97014,8.600022,STD
43373386737000,0.274842,2.43040802913907,9.55391505494619,0.469495429794081,-0.05467244,-0.09560041,-0.06261369,267.15775,-74.00794,8.686926,STD
43373391753000,0.279858,2.39581752825223,9.59251496782522,0.529196094763654,-0.076358154,-0.08093964,-0.060170226,267.45435,-74.038506,8.764267,STD
43373396743000,0.284848,2.36259835,9.6352258,0.590888991,-0.08307768,-0.067500606,-0.061391957,267.7467,-74.069954,8.838798,STD
43373401774000,0.289879,2.30880536544788,9.68368937033556,0.654050264592537,-0.08827003,-0.04795292,-0.064446285,268.03662,-74.09141,8.902628,STD
43373406824000,0.294929,2.2497097803365,9.73369286690478,0.717691590187048,-0.07941248,-0.029321533,-0.062308256,268.3213,-74.1139,8.965155,STD
43373411785000,0.29989,2.16051071219512,9.74581379543332,0.791421941012973,-0.07880162,-0.02687807,-0.070554934,268.61273,-74.12683,9.016788,STD
43373416782000,0.304887,2.05620747804878,9.74084739460301,0.870891075742605,-0.0720821,-0.014660766,-0.07422013,268.89426,-74.142426,9.067062,STD
43373421765000,0.30987,1.95917686225067,9.72539148288181,0.943972650318547,-0.044593163,-0.013133603,-0.09010262,269.18698,-74.16192,9.097604,STD
43373426790000,0.314895,1.8636654101816,9.70628880351295,1.01560622191724,-0.03023783,-0.0012217305,-0.10903945,269.47208,-74.18149,9.1238,STD
43373431779000,0.319884,1.77739259381641,9.68903421564187,1.09258169407769,-0.011301007,0.005497787,-0.13500121,269.77045,-74.206184,9.12431,STD
43373436765000,0.32487,1.69421897483017,9.6723995960634,1.17159663645706,-0.009468411,0.009468411,-0.15760323,270.06528,-74.23332,9.119489,STD
43373441807000,0.329912,1.62075557208672,9.67983319783198,1.26194976431798,-0.016493361,0.024129177,-0.17959438,270.36783,-74.260254,9.088927,STD
43373446787000,0.334892,1.56151702127371,9.71753071815718,1.36427099467028,-0.010995574,0.04062254,-0.2049453,270.6681,-74.29527,9.051052,STD
43373451816000,0.339921,1.54487190351334,9.7631013466865,1.4553265258946,-0.009773844,0.03756821,-0.226631,270.97742,-74.32436,8.986989,STD
43373456828000,0.344933,1.54933313786597,9.8121755301608,1.54009095686402,-0.020463986,0.020463986,-0.25228736,271.28546,-74.35691,8.915752,STD
43373461827000,0.349932,1.56695717501284,9.84055232967033,1.62413080620314,-0.023518313,-0.025045475,-0.27366763,271.61212,-74.38465,8.828531,STD
43373466789000,0.354894,1.59623934504468,9.85031274725275,1.70709700558694,-0.01740966,-0.076052725,-0.2959642,271.9439,-74.41633,8.73712,STD
43373471803000,0.359908,1.62268351192053,9.81043799638772,1.74849079325707,-0.02076942,-0.14294247,-0.3323107,272.30295,-74.43434,8.6405115,STD
43373476840000,0.364945,1.64688501821192,9.73299323690548,1.75817137555689,-0.0033597588,-0.20189096,-0.35979962,272.67117,-74.46106,8.544799,STD
43373481819000,0.369924,1.66709944590406,9.66005783173432,1.75182055409594,0.0076358155,-0.26206118,-0.37843102,273.05597,-74.47375,8.452648,STD
43373486817000,0.374922,1.68476175084871,9.58940898081181,1.73415824915129,0.038179077,-0.28710666,-0.40378192,273.44547,-74.50096,8.354322,STD
43373491813000,0.379918,1.71690644810845,9.53171812631675,1.7147370211963,0.06963864,-0.33536503,-0.4120286,273.84967,-74.524666,8.269425,STD
43373496833000,0.384938,1.76975127122836,9.49208417559769,1.69271836405606,0.082161374,-0.36163223,-0.41325033,274.25153,-74.55425,8.181237,STD
43373501807000,0.389912,1.82603069011279,9.46388681426233,1.64091016108787,0.1001819,-0.3839288,-0.42913285,274.67084,-74.589874,8.099689,STD
43373506867000,0.394972,1.89655445161906,9.47270246279789,1.48663944142259,0.12186762,-0.39187005,-0.4382958,275.08844,-74.62905,8.021588,STD
43373512067000,0.400172,1.95992381475345,9.47674047239565,1.331569792434,0.13591751,-0.38789943,-0.4456262,275.4956,-74.6725,7.9532404,STD
43373516887000,0.404992,1.92134540297429,9.42681540479819,1.22491181540239,0.13775012,-0.3933972,-0.44959682,275.9037,-74.7194,7.8852253,STD
43373521826000,0.409931,1.88181453663045,9.37565774735755,1.11562058126149,0.13439035,-0.4071417,-0.44684792,276.29196,-74.79812,7.82836,STD
43373526832000,0.414937,1.84174741435524,9.32380611076152,1.00484675698343,0.13927728,-0.40958515,-0.45356745,276.67596,-74.88074,7.767928,STD
43373532256000,0.420361,1.79921607793432,9.2656992254178,0.885014406164011,0.13194689,-0.42394048,-0.45662177,277.06326,-74.95809,7.7114544,STD
43373536844000,0.424949,1.77787015383793,9.18458452662262,0.786823289055577,0.14263703,-0.43066,-0.46670106,277.44647,-75.04254,7.651318,STD
43373541887000,0.429992,1.75440731704236,9.09542554100272,0.678894386793626,0.14874569,-0.43951756,-0.46181414,277.82996,-75.1634,7.5840898,STD
43373546884000,0.434989,1.73593062946117,8.99279559299802,0.566470347334151,0.15149458,-0.43463063,-0.46731192,278.20947,-75.2878,7.511378,STD
43373551851000,0.439956,1.71797537208644,8.88955305058035,0.454249894998584,0.16493362,-0.4370741,-0.45875978,278.589,-75.4123,7.445601,STD
43373556872000,0.444977,1.75532717004945,8.79418146269619,0.352906662642443,0.17867808,-0.4269948,-0.44593164,278.95776,-75.5542,7.3771157,STD
43373561805000,0.44991,1.80611453161686,8.70276451945818,0.256410707483337,0.19608775,-0.41996986,-0.42424592,279.3239,-75.696205,7.314389,STD
43373566851000,0.454956,1.90170292222331,8.63025073097587,0.257729019546742,0.21319197,-0.4025602,-0.39675698,279.67816,-75.85575,7.253901,STD
43373571801000,0.459906,1.99894907392791,8.56078922858259,0.266990567705382,0.23915374,-0.3912592,-0.36987892,280.028,-76.01686,7.199568,STD
43373576874000,0.464979,2.11423369988841,8.61553762474428,0.351427132709689,0.2593123,-0.38423425,-0.32803464,280.3597,-76.182526,7.167818,STD
43373581822000,0.469927,2.22879917840803,8.68603926301841,0.443960769324902,0.2941316,-0.3707952,-0.27885997,280.6819,-76.35088,7.144406,STD
43373586840000,0.474945,2.34318290717149,8.84091993359733,0.457398307723958,0.3231477,-0.3747658,-0.22021692,280.9923,-76.50001,7.1569166,STD
43373591849000,0.479954,2.45669724398513,9.02624942606365,0.441181978040276,0.33475417,-0.36102137,-0.19608775,281.291,-76.64883,7.170727,STD
43373596849000,0.484954,2.57000762211812,9.21124592483218,0.424994785303521,0.3827071,-0.30268374,-0.13897185,281.5713,-76.77011,7.2260766,STD
43373601783000,0.489888,2.68182230325977,9.39380046981697,0.40902126351089,0.419359,-0.21746802,-0.089491755,281.8371,-76.88629,7.282154,STD
43373606858000,0.494963,2.76481278396686,9.5983937170378,0.399273983904713,0.4596761,-0.08124508,-0.04153884,282.06696,-77.00307,7.346037,STD
43373611883000,0.499988,2.82462444036251,9.81271894489901,0.394289683542206,0.49541172,0.082161374,-0.005192355,282.26117,-77.11812,7.4126563,STD
43373616854000,0.504959,2.82925797131078,9.96756540280542,0.446842314654535,0.5296202,0.25320363,0.03573562,282.40637,-77.22736,7.521168,STD
43373621832000,0.509937,2.80666603238556,10.0940795436452,0.528173011703156,0.54733527,0.43157628,0.0711658,282.50058,-77.33062,7.6269255,STD
43373626867000,0.514972,2.71187615277984,10.1795987627873,0.604488897331357,0.5635232,0.59589905,0.106901415,282.55054,-77.43081,7.740467,STD
43373631854000,0.519959,2.56014618927248,10.230175382082,0.675296217155565,0.5540548,0.7648033,0.14294247,282.5466,-77.51697,7.852488,STD
43373636835000,0.52494,2.35731221569568,10.2688704132968,0.730088756778615,0.5149594,0.929126,0.18081611,282.50058,-77.58179,7.955832,STD
43373641858000,0.529963,2.12651709570156,10.301841320376,0.777189805991384,0.45234573,1.0958922,0.22296582,282.40454,-77.62722,8.060231,STD
43373646852000,0.534957,1.86448094237455,10.3580656838849,0.824104786725916,0.3903429,1.2571607,0.25992316,282.27307,-77.66273,8.133045,STD
43373651841000,0.539946,1.58296063327114,10.4284457121673,0.871024849674948,0.30543262,1.4068227,0.269697,282.09833,-77.67453,8.201407,STD
43373656840000,0.544945,1.23320950683094,10.5071819912664,0.910946724516532,0.23365596,1.5192219,0.25900686,281.91052,-77.69141,8.219054,STD
43373661827000,0.549932,0.835958246537742,10.5915980363901,0.945706207847785,0.18661933,1.5720617,0.24129178,281.69937,-77.69408,8.233022,STD
43373666860000,0.554965,0.387830164923032,10.6673704775958,1.02927436398667,0.14813483,1.5677856,0.20005837,281.50946,-77.715866,8.174094,STD
43373671827000,0.559932,-0.0785684906206491,10.737330226983,1.1365460771154,0.13683382,1.5228871,0.12767084,281.32098,-77.74188,8.102368,STD
43373676832000,0.564937,-0.528106953944586,10.7724168767773,1.23454922548305,0.1554652,1.3921618,0.05100725,281.2173,-77.80906,7.942989,STD
43373681858000,0.569963,-0.966796650351805,10.7855773744076,1.32667399150565,0.19486602,1.1600331,-0.04734206,281.1613,-77.89288,7.7686214,STD
43373686804000,0.574909,-1.34696211318681,10.7835894395604,1.41694638131868,0.2443461,1.0042624,-0.10903945,281.23654,-78.00502,7.486187,STD
43373691869000,0.579974,-1.6640282342554,10.7606136475938,1.50884964514968,0.27275133,0.66553766,-0.2180789,281.43243,-78.14017,7.191932,STD
43373696790000,0.584895,-1.91775530613939,10.7582594855514,1.56478183330667,0.34391713,0.3368922,-0.31337386,281.63428,-78.34405,6.815289,STD
43373701853000,0.589958,-2.05350643043696,10.8018936254375,1.54538878662134,0.36926803,0.045814894,-0.37690386,281.92062,-78.54536,6.4433475,STD
43373706866000,0.594971,-2.15863161220419,10.849270478584,1.48156547165069,0.398895,-0.15363261,-0.4120286,282.20648,-78.79717,6.0257707,STD
43373711865000,0.59997,-2.20076634805398,10.9054503219245,1.32238975399961,0.41050145,-0.25473082,-0.40591997,282.54434,-79.04039,5.622796,STD
43373716826000,0.604931,-2.18610494805432,10.9511863002312,1.15526623569832,0.40286562,-0.26145032,-0.36774087,282.89645,-79.293976,5.212095,STD
43373721889000,0.609994,-2.01330269032942,10.9698675120401,0.95911232178771,0.3717115,-0.21655174,-0.2828306,283.25598,-79.52354,4.829735,STD
43373726826000,0.614931,-1.76749079359973,10.9087454693532,0.783764983569252,0.3371976,-0.118202426,-0.17379116,283.61255,-79.7596,4.462905,STD
43373731854000,0.619959,-1.18454443954622,10.5051671666102,0.673698198496444,0.29443705,0.015577064,-0.12705997,283.9408,-79.971016,4.10881,STD
43373736830000,0.624935,-0.607626965844904,10.1057627047071,0.564769733396546,0.23335053,0.14355333,-0.15454891,284.26764,-80.167946,3.7991965,STD
43373741864000,0.629969,-0.199286264596572,9.91237888954596,0.814125557692693,0.16401732,0.21380283,-0.22479841,284.56772,-80.342285,3.495425,STD
43373746827000,0.634932,0.167536044544452,9.76469767876115,1.13330863820788,0.089491755,0.19364429,-0.32711834,284.85547,-80.495865,3.1814666,STD
43373751850000,0.639955,0.484531933278443,9.71714041579341,1.4459580752994,0.029321533,0.070249505,-0.4166101,285.17377,-80.58867,2.9782925,STD
43373756854000,0.644959,0.789427057844311,9.69023782934132,1.75533692994012,-0.037873644,-0.16126843,-0.49602258,285.52637,-80.6637,2.7600935,STD
43373761857000,0.649962,1.0280777644544,9.62272191122935,1.93277717485298,-0.08735373,-0.43951756,-0.571159,285.88135,-80.65639,2.5988233,STD
43373766786000,0.654891,1.23517122006908,9.5390034466536,2.05174578804256,-0.11178834,-0.7165449,-0.63621616,286.298,-80.641495,2.4323206,STD
43373771827000,0.659932,1.47323356006151,9.48569736028119,2.02282279881371,-0.17837265,-0.95539325,-0.6985244,286.7154,-80.54413,2.3129663,STD
43373776859000,0.664964,1.73260679512302,9.45923072056239,1.86931612262742,-0.23762658,-1.1420126,-0.7483099,287.19122,-80.44642,2.1921372,STD
43373781865000,0.66997,1.95756140210454,9.4802415817607,1.51143510484142,-0.29352075,-1.201572,-0.7657196,287.66235,-80.3053,2.1134715,STD
43373786829000,0.674934,2.16893054282186,9.51781809554392,1.08399973466061,-0.36071593,-1.2672399,-0.7648033,288.18106,-80.1494,2.0375485,STD
43373791917000,0.680022,2.35041107628947,9.55952680574623,0.559830010960973,-0.3830125,-1.2592987,-0.7535023,288.66544,-80.016815,2.0013313,STD
43373796872000,0.684977,2.51327208236909,9.60140525299078,0.0154085350735439,-0.42149702,-1.1676689,-0.6933321,289.13562,-79.86165,1.9798764,STD
43373801850000,0.689955,2.62861795317506,9.63062246400309,-0.410941315703532,-0.4279111,-1.0112875,-0.61636305,289.55615,-79.793755,1.9936475,STD
43373806853000,0.694958,2.72109586370392,9.65374190542366,-0.780852634328315,-0.40561453,-0.80848014,-0.5381723,289.93036,-79.72217,2.0181026,STD
43373811873000,0.699978,2.7205757595879,9.67372495554112,-1.02549342392333,-0.3549127,-0.59742624,-0.4538729,290.25342,-79.75482,2.082797,STD
43373816860000,0.704965,2.65851589116391,9.69145625394468,-1.18507605844626,-0.2706133,-0.39920044,-0.35521814,290.51566,-79.79766,2.163167,STD
43373821826000,0.709931,2.5538404507198,9.69691735259754,-1.22983742856249,-0.16523905,-0.23090707,-0.2770274,290.7237,-79.924515,2.26524,STD
43373826879000,0.714984,2.39229942484874,9.6868213679324,-1.12887436646151,-0.05955936,-0.06994407,-0.20005837,290.8716,-80.06529,2.3838053,STD
43373831854000,0.719959,2.17300328700878,9.69661042407478,-0.947234277680275,0.063224554,0.048563786,-0.14110987,290.98233,-80.26743,2.4961016,STD
43373836837000,0.724942,1.89989443934567,9.72392138964136,-0.69233262949256,0.15485434,0.09315695,-0.08827003,291.06436,-80.47874,2.6224701,STD
43373841863000,0.729968,1.59024215383629,9.77502998696303,-0.40199563432336,0.20158553,0.12705997,-0.05955936,291.11243,-80.69269,2.722665,STD
43373846825000,0.73493,1.23985877969652,9.85627783222911,-0.0719242989153665,0.23426682,0.116980694,-0.0421497,291.15833,-80.91731,2.8327901,STD
43373851881000,0.739986,0.930115494256957,9.91685112477798,0.231345935413854,0.22724187,0.10751228,-0.043066,291.19626,-81.10425,2.8894556,STD
43373856890000,0.744995,0.660300722005131,9.95945357430432,0.505894284830077,0.19425514,0.07819075,-0.070554934,291.24326,-81.28877,2.9434516,STD
43373861832000,0.749937,0.415647946185085,10.0121530502012,0.667555496379714,0.14660765,0.0009162979,-0.09010262,291.31378,-81.42631,2.9362683,STD
43373866892000,0.754997,0.184395876373164,10.0756341047534,0.735570840274165,0.07849618,-0.08155051,-0.14446963,291.3967,-81.552956,2.9126499,STD
43373871788000,0.759893,-0.00274446220626433,10.1427866425707,0.772229763894194,0.022602014,-0.17654006,-0.19120082,291.514,-81.63354,2.8284152,STD
43373876890000,0.764995,-0.138054350860199,10.2221058853132,0.762898005166157,-0.043676864,-0.2773328,-0.24617869,291.65775,-81.69734,2.7316604,STD
43373881803000,0.769908,-0.252360146033802,10.2928007842324,0.71575602990588,-0.087964594,-0.32284227,-0.26725355,291.82465,-81.75064,2.5834346,STD
43373886874000,0.774979,-0.330998315439733,10.3517800912863,0.573224363895355,-0.10354166,-0.40775254,-0.30604348,292.0314,-81.797485,2.424009,STD
43373891791000,0.779896,-0.412839195898604,10.3993408608184,0.405131758917118,-0.12156218,-0.4569272,-0.35033122,292.2436,-81.84043,2.2279768,STD
43373896874000,0.784979,-0.509892008709769,10.4270703076047,0.164810547580177,-0.09621128,-0.45173484,-0.39400807,292.46234,-81.88956,2.0274591,STD
43373901787000,0.789892,-0.593095564470969,10.4433468231843,-0.0448945526700384,-0.089186326,-0.37720928,-0.41691554,292.67627,-81.95662,1.8099303,STD
43373907128000,0.795233,-0.639661164274732,10.4174770635242,-0.179417403390856,-0.03573562,-0.28710666,-0.4343252,292.8823,-82.04024,1.586461,STD
43373911746000,0.799851,-0.671478380424504,10.3882921772617,-0.253826142975728,0.017715093,-0.19853121,-0.42546764,293.0694,-82.16944,1.341874,STD
43373916763000,0.804868,-0.676526904707366,10.332757777556,-0.188195274582326,0.061391957,-0.15271631,-0.40653083,293.24118,-82.30281,1.0994854,STD
43373921787000,0.809892,-0.675677675622759,10.2580115589668,-0.0980454072359592,0.109650314,-0.12492194,-0.37232238,293.39215,-82.4675,0.85967815,STD
43373926761000,0.814866,-0.662541816665135,10.1441673565585,0.0420705222318228,0.13194689,-0.09162979,-0.3371976,293.52664,-82.627464,0.62931037,STD
43373931761000,0.819866,-0.639780010103546,10.0160324882334,0.197849559152808,0.13927728,-0.067500606,-0.30879238,293.65683,-82.77157,0.40721583,STD
43373936754000,0.824859,-0.559759913110553,9.80598025258864,0.442911028186382,0.12644911,-0.09712757,-0.28496864,293.79102,-82.90748,0.19952387,STD
43373941765000,0.82987,-0.471167574999032,9.6009227202208,0.624557847285493,0.12003502,-0.13836098,-0.26358834,293.9203,-83.00558,0.004950179,STD
43373946767000,0.834872,-0.355190455072632,9.41535898343986,0.59208426358803,0.08674286,-0.17195857,-0.24648413,294.05432,-83.08607,-0.17893073,STD
43373951859000,0.839964,-0.237362470155639,9.23461138462766,0.548769602394445,0.07422013,-0.17012598,-0.22357668,294.18884,-83.11114,-0.3433898,STD
43373956876000,0.844981,-0.122316966026818,9.09272186319738,0.460568043489504,0.081855945,-0.12889257,-0.2098322,294.31985,-83.129295,-0.5022251,STD
43373961876000,0.849981,-0.00766129119243356,8.95131313145503,0.372665353729747,0.09132435,-0.101098195,-0.1908954,294.44513,-83.149216,-0.62513,STD
43373966855000,0.85496,0.115529430897986,8.92812986601775,0.267265929138277,0.10903945,-0.080634214,-0.17989981,294.55933,-83.17185,-0.74513835,STD
43373971846000,0.859951,0.243245782133791,8.96005912052677,0.153233481523046,0.13225232,-0.03940081,-0.16584991,294.6579,-83.19756,-0.85828453,STD
43373976878000,0.864983,0.28250528080679,9.04103397781073,0.174348418520374,0.17440203,-0.016798794,-0.15088372,294.74704,-83.25713,-0.9367166,STD
43373981854000,0.869959,0.258140948986144,9.15554634347359,0.291297194977248,0.22418754,0.028405234,-0.13744467,294.81708,-83.32424,-1.0124472,STD
43373986830000,0.874935,0.233776617165499,9.27005870913646,0.408245971434122,0.25320363,0.06383542,-0.1160644,294.8777,-83.42465,-1.0574365,STD
43373991860000,0.879965,0.209147881422363,9.38581377330129,0.526463886542257,0.28802297,0.089186326,-0.112399206,294.92834,-83.53831,-1.1041478,STD
43373996850000,0.884955,0.178882119487078,9.4616880879295,0.549152432068522,0.31490102,0.048563786,-0.105068825,294.98923,-83.65597,-1.1419756,STD
43374001857000,0.889962,0.145645416498663,9.51866545737202,0.525411914351916,0.3100141,-0.002443461,-0.096516706,295.04584,-83.772156,-1.1784374,STD
43374006887000,0.894992,0.112121254413669,9.53536364461493,0.53282900908638,0.29749137,-0.026267206,-0.101098195,295.10992,-83.84588,-1.2261006,STD
43374011864000,0.899969,0.0788796100926572,9.53061474265219,0.556573052786689,0.30482176,-0.032375857,-0.10140363,295.18268,-83.92263,-1.2685362,STD
43374016868000,0.904973,0.0501321697839191,9.50356485749408,0.570666767623384,0.31948254,-0.04520403,-0.10170906,295.26544,-83.99981,-1.3174324,STD
43374021820000,0.909925,0.0242219444573848,9.46469963877254,0.5793035209725,0.34972036,-0.09010262,-0.106901415,295.3587,-84.08102,-1.3660254,STD
43374026817000,0.914922,-0.00159257713796031,9.36231221139764,0.602056255926987,0.3717115,-0.16218472,-0.11362094,295.45795,-84.1532,-1.4260927,CSI
43374031859000,0.919964,-0.0272140670486045,9.17783697293855,0.643050642780431,0.39736784,-0.21166481,-0.1328632,295.56348,-84.2311,-1.4897262,CSI
43374036864000,0.924969,-0.0410313217192823,9.04893243443201,0.592697310684407,0.42149702,-0.2565634,-0.16401732,295.6893,-84.305664,-1.5623482,CSI
43374041882000,0.929987,-0.0458752293384739,8.9617423451265,0.471599582269932,0.43249258,-0.2938262,-0.18906279,295.82635,-84.37972,-1.6366385,CSI
43374046814000,0.934919,-0.0532773124857284,8.88513443437037,0.389019824969877,0.4251622,-0.28680122,-0.20555615,295.9664,-84.434715,-1.7249461,CSI
43374051853000,0.939958,-0.0628096661748148,8.81364184888889,0.33182571677037,0.44623706,-0.2724459,-0.20616703,296.1138,-84.49653,-1.8137729,CSI
43374056860000,0.944965,-0.0855059829159213,8.76874034347048,0.303819488694097,0.4541783,-0.2574797,-0.21960606,296.258,-84.56881,-1.9102063,CSI
43374061838000,0.949943,-0.118671697654542,8.74505056489764,0.299081532979527,0.4633413,-0.2415972,-0.20708331,296.396,-84.645424,-1.9985738,CSI
43374066872000,0.954977,-0.169701321729793,8.74931633678251,0.284157437014838,0.46944994,-0.23457226,-0.2098322,296.52786,-84.724365,-2.0986724,CSI
43374071878000,0.959983,-0.235220743030066,8.77739616556033,0.260757636712222,0.45845437,-0.23793201,-0.20250183,296.65668,-84.798775,-2.191206,CSI
43374076846000,0.964951,-0.308906736341722,8.82547242724906,0.221826211650757,0.46089783,-0.23945917,-0.1966986,296.78384,-84.86944,-2.2914307,CSI
43374081857000,0.969962,-0.392197519053129,8.89488137257738,0.166299021565905,0.46792278,-0.2415972,-0.17470746,296.91068,-84.936424,-2.3834825,CSI
43374086857000,0.974962,-0.458533718907857,8.98316255295997,0.142075569965059,0.48258355,-0.23518312,-0.16920967,297.03802,-84.996086,-2.4918835,CSI
43374091910000,0.980015,-0.502012269262254,9.09910511849855,0.161399357791754,0.50488013,-0.23243423,-0.16401732,297.16562,-85.05668,-2.592511,CSI
43374096825000,0.98493,-0.513243624432305,9.23914823948029,0.164679220939613,0.5329799,-0.22296582,-0.14935656,297.29794,-85.11632,-2.7062304,CSI
43374101856000,0.989961,-0.480046472263399,9.42173251203307,0.145709422812934,0.5311473,-0.2660318,-0.1563815,297.4439,-85.16438,-2.8219352,CSI
43374106879000,0.994984,-0.44690210825139,9.60402644982529,0.126769789342389,0.5198463,-0.28924468,-0.14110987,297.578,-85.20907,-2.9348414,CSI
43374111901000,1.000006,-0.413764342758994,9.78628409577243,0.107833926453861,0.5103779,-0.32803464,-0.13530666,297.72818,-85.243774,-3.0494797,CSI
43374116861000,1.004966,-0.360447588733624,9.91161845123727,0.0850342345385735,0.50946164,-0.37873647,-0.1328632,297.886,-85.27009,-3.1616921,CSI
43374121832000,1.009937,-0.269496672207969,9.93760449845342,0.0547172650767831,0.48991394,-0.42241332,-0.12308934,298.0513,-85.286644,-3.2679145,CSI
43374126806000,1.014911,-0.159885423406909,9.95535745789648,0.0257160669649045,0.46670106,-0.48197266,-0.13072516,298.2289,-85.31853,-3.3553407,CSI
43374131854000,1.019959,0.064199803636464,9.92334519346651,0.00437461658459331,0.4352415,-0.5305365,-0.13225232,298.41403,-85.342476,-3.4365723,CSI
43374136794000,1.024899,0.29027560831222,9.90700958448646,-0.0539612276314559,0.40133846,-0.5699373,-0.122478485,298.60724,-85.380325,-3.49231,CSI
43374141948000,1.030053,0.540388726447086,9.92143947865913,-0.193447388567141,0.3735441,-0.57848936,-0.087659165,298.80325,-85.414406,-3.5405123,CSI
43374146799000,1.034904,0.736129842673179,9.91677243250444,-0.264432415667259,0.39675698,-0.5235115,-0.032375857,298.98315,-85.48915,-3.5394795,CSI
43374151871000,1.039976,0.836785544508585,9.86404795648313,-0.180552668642195,0.43066,-0.43463063,0.029626964,299.15335,-85.56708,-3.5274935,CSI
43374156870000,1.044975,0.935992534547069,9.812082330373,-0.0978801813830669,0.49632803,-0.3817908,0.08155051,299.30774,-85.722466,-3.4507174,CSI
43374161863000,1.049968,1.03508045238307,9.76017907548846,-0.0153069209540162,0.5439755,-0.3662137,0.1282817,299.44574,-85.888794,-3.3607068,CSI
43374166834000,1.054939,1.10153034233535,9.6704362852006,0.06976895617676,0.59986967,-0.41813725,0.15454891,299.58685,-86.0677,-3.2653902,CSI
43374171837000,1.059942,1.06072649355602,9.45281572681681,0.164977891530091,0.62125,-0.4343252,0.160963,299.71234,-86.248695,-3.165865,CSI
43374176823000,1.064928,1.01139361175703,9.25982021738752,0.269459885223218,0.62125,-0.4596761,0.15974127,299.84802,-86.45025,-3.0220878,CSI
43374181855000,1.06996,0.893968338134192,9.25143252893569,0.449791565439039,0.63071835,-0.48624873,0.1469131,299.98788,-86.649765,-2.8833055,CSI
43374186833000,1.074938,0.777803192646419,9.24313485144896,0.628188048768602,0.623388,-0.48563787,0.12980886,300.12933,-86.821556,-2.758406,CSI
43374191855000,1.07996,0.573147797712305,9.31413342287695,0.908203311091854,0.6087272,-0.5170974,0.10415252,300.28656,-86.983826,-2.6422527,CSI
43374197181000,1.085286,0.3360037135447,9.41318630449894,1.22158747962927,0.58246,-0.5500842,0.07269296,300.44305,-87.13323,-2.5356216,CSI
43374201852000,1.089957,0.137342762706314,9.61184675748214,1.34251149831048,0.5552765,-0.5751296,0.062002823,300.6086,-87.226776,-2.4640725,CSI
43374206837000,1.094942,-0.0746728313697625,9.82386182023557,1.47156442768874,0.5363397,-0.5861252,0.06872234,300.78427,-87.238434,-2.4485788,CSI
43374211871000,1.099976,-0.249767916746502,9.93182881719062,1.44096913263674,0.5311473,-0.6258314,0.08002335,300.97272,-87.24656,-2.434963,CSI
43374216852000,1.104957,-0.418801250049791,10.0271810695984,1.39329305168999,0.52748215,-0.6960809,0.064751714,301.17053,-87.24716,-2.4272463,CSI
43374221828000,1.109933,-0.624245971167311,10.1626589262286,0.980533820117062,0.5109888,-0.70616025,0.051923547,301.37286,-87.18089,-2.4728246,CSI
43374226801000,1.114906,-0.845148157941469,10.3151869598012,0.412499658506902,0.47128254,-0.57787853,0.058948494,301.55167,-87.11405,-2.516255,CSI
43374232578000,1.120683,-0.991234148364689,10.6926089450072,-0.230009672127352,0.45937067,-0.37415496,0.10476339,301.72275,-87.020706,-2.5954645,CSI
43374236817000,1.124922,-1.0891504269754,10.9863575354559,-0.700007744023155,0.45845437,-0.12675454,0.17256944,301.84058,-86.934296,-2.6649275,CSI
43374241906000,1.130011,-1.14641171770957,11.32381791617,-0.930681464259038,0.47891834,0.07360926,0.2660318,301.91827,-86.89324,-2.7472649,CSI
43374246826000,1.134931,-1.18853142331148,11.6467356754072,-1.08044036104092,0.49296826,0.20769419,0.33964106,301.94318,-86.862434,-2.814796,CSI
43374251850000,1.139955,-1.22400018833034,11.7700763321364,-1.03021167883303,0.48533243,0.26358834,0.3811799,301.9452,-86.88422,-2.8754287,CSI
43374256846000,1.144951,-1.25740531994814,11.8416587570317,-0.929996214217036,0.4978552,0.30604348,0.4129449,301.91357,-86.91417,-2.9169052,CSI
43374261874000,1.149979,-1.22136440700798,11.6888790970413,-0.902019559565788,0.535118,0.35246924,0.42943826,301.86725,-86.94588,-2.952833,CSI
43374266836000,1.154941,-1.16858026141573,11.4825409685954,-0.892422451295567,0.5717699,0.3885103,0.44684792,301.81335,-86.97084,-2.9778893,CSI
43374271844000,1.159949,-0.770936232419021,11.1441162257064,-0.553375766540317,0.6044512,0.39278635,0.473726,301.7669,-86.97622,-3.0032768,CSI
43374276872000,1.164977,-0.293894440785665,10.7749274856995,-0.138556796013094,0.61636305,0.37110063,0.48624873,301.71957,-86.97011,-3.026243,CSI
43374281857000,1.169962,0.0965224337703531,10.4934999089131,0.299274701871432,0.6585127,0.3213151,0.5103779,301.6794,-93.02899,-3.0282743,CSI
43374286838000,1.174943,0.404180150035948,10.2968001767816,0.76328302733136,0.6976081,0.2434298,0.53969944,301.65552,-93.03738,-3.0247211,CSI
43374291894000,1.179999,0.654599305699891,10.0847649206757,1.09632250897461,0.7449502,0.14110987,0.5635232,301.6286,-92.94005,-2.911501,CSI
43374296860000,1.184965,0.861313752869703,9.86865488293984,1.33592337501235,0.7858781,-0.018936822,0.5879578,301.6417,-92.84548,-2.7928445,CSI
43374301825000,1.18993,0.98290158136646,9.63605232919255,1.38298606521739,0.80756384,-0.16584991,0.6160576,301.66806,-92.681656,-2.6136086,CSI
43374306931000,1.195036,1.04459505926825,9.38453277115683,1.28807308709239,0.8035932,-0.30848694,0.634689,301.73843,-92.521736,-2.4347744,CSI
43374311866000,1.199971,1.03430248002388,9.1339055686724,1.2545598456256,0.8026769,-0.3390302,0.64812803,301.80792,-92.312614,-2.2127697,CSI
43374316851000,1.204956,0.961346766962751,8.87400090487106,1.27279870842407,0.82772243,-0.36163223,0.6560693,301.9137,-92.10906,-1.9923272,CSI
43374321823000,1.209928,0.864087508379063,8.60751981806669,1.26840735457999,0.8362745,-0.37873647,0.64568454,302.0223,-91.90813,-1.7638674,CSI
43374326820000,1.214925,0.732783397029337,8.32976076097509,1.23305632170747,0.8393288,-0.44318274,0.6081163,302.14874,-91.726074,-1.5460848,CSI
43374331853000,1.219958,0.581964234933016,8.06133866388806,1.15815500384043,0.8045095,-0.52320606,0.56382865,302.2931,-91.56982,-1.3572086,CSI
43374336857000,1.224962,0.415517668192915,7.80453568800238,1.04877581693957,0.766025,-0.5271767,0.5158757,302.43137,-91.43406,-1.1841385,CSI
43374341874000,1.229979,0.266794647836457,7.61220540783646,0.955895108839675,0.75136423,-0.54550266,0.44776422,302.6001,-91.34812,-1.063998,CSI
43374346854000,1.234959,0.135895305417377,7.48130606541738,0.879161019685785,0.7425067,-0.5885687,0.36560285,302.7739,-91.27654,-0.96448535,CSI
43374351857000,1.239962,0.0361746814163331,7.39513118398719,0.792544981582266,0.73731434,-0.636827,0.30298916,302.9608,-91.26113,-0.9249075,CSI
43374356857000,1.244962,-0.0165399262698159,7.37596224883907,0.691907986986589,0.7275405,-0.70402217,0.24281894,303.16223,-91.26086,-0.90966046,CSI
43374361818000,1.249923,-0.0239914757524858,7.40499792879622,0.575094675687808,0.7293731,-0.7806858,0.18112154,303.39285,-91.30685,-0.9484781,CSI
43374366850000,1.254955,0.0364850549504778,7.50734275621199,0.43088141748914,0.7281514,-0.81306165,0.13683382,303.62637,-91.35876,-0.9997054,CSI
43374371825000,1.25993,0.127767410905319,7.67260961179568,0.209780988233807,0.7333437,-0.8582657,0.11911872,303.88525,-91.44144,-1.0717653,CSI
43374376830000,1.264935,0.284259189212849,7.97044875423907,-0.173876282603476,0.7504479,-0.872621,0.08460484,304.14075,-91.53835,-1.1608222,CSI
43374381832000,1.269937,0.465443730584879,8.31244407403709,-0.564807555982882,0.77549344,-0.84971356,0.06811147,304.3932,-91.64477,-1.2270075,CSI
43374386862000,1.274967,0.680760211516881,8.7155900830718,-0.967953335402758,0.8216137,-0.7910705,0.063224554,304.6362,-91.76242,-1.2994694,CSI
43374391841000,1.279946,0.958183980890052,9.14612261397503,-1.27182348391059,0.88331115,-0.68783426,0.06841691,304.85617,-91.915344,-1.3232088,CSI
43374396861000,1.284966,1.36962410078534,9.64469120237616,-1.38315431657269,0.9434814,-0.5555819,0.09468412,305.04913,-92.08034,-1.3426085,CSI
43374401784000,1.289889,1.79712285888279,10.0673600983541,-1.34355862597506,1.0274754,-0.43127087,0.13133603,305.2102,-92.30934,-1.2998213,CSI
43374406877000,1.294982,2.28851866504738,10.369008962793,-0.998122052648379,1.1108584,-0.36468655,0.1685988,305.34937,-92.565895,-1.2507154,CSI
43374411792000,1.299897,2.75438921091167,10.564698205196,-0.638065086454417,1.2046263,-0.41447207,0.18845193,305.47452,-92.83726,-1.107936,CSI
43374416852000,1.304957,3.21677210651866,10.5692763459613,-0.212306561674067,1.2748758,-0.5714644,0.20097467,305.61176,-93.144135,-0.96173066,CSI
43374421841000,1.309946,3.67741787812919,10.5315555954466,0.189803692156176,1.3445144,-0.8002335,0.1853976,305.76227,-93.39521,-0.72014284,CSI
43374426858000,1.314963,4.15753966137839,10.3434664203152,0.531333742144844,1.4074335,-1.0858129,0.1685988,305.9741,-93.68684,-0.48643133,CSI
43374431816000,1.319921,4.56728274094468,10.1537229209396,0.747041775852488,1.4333953,-1.4013249,0.13836098,306.23706,-93.90625,-0.1690645,CSI
43374436842000,1.324947,4.81044025701777,9.95109179860234,0.64167350760293,1.4486669,-1.6920967,0.09896017,306.57306,-94.16514,0.12609053,CSI
43374442651000,1.330756,5.08208911075364,9.71893739779595,0.519232837717739,1.4715744,-1.8863518,0.05467244,306.95093,-94.39624,0.4979151,CSI
43374446883000,1.334988,5.16493389575187,9.57485983789548,0.421980409562744,1.4813483,-2.0286834,0.008246681,307.39426,-94.65141,0.8421927,CSI
43374451822000,1.339927,5.26161877124956,9.40671261002488,0.308480942961251,1.4969252,-2.1878138,-0.039095376,307.88846,-94.973236,1.2206334,CSI
43374456861000,1.344966,5.1909385462099,9.270574191681,0.0803595019249064,1.5005904,-2.2608123,-0.09040806,308.39548,-95.30641,1.5726451,CSI
43374461843000,1.349948,5.03159380644672,9.15468685153325,-0.204529429442364,1.5027285,-2.314874,-0.13591751,308.93924,-95.64911,1.8990958,CSI
43374466852000,1.354957,4.66379796352627,9.13261711986269,-0.46425002455421,1.4987578,-2.3295345,-0.17837265,309.48773,-96.02903,2.22643,CSI
43374471834000,1.359939,4.19973870167827,9.15536510193573,-0.709928392464957,1.493871,-2.3283129,-0.20586158,310.04395,-96.40824,2.5345445,CSI
43374476870000,1.364975,3.6293881359324,9.2591254645716,-1.05210007096946,1.4850134,-2.2974641,-0.23732115,310.60574,-96.81901,2.7897027,CSI
43374481853000,1.369958,2.99272791930033,9.41946982626742,-1.45767625529795,1.4895949,-2.2058344,-0.2501493,311.14682,-97.22658,3.0361383,CSI
43374486831000,1.374936,2.36071588418222,9.63311256960227,-1.75862173300528,1.5012014,-2.1410828,-0.25473082,311.69992,-97.62922,3.166335,CSI
43374491902000,1.380007,1.72016003719562,9.89426186647727,-1.98035259717938,1.5088371,-2.08977,-0.26297748,312.22687,-98.02321,3.2884047,CSI
43374496855000,1.38496,1.18737835553232,10.1504819503327,-2.11401178013308,1.5085317,-2.0274618,-0.26358834,312.75363,-98.42256,3.265717,CSI
43374501856000,1.389961,0.71390540991635,10.4099817961977,-2.19140643847909,1.5317446,-2.005776,-0.26328292,313.2729,-98.824646,3.2371397,CSI
43374506843000,1.394948,0.24289768050321,10.6727355957238,-2.31717675536343,1.5467108,-1.9721785,-0.25320363,313.78418,-99.19786,3.0671248,CSI
43374511869000,1.399974,-0.230558295073514,10.941857912456,-2.49659168522468,1.5506815,-1.8402315,-0.23060162,314.25708,-99.575775,2.904525,CSI
43374516849000,1.404954,-0.587447450043265,11.1346693337179,-2.72307545004327,1.5931365,-1.6313156,-0.21777347,314.71112,-99.9267,2.625301,CSI
43374521833000,1.409938,-0.853612888289588,11.2677523403519,-2.98924088828959,1.6459764,-1.4162911,-0.18784106,315.1229,-100.289345,2.3660336,CSI
43374526863000,1.414968,-0.881432352005248,11.1501354362819,-3.37981961870315,1.6963727,-1.2345587,-0.16401732,315.49728,-100.65913,2.0144587,CSI
43374531851000,1.419956,-0.639722084070465,10.7517610014993,-3.90352526544228,1.7241671,-1.0384709,-0.14263703,315.80423,-101.04514,1.6875347,CSI
43374536822000,1.424927,-0.350405004744222,10.4162702185475,-4.31632002552945,1.7794504,-0.8454375,-0.13164146,316.07294,-101.49285,1.3197775,CSI
43374541872000,1.429977,0.0424468992785997,10.2011366047771,-4.51274583347839,1.7980819,-0.70402217,-0.110872045,316.2997,-101.94228,0.97557414,CSI
43374546837000,1.434942,0.414944734285123,9.97512893208407,-4.74234760321979,1.7876972,-0.61422503,-0.08857546,316.49036,-102.55135,0.730353,CSI
43374551888000,1.439993,0.755489994235428,9.70469622714567,-5.07788497368258,1.7647897,-0.54000485,-0.057421334,316.6458,-103.15388,0.5035314,CSI
43374557694000,1.445799,1.00634549074809,9.36907059908397,-5.36729292323664,1.752267,-0.44898596,-0.018020526,316.7638,-103.80838,0.38715,CSI
43374561868000,1.449973,1.05516820584224,9.10461403094148,-5.48528100622901,1.7440202,-0.35033122,0.02443461,316.86066,-104.444984,0.28619465,CSI
43374566805000,1.45491,1.02063216151423,8.77906873152568,-5.55881499150277,1.7290541,-0.33200526,0.03970624,316.94943,-105.14573,0.2646127,CSI
43374571849000,1.459954,0.822318926952454,8.42394974966584,-5.51730750423907,1.7186694,-0.35705075,0.07391469,317.02765,-105.83171,0.26222724,CSI
43374576793000,1.464898,0.614801061921503,8.09854526443488,-5.43964305750866,1.6862935,-0.41325033,0.10048734,317.1079,-106.54075,0.27467707,CSI
43374581861000,1.469966,0.365223176372127,7.82859387528597,-5.25627974341484,1.6612481,-0.4529566,0.10170906,317.19162,-107.235664,0.28666934,CSI
43374586825000,1.47493,0.163794471864307,7.58641317561455,-5.13961865034415,1.647809,-0.50579643,0.082161374,317.30508,-107.92287,0.25177184,CSI
43374591859000,1.479964,0.034511432359882,7.37956036928578,-5.13099978716367,1.6471981,-0.56138515,0.06994407,317.43066,-108.595055,0.21371369,CSI
43374596814000,1.484919,-0.0644163731779023,7.18375229182924,-5.12010623654626,1.645671,-0.5699373,0.034513887,317.56256,-109.2333,0.11391227,CSI
43374601890000,1.489995,0.0341783055688623,7.0382076251497,-5.09193634850299,1.6475036,-0.57543504,-0.005192355,317.70618,-109.86256,0.003925652,CSI
43374607004000,1.495109,0.14830543152635,6.8995332936147,-5.07924872114586,1.6383406,-0.5830709,-0.03940081,317.85654,-110.491646,-0.1436356,CSI
43374611867000,1.499972,0.397816544980319,6.84352068962388,-5.21673454686202,1.6209309,-0.643852,-0.09162979,318.01544,-111.110214,-0.3130343,CSI
43374616867000,1.504972,0.643050313601641,6.80049942593352,-5.35079835249081,1.5909985,-0.7476991,-0.13041973,318.18378,-111.72181,-0.46861762,CSI
43374621835000,1.50994,0.85038659069982,6.80456479768435,-5.46056445102965,1.5311338,-0.84116143,-0.17715092,318.35727,-112.311844,-0.64599586,CSI
43374627791000,1.515896,1.08813388032026,6.81716602359203,-5.58993325611864,1.4816537,-0.9450085,-0.21319197,318.54645,-112.9206,-0.78930956,CSI
43374631855000,1.51996,1.14833243957784,6.89861104617414,-5.65721425329815,1.452943,-1.0424415,-0.2406809,318.75174,-113.51007,-0.9527289,CSI
43374636835000,1.52494,1.22209937488855,6.99841326380675,-5.73965996342462,1.4175128,-1.1563679,-0.2602286,318.97342,-114.10052,-1.0827022,CSI
43374641865000,1.52997,1.11704444077911,7.05012315965603,-5.83785273383755,1.3988814,-1.2702943,-0.2666427,319.2158,-114.67908,-1.228389,CSI
43374646796000,1.534901,0.936018786713634,7.07947875341898,-5.94059685221716,1.378112,-1.3655893,-0.27152961,319.47745,-115.23866,-1.3904401,CSI
43374651851000,1.539956,0.645316462033447,7.05659120779197,-6.08733359337499,1.3628404,-1.4355333,-0.28405234,319.75375,-115.79277,-1.5489049,CSI
43374656868000,1.544973,0.323032214325094,7.01685747134062,-6.24626830868327,1.361924,-1.4853189,-0.28771752,320.0462,-116.33628,-1.7158477,CSI
43374661860000,1.549965,-0.10913036388587,6.98001163971572,-6.52335081240594,1.3548992,-1.4624114,-0.30848694,320.33453,-116.88147,-1.9294679,CSI
43374666852000,1.554957,-0.618783042146739,6.94503550058528,-6.88310554284072,1.3634512,-1.3552046,-0.32589662,320.60986,-117.422165,-2.1376622,CSI
43374671832000,1.559937,-1.09542417132906,6.898797995037,-7.12089859074494,1.368949,-1.2357804,-0.355829,320.87347,-117.99109,-2.4252858,CSI
43374676866000,1.564971,-1.56158550029008,6.84647384902812,-7.30165510176616,1.3686435,-1.1786644,-0.36285394,321.12204,-118.55188,-2.7033024,CSI
43374681854000,1.569959,-1.9963436243059,6.76396125269242,-7.32782043691335,1.3469579,-1.0564915,-0.3643811,321.31915,-119.17256,-3.066872,CSI
43374686852000,1.574957,-2.41724816221717,6.66464678036755,-7.27106940863551,1.319469,-0.9419542,-0.3717115,321.49738,-119.78236,-3.4221413,CSI
43374691854000,1.579959,-2.76742799938844,6.57712675863089,-7.14959560943973,1.2925909,-0.84635377,-0.36468655,321.6527,-120.418106,-3.8619494,CSI
43374696805000,1.58491,-3.07142877591241,6.4976187189781,-6.99057967664234,1.2611313,-0.77182823,-0.35460728,321.77966,-121.035576,-4.282808,CSI
43374701848000,1.589953,-3.27969988065894,6.40761208149449,-6.84298494755032,1.2357804,-0.7153232,-0.35185838,321.8935,-121.64316,-4.7856746,CSI
43374706873000,1.594978,-3.41677765339916,6.31165772168629,-6.70590722252184,1.2030991,-0.6646214,-0.33658674,321.98962,-122.231186,-5.264608,CSI
43374711861000,1.599966,-3.44263225506941,6.22196950005271,-6.60990678887717,1.1924089,-0.5925393,-0.3371976,322.0725,-122.793655,-5.804718,CSI
43374716851000,1.604956,-3.35446199764541,6.13799769061676,-6.55532507986294,1.1921035,-0.49418998,-0.33505958,322.1358,-123.34343,-6.3193693,CSI
43374721807000,1.609912,-3.20914468466375,6.06132546237877,-6.51741342422466,1.2082914,-0.40775254,-0.35521814,322.1887,-123.87537,-6.86061,CSI
43374726901000,1.615006,-2.82960199891293,6.00933338280934,-6.54340949115421,1.2315043,-0.3484986,-0.37843102,322.2213,-124.40465,-7.38187,CSI
43374731787000,1.619892,-2.42866635302112,6.00311288433711,-6.58125678837505,1.2458596,-0.2941316,-0.4007276,322.22675,-124.931305,-7.865938,CSI
43374736894000,1.624999,-1.93135395307,6.08918620641377,-6.64820277766914,1.2464706,-0.2565634,-0.39950588,322.22015,-125.455,-8.335279,CSI
43374741832000,1.629937,-1.45716579733764,6.20907768848326,-6.69695018142396,1.2516629,-0.28893927,-0.4111123,322.20148,-125.984695,-8.7239485,CSI
43374746859000,1.634964,-0.991081682593788,6.42269948568979,-6.70666031150666,1.2461652,-0.36346483,-0.4175264,322.1837,-126.50403,-9.106265,CSI
43374751791000,1.639896,-0.522478660557164,6.61335440310534,-6.76827515750374,1.2159272,-0.44593164,-0.41905355,322.1646,-126.99844,-9.370906,CSI
43374756878000,1.644983,-0.0117140242735896,6.76415167363954,-6.95798764787818,1.1829406,-0.5564982,-0.42058071,322.1677,-127.483116,-9.650396,CSI
43374761815000,1.64992,0.441681040405177,6.89585598480585,-7.19466096499719,1.1523973,-0.60994893,-0.43401974,322.17694,-127.90958,-9.823036,CSI
43374766829000,1.654934,0.801974496027012,6.99493656565372,-7.55945810433315,1.1395692,-0.72784597,-0.47891834,322.2205,-128.32715,-10.030638,CSI
43374771838000,1.659943,1.14790614358464,7.10697059339566,-7.94044832995823,1.1346822,-0.8536842,-0.49113566,322.2707,-128.722,-10.120043,CSI
43374776829000,1.664934,1.42364464634971,7.28287281360652,-8.40159736960414,1.1285735,-0.9315695,-0.4877759,322.3312,-129.10822,-10.227603,CSI
43374781822000,1.669927,1.66554440987261,7.42621319825296,-8.83192504827116,1.1472049,-0.947452,-0.49571714,322.3836,-129.5263,-10.253824,CSI
43374786848000,1.674953,1.72248066656051,7.3911755299727,-9.09470778903549,1.1927143,-0.9602802,-0.49021935,322.45563,-129.94121,-10.290634,CSI
43374792226000,1.680331,1.77738928816703,7.3551731622837,-9.35628267764998,1.2339478,-0.9645562,-0.50426924,322.50644,-130.38963,-10.261675,CSI
43374796858000,1.684963,1.68086505067869,7.3597695499741,-9.11267360211377,1.2803736,-1.035722,-0.5216789,322.57556,-130.8433,-10.250593,CSI
43374802092000,1.690197,1.57742882226677,7.35770371820369,-8.8561447816092,1.318858,-1.1942415,-0.49663344,322.65607,-131.34084,-10.235145,CSI
43374806876000,1.694981,1.54477055192907,7.27605819155306,-8.8275690881226,1.3206906,-1.3545936,-0.47494772,322.74866,-131.83267,-10.242472,CSI
43374811830000,1.699935,1.51095176613205,7.19151138155573,-8.79797795402299,1.2907583,-1.4220943,-0.4529566,322.8772,-132.27861,-10.286005,CSI
43374816812000,1.704917,1.40075844253127,7.09372542236293,-9.10284658821679,1.2470814,-1.4556919,-0.41386122,323.03992,-132.70953,-10.347021,CSI
43374821852000,1.709957,1.26787493556989,6.99121516042634,-9.50529373995123,1.1982121,-1.3579534,-0.37720928,323.1916,-133.12085,-10.393492,CSI
43374826804000,1.714909,1.12399320312981,6.89419531765008,-9.91180488421413,1.2263119,-1.2098186,-0.36560285,323.33908,-133.54308,-10.445632,CSI
43374831841000,1.719946,0.934240703694202,6.80756925525911,-10.3614357431161,1.3142766,-1.0659598,-0.3576616,323.47235,-133.95839,-10.474142,CSI
43374837691000,1.725796,0.708510959044756,6.70961204362057,-10.8884965531062,1.3991868,-0.93523467,-0.36651915,323.54495,-134.47011,-10.502213,CSI
43374841913000,1.730018,0.488576157122817,6.66716835296307,-11.3206490146006,1.4782939,-0.7812967,-0.36377025,323.58667,-134.99274,-10.495518,CSI
43374846810000,1.734915,0.233478875026243,6.61793889935108,-11.8218926441454,1.568091,-0.6151413,-0.355829,323.56543,-135.62593,-10.496586,CSI
43374851851000,1.739956,-0.150129734050713,6.5628980182673,-11.9559231526677,1.6285667,-0.4813618,-0.34025195,323.52368,-136.258,-10.473205,CSI
43374856797000,1.744902,-0.555488201670365,6.50784937792921,-11.9959588409931,1.700038,-0.4456262,-0.321926,323.4732,-136.90318,-10.436469,CSI
43374861767000,1.749872,-0.932354470149893,6.40591103322117,-11.5775975579688,1.7143933,-0.50640726,-0.31887165,323.3913,-137.62009,-10.434235,CSI
43374866748000,1.754853,-1.30688897927195,6.29890120394616,-11.110645187825,1.7018706,-0.6423248,-0.3191771,323.3249,-138.33029,-10.439842,CSI
43374871767000,1.759872,-1.4518062511822,6.17579968011126,-10.8257019370157,1.6786577,-0.7706065,-0.33292156,323.26788,-139.04723,-10.533728,CSI
43374876732000,1.764837,-1.57934632872045,6.05298325799722,-10.5564510622889,1.638646,-0.8872818,-0.35216382,323.2371,-139.73856,-10.65447,CSI
43374881754000,1.769859,-1.48027157953848,5.83714566059226,-10.4074928354957,1.5986344,-0.9954049,-0.37048978,323.2514,-140.37572,-10.88396,CSI
43374886733000,1.774838,-1.36220951378627,5.61518887243736,-10.2705405019313,1.5381587,-1.0916162,-0.39614612,323.2807,-140.98383,-11.137399,CSI
43374891782000,1.779887,-1.18885214857715,5.35282067422846,-10.2000243835671,1.4957036,-1.1621711,-0.42943826,323.32968,-141.56297,-11.443581,CSI
43374896717000,1.784822,-1.0136339845992,5.09236126400802,-10.1384610003006,1.4624114,-1.2116512,-0.47769663,323.38327,-142.1193,-11.768609,CSI
43374901784000,1.789889,-0.871944289953088,4.856539644957,-10.127983771208,1.4278975,-1.2825116,-0.5497787,323.43124,-142.67374,-12.105052,CSI
43374906776000,1.794881,-0.736446324667709,4.62759477677873,-10.1233115773065,1.4025466,-1.2861768,-0.61086524,323.46634,-143.21411,-12.438912,CSI
43374911796000,1.799901,-0.67078574017094,4.57708586039886,-10.0435601481481,1.4016303,-1.3069462,-0.64873886,323.4912,-143.77513,-12.769122,CSI
43374916747000,1.804852,-0.616751823868946,4.55457174036087,-9.95350390308642,1.4266758,-1.3127494,-0.66981375,323.502,-144.33011,-13.099307,CSI
43374921813000,1.809918,-0.794901412106716,4.63161793100276,-9.88607532996013,1.4257594,-1.294118,-0.68111473,323.48663,-144.90369,-13.406904,CSI
43374926796000,1.814901,-1.04367813788408,4.73893350597976,-9.82753946918123,1.3991868,-1.2470814,-0.68325275,323.46265,-145.46841,-13.706149,CSI
43374931812000,1.819917,-1.51429389392198,4.9435552527971,-9.7418917689749,1.3646729,-1.2421945,-0.6783658,323.44498,-146.01358,-13.999427,CSI
43374936800000,1.824905,-2.03430845471223,5.16985791180325,-9.65040789718778,1.2788464,-1.2644911,-0.6395759,323.4301,-146.52574,-14.278264,CSI
43374941799000,1.829904,-2.68846190693069,5.30742369108911,-9.44289191920792,1.1591167,-1.3946054,-0.6383542,323.43842,-146.99484,-14.627204,CSI
43374946807000,1.834912,-3.3722572019802,5.42613808316832,-9.21021131405941,0.9914343,-1.4559973,-0.62949663,323.44916,-147.41559,-14.952625,CSI
43374951973000,1.840078,-4.05721123993029,5.68248462295701,-9.26220503146785,0.8729264,-1.4404203,-0.625526,323.50378,-147.77016,-15.381048,CSI
43374956868000,1.844973,-4.70174491402014,5.95482269697909,-9.37567964368706,0.7901542,-1.4413365,-0.63316184,323.56992,-148.08386,-15.820948,CSI
43374961862000,1.849967,-5.14257938893398,6.23020315824013,-9.44356796505988,0.766025,-1.452943,-0.6554584,323.67215,-148.34328,-16.390966,CSI
43374966856000,1.854961,-5.51182328247055,6.50476920513709,-9.49564041245175,0.7538077,-1.4789047,-0.6954701,323.7698,-148.58376,-16.958637,CSI
43374971832000,1.859937,-5.71130272671801,6.93877924454976,-9.28036535011848,0.788627,-1.5280794,-0.73945236,323.89893,-148.8033,-17.644085,CSI
43374976867000,1.864972,-5.84937119620853,7.4386823614534,-8.96137960663507,0.82772243,-1.5815301,-0.79412484,324.01904,-149.02586,-18.330761,CSI
43374981853000,1.869958,-5.72321835781508,7.65013187759775,-8.68854522411953,0.89369583,-1.6282613,-0.86070913,324.16983,-149.22998,-19.082504,CSI
43374987530000,1.875635,-5.45420280440477,7.75562824001164,-8.39843053041622,0.9465357,-1.6621643,-0.9437868,324.3079,-149.4503,-19.838316,CSI
43374991927000,1.880032,-5.31946841688374,7.68845348341534,-8.15344597327545,0.97158116,-1.6856827,-1.0308352,324.52652,-149.56325,-20.635098,CSI
43374996896000,1.885001,-5.19550756729378,7.55531045875543,-7.86879538205499,0.9593639,-1.6765196,-1.1313224,324.72028,-149.69687,-21.428925,CSI
43375001877000,1.889982,-5.12338537467819,7.37038203170517,-7.62421923695997,0.93370754,-1.6639969,-1.2159272,324.9301,-149.79506,-22.19566,CSI
43375006870000,1.894975,-5.08965801625816,7.14693819412802,-7.40920706289896,0.88331115,-1.6481144,-1.2999213,325.11346,-149.90129,-22.958788,CSI
43375011821000,1.899926,-5.07380039945445,6.8951964534279,-7.20680926368431,0.8332202,-1.6355917,-1.3970488,325.28033,-150.00714,-23.724373,CSI
43375016853000,1.904958,-5.10009088368794,6.56656521749409,-7.02715748416076,0.8014552,-1.6035212,-1.4776831,325.42603,-150.1186,-24.47738,CSI
43375021818000,1.909923,-5.13368705257542,6.23609717703673,-6.85280370321157,0.77579886,-1.5873333,-1.5622878,325.53976,-150.25462,-25.253876,CSI
43375026869000,1.914974,-5.24288007432793,5.83903208627129,-6.70390415165196,0.75136423,-1.5372424,-1.6203201,325.6308,-150.39465,-26.009426,CSI
43375031836000,1.919941,-5.35393639798395,5.457890456079,-6.56907453476651,0.7476991,-1.4804319,-1.6765196,325.68866,-150.58153,-26.79767,CSI
43375036902000,1.925007,-5.48867553166015,5.12353758259617,-6.4992099030035,0.75533485,-1.4178182,-1.72264,325.7265,-150.77563,-27.567118,CSI
43375041870000,1.929975,-5.62870189979786,4.8233580757532,-6.45487934036,0.7535023,-1.344209,-1.7669277,325.70346,-151.03558,-28.35946,CSI
43375046889000,1.934994,-5.79988704735778,4.62441310925017,-6.50114554422947,0.73426,-1.2415836,-1.7901406,325.65897,-151.29909,-29.121578,CSI
43375051838000,1.939943,-5.98155164961712,4.44136857549578,-6.54925151570783,0.7119634,-1.1838568,-1.7901406,325.562,-151.62459,-29.908773,CSI
43375056924000,1.945029,-6.25889728128804,4.34573220243471,-6.61619712664441,0.69974613,-1.0937542,-1.8002199,325.43222,-151.954,-30.657166,CSI
43375061841000,1.949946,-6.53204761022855,4.26694393798299,-6.67810570656964,0.6936375,-1.0235047,-1.8124372,325.26492,-152.32616,-31.421618,CSI
43375066891000,1.954996,-6.86414905688224,4.32642478096751,-6.71280278302757,0.68752885,-0.9605856,-1.824349,325.0795,-152.69699,-32.15585,CSI
43375071838000,1.959943,-7.19552840712478,4.38812752889819,-6.74335276619622,0.71959925,-0.9147707,-1.8329011,324.86496,-153.10966,-32.911392,CSI
43375076853000,1.964958,-7.56950292201674,4.47227170200506,-6.75270217299981,0.7528914,-0.8857546,-1.8661933,324.63037,-153.52657,-33.648796,CSI
43375081819000,1.969924,-7.93530802018294,4.5523231566047,-6.758998935389,0.8054258,-0.87017757,-1.9126191,324.39853,-153.95938,-34.4187,CSI
43375086857000,1.974962,-8.25325978282679,4.59503307785974,-6.73052573713977,0.8717047,-0.8381071,-1.9654589,324.14484,-154.4083,-35.16946,CSI
43375092019000,1.980124,-8.58237697301136,4.62687622045454,-6.69878613494318,0.93767816,-0.8151997,-2.0289888,323.894,-154.87424,-35.976315,CSI
43375096860000,1.984965,-8.92575888717533,4.53279892987013,-6.64233956412338,0.9636399,-0.8188649,-2.094046,323.62335,-155.35411,-36.77356,CSI
43375101848000,1.989953,-9.26653793426208,4.43329850722682,-6.58550758859382,0.9764681,-0.7959574,-2.1783454,323.3367,-155.8584,-37.610428,CSI
43375106838000,1.994943,-9.45794103918154,4.30430959238137,-6.5438983313017,0.96974856,-0.7779369,-2.2821925,323.02188,-156.37805,-38.44332,CSI
43375111846000,1.999951,-9.6500345761428,4.17485538686112,-6.5021389804963,0.92485,-0.7840455,-2.386956,322.6704,-156.93373,-39.340908,CSI
43375116854000,2.004959,-9.85419188967407,3.91208803391982,-6.38837664724546,0.8723156,-0.8142834,-2.5109615,322.2756,-157.50798,-40.23684,CSI
43375121849000,2.009954,-10.061154943467,3.61314095777329,-6.25500039832708,0.8179486,-0.8790351,-2.6584857,321.84128,-158.09552,-41.140285,CSI
43375126861000,2.014966,-10.2578248842338,3.2946360708519,-6.22413756438864,0.766025,-0.9324858,-2.8487701,321.32608,-158.73871,-42.097343,CSI
43375131851000,2.019956,-10.4490215151742,2.96975731881079,-6.23657304108252,0.71837753,-0.97035944,-3.048523,320.75848,-159.40126,-43.064987,CSI
43375136852000,2.024957,-10.6406396216537,2.64416240118401,-6.24903593065088,0.67073005,-1.0375546,-3.2580497,320.0925,-160.14691,-44.122887,CSI
43375141904000,2.030009,-10.8342118419966,2.31524707947826,-6.26162591627362,0.6081163,-1.0732902,-3.4782667,319.3394,-160.92125,-45.18367,CSI
43375146880000,2.034985,-11.0248720495235,1.9912798109098,-6.27402650385454,0.55771995,-1.0867293,-3.6942077,318.4884,-161.7352,-46.252495,CSI
43375151848000,2.039953,-11.2152257293856,1.66783339004001,-6.28640715479947,0.4859433,-1.0894781,-3.9208386,317.53754,-162.57918,-47.327915,CSI
43375156830000,2.044935,-11.4064392121836,1.3816361342766,-6.41404712497427,0.4541783,-1.0763446,-4.0265183,316.51917,-163.4406,-48.381336,CSI
43375161861000,2.049966,-11.5997977608561,1.12382513294917,-6.63715292364684,0.4034765,-1.031446,-4.231769,315.34412,-164.3522,-49.43511,CSI
43375166854000,2.054959,-11.6609259129338,0.974550341577287,-6.90510738422713,0.37873647,-0.9379836,-4.3918157,313.8485,-165.4812,-50.5494,CSI
43375171827000,2.059932,-11.639463350338,0.892992558891393,-7.20129088251465,0.3622431,-0.77854776,-4.517043,312.21918,-166.62839,-51.607544,CSI
43375176866000,2.064971,-11.5334604587508,0.905286910466851,-7.5450802408868,0.3680463,-0.5910121,-4.5588875,310.3843,-167.84317,-52.58711,CSI
43375181855000,2.06996,-11.2992007991899,1.0631572269239,-7.95248723470475,0.3915646,-0.38728857,-4.515516,64.401955,-169.04836,-53.470455,CSI
43375186836000,2.074941,-10.7813491972494,1.281832869924,-8.32315958631922,0.41905355,-0.16890424,-4.4128904,65.49355,-170.26309,-54.186867,CSI
43375191868000,2.079973,-9.98776746579805,1.56089469576547,-8.66326623778502,0.46303585,0.02076942,-4.255593,66.5012,-171.43828,-54.79431,CSI
43375196817000,2.084922,-9.27634053501204,1.75399000634029,-8.87246818208267,0.50243664,0.16737708,-4.0671406,67.42421,-172.54878,-55.203873,CSI
43375201850000,2.089955,-8.71542409610754,1.75882548330658,-8.79026537660514,0.5345071,0.28985557,-3.879605,68.2577,-173.6049,-55.51373,CSI
43375206820000,2.094925,-8.16572770281957,1.77663262585353,-8.67077426466084,0.5726862,0.3747658,-3.7174203,69.003784,-174.5612,-55.57987,CSI
43375211859000,2.099964,-7.61798940145032,1.82445110626971,-8.46211173038465,0.5864306,0.47342056,-3.5863898,69.68093,-175.46158,-55.57096,CSI
43375216839000,2.104944,-7.07597229565089,1.88008555718784,-8.23863761560563,0.5873469,0.5714644,-3.503923,70.305824,-176.31845,-55.45572,CSI
43375221849000,2.109954,-6.52361188356784,2.02171642828889,-7.83735027072715,0.5653558,0.63255095,-3.4300084,70.87903,-177.1272,-55.297688,CSI
43375226971000,2.115076,-5.97357243846559,2.15687723511732,-7.43239058384744,0.53023106,0.6377433,-3.360675,71.42055,-177.88953,-55.072124,CSI
43375231851000,2.119956,-5.60803972451885,2.18151988420775,-7.1038217577643,0.48747048,0.59131753,-3.2901201,71.930115,-178.61359,-54.827335,CSI
43375236837000,2.124942,-5.23456716063802,2.20669780395465,-6.7681159858687,0.42485678,0.46731192,-3.2488868,72.42009,-179.27841,-54.58775,CSI
43375242637000,2.130742,-4.84452583982861,2.08361108790043,-6.63446622001632,0.3576616,0.2919936,-3.2064316,72.88772,-179.90517,-54.36454,CSI
43375246793000,2.134898,-4.57247095074475,1.96991654662314,-6.58167938088145,0.27672195,0.19853121,-3.1697798,73.34714,179.50188,-54.143566,CSI
43375251884000,2.139989,-4.29131979205426,1.73243233564922,-6.67744326830426,0.23151793,0.058337633,-3.1566463,106.21266,178.93497,-53.985847,CSI
43375256813000,2.144918,-4.03059957286822,1.4808602353876,-6.80551640786822,0.14782938,-0.055588737,-3.1282408,105.771034,178.41107,-53.8391,CSI
43375261888000,2.149993,-3.79560411104735,1.17673620260914,-6.86791892493339,0.06841691,-0.1255328,-3.1022792,105.32274,177.87349,-53.670364,CSI
43375266786000,2.154891,-3.57928678708752,0.869084911922525,-6.9063753525825,0.0076358155,-0.18509217,-3.0827315,104.8826,177.36212,-53.52258,CSI
43375271826000,2.159931,-3.40303410154699,0.490513638832458,-6.791121596439,-0.039095376,-0.23762658,-3.0595186,104.43204,176.82108,-53.312458,CSI
43375276825000,2.16493,-3.24000575829928,0.0992454593967698,-6.63740900982681,-0.08002335,-0.29810223,-3.0521882,278.60193,176.30042,-53.11241,CSI
43375281849000,2.169954,-3.16302507210777,-0.359847382131537,-6.55566554932647,-0.14202617,-0.38545597,-3.03936,277.28403,175.74283,-52.87639,CSI
43375286796000,2.174901,-3.11609913153724,-0.833799724891046,-6.49935437164223,-0.17623462,-0.48930305,-3.0240884,275.99036,175.19994,-52.65255,CSI
43375291879000,2.179984,-3.11649158027722,-1.23937928313601,-6.49710411579555,-0.20525073,-0.5928447,-3.0039299,274.59955,174.59647,-52.428387,CSI
43375296862000,2.184967,-3.1348653195784,-1.60685430898065,-6.51547790306093,-0.22266038,-0.70646566,-2.9773571,273.23373,174.01128,-52.225346,CSI
43375301891000,2.189996,-3.24020716850985,-1.95927887643846,-6.53418210452506,-0.23457226,-0.84299403,-2.9547553,271.7449,173.34338,-52.0262,CSI
43375306863000,2.194968,-3.38880358789741,-2.29826463848254,-6.55275665088746,-0.22113322,-0.93828905,-2.919325,270.29053,172.69205,-51.83483,CSI
43375312536000,2.200641,-3.50631295462532,-2.55350039927649,-6.51978204633592,-0.22968534,-1.0506883,-2.8835895,268.74243,171.98181,-51.6535,CSI
43375316856000,2.204961,-3.57473148485788,-2.69461347834625,-6.47274436819638,-0.24465153,-1.17897,-2.8371637,267.22574,171.28961,-51.489655,CSI
43375321823000,2.209928,-3.60403895315889,-2.73274573420555,-6.42949127472888,-0.2938262,-1.3240504,-2.7824912,265.63968,170.55522,-51.35074,CSI
43375326855000,2.21496,-3.60883354649289,-2.70877276753557,-6.39113452805691,-0.35308012,-1.4840971,-2.7250698,264.07883,169.84515,-51.237366,CSI
43375331853000,2.219958,-3.6079230414546,-2.67279475600064,-6.44401552798427,-0.39064834,-1.6279559,-2.652377,262.50305,169.13136,-51.159557,CSI
43375336868000,2.224973,-3.60406756646062,-2.63038453106687,-6.54425803886168,-0.43127087,-1.7272215,-2.579073,260.95398,168.44951,-51.100407,CSI
43375341835000,2.22994,-3.59916720638831,-2.5679195664559,-6.66139436329445,-0.44043383,-1.7931949,-2.506991,259.43555,167.79494,-51.068123,CSI
43375346874000,2.234979,-3.5886455678404,-2.39957312995748,-6.87182707931974,-0.4474588,-1.7993035,-2.4263568,257.9606,167.1725,-51.037716,CSI
43375351787000,2.239892,-3.57730804546591,-2.25940522350226,-6.97635318434465,-0.4456262,-1.7767016,-2.4022276,256.51422,166.57114,-50.98182,CSI
43375356867000,2.244972,-3.56327290285604,-2.16583830629868,-6.86875117338206,-0.44990227,-1.738217,-2.3371704,255.13629,166.0066,-50.92234,CSI
43375361787000,2.249892,-3.53745405322755,-2.0962847235485,-6.71639449621349,-0.4633413,-1.7208074,-2.2828035,253.82547,165.48724,-50.82622,CSI
43375366887000,2.254992,-3.47140417944464,-2.09188139862964,-6.40375810512081,-0.4801401,-1.7125608,-2.2611177,252.55014,164.98389,-50.71666,CSI
43375371994000,2.260099,-3.41345553573515,-2.1094806409445,-6.10119035506329,-0.5137377,-1.8478674,-2.254398,251.29561,164.51637,-50.658234,CSI
43375376870000,2.264975,-3.47711188190847,-2.44595004172347,-5.9647839464557,-0.56138515,-1.9321668,-2.2785273,250.06332,164.05876,-50.57497,CSI
43375382370000,2.270475,-3.56194833605619,-2.77789755664239,-5.84087891840964,-0.61636305,-1.8090774,-2.2766948,248.83978,163.60684,-50.513744,CSI
43375386841000,2.274946,-3.75873537669095,-2.58111043846688,-6.03395303624696,-0.64934975,-1.6197093,-2.2327125,247.63406,163.16862,-50.449768,CSI
43375391824000,2.279929,-3.97805763647242,-2.361788092265,-6.24913718502428,-0.65576386,-1.4123205,-2.1563544,246.3714,162.66809,-50.35036,CSI
43375396854000,2.284959,-4.11711511612543,-2.24677655555969,-6.3236982268447,-0.6609562,-1.2055426,-2.0803015,245.18387,162.18994,-50.200687,CSI
43375401799000,2.289904,-4.21405957039174,-2.18508479325393,-6.32810478458174,-0.6273586,-1.033584,-1.9785925,244.09235,161.73715,-50.015705,CSI
43375406864000,2.294969,-4.29933105051208,-2.14223091649597,-6.36039096662027,-0.6200282,-0.9089675,-1.8909334,243.18314,161.39478,-49.825752,CSI
43375411859000,2.299964,-4.37067854380034,-2.11844841873322,-6.41746901091777,-0.63041294,-0.766025,-1.7809776,242.37947,161.08566,-49.606243,CSI
43375416852000,2.304957,-4.44340096157569,-2.12831192543554,-6.39284487115757,-0.6282749,-0.6206391,-1.6707164,241.6575,160.81627,-49.39028,CSI
43375421827000,2.309932,-4.51718283101045,-2.1698141728223,-6.29139493310105,-0.6010914,-0.45998153,-1.557401,241.02655,160.57701,-49.1543,CSI
43375426862000,2.314967,-4.57581685798134,-2.19524591006321,-6.31431447233872,-0.58062744,-0.37659842,-1.4712689,240.45953,160.373,-48.920486,CSI
43375431850000,2.319955,-4.61415859856527,-2.20003863389184,-6.49164525399819,-0.56382865,-0.28008172,-1.3909402,239.98126,160.19559,-48.664425,CSI
43375436841000,2.324946,-4.6388758070554,-2.24338200368182,-6.6647235371179,-0.57940567,-0.124005646,-1.284955,239.55408,160.03833,-48.421276,CSI
43375441848000,2.329953,-4.64708734707595,-2.33370855806148,-6.83305931441048,-0.57696223,-0.03145956,-1.1847731,239.16959,159.89705,-48.185802,CSI
43375446861000,2.334966,-4.65185762736978,-2.43558870208131,-6.98334477463604,-0.5681047,0.12370021,-1.149343,238.86179,159.77626,-47.88072,CSI
43375451846000,2.339951,-4.63126430368813,-2.62092818515044,-6.99878972707861,-0.5815437,0.24495697,-1.0760391,238.62166,159.69469,-47.58825,CSI
43375456842000,2.344947,-4.61137718754409,-2.81964687640616,-6.97655694681641,-0.6178902,0.33658674,-1.0085385,238.40594,159.60843,-47.23215,CSI
43375461857000,2.349962,-4.59354624193429,-3.05590704537776,-6.84728263769259,-0.65484756,0.3930918,-0.9324858,238.24069,159.54784,-46.875645,CSI
43375466850000,2.354955,-4.57068840704444,-3.30382725033961,-6.70690386374927,-0.6835582,0.39095375,-0.8744536,238.04898,159.46414,-46.502563,CSI
43375471827000,2.359932,-4.5059404669707,-3.65531635763633,-6.47103612630506,-0.6994407,0.30695978,-0.8378017,237.87344,159.40157,-46.153015,CSI
43375477021000,2.365126,-4.42895419248838,-4.02056051564275,-6.21137249019102,-0.7535023,0.24556783,-0.77854776,237.64996,159.3053,-45.814064,CSI
43375481857000,2.369962,-4.25361507168302,-4.34334400020651,-5.8208444767682,-0.7791586,0.14996742,-0.7315111,237.4147,159.21664,-45.515804,CSI
43375486843000,2.374948,-4.07283739254001,-4.67613937945276,-5.41820331156427,-0.81000733,-0.023518313,-0.68783426,237.04958,159.0515,-45.261677,CSI
43375491856000,2.379961,-3.84841683085607,-4.89963134449671,-5.27657738889934,-0.86742866,-0.19303341,-0.65240407,236.68668,158.9094,-45.04176,CSI
43375496812000,2.384917,-3.61028504559423,-5.07823000213233,-5.23688882709313,-0.904386,-0.23243423,-0.5897904,236.34634,158.78877,-44.847656,CSI
43375501852000,2.389957,-3.37333836540172,-5.30137483363144,-5.1802229966064,-0.91690874,-0.22052236,-0.514654,235.85117,158.5574,-44.697407,CSI
43375506857000,2.394962,-3.13930937055013,-5.53308671139901,-5.1199778556415,-0.9184359,-0.16890424,-0.4269948,235.39122,158.35152,-44.55975,CSI
43375511853000,2.399958,-2.90570120705791,-5.76438192445132,-5.05984104759741,-0.9086621,-0.15699236,-0.3494149,234.8953,158.10321,-44.38362,CSI
43375516853000,2.404958,-2.67190600740598,-5.99586232182152,-4.99965609158851,-0.904386,-0.17379116,-0.27000242,234.44423,157.88013,-44.217678,CSI
43375521838000,2.409943,-2.47626990059994,-6.16632070485668,-4.92194336226074,-0.92179567,-0.2012801,-0.2012801,234.02475,157.67789,-44.063854,CSI
43375526868000,2.414973,-2.29736480918008,-6.30852739336254,-4.83478454157699,-0.93828905,-0.24312437,-0.13072516,233.63379,157.4959,-43.932053,CSI
43375531850000,2.419955,-2.20823852400516,-6.38215717599484,-4.7246445361814,-0.9896017,-0.32406402,-0.073303826,233.12405,157.19138,-43.70812,CSI
43375536836000,2.424941,-2.18454599408554,-6.40584970591446,-4.59670467669941,-1.0354166,-0.44104472,-0.03848451,232.62474,156.90463,-43.512913,CSI
43375541885000,2.42999,-2.28248030152372,-6.37252563770963,-4.4851338167034,-1.1016954,-0.4981606,-0.026267206,232.08002,156.5854,-43.293377,CSI
43375546855000,2.43496,-2.47405315471011,-6.29498435021562,-4.38934750918064,-1.1319333,-0.6249151,-0.021380283,231.51529,156.27911,-43.124397,CSI
43375551850000,2.439955,-2.90756812442718,-6.01062317285869,-4.36259674349493,-1.183246,-0.7486154,-0.03756821,230.91759,155.97363,-42.98128,CSI
43375556892000,2.444997,-3.61982482398466,-5.48830157335038,-4.41482881915626,-1.244027,-0.8689558,-0.049785517,230.30576,155.68216,-42.868664,CSI
43375561853000,2.449958,-4.17448242525709,-5.02595968735158,-4.60025278586616,-1.3069462,-0.9630291,-0.07269296,229.67172,155.42123,-42.839848,CSI
43375566854000,2.454959,-4.54565853842714,-4.62623156356501,-4.95953216376372,-1.3545936,-1.0094548,-0.092240654,229.02678,155.17062,-42.823933,CSI
43375571819000,2.459924,-4.9141627179691,-4.22938090677629,-5.31622524739927,-1.3750577,-1.0036516,-0.098043874,228.48636,155.09474,-43.008427,CSI
43375576870000,2.464975,-5.28904985006707,-3.82565630104824,-5.67909670066074,-1.3796391,-0.9605856,-0.094989546,227.94467,155.02348,-43.187317,CSI
43375581853000,2.469958,-5.64582621377965,-3.43600571950919,-6.08940345086765,-1.3778065,-0.8744536,-0.093767814,227.40842,154.95094,-43.347878,CSI
43375586846000,2.474951,-5.98460580100626,-3.05794754091796,-6.57547833247767,-1.3521502,-0.77274454,-0.089491755,226.89262,154.87723,-43.490578,CSI
43375591854000,2.479959,-6.25018519323254,-2.71669216447764,-7.02749378085436,-1.3432927,-0.65240407,-0.06658431,226.69113,155.1,-43.709484,CSI
43375596855000,2.48496,-6.42903892749795,-2.42005624837417,-7.43754936150833,-1.3261884,-0.51007247,-0.044898596,226.51952,155.31306,-43.89615,CSI
43375601823000,2.489928,-6.58508633966454,-2.15152875466501,-7.82725223129705,-1.294118,-0.35796702,-0.018936822,226.5346,155.66306,-44.075207,CSI
43375606890000,2.494995,-6.68220256804536,-1.95267196624416,-8.17409569713142,-1.2647965,-0.204029,0.014660766,226.5882,156.00916,-44.22164,CSI
43375611811000,2.499916,-6.76048243929197,-1.782686939078,-8.48902479712118,-1.2342533,-0.0580322,0.047647487,226.8073,156.46152,-44.330883,CSI
43375616856000,2.504961,-6.75578350411399,-1.73099806332426,-8.69578000573818,-1.2159272,0.06291912,0.08735373,227.05878,156.9086,-44.412422,CSI
43375621814000,2.509919,-6.74721645098097,-1.69093555876932,-8.87819251516052,-1.1936307,0.17470746,0.121256754,227.4262,157.41731,-44.444523,CSI
43375626884000,2.514989,-6.70391582761593,-1.74385853171819,-8.88300379042806,-1.1643091,0.2666427,0.15241088,227.81256,157.91628,-44.45457,CSI
43375631845000,2.51995,-6.65661547933676,-1.78599968417498,-8.86915047626247,-1.1481212,0.33292156,0.19761491,228.24936,158.43295,-44.420105,CSI
43375636875000,2.52498,-6.55950550131035,-1.7325892571011,-8.67007533565165,-1.1481212,0.36010507,0.24251351,228.68977,158.94077,-44.37495,CSI
43375641936000,2.530041,-6.45453034943073,-1.67158072797985,-8.47220713450882,-1.151481,0.34422258,0.26847526,229.1114,159.4242,-44.31352,CSI
43375646895000,2.535,-6.30140977001511,-1.56152510385894,-8.29516084156171,-1.1472049,0.28405234,0.2770274,229.52248,159.9002,-44.25909,CSI
43375651809000,2.539914,-6.14233304914806,-1.45771212419134,-8.12671480879271,-1.1548407,0.23487769,0.29993483,229.92368,160.37277,-44.225594,CSI
43375656869000,2.544974,-5.92156462673348,-1.39148168045558,-8.00750005617312,-1.1417072,0.17928895,0.3555236,230.31337,160.83864,-44.212616,CSI
43375661796000,2.549901,-5.70659901067882,-1.32699207644647,-7.89141881384966,-1.1374311,0.118507855,0.40225476,230.69135,161.30728,-44.218662,CSI
43375666854000,2.554959,-5.49104855942372,-1.2557411350898,-7.81585378093546,-1.1417072,0.058337633,0.45845437,231.07175,161.77896,-44.244667,CSI
43375671819000,2.559924,-5.279907990448,-1.18536096176238,-7.74547365660154,-1.1279627,-0.043066,0.48930305,231.43187,162.24104,-44.296864,CSI
43375676883000,2.564988,-5.13946933656571,-1.06819233940497,-7.81826537944088,-1.1145236,-0.12370021,0.49296826,231.78847,162.69884,-44.3413,CSI
43375681806000,2.569911,-5.01132859728208,-0.949204523723549,-7.90521783110076,-1.0803152,-0.17867808,0.47891834,232.12885,163.14377,-44.40409,CSI
43375686848000,2.574953,-4.97776934598327,-0.893709244845361,-8.08056134545808,-1.0308352,-0.21838433,0.4596761,232.45557,163.57617,-44.456974,CSI
43375691918000,2.580023,-4.96360258650068,-0.851208793814433,-8.27417449756857,-0.98899084,-0.17837265,0.4596761,232.78122,163.99667,-44.50111,CSI
43375696925000,2.58503,-5.02240099963801,-0.79654764974359,-8.45130221161388,-0.93676186,-0.12095132,0.47525316,233.12837,164.42198,-44.517216,CSI
43375701786000,2.589891,-5.0972973520362,-0.740375263247863,-8.61981956661639,-0.8961393,-0.062002823,0.49235737,233.4751,164.83427,-44.520096,CSI
43375706845000,2.59495,-5.25426413420002,-0.560317200673559,-8.72366229076671,-0.8533788,0.0036651916,0.52534413,233.86075,165.2519,-44.478813,CSI
43375711803000,2.599908,-5.4292407800389,-0.351317539762514,-8.80628995675095,-0.8145888,0.06536258,0.5531385,234.24963,165.65723,-44.422474,CSI
43375716851000,2.604956,-5.67115875562401,-0.0435485842825914,-8.88034617130366,-0.7641924,0.10293079,0.5705481,234.66873,166.07024,-44.34693,CSI
43375721822000,2.609927,-5.92186756450715,0.278115648334658,-8.95130146661367,-0.7128797,0.13164146,0.5693264,235.08751,166.46912,-44.257175,CSI
43375726863000,2.614968,-6.20291725369234,0.611182666563057,-8.94023426875866,-0.6789767,0.16279559,0.5702427,235.5597,166.90938,-44.18454,CSI
43375731825000,2.61993,-6.48515907519303,0.9404647883726,-8.91201000801821,-0.65301496,0.17256944,0.56688297,236.0184,167.3307,-44.107986,CSI
43375736855000,2.62496,-6.71393399195112,1.1935810280353,-8.86506635521722,-0.6337727,0.1695151,0.56199604,236.54657,167.81673,-44.07094,CSI
43375741870000,2.629975,-6.92817691233514,1.42645380775795,-8.81383427851047,-0.6224717,0.13561209,0.55741453,237.05716,168.2875,-44.036655,CSI
43375746853000,2.634958,-7.06215550058633,1.552162266372,-8.79785873624391,-0.6178902,0.09712757,0.56077427,237.62885,168.82268,-44.067417,CSI
43375751838000,2.639943,-7.16981481796861,1.64259599404655,-8.79355273227494,-0.5879578,0.07452556,0.57360244,238.18608,169.33862,-44.09848,CSI
43375756902000,2.645007,-7.25229715779594,1.736874888803,-8.80292157575088,-0.5531385,0.07880162,0.559858,238.77031,169.88887,-44.1785,CSI
43375761901000,2.650006,-7.31044834546157,1.83203170389797,-8.82406741199205,-0.50701815,0.09193522,0.5317582,239.3383,170.41676,-44.25557,CSI
43375766890000,2.654995,-7.33521757032391,1.76232168618438,-8.79696074181631,-0.47708577,0.12492194,0.5320636,239.92001,170.95264,-44.34431,CSI
43375771836000,2.659941,-7.34742665594982,1.63209226107913,-8.75219432116161,-0.45112398,0.15790866,0.5448918,240.48271,171.46353,-44.421665,CSI
43375776813000,2.664918,-7.34971880931302,1.46538632949123,-8.66651477924691,-0.4352415,0.15210545,0.5479461,241.04831,171.9749,-44.502537,CSI
43375781852000,2.669957,-7.33584763048769,1.23882517432212,-8.51393306745233,-0.40378192,0.12492194,0.5580254,241.60834,172.46887,-44.57529,CSI
43375786835000,2.67494,-7.31280844072031,1.01643048859165,-8.37257396721141,-0.37018433,0.07269296,0.5549711,242.11395,172.91257,-44.660114,CSI
43375791932000,2.680037,-7.26707975049443,0.792867325117102,-8.25063008587488,-0.34025195,0.004581489,0.56138515,242.61235,173.34367,-44.752846,CSI
43375796843000,2.684948,-7.21873434212583,0.600359901836655,-8.15548357248925,-0.30176744,-0.050396383,0.55863625,243.03421,173.70184,-44.8714,CSI
43375801895000,2.69,-7.16201458655725,0.439653659562329,-8.09403682102384,-0.27580565,-0.08735373,0.55771995,243.44766,174.04999,-44.9994,CSI
43375806890000,2.694995,-7.10710725888122,0.299113971787251,-8.07869007445212,-0.23487769,-0.12156218,0.5494733,243.80048,174.33293,-45.151176,CSI
43375811898000,2.700003,-7.05431327669369,0.193526633850696,-8.15068138997298,-0.19394971,-0.14569137,0.54825157,244.14772,174.6058,-45.305767,CSI
43375816800000,2.704905,-7.02234910729473,0.138523796539091,-8.2500222675826,-0.15515977,-0.16646078,0.5696318,244.45242,174.8324,-45.46679,CSI
43375821828000,2.709933,-7.03022499149493,0.181840283810926,-8.41147501537455,-0.09407325,-0.1853976,0.5720753,244.7427,175.03778,-45.62865,CSI
43375826824000,2.714929,-7.03805075073602,0.224881089381747,-8.57190021982336,-0.025961773,-0.18661933,0.5647449,245.01437,175.21297,-45.767517,CSI
43375831853000,2.719958,-7.07549875296042,0.123528569898567,-8.49072560696479,0.056199603,-0.17379116,0.552833,245.28027,175.36922,-45.903645,CSI
43375840609000,2.728714,-7.15094494492119,-0.0930363300078809,-8.26868327694834,0.13469578,-0.08124508,0.571159,245.55481,175.51422,-46.014267,CSI
43375842150000,2.730255,-7.17840591576182,-0.160881131423818,-8.12653233533275,0.13469578,-0.08124508,0.571159,245.82986,175.66467,-46.11276,CSI
43375846825000,2.73493,-7.26171548012259,-0.366704912487741,-7.69528272335814,0.20097467,-0.06291912,0.569021,246.07736,175.75465,-46.21248,CSI
43375851836000,2.739941,-7.30475659956236,-0.607928155689278,-7.33828573041576,0.19883664,-0.080634214,0.5180137,246.29893,175.84586,-46.317917,CSI
43375856874000,2.744979,-7.29995782188184,-0.871866615536105,-7.08874387921225,0.1777618,-0.1133155,0.48288897,246.52234,175.92865,-46.420067,CSI
43375861843000,2.749948,-7.27915988568736,-1.09051256473914,-6.88427829003174,0.14660765,-0.13316862,0.47067168,246.66803,175.95522,-46.61588,CSI
43375866860000,2.754965,-7.24103501497719,-1.26684001091053,-6.72224785076374,0.12675454,-0.14538592,0.4636467,246.798,175.97757,-46.81241,CSI
43375871846000,2.759951,-7.20762564900603,-1.40198167439422,-6.60793903035308,0.1133155,-0.15332718,0.47861293,246.85219,175.94405,-47.06435,CSI
43375876871000,2.764976,-7.17906858046682,-1.49241249083177,-6.54606518305806,0.11881329,-0.16157386,0.50579643,246.90707,175.91353,-47.31268,CSI
43375881852000,2.769957,-7.15940991091476,-1.5459077468815,-6.51424938399168,0.14385876,-0.15668693,0.5375614,246.91544,175.8443,-47.58672,CSI
43375886861000,2.774966,-7.15034348837649,-1.55497407474957,-6.51878257159327,0.17837265,-0.17348573,0.5674938,246.93265,175.78015,-47.861713,CSI
43375891808000,2.779913,-7.14269873190273,-1.56581735439052,-6.55539034753195,0.21868975,-0.15668693,0.6059783,246.93942,175.69809,-48.13541,CSI
43375896855000,2.78496,-7.13767601498493,-1.58088566248571,-6.66086871398732,0.25289822,-0.10567969,0.64996064,246.96191,175.62125,-48.396313,CSI
43375901797000,2.789902,-7.15496726659848,-1.62656082174167,-6.75604831419248,0.28680122,-0.02565634,0.68416905,246.99698,175.54424,-48.633583,CSI
43375906886000,2.794991,-7.20718810999415,-1.72150799900643,-6.84150073407364,0.31795537,0.083383106,0.7089091,247.0503,175.47128,-48.841526,CSI
43375911729000,2.799834,-7.29076590980115,-1.88427037450288,-6.87945727818714,0.33383787,0.1853976,0.7131852,247.12967,175.40494,-49.00015,CSI
43375916768000,2.804873,-7.44663951900676,-2.20088889751691,-6.83074677531039,0.3371976,0.26328292,0.66614854,247.20056,175.33096,-49.12861,CSI
43375921748000,2.809853,-7.60867454079936,-2.51296261455474,-6.7676176003506,0.32925636,0.30940324,0.5876524,247.24268,175.2346,-49.224052,CSI
43375926842000,2.814947,-7.78948373122308,-2.83060017602925,-6.67476948737854,0.28771752,0.30695978,0.47861293,247.25246,175.12897,-49.304962,CSI
43375931743000,2.819848,-7.93571875651234,-2.94992572132114,-6.6574056447459,0.23273966,0.2941316,0.42485678,247.18188,174.96117,-49.42382,CSI
43375936750000,2.824855,-8.03470330254596,-2.73310194954291,-6.77053131130443,0.21135938,0.2602286,0.34880406,247.05684,174.77097,-49.53863,CSI
43375941765000,2.82987,-8.18884443119447,-2.30685152916091,-6.95257086306022,0.18967366,0.23854288,0.30665436,246.83739,174.52225,-49.717495,CSI
43375946765000,2.83487,-8.45828125251728,-1.44181905137216,-7.27873048793682,0.20799962,0.2049453,0.28619036,246.59984,174.26628,-49.896748,CSI
43375951809000,2.839914,-8.76863548595041,-0.595887834982985,-7.58068353608167,0.33261612,0.103847094,0.22235495,246.3945,174.03473,-50.07867,CSI
43375956813000,2.844918,-9.16468761157025,0.182238641127856,-7.81831495741371,0.5488624,-0.04795292,0.103847094,246.1557,173.7729,-50.272194,CSI
43375962293000,2.850398,-9.43051636108157,0.875307442047699,-7.94895315574206,0.79168135,-0.21380283,-0.02565634,246.11475,173.661,-50.457787,CSI
43375966855000,2.85496,-9.34755767659122,1.16400387197326,-7.82285592066687,0.9944886,-0.3182608,-0.105068825,246.03772,173.50499,-50.658745,CSI
43375971802000,2.859907,-9.25759787558864,1.47706420490658,-7.68611698556889,1.0775663,-0.33475417,-0.1142318,246.12717,173.48206,-50.89389,CSI
43375976830000,2.864935,-9.03302897856554,1.34878228105524,-7.3882814291014,1.0320568,-0.2846632,-0.069027774,246.20221,173.44098,-51.129803,CSI
43375981826000,2.869931,-8.7273370008244,0.944479982267106,-6.99384017580379,0.8875872,-0.20525073,-0.0076358155,246.28146,173.40532,-51.354073,CSI
43375986814000,2.874919,-8.40289273117898,0.456776636305639,-6.55313246126342,0.68416905,-0.14508049,0.044898596,246.46933,173.47125,-51.58049,CSI
43375991871000,2.879976,-8.06464553644324,-0.0783605017637861,-6.08362530430522,0.45723262,-0.16890424,0.101098195,246.68336,173.5791,-51.804665,CSI
43375996823000,2.884928,-7.76671385449374,-0.531627175904437,-5.78312735176337,0.26633725,-0.24648413,0.1255328,246.80902,173.63844,-52.048,CSI
43376001846000,2.889951,-7.47484093440463,-0.96943651317975,-5.52773846930224,0.12064589,-0.36163223,0.1414153,246.94931,173.73888,-52.30457,CSI
43376006844000,2.894949,-7.24194256386659,-1.28072694174496,-5.53042900200717,0.005497787,-0.47128254,0.14080444,246.92874,173.755,-52.61737,CSI
43376011867000,2.899972,-7.03856346901264,-1.52724707687052,-5.67012378886232,-0.040317107,-0.56077427,0.13530666,246.90562,173.7874,-52.948483,CSI
43376016831000,2.904936,-6.8375732586095,-1.77087159424325,-5.8081777251452,-0.05009095,-0.59712076,0.1160644,74.01761,173.73932,-53.29689,CSI
43376021857000,2.909962,-6.63407269505466,-2.0175389641698,-5.94795594508029,-0.003970624,-0.5748242,0.10781772,74.02768,173.69281,-53.64346,CSI
43376027179000,2.915284,-6.42213482078989,-2.26954049846821,-6.10515809439882,0.06169739,-0.4578435,0.099265605,74.033966,173.64221,-53.961884,CSI
43376032548000,2.920653,-6.30826302253391,-2.26479589181508,-6.52268813693827,0.17104226,-0.28985557,0.098043874,74.05291,173.5786,-54.24938,CSI
43376036806000,2.924911,-6.21795456342161,-2.26103308028052,-6.85381924536311,0.30298916,-0.1881465,0.099265605,74.04857,173.40762,-54.352848,CSI
43376041925000,2.93003,-6.18492609179762,-2.07232519763319,-7.11765321989268,0.35643986,0.03604105,0.111177474,74.04974,173.2361,-54.37245,CSI
43376046818000,2.934923,-6.17145580720583,-1.84781718806056,-7.33767111897279,0.44623706,0.24129178,0.122783914,74.073685,173.03964,-54.366734,CSI
43376051830000,2.939935,-6.24155260533664,-1.59430014596132,-7.40992759449788,0.52198434,0.40103304,0.15149458,74.10335,172.85411,-54.2214,CSI
43376056819000,2.944924,-6.34532241219361,-1.33240432207053,-7.41981034479264,0.56138515,0.50243664,0.13927728,74.13002,172.65503,-54.035526,CSI
43376061838000,2.949943,-6.48406612574239,-1.15822574734426,-7.38702818800937,0.5439755,0.52412236,0.110872045,74.17935,172.50879,-53.797485,CSI
43376066757000,2.954862,-6.62969377737705,-1.01259818786885,-7.34289865245902,0.5213735,0.50518554,0.079107046,74.22636,172.35472,-53.54587,CSI
43376071777000,2.959882,-6.76727381251583,-0.942919524719977,-7.29968696834518,0.45998153,0.4709771,0.04428773,74.27865,172.2547,-53.312843,CSI
43376076792000,2.964897,-6.89825406536476,-0.919530174315769,-7.25758627047823,0.39706242,0.4156938,0.015271631,245.76393,172.1538,-53.09352,CSI
43376081754000,2.969859,-7.01486883367319,-0.944576647593612,-7.22516033253632,0.33078352,0.32345316,-0.01985312,245.8205,172.08778,-52.929264,CSI
43376086804000,2.974909,-7.12396136412524,-1.00566845188848,-7.19897820360011,0.26908615,0.2098322,-0.04428773,245.85977,172.02815,-52.78849,CSI
43376091796000,2.979901,-7.22576488948375,-1.08930769463502,-7.18655624880216,0.21991149,0.10323623,-0.071776666,245.8725,171.9755,-52.69817,CSI
43376096768000,2.984873,-7.3168085789675,-1.21248450691711,-7.19726732701608,0.1740966,-0.0021380284,-0.09040806,245.866,171.92992,-52.63989,CSI
43376101785000,2.98989,-7.35773749497601,-1.34113558804231,-7.18800952511997,0.13164146,-0.09590584,-0.105068825,245.81815,171.87578,-52.627834,CSI
43376106824000,2.994929,-7.36246352525708,-1.47346448526099,-7.16437937371462,0.105068825,-0.1853976,-0.1001819,245.76086,171.82796,-52.64409,CSI
43376111787000,2.999892,-7.35181125719875,-1.58840288159233,-7.13857106883803,0.086132,-0.2666427,-0.09743301,245.66965,171.7664,-52.688892,CSI
43376116783000,3.004888,-7.32841254201878,-1.69135732611502,-7.11049231742958,0.04520403,-0.32375857,-0.07574729,245.5839,171.71985,-52.752235,CSI
43376121754000,3.009859,-7.28579490755722,-1.75842158077534,-7.07435251751518,0.017715093,-0.3567453,-0.061391957,245.4589,171.64874,-52.830112,CSI
43376126771000,3.014876,-7.22295933757123,-1.78983943606726,-7.02946993404951,-0.014660766,-0.3643811,-0.051618114,245.34036,171.59082,-52.915794,CSI
43376131729000,3.019834,-7.16650947573821,-1.80196859627263,-6.99420729046374,-0.04062254,-0.37873647,-0.01863139,245.20929,171.52527,-53.011253,CSI
43376136796000,3.024901,-7.11952932508471,-1.77847854547391,-6.97541528906961,-0.087964594,-0.37659842,0.008246681,245.08334,171.47119,-53.10214,CSI
43376141768000,3.029873,-7.06882744274965,-1.74026365478867,-6.95333365495588,-0.122783914,-0.35185838,0.031154128,74.16522,171.41902,-53.18949,CSI
43376146766000,3.034871,-7.0065786411333,-1.66467583420344,-6.9222093702183,-0.1563815,-0.32284227,0.062002823,74.13486,171.38377,-53.275257,CSI
43376151795000,3.0399,-6.95213824270608,-1.59839151894166,-6.89623617780332,-0.18753563,-0.30909783,0.086132,74.11055,171.36331,-53.35591,CSI
43376156922000,3.045027,-6.94762346086157,-1.59161938153188,-6.90300829164176,-0.20158553,-0.3109304,0.09773844,74.08959,171.35031,-53.432377,CSI
43376161784000,3.049889,-6.94334203520758,-1.58519727658039,-6.90943037424027,-0.22388211,-0.32406402,0.08124508,74.06951,171.35684,-53.50483,CSI
43376166823000,3.054928,-6.9389047452301,-1.57854137636431,-6.9160862512896,-0.23090707,-0.3313944,0.06811147,74.053444,171.3665,-53.575706,CSI
43376171796000,3.059901,-6.93452557415291,-1.57197265404349,-6.92265495074709,-0.23487769,-0.31245756,0.05375614,74.03058,171.37512,-53.640106,CSI
43376176841000,3.064946,-6.9570790594898,-1.57450812963265,-6.89664849257143,-0.23548855,-0.29840767,0.03573562,74.00494,171.38156,-53.704277,CSI
43376181801000,3.069906,-6.98616136153061,-1.57935516310204,-6.86271925828571,-0.23823744,-0.31215215,0.0018325958,73.97078,171.38191,-53.767326,CSI
43376186803000,3.074908,-7.05676873742854,-1.53766156928592,-6.88404646659238,-0.2321288,-0.29718593,-0.023518313,73.9361,171.38162,-53.813168,CSI
43376191796000,3.079901,-7.13552955110939,-1.48669876667959,-6.91647731019281,-0.22082779,-0.2657264,-0.05497787,73.89157,171.37173,-53.854156,CSI
43376196829000,3.084934,-7.21736170917396,-1.43603067658927,-6.90639606208603,-0.22204952,-0.2284636,-0.07452556,73.84424,171.35901,-53.897255,CSI
43376201782000,3.089887,-7.29861485401599,-1.38637586174343,-6.88382569170156,-0.23090707,-0.19486602,-0.086437434,73.791794,171.34062,-53.92991,CSI
43376206884000,3.094989,-7.37698652501033,-1.32213580800951,-6.849091588642,-0.2098322,-0.15943582,-0.099265605,73.74036,171.3223,-53.96162,CSI
43376211812000,3.099917,-7.45014868458041,-1.25385107481397,-6.81007182113477,-0.19975294,-0.13194689,-0.09682214,73.688324,171.3085,-53.98578,CSI
43376216850000,3.104955,-7.52106364145053,-1.21551469756644,-6.77111385366635,-0.19425514,-0.11942416,-0.09315695,73.643715,171.30103,-54.021477,CSI
43376221824000,3.109929,-7.58970221349664,-1.18882201245597,-6.73298144636567,-0.17684549,-0.0870483,-0.0720821,73.60749,171.29494,-54.04485,CSI
43376226862000,3.114967,-7.65141018370469,-1.15013410538743,-6.68943635759894,-0.1740966,-0.08979719,-0.06352998,73.58821,171.30666,-54.094246,CSI
43376231884000,3.119989,-7.68873008473562,-1.07549419198537,-6.63079052048553,-0.17959438,-0.0842994,-0.05100725,73.57657,171.32262,-54.13336,CSI
43376236828000,3.124933,-7.69134069461994,-1.02482727093309,-6.58705830116523,-0.16126843,-0.07360926,-0.015271631,73.58798,171.35056,-54.197044,CSI
43376241840000,3.129945,-7.64983038441511,-1.00297977586709,-6.56084129796086,-0.15821409,-0.054367006,0.019547688,73.599594,171.38419,-54.25623,CSI
43376246957000,3.135062,-7.60745044480655,-0.980674581882112,-6.53407505586254,-0.14294247,-0.035124753,0.052534413,73.63155,171.43271,-54.330513,CSI
43376251958000,3.140063,-7.5660312386345,-0.958875036226673,-6.50791559197087,-0.12767084,-0.022602014,0.07574729,73.66927,171.48566,-54.401413,CSI
43376256851000,3.144956,-7.52403063642938,-0.936968679171402,-6.48372062888728,-0.11484267,-0.030543262,0.0852157,73.71231,171.53995,-54.47241,CSI
43376261861000,3.149966,-7.44967414092365,-0.902268955387953,-6.48867783211075,-0.098043874,-0.026572637,0.09560041,73.76259,171.59563,-54.536804,CSI
43376266807000,3.154912,-7.37317411875656,-0.871030970172595,-6.49490870973586,-0.08735373,-0.03023783,0.10445796,73.816666,171.65732,-54.603115,CSI
43376271828000,3.159933,-7.26771430257462,-0.866445758691714,-6.51324945990274,-0.07513642,-0.016187929,0.11911872,73.875656,171.71863,-54.663094,CSI
43376277187000,3.165292,-7.15734158096734,-0.860894248600144,-6.53443705774408,-0.055588737,-0.014660766,0.124311075,73.93165,171.77943,-54.71403,CSI
43376281850000,3.169955,-7.08521123907035,-0.848872545872218,-6.570502207771,-0.0580322,0.00030543262,0.13255776,73.98964,171.84474,-54.757534,CSI
43376287526000,3.175631,-6.99741114886935,-0.834239222972003,-6.61440222740488,-0.044593163,0.004886922,0.13927728,74.05188,171.90465,-54.784645,CSI
43376291853000,3.179958,-6.9628095649053,-0.808959863194145,-6.66198108609557,-0.03573562,0.015882496,0.14080444,74.112816,171.96518,-54.80548,CSI
43376296830000,3.184935,-6.92690269524322,-0.778182592251399,-6.71840629707275,-0.029626964,0.013744468,0.13683382,74.174095,172.02304,-54.82826,CSI
43376301859000,3.189964,-6.88879785180735,-0.753700420148957,-6.76696036772592,-0.02321288,0.013439035,0.13072516,74.23279,172.0801,-54.82706,CSI
43376306831000,3.194936,-6.85097001669315,-0.730057942969215,-6.81424522333664,-0.026572637,0.015882496,0.12522738,74.289055,172.13579,-54.82541,CSI
43376311868000,3.199973,-6.84302802186121,-0.7015039811071,-6.8625753648215,-0.02565634,0.02107485,0.11301007,74.345345,172.19228,-54.81044,CSI
43376316787000,3.204892,-6.8383038679302,-0.673159649458484,-6.90981591756919,-0.031154128,0.019547688,0.111177474,74.40057,172.25032,-54.797188,CSI
43376321871000,3.209976,-6.82035829924618,-0.622301526294386,-6.94941812968657,-0.029626964,0.02443461,0.099571034,74.450264,172.30557,-54.76619,CSI
43376326800000,3.214905,-6.80163034814521,-0.570799342987502,-6.98687427633406,-0.03604105,0.034208454,0.09254608,74.49801,172.3625,-54.73494,CSI
43376331849000,3.219954,-6.75352576828202,-0.489747129528989,-7.04962367840148,-0.032070424,0.02321288,0.07544186,74.538666,172.41602,-54.69853,CSI
43376336791000,3.224896,-6.70296589744586,-0.407012894913081,-7.11397262673594,-0.033292156,0.06688975,0.050701816,74.57328,172.46686,-54.643932,CSI
43376341845000,3.22995,-6.62494448006893,-0.331099351453188,-7.30594666944285,-0.013133603,0.19333886,0.01038471,74.60559,172.51556,-54.560043,CSI
43376346794000,3.234899,-6.54327475172315,-0.258504116329696,-7.51919498607122,0.018325957,0.3735441,-0.030543262,74.63209,172.55559,-54.44843,CSI
43376351876000,3.239981,-6.31331591070765,-0.185616451682764,-7.49791120111441,0.07696902,0.59864795,-0.08002335,74.65956,172.59396,-54.27135,CSI
43376357613000,3.245718,-5.99697006929792,-0.103978792503715,-7.38055715794948,0.12675454,0.8213083,-0.15332718,74.672966,172.61252,-54.04368,CSI
43376361865000,3.24997,-5.89609945155556,-0.100711248694949,-7.2591556940202,0.17470746,1.0045679,-0.23487769,74.67956,172.6246,-53.717865,CSI
43376366846000,3.254951,-5.843097184,-0.124803208618182,-7.10014879072727,0.22876903,1.0885619,-0.3304781,74.67059,172.60669,-53.358585,CSI
43376371830000,3.259935,-5.8822948874404,-0.235389113108451,-6.93465944252815,0.26175576,1.074512,-0.43401974,246.53497,172.57382,-52.95433,CSI
43376376883000,3.264988,-5.98048205419499,-0.402307501643502,-6.76283181099726,0.2556471,0.9837985,-0.47769663,246.60748,172.53102,-52.55355,CSI
43376381856000,3.269961,-6.18194523475068,-0.537552423362969,-6.67681135280247,0.22143865,0.87995136,-0.49357912,246.62683,172.46327,-52.18084,CSI
43376386860000,3.274965,-6.44128532025512,-0.657960312605334,-6.63513148550445,0.15118915,0.7290677,-0.48502702,246.62363,172.40013,-51.85234,CSI
43376391877000,3.279982,-6.67905247138813,-0.737892054638289,-6.72856506958482,0.056505036,0.552833,-0.43401974,246.56262,172.31825,-51.607304,CSI
43376396840000,3.284945,-6.89831295141539,-0.787723977659887,-6.91792641453135,-0.023823744,0.40958515,-0.3717115,246.50104,172.25256,-51.40141,CSI
43376401868000,3.289973,-7.09589027610819,-0.861903610214125,-7.05708663946281,-0.06169739,0.33658674,-0.2932153,246.42308,172.18951,-51.284462,CSI
43376406828000,3.294933,-7.27879223253193,-0.94666303230278,-7.16861234194215,-0.07452556,0.30909783,-0.20891592,246.36795,172.15277,-51.201275,CSI
43376411859000,3.299964,-7.38407136084337,-0.961702263920683,-7.21701109425201,-0.063224554,0.3005457,-0.124005646,246.34116,172.13448,-51.139694,CSI
43376416853000,3.304958,-7.42008532108434,-0.916084545850402,-7.20980827713353,-0.046731193,0.2929099,-0.04917465,246.3453,172.13454,-51.091488,CSI
43376421833000,3.309938,-7.45599832108434,-0.870594710850402,-7.20262565213353,-0.03390302,0.267559,-0.029321533,246.34201,172.12642,-51.064415,CSI
43376426813000,3.314918,-7.49191132108434,-0.825104875850401,-7.19544302713353,-0.026572637,0.18845193,0.0012217305,246.37021,172.13542,-51.06038,CSI
43376431846000,3.319951,-7.43708754569812,-0.791279723250967,-7.23696686883001,-0.026572637,0.074830994,0.02321288,246.382541151618,172.138365803036,-51.0792185612265,CSI
43376436825000,3.32493,-7.30932760140915,-0.767620426363005,-7.31740837745361,0.015882496,-0.0070249503,0.036651913,246.39474,172.14128,-51.097855,CSI
43376441844000,3.329949,-7.19347003584717,-0.815081049541701,-7.32222017606861,0.0580322,-0.0125227375,0.059253927,246.4375,172.14958,-51.105152,CSI
43376446858000,3.334963,-7.08888361094473,-0.92402495396134,-7.26121168606044,0.093767814,-0.033292156,0.07788532,246.5004,172.1793,-51.191696,CSI
43376451853000,3.339958,-6.98635625873016,-1.04113570634921,-7.20920753968254,0.083383106,-0.062308256,0.07513642,246.56383,172.21115,-51.24463,CSI
43376456865000,3.34497,-6.88676325858492,-1.17558657112771,-7.17434998703185,0.05100725,-0.09437868,0.070554934,246.6311,172.24364,-51.30391,CSI
43376461857000,3.349962,-6.78066702686205,-1.30032727446332,-7.14838311424305,0.023518313,-0.10476339,0.07452556,246.6674,172.25058,-51.355053,CSI
43376466852000,3.354957,-6.66458138998507,-1.41194790163338,-7.13498859795595,-0.00030543262,-0.111177474,0.06994407,246.69461,172.2595,-51.41184,CSI
43376471836000,3.359941,-6.54812465705825,-1.51970729716808,-7.12785242995585,-0.022602014,-0.12492194,0.0720821,246.69208,172.2472,-51.46043,CSI
43376476870000,3.364975,-6.42872974436309,-1.6183380304081,-7.13823454678583,-0.025045475,-0.13469578,0.06811147,246.68465,172.23343,-51.50791,CSI
43376481839000,3.369944,-6.33188934221934,-1.66819538204694,-7.17528123137177,-0.004886922,-0.16035213,0.080634214,246.64883,172.19675,-51.538353,CSI
43376486830000,3.374935,-6.26520240496786,-1.64914196785091,-7.25149478867906,0.017715093,-0.1777618,0.08552113,246.60852,172.15816,-51.56783,CSI
43376491861000,3.379966,-6.19798101019483,-1.6299358514774,-7.32831915389905,0.04550946,-0.1282817,0.09773844,246.5585,172.09962,-51.564423,CSI
43376496870000,3.384975,-6.13105356705865,-1.61081372130151,-7.40480757476705,0.06688975,-0.0143553335,0.13255776,246.5271,172.04556,-51.549145,CSI
43376501819000,3.389924,-6.09968611339422,-1.59402447625571,-7.44015118942161,0.08307768,0.079107046,0.17134771,246.5051,171.9915,-51.527786,CSI
43376506938000,3.395043,-6.12300424920091,-1.58003371164384,-7.41216975759132,0.086132,0.109650314,0.18234327,246.49234,171.93843,-51.493095,CSI
43376511810000,3.399915,-6.14745345509866,-1.56260290857173,-7.38966164370889,0.08552113,0.1441642,0.17348573,246.51917,171.8971,-51.384636,CSI
43376516824000,3.404929,-6.17826554548954,-1.53435846556869,-7.37682327271269,0.073303826,0.1432479,0.15332718,246.5451,171.85756,-51.279675,CSI
43376521851000,3.409956,-6.20915752362975,-1.50604079205925,-7.36395161515427,0.059253927,0.13133603,0.1423316,246.57458,171.8215,-51.17953,CSI
43376528282000,3.416387,-6.24867737869633,-1.46981422385969,-7.34748500887653,0.04428773,0.13439035,0.11484267,246.58905,171.77994,-51.075233,CSI
43376531851000,3.419956,-6.32319492841352,-1.3873666511317,-7.30368704295189,0.036957346,0.13561209,0.106901415,246.60596,171.74187,-50.97739,CSI
43376536843000,3.424948,-6.44901708232446,-1.24644578619855,-7.22819375060533,0.02076942,0.13194689,0.09132435,246.60725,171.70064,-50.879845,CSI
43376541889000,3.429994,-6.50568343173653,-1.17818812073852,-7.23958442686627,0.02076942,0.13133603,0.077579886,246.61295,171.66667,-50.79906,CSI
43376546850000,3.434955,-6.52464960209581,-1.14973866715569,-7.29648313598802,0.022296581,0.1301143,0.06352998,246.61136,171.63216,-50.720165,CSI
43376551810000,3.439915,-6.53458870117228,-1.11719356056102,-7.35516001046682,0.035124753,0.16035213,0.06078109,246.63953,171.62347,-50.668774,CSI
43376556771000,3.444876,-6.53956164412811,-1.08238368683274,-7.4148340797153,0.049785517,0.17256944,0.038179077,246.65048,171.60664,-50.62149,CSI
43376561773000,3.449878,-6.52720238226336,-1.08635898182542,-7.38345403543346,0.056505036,0.20341812,0.04184427,246.68723,171.60185,-50.55682,CSI
43376566767000,3.454872,-6.50816121015228,-1.10540010423012,-7.31681020642978,0.06627888,0.22113322,0.03848451,246.71045,171.58734,-50.491856,CSI
43376571754000,3.459859,-6.48925344756591,-1.11425916310852,-7.34107118050755,0.07513642,0.20219639,0.026572637,246.74112,171.57875,-50.41986,CSI
43376576771000,3.464876,-6.47027574218426,-1.11900358945394,-7.4027485248346,0.0711658,0.2125811,0.02321288,246.77812,171.5718,-50.33698,CSI
43376581764000,3.469869,-6.42830355104385,-1.11065705028469,-7.32373160548397,0.07819075,0.25778514,0.03268129,246.81247,171.55707,-50.261093,CSI
43376586758000,3.474863,-6.37575216444911,-1.09632485394067,-7.18040979169913,0.083383106,0.24373524,0.029626964,246.83441,171.53998,-50.19931,CSI
43376591780000,3.479885,-6.33639013156342,-1.06591649803343,-7.15410086745329,0.070554934,0.18234327,0.021380283,246.8611,171.52625,-50.12585,CSI
43376596770000,3.484875,-6.3034974941003,-1.0283249193707,-7.18229446558505,0.04886922,0.15485434,0.002443461,246.88326,171.51022,-50.047905,CSI
43376601786000,3.489891,-6.3339376451112,-1.06311369267638,-7.23715587193252,0.054061573,0.19272798,0.01740966,246.90619,171.49486,-49.984554,CSI
43376606843000,3.494948,-6.39893177778949,-1.1373927430023,-7.30679239072086,0.0580322,0.21991149,0.016187929,246.91003,171.47607,-49.9306,CSI
43376611837000,3.499942,-6.41188451442475,-1.12025096993136,-7.27356177302531,0.06383542,0.17867808,0.004886922,246.9296,171.46695,-49.87709,CSI
43376616808000,3.504913,-6.38749855356009,-1.03733860113718,-7.16626359614794,0.064446285,0.12522738,0.0076358155,246.95566,171.46085,-49.821865,SIT
43376621774000,3.509879,-6.40323708619509,-0.974906727453889,-7.18924753826773,0.06078109,0.038179077,0.0030543262,246.9513,171.43765,-49.78436,SIT
43376626803000,3.514908,-6.44444791950941,-0.924537912055524,-7.29456416010648,0.03481932,0.003970624,-0.014049901,246.94278,171.41656,-49.74741,SIT
43376631792000,3.519897,-6.48722577533948,-0.902762223926609,-7.33015676334612,0.03268129,0.014660766,-0.008857546,246.95792,171.41222,-49.73814,SIT
43376636781000,3.524886,-6.5318000364362,-0.907714919604022,-7.30044048585052,0.030848695,0.045814894,0.020463986,246.97467,171.41417,-49.733124,SIT
43376641819000,3.529924,-6.55332021495798,-0.915365687008403,-7.29908800168067,0.03268129,0.01985312,0.02076942,246.99336,171.4241,-49.72845,SIT
43376646792000,3.534897,-6.55802861104301,-0.924782474261987,-7.31792148769155,0.02565634,-0.008857546,0.02321288,247.02766,171.44252,-49.718376,SIT
43376651869000,3.539974,-6.54822417265193,-0.938460924292127,-7.35241136982044,0.020158553,-0.03940081,0.01282817,247.04904,171.45609,-49.72762,SIT
43376656860000,3.544965,-6.52759321236188,-0.954965714066816,-7.39779956862914,0.0070249503,-0.09101892,0.0018325958,247.06552,171.47237,-49.750664,SIT
43376661848000,3.549953,-6.51284250891848,-0.967871508918483,-7.43221602174132,-0.005192355,-0.089491755,-0.014660766,247.07582,171.48431,-49.76189,SIT
43376666853000,3.554958,-6.51526038038741,-0.970289380387409,-7.4346339437046,-0.009773844,-0.122783914,-0.029321533,247.07318,171.495,-49.796017,SIT
43376671830000,3.559935,-6.51766472530266,-0.972693725302664,-7.43703833883172,-0.015577064,-0.081855945,-0.028710667,247.0841,171.50705,-49.793312,SIT
43376676853000,3.564958,-6.52009129241324,-0.975120292413237,-7.43946495661824,-0.0067195175,-0.028099801,-0.010995574,247.09398,171.51768,-49.79611,SIT
43376681837000,3.569942,-6.5192782355384,-0.978097832230797,-7.42854367769202,-0.0106901415,-0.03268129,0.0070249503,247.10239,171.53174,-49.803734,SIT
43376686837000,3.574942,-6.51047926457185,-0.982497317714076,-7.38454882285924,-0.018325957,-0.03634648,0.0061086523,247.11545,171.54433,-49.796265,SIT
43376691869000,3.579974,-6.50498790125313,-0.985243002422723,-7.34073859749373,-0.022907447,-0.03604105,0.0061086523,247.123910307324,171.549501582518,-49.7899903139094,SIT
43376696859000,3.584964,-6.52494962086466,-0.975262168671679,-7.30081515827068,-0.0061086523,-0.022602014,-0.008857546,247.1323,171.55463,-49.783768,SIT
43376701851000,3.589956,-6.54286606678065,-0.971071653474806,-7.26688934317611,-0.008246681,-0.02321288,-0.0067195175,247.15381,171.57217,-49.777542,SIT
43376706883000,3.594988,-6.55255935975058,-0.9904583406316,-7.25719610081464,-0.00580322,-0.01282817,0.002443461,247.17259,171.58311,-49.772045,SIT
43376711874000,3.599979,-6.56206433285714,-1.01044431780952,-7.25159482266667,-0.0018325958,-0.015882496,-0.011911872,247.17984,171.59055,-49.779243,SIT
43376716851000,3.604956,-6.57114309185714,-1.03314138120952,-7.26067353426667,-0.004886922,-0.057421334,-0.017104227,247.19179,171.6026,-49.79538,SIT
43376721831000,3.609936,-6.58231893931848,-1.0514135195181,-7.28049924284706,-0.0030543262,-0.084910266,-0.038179077,247.18631,171.60222,-49.809208,SIT
43376726856000,3.614961,-6.61142903433814,-1.03200690771247,-7.3920870707531,-0.023823744,-0.04337143,-0.052839845,247.18408,171.6067,-49.815025,SIT
43376731822000,3.619927,-6.64336485648443,-1.01735402267862,-7.49072236457429,-0.00030543262,0.008857546,-0.039095376,247.1756,171.5989,-49.827244,SIT
43376736827000,3.624932,-6.69882557468904,-1.03584096091987,-7.50458733902227,0.015271631,0.07574729,-0.018936822,247.16962,171.59468,-49.82294,SIT
43376741921000,3.630026,-6.75316434578535,-1.05435800747121,-7.51112548487371,0.015577064,0.102319926,0.01863139,247.18478,171.6016,-49.80126,SIT
43376746863000,3.634968,-6.77606599370947,-1.06809899622568,-7.41035832966225,0.025961773,0.08552113,0.01282817,247.19199,171.59863,-49.77233,SIT
43376752339000,3.640444,-6.79871038721985,-1.08464702545606,-7.30381317035338,0.040317107,0.094989546,0.01038471,247.21936,171.60153,-49.741272,SIT
43376756857000,3.644962,-6.78968959949963,-1.11170924732618,-7.26773025495674,0.046731193,0.09254608,0.0125227375,247.24283,171.60358,-49.71871,SIT
43376761918000,3.650023,-6.77772289171645,-1.14115795155317,-7.23466365191159,0.052534413,0.08399397,0.004276057,247.25,171.59502,-49.717323,SIT
43376766856000,3.654961,-6.74476474070092,-1.15999122986858,-7.28645498291517,0.048258353,0.073303826,0.013439035,247.26495,171.59149,-49.718483,SIT
43376771935000,3.66004,-6.7101940540506,-1.17759756156118,-7.33968113013092,0.051618114,-0.0018325958,-0.005497787,247.24478,171.56973,-49.74281,SIT
43376776838000,3.664943,-6.66859591903731,-1.1729755465597,-7.39052339167241,0.027183503,-0.028405234,-0.01160644,247.238,171.55891,-49.75773,SIT
43376782134000,3.670239,-6.63089378559201,-1.1694934856776,-7.43631272091298,0.029321533,-0.038179077,-0.02076942,247.21635,171.53525,-49.771225,SIT
43376786826000,3.674931,-6.67362735249643,-1.18231355574893,-7.3807589946933,0.018020526,-0.016493361,-0.024129177,247.19559,171.5188,-49.78286,SIT
43376792405000,3.68051,-6.7211196606953,-1.1977550208998,-7.31537215820041,0.010079277,0.054367006,-0.004276057,247.18413,171.50444,-49.766823,SIT
43376796947000,3.685052,-6.6721955402045,-1.21554554261759,-7.27979111476483,0.027183503,0.07086037,0.02443461,247.1723,171.4892,-49.760345,SIT
43376802227000,3.690332,-6.61634444118654,-1.23573148304521,-7.24026003023233,0.018325957,0.059253927,0.025045475,247.15274,171.47467,-49.7604,SIT
43376806911000,3.695016,-6.58880389246777,-1.24297897674734,-7.24460853553495,0.020158553,0.059253927,0.016798794,247.1448,171.45969,-49.754032,SIT
43376811799000,3.699904,-6.56006388347174,-1.2505421170582,-7.24914642919831,0.006414085,0.05497787,0.013439035,247.13193,171.44504,-49.750072,SIT
43376816850000,3.704955,-6.53036548219537,-1.25835746519857,-7.2538356478754,0.00030543262,0.035430185,0.008552114,247.11368,171.42685,-49.749813,SIT
43376821851000,3.709956,-6.50096106628106,-1.26609544897405,-7.25847844783662,0.006414085,0.025961773,0.010079277,247.09775,171.40993,-49.74821,SIT
43376826840000,3.714945,-6.47162720685365,-1.27381486530197,-7.26311010730604,0.004581489,0.025961773,0.010079277,247.0813,171.39513,-49.751686,SIT
43376831859000,3.719964,-6.442116956209,-1.28158070024881,-7.26776961800498,-0.00061086525,0.018020526,0.0061086523,247.06248,171.37961,-49.759674,SIT
43376836826000,3.724931,-6.42360491599777,-1.28500762181599,-7.27394319379205,-0.003970624,0.0076358155,-0.0009162979,247.03955,171.36275,-49.76847,SIT
43376841878000,3.729983,-6.40789139815803,-1.28725246030715,-7.28067761550596,-0.004276057,0.01038471,0.0021380284,247.02028,171.34795,-49.776,SIT
43376846820000,3.734925,-6.39252001946365,-1.2894484206839,-7.28726540491811,0.0021380284,0.012217305,0.0067195175,246.99576,171.32608,-49.76776,SIT
43376851804000,3.739909,-6.37701800582285,-1.29166304361342,-7.29390918120911,-0.01282817,0.0125227375,0.0070249503,246.97144,171.30827,-49.75927,SIT
43376856897000,3.745002,-6.3635130288921,-1.28274197847539,-7.30259044467163,-0.020463986,0.017715093,0.0033597588,246.94527,171.28748,-49.748947,SIT
43376861811000,3.749916,-6.35305405578398,-1.26182386844094,-7.31304936317369,-0.011911872,0.007330383,-0.00030543262,246.9182,171.26688,-49.743076,SIT
43376866824000,3.754929,-6.3462819567589,-1.25142072235446,-7.32610339853218,-0.017715093,-0.0015271631,0.007330383,246.89636,171.25127,-49.72792,SIT
43376871824000,3.759929,-6.3415328741446,-1.24667173891699,-7.34035044802142,-0.016798794,0.013133603,0.006414085,246.87125,171.23059,-49.70862,SIT
43376876852000,3.764957,-6.35824710014771,-1.23885122129985,-7.33621041790251,-0.01282817,0.008246681,0.003970624,246.85156,171.21603,-49.69513,SIT
43376881845000,3.76995,-6.3864994657804,-1.22943379886755,-7.32208418591827,-0.016493361,-0.0009162979,0.0018325958,246.83304,171.20282,-49.67913,SIT
43376886867000,3.774972,-6.40888766679619,-1.21714575455605,-7.31089009683311,-0.017104227,-0.009162978,0.0015271631,246.82474,171.19247,-49.659885,SIT
43376891853000,3.779958,-6.42744203846901,-1.20322990314746,-7.30161295943268,-0.01985312,-0.006414085,0.0061086523,246.818,171.18396,-49.640743,SIT
43376896883000,3.784988,-6.44578477835863,-1.18184474573731,-7.28989888304291,-0.018325957,-0.01160644,0.0015271631,246.80637,171.1749,-49.633224,SIT
43376901882000,3.789987,-6.46372539974705,-1.15493383707139,-7.27644335845981,-0.016493361,-0.009468411,0.0015271631,246.7999,171.1684,-49.62373,SIT
43376906891000,3.794996,-6.47604163145425,-1.14176035359477,-7.27091675359477,-0.018325957,-0.01740966,0.0009162979,246.79205,171.16422,-49.623474,SIT
43376911773000,3.799878,-6.48081628927696,-1.14653506127451,-7.27569146127451,-0.023823744,-0.015271631,0.0018325958,246.78622,171.1608,-49.61999,SIT
43376916765000,3.80487,-6.49234130913661,-1.14258432680449,-7.27947861219925,-0.023823744,-0.020158553,-0.0018325958,246.78197,171.16133,-49.626743,SIT
43376921761000,3.809866,-6.51197738577951,-1.12785728854461,-7.2819331185759,-0.016493361,-0.022602014,0.00580322,246.78343,171.1642,-49.632954,SIT
43376926768000,3.814873,-6.53165669637819,-1.11309782486021,-7.28439302918997,-0.01863139,-0.025961773,0.008857546,246.77748,171.1658,-49.63504,SIT
43376931773000,3.819878,-6.55132814625763,-1.09834425670754,-7.28685195721541,-0.017715093,-0.02687807,0.007941248,246.77313,171.16632,-49.63735,SIT
43376936757000,3.824862,-6.56138394900995,-1.0866702039602,-7.28667855099005,-0.01740966,-0.026572637,0.008857546,246.77069,171.1684,-49.640522,SIT
43376941798000,3.829903,-6.56371547846035,-1.0773440861586,-7.28434702153965,-0.015271631,-0.028099801,0.003970624,246.76512,171.16846,-49.643955,SIT
43376946762000,3.834867,-6.5660113943881,-1.0681604224476,-7.2820511056119,-0.009162978,-0.02443461,0.005192355,246.76932,171.17575,-49.65244,SIT
43376951837000,3.839942,-6.56835864929006,-1.05877140283976,-7.27970385070994,-0.01282817,-0.023518313,0.0009162979,246.76851,171.18202,-49.661236,SIT
43376956819000,3.844924,-6.56354510803617,-1.04935263638118,-7.28246938500457,-0.007941248,-0.019547688,0.003970624,246.76761,171.18594,-49.66962,SIT
43376961867000,3.849972,-6.54881072274713,-1.03952962737986,-7.29229244529107,-0.008246681,-0.024740042,0.002443461,246.76208,171.18948,-49.67953,SIT
43376966847000,3.854952,-6.53671806613488,-1.0353553417694,-7.30070764781242,-0.0009162979,-0.01282817,-0.00061086525,246.76343,171.19481,-49.685616,SIT
43376971866000,3.859971,-6.52742319841914,-1.0376790768963,-7.30767868334542,-0.008552114,-0.019547688,-0.00061086525,246.764289194114,171.199065774352,-49.691854452698,SIT
43376976836000,3.864941,-6.51821907557651,-1.03998012562727,-7.3145816613488,-0.0033597588,-0.017715093,0.004276057,246.76514,171.20328,-49.698032,SIT
43376981856000,3.869961,-6.50892235592458,-1.04230432374184,-7.32155408581097,0.0018325958,-0.013439035,0.00030543262,246.76712,171.20828,-49.699844,SIT
43376986832000,3.874937,-6.50129987533736,-1.04657567755682,-7.33166438334517,0.004276057,-0.0012217305,0.00030543262,246.77378304815,171.213289661759,-49.6966906852368,SIT
43376991908000,3.880013,-6.49698423886719,-1.055207040625,-7.34892719960937,0.004581489,0.015577064,0.004276057,246.78058,171.2184,-49.693474,SIT
43376996911000,3.885016,-6.49503230924505,-1.06459144739604,-7.3649558536738,0.008552114,0.024740042,0.009162978,246.79092,171.22653,-49.691277,SIT
43377001853000,3.889958,-6.51891631489705,-1.08369865191764,-7.36973255504643,0.005497787,0.015271631,-0.0012217305,246.79744,171.23187,-49.679924,SIT
43377007364000,3.895469,-6.54326636199171,-1.10287104668188,-7.37337189272128,0.0061086523,0.022907447,0.0036651916,246.80698,171.23636,-49.658207,SIT
43377011862000,3.899967,-6.55419111382196,-1.11015423991884,-7.36973037215318,0.006414085,0.027794369,0.005192355,246.80927,171.23837,-49.639404,SIT
43377016810000,3.904915,-6.56620882659565,-1.11816607632091,-7.36572453761096,0.004276057,0.038789943,0.002443461,246.8145,171.2392,-49.621174,SIT
43377021850000,3.909955,-6.57642493380131,-1.12722199863508,-7.32751860750707,0.004276057,0.031154128,-0.0012217305,246.81842,171.23965,-49.60721,SIT
43377026843000,3.914948,-6.58574875403139,-1.13654577018621,-7.27623786397582,0.005497787,0.02565634,-0.0033597588,246.82303,171.23997,-49.58998,SIT
43377031892000,3.919997,-6.59210546218741,-1.14942745469519,-7.30000059025811,0.005192355,-0.040011674,-0.020158553,246.80978,171.23466,-49.59377,SIT
43377036833000,3.924938,-6.59685776928292,-1.16368447522848,-7.35940473909812,-0.00030543262,-0.043982297,-0.03023783,246.80435,171.23112,-49.582504,SIT
43377041884000,3.929989,-6.60171587556493,-1.17825889553078,-7.4201313846741,-0.003970624,-0.07788532,-0.05222898,246.77081,171.21793,-49.606373,SIT
43377046852000,3.934957,-6.60649415155167,-1.1925938232801,-7.4798601463493,-0.022602014,-0.04917465,-0.060170226,246.74564,171.20961,-49.61378,SIT
43377051851000,3.939956,-6.61101377579063,-1.22123910632505,-7.45036325036209,-0.01038471,0.020463986,-0.025045475,246.73102,171.20134,-49.620094,SIT
43377056844000,3.944949,-6.61539703387112,-1.25630517096892,-7.38023121261344,0.004886922,0.058337633,0.0036651916,246.71072,171.19307,-49.62594,SIT
43377061868000,3.949973,-6.60432568830308,-1.2816638946842,-7.33746237764974,-0.0018325958,0.04428773,0.010995574,246.69312,171.1852,-49.606403,SIT
43377066856000,3.954961,-6.57836141044679,-1.29724251562126,-7.3218837024894,-0.007941248,0.028099801,0.0021380284,246.6847,171.17734,-49.578556,SIT
43377071834000,3.959939,-6.5627952029734,-1.30382461940532,-7.3166804,-0.00580322,0.02687807,0.0036651916,246.66956,171.16348,-49.565353,SIT
43377076816000,3.964921,-6.552424915719,-1.3058986768562,-7.3166804,0.00580322,0.02076942,0.0027488936,246.64789,171.14684,-49.55749,SIT
43377081850000,3.969955,-6.54194638781082,-1.30799438243784,-7.3166804,-0.0015271631,0.011911872,0.004581489,246.63351,171.1336,-49.551758,SIT
43377086831000,3.974936,-6.53157818210746,-1.31006802357851,-7.3166804,-0.00030543262,0.015577064,0.008552114,246.62079,171.1173,-49.54446,SIT
43377091953000,3.980058,-6.52139448087201,-1.31120096174402,-7.31709121054852,-0.0061086523,0.002443461,0.01740966,246.60861,171.10538,-49.54483,SIT
43377096933000,3.985038,-6.51660319455495,-1.30161838910991,-7.3218823968053,-0.005192355,0.007330383,0.013744468,246.5954,171.0904,-49.538677,SIT
43377101882000,3.989987,-6.51278543224998,-1.29231206775002,-7.326257,-0.0018325958,0.0018325958,0.008552114,246.5898,171.07863,-49.537617,SIT
43377106863000,3.994968,-6.51968612761597,-1.28541137238403,-7.326257,0.00030543262,-0.004886922,0.0030543262,246.58301,171.06624,-49.53534,SIT
43377111808000,3.999913,-6.52653694845212,-1.27856055154788,-7.326257,-0.009162978,-0.00061086525,0.0061086523,246.58102,171.05827,-49.53041,SIT
43377116850000,4.004955,-6.53352215343813,-1.27157534656187,-7.326257,-0.0070249503,0.0012217305,0.011911872,246.57709,171.04738,-49.527878,SIT
43377122452000,4.010557,-6.54062344037934,-1.26391479436486,-7.32580959106564,-0.007941248,0.0033597588,0.011301007,246.57234,171.03821,-49.523907,SIT
43377126840000,4.014945,-6.53433098048415,-1.25971983570252,-7.3174197175443,-0.003970624,0.009468411,0.01038471,246.57707,171.03125,-49.51714,SIT
43377132228000,4.020333,-6.52660450511605,-1.25456887005241,-7.30711784002995,-0.014660766,0.0030543262,0.012217305,246.58698,171.03137,-49.518215,SIT
43377136839000,4.024944,-6.5199922597704,-1.25016072183179,-7.29830158961817,-0.016187929,0.00061086525,0.01863139,246.5994,171.02992,-49.516796,SIT
43377141853000,4.029958,-6.51280210618917,-1.24536730279511,-7.28871480159721,-0.009468411,0.0021380284,0.014660766,246.6077,171.027,-49.515465,SIT
43377146848000,4.034953,-6.51998681562941,-1.2294681877292,-7.2840708219323,-0.009162978,-0.00061086525,0.004276057,246.61508,171.02547,-49.516003,SIT
43377151789000,4.039894,-6.52832932651622,-1.21278307884344,-7.27989954471086,-0.006414085,0.004886922,0.009468411,246.62831,171.02481,-49.514603,SIT
43377156838000,4.044943,-6.53469318593983,-1.20005546641775,-7.26181765061873,-0.019547688,0.0033597588,0.01160644,246.63576,171.02527,-49.51619,SIT
43377161885000,4.04999,-6.53984948197141,-1.18974308971624,-7.23603676270536,-0.02076942,-0.00061086525,0.005497787,246.64209,171.02235,-49.51672,SIT
43377166870000,4.054975,-6.53855592775043,-1.17911337849213,-7.23409387700872,-0.008552114,0.004886922,0.0076358155,246.66507,171.02773,-49.520847,SIT
43377171847000,4.059952,-6.53548845132413,-1.16837725103775,-7.23869505161052,-0.011301007,0.016798794,0.0015271631,246.6818,171.03273,-49.523155,SIT
43377176816000,4.064921,-6.53242590554107,-1.15765838077034,-7.24328883031181,-0.004886922,0.0027488936,0.009468411,246.70914,171.04042,-49.53756,SIT
43377181885000,4.06999,-6.52930172671751,-1.1467237956656,-7.24797505776941,-0.0106901415,0.013439035,0.0067195175,246.73271,171.04697,-49.540474,SIT
43377186827000,4.074932,-6.52625582185539,-1.13606316840429,-7.2525438753065,-0.0143553335,0.013744468,-0.00061086525,246.75168,171.05157,-49.55001,SIT
43377191886000,4.079991,-6.52313780633587,-1.12515015478328,-7.25722085788847,-0.0106901415,0.018020526,0.008246681,246.77756,171.0587,-49.55623,SIT
