timestamp,rel_time,acc_x,acc_y,acc_z,gyro_x,gyro_y,gyro_z,azimuth,pitch,roll,label
42932863935000,0,-0.575190342454755,9.75151680870901,1.29054123382692,-0.04917465,0.022602014,0.018325957,303.85904,-97.532265,6.775005,STD
42932868932000,0.004997,-0.580439379361632,9.77251330711857,1.26954511908523,-0.048563786,0.022907447,0.016798794,303.62244,-98.13307,7.2600913,STD
42932873945000,0.01001,-0.585543564799059,9.79293027082925,1.24641175120565,-0.05009095,0.022296581,0.018936822,303.38873,-98.71229,7.728708,STD
42932878943000,0.015008,-0.590235276855519,9.8116970210743,1.21826147886689,-0.050701816,0.021991149,0.016493361,303.15396,-99.285164,8.191856,STD
42932883911000,0.019976,-0.590472585254798,9.82799689808074,1.19381144983455,-0.054367006,0.021991149,0.016493361,302.91684,-99.861664,8.657448,STD
42932888912000,0.024977,-0.576888305171599,9.83705278850336,1.18022718866408,-0.04917465,0.027794369,0.014049901,302.67712,-100.43246,9.117975,STD
42932893934000,0.029999,-0.563135861042483,9.84369321361856,1.16710666742995,-0.049785517,0.028405234,0.008246681,302.4431,-100.98539,9.563909,STD
42932898929000,0.034994,-0.548723051159988,9.83408497469117,1.15749807734257,-0.047647487,0.029626964,0.003970624,302.20605,-101.53356,10.0061655,STD
42932903906000,0.039971,-0.535636432971801,9.82447443817787,1.15121110802603,-0.05100725,0.029626964,0.007330383,301.9653,-102.09069,10.4570675,STD
42932909709000,0.045774,-0.529895892697035,9.81299311785973,1.16843278879248,-0.032986723,0.02565634,0.00061086525,301.72348,-102.64163,10.900134,STD
42932913927000,0.049992,-0.522077870265605,9.80572067561607,1.15192673736888,-0.03940081,0.028710667,-0.002443461,301.48526,-103.1815,11.341176,STD
42932918966000,0.055031,-0.498941641677054,9.80109333809569,1.02236387659987,-0.031154128,0.015882496,-0.0061086523,301.25085,-103.718376,11.775927,STD
42932923899000,0.059964,-0.481399638111518,9.7980967355547,0.989134569543529,-0.02443461,0.004581489,-0.0061086523,301.0141,-104.24304,12.204692,STD
42932928952000,0.065017,-0.504700688251156,9.80741734052388,1.71146692436055,-0.018325957,0.007330383,-0.0036651916,300.77493,-104.762695,12.629769,STD
42932934098000,0.070163,-0.522761649593331,9.81658725721838,2.33908355340586,-0.018325957,0.011911872,-0.0067195175,300.52313,-105.34849,13.097986,STD
42932938923000,0.074988,-0.471085242263115,9.82128520607971,1.62031182417141,-0.024740042,0.017715093,-0.01160644,300.26877,-105.927444,13.562624,STD
42932943927000,0.079992,-0.422410710191823,9.82391344603747,0.951808739743907,-0.004886922,0.015882496,-0.004886922,300.04544,-106.166145,13.809504,STD
42932948931000,0.084996,-0.436626070522074,9.79785192529787,1.26691585456074,-0.0106901415,0.015577064,-0.009162978,299.81512,-106.394615,14.0507965,STD
42932954069000,0.090134,-0.451222097975478,9.7710925141148,1.59046108955851,-0.01038471,0.014660766,-0.010079277,299.5501,-106.98481,14.529519,STD
42932958948000,0.095013,-0.465082358377416,9.74568201057992,1.89769682360953,-0.0070249503,0.022602014,-0.013744468,299.28046,-107.565315,15.002298,STD
42932964158000,0.100223,-0.476595438982834,9.72214268758483,2.16786948465469,-0.013133603,0.022602014,-0.0027488936,299.0127,-108.13521,15.469998,STD
42932968925000,0.10499,-0.447436063454691,9.74401227536926,1.71589923437924,-0.0125227375,0.03023783,-0.0067195175,298.7372,-108.69462,15.929058,STD
42932974040000,0.110105,-0.416147998460679,9.7674783843513,1.23093430252295,-0.01863139,0.016493361,-0.014966198,298.49142,-108.93938,16.183147,STD
42932979703000,0.115768,-0.4237570116462,9.75638881214736,0.986433330716893,-0.0143553335,0.024129177,-0.009468411,298.23312,-109.18623,16.440065,STD
42932983967000,0.120032,-0.450863225209647,9.72928252782387,0.950291720494524,-0.014660766,0.025045475,-0.0033597588,297.97598,-109.42773,16.692461,STD
42932988960000,0.125025,-0.476286581528993,9.71713896105395,1.03812622504087,-0.02076942,0.02107485,-0.014660766,297.689,-109.952095,17.132734,STD
42932993970000,0.130035,-0.49935600071353,9.71252498182517,1.17654283168574,-0.028710667,0.0125227375,-0.01282817,297.4012,-110.47375,17.574198,STD
42932998945000,0.13501,-0.51645952203025,9.71977094909831,1.30879312329843,-0.025961773,0.007330383,-0.0061086523,297.10196,-111.01356,18.025751,STD
42933003917000,0.139982,-0.530309419947644,9.73362110732984,1.43805861544503,-0.029932396,0.00580322,-0.009162978,296.80093,-111.54172,18.470655,STD
42933008995000,0.14506,-0.516432904196031,9.73677461614014,1.44856860664237,-0.03756821,-0.00580322,-0.011301007,296.5117,-111.973175,18.847416,STD
42933013980000,0.150045,-0.48259503108951,9.73194053908465,1.37122498898339,-0.028710667,-0.008552114,-0.0070249503,296.21667,-112.401634,19.222569,STD
42933018958000,0.155023,-0.466856143431193,9.71799910458716,1.33112348366973,-0.036651913,-0.016187929,-0.010995574,295.92902,-112.7468,19.541546,STD
42933023939000,0.160004,-0.462877662114262,9.69810667723103,1.31520954178482,-0.034208454,-0.0125227375,-0.0018325958,295.63562,-113.094765,19.863659,STD
42933028930000,0.164995,-0.455925491723186,9.68497288722398,1.28928146652208,-0.030543262,-0.01740966,-0.007330383,295.3365,-113.48529,20.21693,STD
42933033932000,0.169997,-0.437036220778785,9.69913963209779,1.22316902068218,-0.041233405,-0.011911872,-0.002443461,295.03012,-113.873726,20.573654,STD
42933038898000,0.174963,-0.418801370825126,9.71002260625957,1.15290171777194,-0.034208454,-0.008246681,0.0036651916,294.72476,-114.2718,20.936756,STD
42933043947000,0.180012,-0.402927012039834,9.70473104650908,1.05765552085796,-0.02443461,0.0076358155,0.0030543262,294.40964,-114.66292,21.297436,STD
42933048904000,0.184969,-0.396495907077021,9.71156327873404,0.989576519306734,-0.026572637,0.011301007,0.005192355,294.08862,-115.094604,21.69034,STD
42933053922000,0.189987,-0.407931557712382,9.74205856468629,0.970517094947251,-0.03023783,0.026572637,0.00580322,293.7547,-115.52057,22.08083,STD
42933058932000,0.194997,-0.419348976939795,9.77250523320378,0.951488056278258,-0.027794369,0.028710667,0.010079277,293.41473,-115.996925,22.509317,STD
42933063930000,0.199995,-0.425189624731183,9.78554001075269,0.871901295698925,-0.03023783,0.03726278,0.012217305,293.06366,-116.46417,22.934494,STD
42933068903000,0.204968,-0.429803150489199,9.79476677322484,0.779630708277632,-0.026572637,0.036651913,0.012217305,292.7102,-116.92562,23.355495,STD
42933073928000,0.209993,-0.438813879852479,9.80493073164117,0.740852564909426,-0.013744468,0.032986723,0.006414085,292.33478,-117.40545,23.7887,STD
42933078875000,0.21494,-0.449091893477601,9.81520894381169,0.720296569855733,-0.013744468,0.039095376,0.01038471,291.95245,-117.87809,24.22058,STD
42933083928000,0.219993,-0.471762377894659,9.81406171157467,0.694442811159449,-0.011911872,0.026572637,0.017104227,291.56277,-118.38439,24.670664,STD
42933088891000,0.224956,-0.49531291458131,9.81170661044495,0.66853722498464,-0.01740966,0.032375857,0.02107485,291.16095,-118.88064,25.117773,STD
42933093938000,0.230003,-0.51926204991428,9.80931164864731,0.642193180369636,-0.0143553335,0.039095376,0.013744468,290.76236,-119.36807,25.556952,STD
42933098871000,0.234936,-0.542670229941532,9.80697078347042,0.616444186494896,0.00061086525,0.030543262,0.013744468,290.36252,-119.85002,25.99352,STD
42933103941000,0.240006,-0.561986911145564,9.80262269231505,0.637079006718346,-0.010079277,0.023518313,0.0143553335,289.95428,-120.31812,26.423891,STD
42933108924000,0.244989,-0.580255164272179,9.79805553842473,0.664481386408269,-0.016493361,0.01740966,0.015577064,289.54303,-120.78,26.84902,STD
42933113934000,0.249999,-0.592217350975437,9.79439585332955,0.705182333796678,-0.007941248,0.03023783,0.016187929,289.13495,-121.22511,27.257982,STD
42933119243000,0.255308,-0.603045811404231,9.79078666803919,0.752105688704387,-0.015882496,0.023823744,0.016493361,288.7293,-121.658875,27.660702,STD
42933123978000,0.260043,-0.612703517211416,9.78756770168962,0.793955770732642,-0.021991149,0.008857546,0.00580322,288.3192,-122.056175,28.034128,STD
42933128946000,0.265011,-0.610537209813633,9.78511852014297,0.84720046638601,-0.016493361,0.015271631,0.006414085,287.8995,-122.44925,28.40798,STD
42933133925000,0.26999,-0.608102546183304,9.7826838056676,0.900763099302528,-0.01740966,0.018325957,-0.0015271631,287.47766,-122.8282,28.771164,STD
42933138920000,0.274985,-0.605660058769466,9.78024126724534,0.95449785556242,-0.01985312,0.009162978,-0.0015271631,287.05566,-123.161804,29.100395,STD
42933144033000,0.280098,-0.601380312579624,9.77987853287391,1.00915533451294,-0.017715093,0.0076358155,-0.009162978,286.6223,-123.485535,29.423061,STD
42933148930000,0.284995,-0.575175643788415,9.80608327463215,1.057197239458,-0.021685716,0.0027488936,-0.004581489,286.1875,-123.804886,29.744848,STD
42933153894000,0.289959,-0.548612446753585,9.83264654563233,1.10589644634941,-0.023823744,-0.009162978,-0.0106901415,285.74463,-124.09915,30.055012,STD
42933158952000,0.295017,-0.536464746735841,9.87303381647211,1.13914940893861,-0.02321288,-0.009162978,-0.023823744,285.29227,-124.38666,30.36185,STD
42933164020000,0.300085,-0.524833348373527,9.9138860555757,1.17278295094288,-0.0143553335,-0.015577064,-0.03970624,284.8378,-124.66677,30.661509,STD
42933168933000,0.304998,-0.499239032558477,9.93948042484134,1.2325029825748,-0.006414085,-0.01740966,-0.036651913,284.37103,-124.930466,30.954266,STD
42933174017000,0.310082,-0.472753890770626,9.96596562194016,1.29430160679964,-0.007941248,-0.029321533,-0.04184427,283.89685,-125.17265,31.22981,STD
42933178939000,0.315004,-0.443797239858245,9.94398964894726,1.34488952637065,-0.01863139,-0.046731193,-0.04795292,283.41766,-125.4099,31.502327,STD
42933183907000,0.319972,-0.414042658544924,9.91423498478215,1.39448040892224,-0.018020526,-0.07452556,-0.04642576,282.93835,-125.64368,31.77063,STD
42933188915000,0.32498,-0.380808723723436,9.88100087728225,1.43363538941435,-0.010995574,-0.09712757,-0.05009095,282.4508,-125.865814,32.03695,STD
42933193911000,0.329976,-0.347393573624663,9.8475855477402,1.47182415944328,0.004581489,-0.10873401,-0.046731193,281.96182,-126.086136,32.301025,STD
42933198930000,0.334995,-0.301627445859786,9.81476097643622,1.52659332017527,0.0027488936,-0.12767084,-0.03604105,281.47406,-126.292725,32.557175,STD
42933203908000,0.339973,-0.255207440751704,9.78226728743914,1.58229733406037,-0.0015271631,-0.13072516,-0.05009095,280.9751,-126.490585,32.80483,STD
42933208960000,0.345025,-0.244887411156443,9.78613886879953,1.59796902626945,0.0030543262,-0.14569137,-0.03970624,280.4839,-126.681946,33.049175,STD
42933213869000,0.349934,-0.240287815998435,9.79533778054985,1.60716822619118,-0.0036651916,-0.15821409,-0.035124753,279.98325,-126.86205,33.2852,STD
42933218922000,0.354987,-0.231891895262857,9.80460143409524,1.60702143078095,-0.010995574,-0.15882497,-0.043676864,279.47232,-127.04201,33.52783,STD
42933223931000,0.359996,-0.222754706445714,9.81373880419048,1.6047371359619,-0.010079277,-0.16676621,-0.0290161,278.96295,-127.225235,33.773277,STD
42933228943000,0.365008,-0.213612045165714,9.82288164685714,1.60245147302857,-0.010079277,-0.1731803,-0.0290161,278.4421,-127.395,34.008003,STD
42933233863000,0.369928,-0.20463720608,9.831856664,1.6002077656,-0.0070249503,-0.17898351,-0.033292156,277.917,-127.56373,34.241676,STD
42933238922000,0.374987,-0.204056392414979,9.8383242034598,1.55517492914291,-0.020463986,-0.1777618,-0.027488936,277.38492,-127.72914,34.47485,STD
42933243947000,0.380012,-0.208786436669943,9.84305384765088,1.48422429001376,-0.041233405,-0.18173242,-0.024129177,276.84808,-127.88815,34.70191,STD
42933248925000,0.38499,-0.228207723659241,9.81576040264027,1.40312066377888,-0.032375857,-0.18448131,-0.014660766,276.30472,-128.05296,34.93475,STD
42933253909000,0.389974,-0.257744117677393,9.76653312211221,1.3145114560231,-0.023518313,-0.16279559,-0.014966198,275.746,-128.20953,35.163696,STD
42933258971000,0.395036,-0.302946294590868,9.7523523092217,1.20421092097113,-0.03268129,-0.14385876,-0.005497787,275.1813,-128.39514,35.416767,STD
42933263936000,0.400001,-0.355202986558098,9.75710301408732,1.08544577959836,-0.015882496,-0.10629055,-0.005192355,274.59387,-128.57654,35.665905,STD
42933268923000,0.404988,-0.41757608031734,9.75582723224405,1.01154618374103,-0.0033597588,-0.06169739,0.0009162979,273.9914,-128.77415,35.9263,STD
42933273952000,0.410017,-0.485806748084624,9.75127842859841,0.961510317330941,-0.0021380284,-0.015882496,0.010995574,273.36768,-128.96744,36.185886,STD
42933278930000,0.414995,-0.568222508172541,9.74381286070489,0.927774437383482,0.01282817,0.01985312,0.005497787,272.7166,-129.19873,36.47417,STD
42933283972000,0.420037,-0.66474424337717,9.73365300526039,0.907454095249868,0.017715093,0.056505036,0.004276057,272.04187,-129.42505,36.763535,STD
42933288918000,0.424983,-0.751638549661509,9.71836236779497,0.903138283288201,0.015577064,0.07513642,-0.0070249503,271.36996,-129.60959,37.007957,STD
42933293942000,0.430007,-0.835395772098646,9.69974975967118,0.907791459613153,0.005192355,0.094989546,-0.011911872,270.67648,-129.7881,37.25099,STD
42933298927000,0.434992,-0.933525999157733,9.66329552947933,0.927890663139357,-0.0021380284,0.10873401,-0.027488936,269.98465,-129.92007,37.4468,STD
42933304705000,0.44077,-1.060635031049,9.60503716328484,0.964964120635528,-0.022907447,0.12370021,-0.044898596,269.2762,-130.04195,37.63729,STD
42933308933000,0.444998,-1.13328460271584,9.5829605236258,0.95743498899534,-0.058337633,0.12461651,-0.052839845,268.57693,-130.11443,37.780083,STD
42933313942000,0.450007,-1.20058762197725,9.57574934063236,0.91657243692539,-0.073303826,0.124311075,-0.064446285,267.86288,-130.17628,37.91377,STD
42933318923000,0.454988,-1.26751442152628,9.56857846770557,0.875938303992584,-0.09590584,0.12186762,-0.07941248,267.1654,-130.16756,37.980442,STD
42933323928000,0.459993,-1.3347636951145,9.56137304329308,0.83510838322794,-0.12980886,0.11728613,-0.08827003,266.46146,-130.15189,38.04218,STD
42933328940000,0.465005,-1.39582338532309,9.55994348029945,0.791124219789204,-0.14813483,0.10415252,-0.10781772,265.75116,-130.12546,38.09241,STD
42933333929000,0.469994,-1.44994619701044,9.56464990789992,0.744060894702029,-0.16279559,0.08246681,-0.12156218,265.03882,-130.09259,38.137405,STD
42933338940000,0.475005,-1.50430767413318,9.5693770894405,0.696790034407013,-0.17256944,0.06352998,-0.13561209,264.34482,-130.02539,38.141056,STD
42933343969000,0.480034,-1.55886442297577,9.57412125147754,0.64934937257831,-0.1685988,0.040317107,-0.15577064,263.65274,-129.95016,38.13471,STD
42933348950000,0.485015,-1.62865393228133,9.57475937771766,0.599969036025448,-0.16707164,0.0106901415,-0.17470746,262.96942,-129.853,38.104218,STD
42933353973000,0.490038,-1.72022607574391,9.56993969321711,0.546953568389941,-0.16126843,-0.016187929,-0.18997909,262.287,-129.74995,38.065575,STD
42933358907000,0.494972,-1.79543337444477,9.5692070541043,0.507262471787496,-0.1572978,-0.03726278,-0.20280726,261.62805,-129.61734,37.988113,STD
42933363968000,0.500033,-1.85233766205851,9.5739491729772,0.483552362676842,-0.15393804,-0.056505036,-0.23487769,260.97092,-129.47417,37.898113,STD
42933368857000,0.504922,-1.90369655270349,9.57510040087209,0.477796341005814,-0.14569137,-0.067500606,-0.25228736,260.32446,-129.32361,37.796146,STD
42933374005000,0.51007,-1.95146924444767,9.57032303691861,0.501682671912791,-0.1441642,-0.076358154,-0.2843578,259.6764,-129.15872,37.679127,STD
42933378862000,0.514927,-1.96571893611429,9.55680496914286,0.532437596868571,-0.13652839,-0.094989546,-0.31703907,259.0401,-128.97403,37.53822,STD
42933383929000,0.519994,-1.91026100717143,9.52214379371429,0.583274026102857,-0.13683382,-0.121256754,-0.33841935,258.4043,-128.78238,37.390083,STD
42933388886000,0.524951,-1.85600701984762,9.48823508114286,0.633006842308571,-0.13622294,-0.12889257,-0.35308012,257.77362,-128.55905,37.21016,STD
42933393939000,0.530004,-1.8007023198381,9.45366967371429,0.683702811702857,-0.13255776,-0.14630222,-0.37812558,257.15027,-128.32706,37.019497,STD
42933398895000,0.53496,-1.73658469707015,9.41901491210436,0.739815477197391,-0.14630222,-0.17134771,-0.40378192,256.52814,-128.08972,36.823914,STD
42933403918000,0.539983,-1.59255983994867,9.37786519846022,0.847834120038494,-0.13744467,-0.19425514,-0.42149702,255.90714,-127.8495,36.622986,STD
42933408930000,0.544995,-1.45186088244188,9.3402305961066,0.95363889959365,-0.12461651,-0.21288654,-0.44165558,255.27185,-127.62351,36.44224,STD
42933413963000,0.550028,-1.31976850851446,9.31290057852958,1.05384694266207,-0.1001819,-0.25717425,-0.44806966,254.65034,-127.397705,36.257732,STD
42933418913000,0.554978,-1.19806107003208,9.28704012041307,1.14641021063766,-0.069027774,-0.30665436,-0.44226643,254.01213,-127.19926,36.104572,STD
42933424040000,0.560105,-1.1291414727692,9.26734892440345,1.20056133378785,-0.03481932,-0.3359759,-0.44257188,253.37852,-126.99874,35.946102,STD
42933428944000,0.565009,-1.06993042084541,9.25253101399021,1.2383049625762,-0.0033597588,-0.35705075,-0.42638394,252.73828,-126.83196,35.824318,STD
42933433964000,0.570029,-1.05071360801439,9.26213959598281,1.19026300574598,0.02565634,-0.3436117,-0.40225476,252.0935,-126.66869,35.703888,STD
42933438925000,0.57499,-1.03749658395185,9.27611171256591,1.13961236151627,0.048258353,-0.30909783,-0.376293,251.43073,-126.5294,35.60872,STD
42933443974000,0.580039,-1.0615505906079,9.31940923599642,1.06745044201572,0.0720821,-0.23487769,-0.35308012,250.74744,-126.39671,35.520138,STD
42933448934000,0.584999,-1.08789372007956,9.36625563818905,1.00327889435499,0.06414085,-0.14049901,-0.32895094,250.03152,-126.292465,35.461132,STD
42933453969000,0.590034,-1.13356452738208,9.44389564339837,0.985010590509566,0.06811147,-0.03176499,-0.2929099,249.28297,-126.19775,35.412632,STU
42933459170000,0.595235,-1.18035147402644,9.52121592428908,0.968593152236914,0.067500606,0.09743301,-0.26816985,248.47427,-126.12398,35.387386,STU
42933463964000,0.600029,-1.21777228663286,9.55032117442492,0.989382492573809,0.04734206,0.20891592,-0.23762658,247.63217,-126.05713,35.372276,STU
42933468891000,0.604956,-1.25623126529614,9.58023389186742,1.01074859183119,0.03634648,0.30848694,-0.21105394,246.73206,-125.99562,35.36528,STU
42933473961000,0.610026,-1.28725390617749,9.60564680495786,1.07678255632127,0.020158553,0.3912592,-0.18661933,245.79675,-125.93561,35.362347,STU
42933478887000,0.614952,-1.3153205788002,9.6290356581061,1.15162698408528,0.02107485,0.44684792,-0.16523905,244.83392,-125.877,35.36046,STU
42933483933000,0.619998,-1.29754584388646,9.62739542212518,1.24053109657933,0.02565634,0.47433686,-0.15668693,243.84244,-125.80774,35.348183,STU
42933488894000,0.624959,-1.26728983681769,9.61875068104076,1.33129902752001,0.035124753,0.4792238,-0.1554652,242.83755,-125.736786,35.331738,STU
42933493908000,0.629973,-1.20256690633933,9.59982142302237,1.41841964632842,0.057421334,0.47158796,-0.13591751,241.84978,-125.63045,35.277493,STU
42933498911000,0.634976,-1.11369435673759,9.57368245390071,1.50206434751773,0.090713486,0.4370741,-0.11911872,240.86798,-125.519936,35.21423,STU
42933503907000,0.639972,-0.963614727038245,9.5957060366637,1.61525866872221,0.1301143,0.39767328,-0.110872045,239.88153,-125.41171,35.15171,STU
42933508999000,0.645064,-0.790124867447376,9.63425960717462,1.74055689226208,0.16646078,0.29932398,-0.096516706,238.92734,-125.306595,35.08573,STU
42933513942000,0.650007,-0.599177703902772,9.68165736704412,1.88514730616947,0.23304509,0.17623462,-0.09712757,237.98883,-125.20616,35.01966,STU
42933518963000,0.655028,-0.397336513365873,9.73329073525966,2.04004878320968,0.29565877,0.018020526,-0.0852157,237.09692,-125.110016,34.95178,STU
42933523948000,0.660013,-0.210537908994885,9.80646087336334,2.12817110540098,0.34666604,-0.15790866,-0.080634214,236.22678,-125.035736,34.902515,STU
42933528966000,0.665031,-0.0286549892555237,9.89002884676759,2.18716011816694,0.3820962,-0.31795537,-0.050701816,235.40665,-124.96925,34.85577,STU
42933533960000,0.670025,0.0989997010043401,9.99878415959755,2.13323419982245,0.40591997,-0.43310347,-0.022296581,234.60379,-124.92836,34.833157,STU
42933538969000,0.675034,0.207829374420596,10.1170771937266,2.0385996737029,0.419359,-0.48747048,0.008246681,233.83607,-124.8936,34.813362,STU
42933543982000,0.680047,0.292958532159827,10.2082996018064,1.89066811637542,0.4016439,-0.4841107,0.03573562,233.04585,-124.90632,34.8407,STU
42933548961000,0.685026,0.367858070064795,10.2878805044178,1.72214416830944,0.36865717,-0.42913285,0.08032878,232.25775,-124.92796,34.87547,STU
42933553909000,0.689974,0.414932497239556,10.3448607408778,1.56887444230566,0.31490102,-0.3222314,0.11148291,231.36644,-125.03063,34.99161,STU
42933559866000,0.695931,0.455157441632293,10.4001701155473,1.39289029746166,0.25870144,-0.17745635,0.14263703,230.4452,-125.13631,35.10975,STU
42933564000000,0.700065,0.466079817524994,10.4323009162806,1.27705317980167,0.16035213,0.026572637,0.160963,229.36816,-125.33031,35.315586,STU
42933568916000,0.704981,0.45842647700317,10.4629145340974,1.14694620312932,0.08277224,0.28008172,0.172264,228.22852,-125.51507,35.509495,STU
42933574699000,0.710764,0.433275363398356,10.4926738011958,0.989782294394619,-0.00061086525,0.5626069,0.1957823,226.91127,-125.77925,35.77889,STU
42933578957000,0.715022,0.270732087684521,10.4588106435808,0.837397979048331,-0.070249505,0.8426886,0.21868975,225.51613,-53.97682,36.021336,STU
42933583937000,0.720002,0.0806274580333001,10.4192055414383,0.659174895341305,-0.14355333,0.97066486,0.24740042,224.02177,-53.694187,36.293854,STU
42933588951000,0.725016,-0.160090724968664,10.3688765627011,0.583209193875558,-0.16982053,1.2360858,0.2556471,222.39557,-53.43939,36.526478,STU
42933593965000,0.73003,-0.444766992299814,10.3092297514539,0.599476406433855,-0.21746802,1.4770721,0.26542094,220.74986,-53.202766,36.72753,STU
42933599019000,0.735084,-0.731714310826266,10.2491070980746,0.615873393324488,-0.24984388,1.6945401,0.27091873,219.04077,-53.005264,36.876472,STU
42933604447000,0.740512,-1.04207787295576,10.1844746581769,0.643963214661528,-0.2678644,1.8912388,0.26358834,217.27507,-52.83602,36.9805,STU
42933608948000,0.745013,-1.32015267725369,10.1303042784853,0.766749510444873,-0.2828306,2.0418172,0.26053402,215.47214,-52.690735,37.04309,STU
42933613883000,0.749948,-1.62504029316354,10.0709106273458,0.901375231327078,-0.27366763,2.1248949,0.23335053,213.91759,-52.80087,36.84393,STU
42933618860000,0.754925,-1.96362482311598,10.0238523213539,1.07154698454953,-0.25778514,2.146275,0.19883664,212.34888,-52.92485,36.61679,STU
42933623868000,0.759933,-2.32649288674963,9.98565591398706,1.26730474391239,-0.22113322,2.0803015,0.16890424,210.80092,-53.06746,36.361565,STU
42933628879000,0.764944,-2.64352498458317,9.94840656100114,1.48188784587933,-0.18295415,1.9327776,0.13225232,209.42888,-53.36648,35.945293,STU
42933633835000,0.7699,-2.92356728302246,9.91227181223829,1.70772839848687,-0.13041973,1.704925,0.10781772,208.12512,-53.67664,35.517918,STU
42933638847000,0.774912,-3.16101729575918,9.86541095962575,1.93203336005288,-0.09193522,1.4141531,0.08979719,206.98347,-54.101727,34.97566,STU
42933643877000,0.779942,-3.34717722233296,9.80662395362555,2.15248593698769,-0.058948494,1.0815369,0.0852157,205.94951,-54.53131,34.438053,STU
42933648846000,0.784911,-3.47691799392717,9.71479789155654,2.31839294018965,-0.044898596,0.74067414,0.093767814,205.06941,-55.036674,33.827957,STU
42933653819000,0.789884,-3.55378754068395,9.58988494078483,2.43369715999193,-0.028099801,0.41386122,0.112399206,204.30882,-55.53792,33.236256,STU
42933658844000,0.794909,-3.54137673990168,9.42407869900672,2.52491781770844,-0.041233405,0.11636983,0.12675454,203.67403,-56.069782,32.61654,STU
42933663831000,0.799896,-3.44554138027491,9.22282445379753,2.59200259946825,-0.05681047,-0.17287487,0.111177474,203.15567,-56.598732,32.014427,STU
42933668827000,0.804892,-3.31350087196324,9.02605387144635,2.63363015033024,-0.09773844,-0.4392121,0.0571159,202.7401,-57.12983,31.413034,STU
42933673862000,0.809927,-3.14733907637599,8.8321984191634,2.65209255599694,-0.15424347,-0.7147123,-0.038789943,202.4329,-57.66644,30.816738,STU
42933678832000,0.814897,-2.95927243250153,8.69681609552056,2.68788000836572,-0.20799962,-0.84421575,-0.1554652,202.17387,-58.179306,30.240828,STU
42933683828000,0.819893,-2.73907840762937,8.63320472223359,2.7465984388423,-0.23854288,-1.1123856,-0.21777347,202.05627,-58.69309,29.680645,STU
42933688814000,0.824879,-2.47662736054022,8.67254768673378,2.75913026911193,-0.28771752,-1.3683381,-0.3295618,201.99106,-59.19305,29.130001,STU
42933693841000,0.829906,-2.16472964325725,8.82609690820293,2.72074283848301,-0.3368922,-1.6071864,-0.4025602,202.00941,-59.689114,28.591541,STU
42933699067000,0.835132,-1.85304020640504,8.99512508719821,2.62434065380403,-0.3912592,-1.8057177,-0.43890667,202.08684,-60.143208,28.095205,STU
42933703840000,0.839905,-1.57998563990708,9.15819968319091,2.48402098782046,-0.44715336,-1.947133,-0.4456262,202.2242,-60.596176,27.602373,STU
42933708937000,0.845002,-1.28279788439639,9.33585425741606,2.31322510132565,-0.5030475,-2.053118,-0.43768495,202.38686,-60.987396,27.176847,STU
42933713963000,0.850028,-0.927147955525372,9.55028991546235,1.91050378525481,-0.5644395,-2.1138992,-0.41141775,202.57692,-61.361202,26.766329,STU
42933718932000,0.854997,-0.586987649236458,9.73856147381571,1.43821314612732,-0.6062838,-2.1044307,-0.36193767,202.71606,-61.6408,26.459057,STU
42933723990000,0.860055,-0.277160800471317,9.85474635228863,0.72173861509994,-0.6123924,-1.9999728,-0.2959642,202.83853,-61.899487,26.168055,STU
42933728940000,0.865005,-0.00202686351176307,9.94712369240705,-0.000424099902204989,-0.5644395,-1.7825048,-0.21991149,202.79121,-62.029583,26.021524,STU
42933733962000,0.870027,0.188772390960421,9.97374691798136,-0.799118610729772,-0.4728097,-1.4630222,-0.14569137,202.67374,-62.144318,25.884312,STU
42933738948000,0.875013,0.34963711463308,9.99201019294673,-1.56432598145568,-0.3387248,-1.0629056,-0.07666359,202.05797,-61.990852,26.036108,STU
42933743942000,0.880007,0.159950844520313,9.90998364926573,-1.98983844259835,-0.17715092,-0.63499445,-0.035124753,201.34995,-61.854008,26.166046,STU
42933748927000,0.884992,-0.0875343930547816,9.83940786972892,-2.28739466005271,-0.027488936,-0.21960606,-0.020158553,200.79652,-61.838596,26.235746,STU
42933753950000,0.890015,-0.562962812036427,9.81224092884036,-2.0926954450866,0.09560041,0.12767084,-0.024129177,200.13669,-61.839565,26.280754,STU
42933758961000,0.895026,-1.03192520464423,9.78714117792927,-1.87444268519472,0.17928895,0.39461896,-0.0421497,199.4907,-61.941353,26.243376,STU
42933763931000,0.899996,-1.44157750758415,9.78308513276523,-1.40800687651981,0.2144137,0.57635134,-0.053450707,198.76643,-62.05498,26.184319,STU
42933769183000,0.905248,-1.87447366352791,9.77879894580315,-0.915105293590115,0.20952678,0.6612616,-0.07666359,197.60612,-62.06869,26.175306,STU
42933773936000,0.910001,-2.55200826861085,9.63440922128149,0.0580764693885231,0.18875736,0.66248333,-0.09315695,196.44286,-62.10691,26.137203,STU
42933778869000,0.914934,-3.34209728679837,9.4418252519076,1.22839586818438,0.1282817,0.63804877,-0.10598512,195.28856,-62.166603,26.069065,STU
42933783922000,0.919987,-3.71477702893082,9.24782283018868,1.68666236100629,0.0870483,0.54275376,-0.12339478,194.42107,-62.453182,25.761765,STU
42933788909000,0.924974,-3.98177653820505,9.05710853938305,1.96796540475192,-0.0009162979,0.38881573,-0.14752395,193.5889,-62.73903,25.448606,STU
42933793945000,0.93001,-4.09048523158819,8.9385527955903,2.06210591027758,-0.098043874,0.22143865,-0.18387043,193.0635,-63.272926,24.837662,STU
42933798928000,0.934993,-4.16174860983837,8.83794600808152,2.11240943534786,-0.19547687,0.048258353,-0.21777347,192.59389,-63.7955,24.234951,STU
42933803955000,0.94002,-4.15548296647746,8.77192962482596,2.04891976826604,-0.2751948,-0.1255328,-0.23243423,192.19455,-64.33824,23.588833,STU
42933808945000,0.94501,-4.08382855456785,8.73610231198458,1.89025674063404,-0.31978795,-0.3032946,-0.23701571,191.85658,-64.87004,22.95204,STU
42933813926000,0.949991,-3.90603624974113,8.74871082434341,1.63270719080297,-0.33505958,-0.43982297,-0.23915374,191.57153,-65.39618,22.313036,STU
42933818930000,0.954995,-3.67596577360444,8.78480010759673,1.32594649314695,-0.3200934,-0.52748215,-0.22143865,191.32945,-65.90553,21.69206,STU
42933823937000,0.960002,-3.40722309818433,8.87376420503292,0.977872546122319,-0.27672195,-0.5564982,-0.22632557,191.11487,-66.40132,21.096807,STU
42933828935000,0.965,-3.10736873031429,9.00590340719898,0.596701769010406,-0.23273966,-0.5546656,-0.22388211,190.91835,-66.88252,20.518234,STU
42933833921000,0.969986,-2.83675033205191,9.13681458098351,0.339165094880476,-0.17195857,-0.48075095,-0.20922135,190.68889,-67.32143,20.012278,STU
42933839036000,0.975101,-2.57387641318177,9.27064177607572,0.138424990963021,-0.113926366,-0.37323865,-0.18997909,190.44827,-67.75638,19.512074,STU
42933843937000,0.980002,-2.3819376641868,9.38088676240776,0.058087163425048,-0.06566802,-0.27275133,-0.14630222,190.11243,-68.119255,19.11736,STU
42933848927000,0.984992,-2.22253074474881,9.48232731380774,0.0435956228640453,-0.034208454,-0.160963,-0.10323623,189.73943,-68.47846,18.725258,STU
42933853966000,0.990031,-2.11562918545311,9.54066513074415,0.150993469015417,-0.030848695,-0.06536258,-0.06078109,189.24924,-68.752396,18.433704,STU
42933858951000,0.995016,-2.04014281674078,9.57369057100504,0.325555593455084,-0.033292156,0.002443461,-0.01160644,188.73343,-69.016495,18.15213,STU
42933863923000,0.999988,-2.00317721248075,9.60758972267005,0.493376849470157,-0.05131268,0.05497787,0.03359759,188.14156,-69.22258,17.925375,STU
42933868920000,1.004985,-1.99017424093832,9.64226413241554,0.658081255243185,-0.07086037,0.083383106,0.06811147,187.53996,-69.42027,17.705164,STU
42933873941000,1.010006,-2.03115916324396,9.65439329056178,0.791942728614221,-0.08460484,0.09621128,0.09407325,186.9356,-69.59262,17.49631,STU
42933878938000,1.015003,-2.15100891028285,9.63324339726969,0.878892565301513,-0.106901415,0.093462385,0.12003502,186.3317,-69.75447,17.294603,STU
42933883857000,1.019922,-2.26898787880083,9.61242364039481,0.964485170197407,-0.10842858,0.084910266,0.121256754,185.74768,-69.912056,17.079689,STU
42933888914000,1.024979,-2.39027668624042,9.59101979601257,1.05247903133962,-0.10476339,0.05955936,0.11911872,185.1741,-70.063126,16.871067,STU
42933893860000,1.029925,-2.5031866092236,9.57218271052098,1.09549507103183,-0.10751228,0.030848695,0.09773844,184.61092,-70.21881,16.657045,STU
42933898928000,1.034993,-2.60649501019663,9.55742458767484,1.04630059193189,-0.09101892,0.005497787,0.07880162,184.05989,-70.379135,16.443516,STU
42933903922000,1.039987,-2.65977528484302,9.55131799819785,1.00298768484302,-0.08124508,-0.02107485,0.061391957,183.58063,-70.59296,16.152508,STU
42933908976000,1.045041,-2.62534401701603,9.56049961528976,0.968556417016029,-0.0842994,-0.0421497,0.053450707,183.11118,-70.807175,15.862177,STU
42933913934000,1.049999,-2.59156676614816,9.56950682889121,0.934779166148155,-0.0888809,-0.063224554,0.05497787,182.65453,-71.04012,15.555376,STU
42933918922000,1.054987,-2.55758513498056,9.57856854358342,0.900797534980556,-0.10873401,-0.06169739,0.05589417,182.20099,-71.26903,15.248866,STU
42933923927000,1.059992,-2.5204344537446,9.58671077915838,0.884560303601417,-0.124005646,-0.049480084,0.064751714,181.75294,-71.49258,14.948374,STU
42933928936000,1.065001,-2.46455491719652,9.5890391387662,0.97769281589089,-0.129198,-0.0143553335,0.076052725,181.30067,-71.7107,14.65025,STU
42933934084000,1.070149,-2.40712472072028,9.59143211046935,1.07340976004465,-0.14874569,0.021991149,0.09285152,180.81532,-71.89516,14.385266,STU
42933938916000,1.074981,-2.35321976551958,9.59367819424356,1.16325130514003,-0.15668693,0.046731193,0.10445796,180.32701,-72.07791,14.122237,STU
42933944194000,1.080259,-2.29564259355038,9.59658118272455,1.26913646030528,-0.14874569,0.056505036,0.109650314,179.83838,-72.25744,13.861552,STU
42933948928000,1.084993,-2.25964218174519,9.60458103290983,1.45713895427034,-0.14813483,0.061086524,0.12889257,179.347,-72.427345,13.608435,STU
42933954681000,1.090746,-2.21589263186871,9.61430286183166,1.68560924319746,-0.14935656,0.043676864,0.14080444,178.8749,-72.568794,13.370896,STU
42933959018000,1.095083,-2.16387999403767,9.66347663903716,1.89812137923255,-0.14355333,0.014966198,0.15485434,178.40796,-72.70589,13.141259,STU
42933963917000,1.099982,-2.10245208975728,9.72490483935945,2.14383319371538,-0.14844026,-0.03573562,0.16798794,177.95616,-72.83743,12.918431,STU
42933968922000,1.104987,-2.04321547328729,9.8149686326302,2.35680270330409,-0.1695151,-0.1001819,0.17959438,177.53793,-72.94385,12.700041,STU
42933973935000,1.11,-1.98496351493373,9.91354843074482,2.55844396083629,-0.1881465,-0.13316862,0.19303341,177.1283,-73.044975,12.489046,STU
42933978936000,1.115001,-1.89247447353303,10.0395347620025,2.70131590032827,-0.2144137,-0.19822577,0.19547687,176.76805,-73.11732,12.284637,STU
42933983940000,1.120005,-1.77940368297087,10.1821020484202,2.80947052269183,-0.23243423,-0.27091873,0.21899518,176.421,-73.17833,12.094938,STU
42933988916000,1.124981,-1.64965595514173,10.318019306228,2.83431272681564,-0.25350907,-0.31673363,0.24251351,176.09756,-73.21028,11.91218,STU
42933993940000,1.130005,-1.51028200372439,10.4524162439479,2.81937965865922,-0.2764165,-0.3652974,0.2761111,175.79704,-73.229294,11.74632,STU
42933998924000,1.134989,-1.374393249395,10.6424512810304,2.72899921336846,-0.2968805,-0.408058,0.2941316,175.50648,-73.218994,11.604428,STU
42934003961000,1.140026,-1.2378873545765,10.8542706967213,2.61132180935792,-0.30115658,-0.4184427,0.32742378,175.22076,-73.19661,11.479818,STU
42934008942000,1.145007,-1.16764450841608,11.2808551430538,2.36342057006194,-0.2950479,-0.42088616,0.35460728,174.92958,-73.1521,11.39205,STU
42934013930000,1.149995,-1.12537509494642,11.8021774024186,2.05814158176187,-0.27366763,-0.39920044,0.3652974,174.63693,-73.1075,11.309675,STU
42934018921000,1.154986,-1.24231723302825,12.2277566386789,1.894222254039,-0.21777347,-0.32406402,0.36132678,174.29378,-73.05921,11.265313,STU
42934024832000,1.160897,-1.47884296957819,12.6726505352169,1.78722245167131,-0.1777618,-0.1908954,0.33414328,173.9335,-73.01717,11.212291,STU
42934028930000,1.164995,-1.65341155671387,13.0613467438988,1.83717141080647,-0.15485434,-0.025961773,0.2883284,173.46025,-73.00852,11.175946,STU
42934033925000,1.16999,-1.86960390561414,13.5609912211509,1.93806118031536,-0.12736541,0.15760323,0.23854288,172.95497,-73.01903,11.118766,STU
42934038912000,1.174977,-2.02817204549499,14.0926565157583,2.04240586188357,-0.10048734,0.33078352,0.1881465,172.40634,-73.08966,10.991332,STU
42934043938000,1.180003,-2.15756191501669,14.6459097252503,2.14948714927697,-0.080634214,0.43982297,0.15057829,171.83607,-73.17303,10.845842,STU
42934048932000,1.184997,-2.27236044991952,15.2046586995976,2.18822525006036,-0.051923547,0.46303585,0.10567969,171.28387,-73.33128,10.614844,STU
42934053950000,1.190015,-2.37388806885312,15.7751472442656,2.15921737336016,-0.016493361,0.39675698,0.070249505,170.73642,-73.49678,10.379627,STU
42934058934000,1.194999,-2.47263277381021,16.2400642061975,2.04580345237957,0.035124753,0.24465153,0.053145275,170.21904,-73.70528,10.104169,STU
42934063930000,1.199995,-2.56962674504296,16.6095656461048,1.85181550991408,0.083383106,0.043676864,0.058337633,169.74278,-73.91566,9.84083,STU
42934068921000,1.204986,-2.6428136455414,16.7438847762739,1.59074495461783,0.14660765,-0.15668693,0.080634214,169.2979,-74.16475,9.572118,STU
42934073926000,1.209991,-2.68574626457006,16.5769235949443,1.24251351214172,0.23487769,-0.23823744,0.101098195,168.88226,-74.4196,9.319253,STU
42934078935000,1.215,-2.69111643050329,16.2369497503012,0.950184559607007,0.27550024,-0.38637227,0.11484267,168.5235,-74.702675,9.082008,STU
42934083930000,1.219995,-2.6467785715729,15.6694253411808,0.732928865659468,0.36163223,-0.4841107,0.124005646,168.17763,-75.0016,8.859825,STU
42934088908000,1.224973,-2.57369906111995,15.0642384651607,0.548787891975819,0.4578435,-0.5412266,0.11026118,167.82697,-75.31812,8.660186,STU
42934094101000,1.230166,-2.41546688062361,14.3205467817372,0.448574216213808,0.54458636,-0.59223384,0.064446285,167.50815,-75.64545,8.464729,STU
42934098888000,1.234953,-2.26135418187002,13.6831926588339,0.401542297361125,0.6365216,-0.66248333,0.0030543262,167.20139,-75.98336,8.29397,STU
42934103934000,1.239999,-2.08555940035395,13.0892917051421,0.425298345431128,0.7257079,-0.7611381,-0.06169739,166.9236,-76.34019,8.115969,STU
42934108903000,1.244968,-1.92854422537258,12.561847549954,0.426791663116835,0.8246681,-0.8927795,-0.13133603,166.66069,-76.68551,7.9645925,STU
42934113933000,1.249998,-1.80002823438822,12.1364150550138,0.386907400264949,0.93645644,-1.0338894,-0.20280726,166.43472,-77.058685,7.800193,STU
42934118866000,1.254931,-1.68082813430936,11.7202333679185,0.329165403660089,1.0415252,-1.1893547,-0.28069258,166.25258,-77.419785,7.6592946,STU
42934123954000,1.260019,-1.59294823717377,11.2963424042011,0.174083309401655,1.1478158,-1.3206906,-0.34605515,166.10709,-77.809784,7.506669,STU
42934128862000,1.264927,-1.53356362026885,10.9349229694918,0.0262506225731719,1.2727377,-1.4266758,-0.4025602,165.98347,-78.202156,7.3736377,STU
42934133927000,1.269992,-1.5381882274764,10.6851994920393,-0.121733828656688,1.3753631,-1.5060883,-0.46944994,165.89188,-78.6187,7.2224517,STU
42934138886000,1.274951,-1.56621003856655,10.4509572764505,-0.288108277105802,1.4566082,-1.5748106,-0.54183745,165.77658,-79.03876,7.0910645,STU
42934143939000,1.280004,-1.69833724251585,10.2574847801073,-0.552362793406143,1.5399913,-1.6218473,-0.61819565,165.67963,-79.48541,6.9390607,STU
42934148884000,1.284949,-1.84193918,10.0792696,-0.81466708,1.6044376,-1.6487253,-0.7031059,165.56395,-79.94996,6.778211,STU
42934153911000,1.289976,-2.08003311525223,9.96974663442137,-1.10514175857567,1.6676621,-1.6300939,-0.79259765,165.4501,-80.43683,6.5912743,STU
42934158954000,1.295019,-2.33805624507469,9.86835312798985,-1.39487975575515,1.7189748,-1.5714508,-0.88331115,165.33493,-80.98595,6.362879,STU
42934163898000,1.299963,-2.7217195744899,9.8267512238602,-1.66760417539783,1.7434094,-1.4853189,-0.98471475,165.20564,-81.54971,6.1021767,STU
42934168947000,1.305012,-3.11521304772213,9.79002993397619,-1.93687928889108,1.758681,-1.4413365,-1.0913107,165.08287,-82.19018,5.7734194,STU
42934173957000,1.310022,-3.52594234222178,9.82307680694677,-2.09267318301683,1.7461584,-1.325883,-1.1407908,164.9098,-82.8252,5.427076,STU
42934179092000,1.315157,-3.94292031374061,9.85689822316439,-2.24131054415109,1.7321084,-1.1927143,-1.2373075,164.77415,-83.58025,4.957313,STU
42934183927000,1.319992,-4.28647366602428,9.88813051551359,-2.24577227357872,1.6963727,-1.0659598,-1.3301591,164.59831,-84.32425,4.474766,STU
42934189305000,1.32537,-4.66433382787071,9.92248161950666,-2.24891228488801,1.6447546,-0.92485,-1.421178,164.45467,-85.17603,3.8790255,STU
42934193934000,1.329999,-4.89476655032606,9.943430020981,-2.21120516223419,1.5980235,-0.77518797,-1.4947872,164.26205,-86.0234,3.2658994,STU
42934198911000,1.334976,-5.14252279566204,9.96595328607882,-2.17066328505812,1.5586227,-0.61911196,-1.568091,164.09332,-86.953964,2.555801,STU
42934203942000,1.340007,-5.32115038521432,9.92521445957678,-2.05006803621812,1.5137241,-0.4615087,-1.636508,163.87143,-87.87469,1.8339732,STU
42934208920000,1.344985,-5.48497614913185,9.87347981352867,-1.91642053071984,1.4813483,-0.28619036,-1.707063,163.59042,-88.78782,1.0994916,STU
42934213965000,1.35003,-5.66592405204704,9.79069777417247,-1.71964580753484,1.452943,-0.11484267,-1.7821994,163.30542,-90.304085,0.30041614,STU
42934218905000,1.35497,-5.85137038262195,9.69282348628049,-1.49298920518293,1.4059063,0.09773844,-1.8747455,162.95012,-90.77452,-0.51162803,STU
42934224000000,1.360065,-6.04512544033723,9.6364379735038,-1.25095778711784,1.3552046,0.30970868,-1.9737056,162.57999,-91.755936,-1.372181,STU
42934228950000,1.365015,-6.23397339753567,9.5925199079118,-1.01380002655642,1.3096951,0.49021935,-2.0891593,162.15079,-92.75644,-2.2491622,STU
42934233969000,1.370034,-6.44137377146853,9.59234418601399,-0.664817902811189,1.2541064,0.6178902,-2.221106,161.71388,-93.78847,-3.1817026,STU
42934238928000,1.374993,-6.65487150290709,9.61606613966034,-0.261544408442557,1.2076806,0.66950834,-2.3628268,161.24081,-94.835175,-4.1341057,STU
42934243968000,1.380033,-6.83802224540448,9.6929732917501,0.120962321285543,1.1673635,0.6273586,-2.5066855,160.7939,-95.921326,-5.149692,STU
42934248964000,1.385029,-7.00089299586504,9.79836048037645,0.485026723640368,1.1594223,0.47067168,-2.636189,160.35974,-97.025955,-6.186594,STU
42934253968000,1.390033,-6.98415315688747,10.0411642059523,0.821914090195308,1.1713341,0.22907446,-2.7327056,159.99904,-98.154884,-7.2793007,STU
42934258976000,1.395041,-6.87016182370569,10.3583578949054,1.14406374811409,1.2168436,-0.06414085,-2.737287,159.6964,-99.28422,-8.369372,STU
42934263963000,1.400028,-6.38291431342746,10.8348127197357,1.25251052027636,1.2654073,-0.33353242,-2.6068676,159.48972,-100.39376,-9.460557,STU
42934268940000,1.405005,-5.74816097951337,11.3741143000901,1.2763733589967,1.3307699,-0.45081854,-2.3845124,159.32643,-101.472595,-10.511668,STU
42934274010000,1.410075,-4.92951657818792,11.8089263481544,1.11492663633389,1.3500122,-0.6563747,-2.2562308,159.29053,-102.48177,-11.515707,STU
42934279381000,1.415446,-3.98976480395227,12.2212662488814,0.865604781288218,1.389413,-0.77396625,-2.019215,159.27234,-103.39683,-12.409408,STU
42934283958000,1.420023,-3.21349579065516,12.4177781788217,0.547126045545048,1.3833044,-0.8240572,-1.8182404,159.28642,-104.147804,-13.141532,STU
42934288914000,1.424979,-2.38910634382936,12.5286609390046,0.132520829950127,1.3677273,-0.8029824,-1.6572775,159.31795,-104.83469,-13.804524,STU
42934293935000,1.43,-1.72043307325988,12.415720657743,-0.414311279951709,1.3377949,-0.7021896,-1.5500705,159.27127,-105.307884,-14.231429,STU
42934298927000,1.434992,-1.16911195695016,12.1499048817957,-1.04439259325649,1.2895365,-0.50976706,-1.4972308,159.19101,-105.73964,-14.615937,STU
42934303927000,1.439992,-0.778788288621852,11.7508471991374,-1.6478526300813,1.237613,-0.25045475,-1.4996742,158.91167,-106.003624,-14.794823,STU
42934308953000,1.445018,-0.473363540789213,11.2783934820048,-2.23961305284553,1.185384,0.065973446,-1.5497651,158.56184,-106.26031,-14.96354,STU
42934313928000,1.449993,-0.292557726356255,10.5411816153771,-2.51410333556686,1.1499538,0.3830125,-1.6300939,157.96355,-106.44685,-15.007171,STU
42934318924000,1.454989,-0.180232828913235,9.64726218702925,-2.61238765015162,1.1273518,0.659429,-1.7412714,157.30151,-106.65991,-15.072858,STU
42934323928000,1.459993,-0.187836008181818,9.09883647727273,-2.38963094772727,1.1258247,0.86559606,-1.8628336,156.71724,-106.994514,-15.220826,STU
42934328940000,1.465005,-0.279143588462155,8.79127440478574,-1.94270431404686,1.1410962,0.97219205,-1.9975294,156.08252,-107.36269,-15.396668,STU
42934333928000,1.469993,-0.420516031182024,8.57860283024925,-1.45940423975642,1.1517864,0.9810496,-2.1444426,155.47874,-107.830444,-15.661238,STU
42934338915000,1.47498,-0.596367802212991,8.42980547771903,-0.949885058138217,1.1688906,0.8924741,-2.269059,154.86787,-108.32662,-15.951479,STU
42934343936000,1.480001,-0.848086980472828,8.33465363985263,-0.472430332465459,1.1685852,0.7134906,-2.3832908,154.24838,-108.823326,-16.276222,STU
42934349690000,1.485755,-1.23158268885477,8.29517534633098,0.0294978538286767,1.1349876,0.48441613,-2.4724772,153.66853,-109.33757,-16.63073,STU
42934353940000,1.490005,-1.56152188055361,8.29898972730919,0.232592213743857,1.1032226,0.204029,-2.5277603,153.10783,-109.82266,-17.004385,STU
42934358940000,1.495005,-1.98412693521212,8.32780428953966,0.347848135918163,1.0519099,-0.055283304,-2.54517,152.61444,-110.30813,-17.399263,STU
42934363926000,1.499991,-2.44030391862545,8.35362717808885,0.319074211282006,0.9941832,-0.17531833,-2.5503623,152.31715,-110.8465,-17.911415,STU
42934368922000,1.504987,-2.92866799378828,8.37688259405074,0.160937272981627,0.93828905,-0.37232238,-2.5525005,152.11687,-111.37287,-18.435324,STU
42934373927000,1.509992,-3.41805120625814,8.3803036581556,-0.0625661635982778,0.90194255,-0.50426924,-2.5158484,151.98718,-111.94174,-19.025663,STU
42934378945000,1.51501,-3.90886456482427,8.36105618383899,-0.3609037710772,0.8576548,-0.5390886,-2.488665,151.88373,-112.495964,-19.613134,STU
42934383925000,1.51999,-4.33957806407093,8.32709649036237,-0.614835400555127,0.8362745,-0.50579643,-2.453235,151.80545,-113.12234,-20.267696,STU
42934388916000,1.524981,-4.70810434556669,8.27642360235158,-0.822131366554549,0.81031275,-0.40469822,-2.420248,151.7147,-113.72659,-20.901005,STU
42934393911000,1.529976,-5.03554829834761,8.20729935618115,-1.00559986575887,0.8054258,-0.2761111,-2.3839016,151.5736,-114.40962,-21.586409,STU
42934398950000,1.535015,-5.30134860970012,8.10885485352917,-1.15326674823031,0.83260936,-0.14508049,-2.341141,151.39864,-115.072716,-22.241972,STU
42934403928000,1.539993,-5.50858734231223,7.99880533749508,-1.23745583299253,0.85154617,0.0027488936,-2.2999077,151.1574,-115.79324,-22.933483,STU
42934408948000,1.545013,-5.64564913468344,7.87119656242627,-1.24218209488793,0.88117313,0.12034045,-2.2382102,150.88446,-116.49054,-23.588196,STU
42934413858000,1.549923,-5.71591271092154,7.75879457524055,-1.22478534720762,0.9025534,0.20311269,-2.1749856,150.56413,-117.22655,-24.26261,STU
42934419052000,1.555117,-5.68630747767087,7.66011012092054,-1.17050884580895,0.9224065,0.2678644,-2.1132884,150.21275,-117.93812,-24.901009,STU
42934423947000,1.560012,-5.61641527365617,7.5473933362192,-1.16439883905432,0.91507614,0.27091873,-2.0436497,149.86598,-118.65677,-25.544342,STU
42934428940000,1.565005,-5.4799380718866,7.40181776833793,-1.22808811437542,0.9233228,0.29016098,-1.9773707,149.49458,-119.35254,-26.153704,STU
42934433859000,1.569924,-5.32337077014571,7.26921841724839,-1.30202382590647,0.9089675,0.33444872,-1.9126191,149.12456,-120.017624,-26.736147,STU
42934438912000,1.574977,-5.10199277860047,7.16262879828872,-1.40861323082853,0.87964594,0.398895,-1.8573358,148.74352,-120.656,-27.288677,STU
42934443939000,1.580004,-4.88175387824466,7.05658763175195,-1.51465418442901,0.8472701,0.48166725,-1.8054122,148.33969,-121.26862,-27.803463,STU
42934448928000,1.584993,-4.60365152436461,6.95157117805274,-1.61967075400344,0.799928,0.57543504,-1.7693712,147.91283,-121.85546,-28.291615,STU
42934453954000,1.590019,-4.31851414504109,6.84579452758456,-1.72544754853812,0.77182823,0.6927212,-1.7275269,147.45546,-122.41618,-28.746058,STU
42934458940000,1.595005,-4.04432079148352,6.76522581521555,-1.83123136646238,0.7348709,0.8054258,-1.6896533,146.92659,-122.92938,-29.131887,STU
42934463860000,1.599925,-3.7754738793956,6.69054620405748,-1.93578292605664,0.70921457,0.86070913,-1.6679676,146.38162,-123.42615,-29.498234,STU
42934468930000,1.604995,-3.5765490811153,6.57201263693824,-1.90511537275539,0.6936375,0.9633345,-1.6377298,145.73418,-123.863884,-29.772346,STU
42934473926000,1.609991,-3.38696041730937,6.45178546859959,-1.86349831130763,0.6747007,1.0387764,-1.6062702,145.08519,-124.28691,-30.032951,STU
42934478936000,1.615001,-3.21972881696475,6.33253750522072,-1.8063621629174,0.66614854,1.0934488,-1.5732834,144.39484,-124.677,-30.232887,STU
42934483860000,1.619925,-3.05885263013543,6.21553689196733,-1.74786175448155,0.6417139,1.1044444,-1.536937,143.71031,-125.051346,-30.420269,STU
42934489220000,1.625285,-2.98924645737851,6.12150356943896,-1.72425276949822,0.65393126,1.0867293,-1.4978416,143.03738,-125.40288,-30.57891,STU
42934493874000,1.629939,-2.93641707561241,6.04225915201501,-1.70664296025286,0.6612616,1.0989466,-1.4483615,142.36906,-125.73709,-30.721514,STU
42934498929000,1.634994,-2.91030896632871,5.97684479006604,-1.70871040673426,0.66614854,1.1172725,-1.3991868,141.77242,-126.06906,-30.871641,STU
42934503922000,1.639987,-2.88807058738722,5.91457742191424,-1.71315808252256,0.6618725,1.0873401,-1.3399329,141.20348,-126.3834,-31.008734,STU
42934508943000,1.645008,-2.90579247614445,5.82979245057886,-1.77990673700478,0.6658431,1.0812315,-1.2751812,140.65414,-126.69458,-31.136656,STU
42934513866000,1.649931,-2.93583804450345,5.73965558863516,-1.86503604779607,0.6609562,1.073901,-1.2162327,140.12944,-126.987885,-31.252764,STU
42934518923000,1.654988,-2.94787408410299,5.75810813641198,-1.92382044531206,0.6618725,1.0430524,-1.1505647,139.64726,-127.27315,-31.370543,STU
42934523916000,1.659981,-2.9567959914451,5.79379576578039,-1.97735193594552,0.659429,1.0262536,-1.069625,139.17947,-127.53625,-31.467398,STU
42934528935000,1.665,-2.96939978388034,5.81032265592022,-2.05975242997386,0.64965516,1.0027353,-1.0057896,138.73615,-127.815796,-31.576431,STU
42934533860000,1.669925,-2.98309880798722,5.81945533865815,-2.15107935271566,0.61453044,1.0201449,-0.93401295,138.30289,-128.0664,-31.6587,STU
42934538918000,1.674983,-2.99826700147394,5.80896081688523,-2.19381533733608,0.58368176,1.01312,-0.86254174,137.89406,-128.2998,-31.726675,STU
42934543907000,1.679972,-3.0138013535602,5.7882482753441,-2.20934974349193,0.54733527,0.9841039,-0.79259765,137.5027,-128.50768,-31.777073,STU
42934548927000,1.684992,-3.06168830499569,5.76564382185855,-2.15225007164322,0.5143485,0.9673051,-0.72326446,137.14711,-128.71663,-31.832083,STU
42934553952000,1.690017,-3.11695508148148,5.74261605843621,-2.07856113251029,0.4709771,0.89949906,-0.66828656,136.82933,-128.90247,-31.881804,STU
42934558957000,1.695022,-3.20461232544888,5.70365894947587,-1.95681841961598,0.41874814,0.79076505,-0.6026186,136.56087,-129.07506,-31.933746,STU
42934563919000,1.699984,-3.30325291996886,5.65927060211728,-1.81872160788791,0.38545597,0.745561,-0.5714644,136.30083,-129.23651,-31.980919,STU
42934568920000,1.704985,-3.42148772922609,5.61025325042784,-1.69616927003233,0.36041048,0.69913524,-0.50335294,136.10397,-129.36835,-32.02971,STU
42934573931000,1.709996,-3.54467781401407,5.56006464090131,-1.57754182509032,0.2864958,0.6337727,-0.42760566,135.93494,-129.47598,-32.075447,STU
42934578932000,1.714997,-3.63273393902439,5.49056224735772,-1.48745724735772,0.21044308,0.56413406,-0.34422258,135.80405,-129.56396,-32.124874,STU
42934583935000,1.72,-3.70577163780488,5.41265526697154,-1.40955026697154,0.14019357,0.4981606,-0.24709499,135.70612,-129.61864,-32.157616,STU
42934588916000,1.724981,-3.71233750865538,5.32002049972864,-1.45383849076448,0.1001819,0.4370741,-0.15332718,135.64566,-129.65733,-32.199917,STU
42934593931000,1.729996,-3.69436140610087,5.22115207645738,-1.54371905046318,0.06383542,0.40530908,-0.03940081,135.61299,-129.65744,-32.21506,STU
42934598922000,1.734987,-3.65098180784237,5.09777075599451,-1.66345498603078,0.043982297,0.37568212,0.065973446,135.61197,-129.65134,-32.22816,STU
42934604805000,1.74087,-3.57918256392511,4.93207996242525,-1.82914566425841,0.05009095,0.33536503,0.15882497,135.63774,-129.6198,-32.219505,STU
42934608916000,1.744981,-3.54936707063779,4.78546655361011,-1.930861738929,0.0571159,0.2938262,0.25411993,135.67116,-129.58365,-32.199074,STU
42934613903000,1.749968,-3.52542016877256,4.5891025284296,-2.04580653781588,0.07360926,0.23487769,0.30757064,135.7286,-129.53835,-32.172146,STU
42934618893000,1.754958,-3.72638814938088,4.28939895978207,-2.11822943516592,0.080634214,0.15271631,0.3576616,135.78664,-129.4968,-32.134247,STU
42934623916000,1.759981,-4.1123663164735,3.90342099171867,-2.1563506963051,0.07391469,0.0421497,0.37904188,135.87424,-129.45013,-32.1007,STU
42934628886000,1.764951,-4.45024871480751,3.70390688416901,-2.16916388537089,0.047036625,-0.08032878,0.38759398,135.95961,-129.42764,-32.08479,STU
42934633934000,1.769999,-4.75438284656338,3.66305306467606,-2.1600852588169,0.01985312,-0.21868975,0.37293324,136.08192,-129.40424,-32.084087,STU
42934638866000,1.774931,-5.09949973317813,3.65800054333267,-2.13408622304339,-0.0290161,-0.35979962,0.3594942,136.17401,-129.48325,-32.189793,STU
42934643912000,1.779977,-5.52558324332277,3.70587505571627,-2.08142415944125,-0.092240654,-0.50640726,0.34300083,136.30357,-129.55836,-32.31428,STU
42934648872000,1.784937,-5.96479675098905,3.79144516079928,-2.06948166225525,-0.15882497,-0.64751714,0.33017266,136.41968,-129.66397,-32.48787,STU
42934653829000,1.789894,-6.43670668494829,3.93921492854704,-2.12191616019681,-0.21288654,-0.77824235,0.32467487,136.57301,-129.76291,-32.676567,STU
42934658799000,1.794864,-6.86433849284002,4.1031022148592,-2.19219657094068,-0.2666427,-0.8353582,0.31764993,136.71956,-129.89873,-32.925697,STU
42934663852000,1.799917,-7.22193573031756,4.29639808436189,-2.29367689738366,-0.28863382,-0.93645644,0.31764993,136.91786,-130.03,-33.190456,STU
42934668790000,1.804855,-7.55651090797303,4.50577560809203,-2.42404528782229,-0.33322698,-1.0235047,0.32345316,137.103,-130.19846,-33.50927,STU
42934674156000,1.810221,-7.89285385263784,4.77077320864736,-2.62279343502578,-0.3585779,-1.1044444,0.33841935,137.31743,-130.36263,-33.8305,STU
42934678807000,1.814872,-8.16044756291013,5.00171623223966,-2.79559700684736,-0.36468655,-1.1685852,0.35521814,137.53513,-130.55176,-34.179478,STU
42934683845000,1.81991,-8.40822612914883,5.25408290004755,-2.98372498231098,-0.38759398,-1.1997393,0.40042216,137.7726,-130.72119,-34.51447,STU
42934688857000,1.824922,-8.65723109583419,5.51417300800328,-3.1734507009645,-0.41508293,-1.201572,0.46089783,138.00354,-130.90295,-34.854427,STU
42934693868000,1.829933,-8.9132790050277,5.79976555930638,-3.37041097124974,-0.4447099,-1.1988231,0.5317582,138.24916,-131.0627,-35.172836,STU
42934698815000,1.83488,-9.15590120840734,6.06977518590882,-3.58698748340241,-0.4700608,-1.178359,0.6230826,138.47736,-131.20767,-35.460052,STU
42934703925000,1.83999,-9.38286659325044,6.32088524511545,-3.86224262036708,-0.50762904,-1.1178834,0.73761976,138.70294,-131.31761,-35.707424,STU
42934709682000,1.845747,-9.55124459864147,6.56317011509155,-4.20179975862375,-0.569021,-1.0051788,0.8671232,138.9024,-131.39723,-35.911022,STU
42934713933000,1.849998,-9.57529133136444,6.69542681027761,-4.48635214873006,-0.61666846,-0.7312057,1.0118983,139.04517,-131.43509,-36.04686,STU
42934718913000,1.854978,-9.50941677652746,6.86244504734923,-4.70779715406134,-0.66675943,-0.410196,1.1120802,139.11148,-131.45091,-36.130634,STU
42934723980000,1.860045,-9.17870819407243,7.06625364841905,-4.61935184390205,-0.6582073,-0.14355333,1.1685852,139.12054,-131.43771,-36.158276,STU
42934728869000,1.864934,-8.85961716197797,7.26290260255963,-4.53401355273001,-0.63407815,-0.009773844,1.1795808,139.0347,-131.40688,-36.12097,STU
42934733944000,1.870009,-8.44898171920046,7.60221194476264,-4.08753874651163,-0.64934975,0.015271631,1.1957687,138.91302,-131.35315,-36.049812,STU
42934738917000,1.874982,-8.0187689515664,7.98208042312127,-3.52460092906977,-0.7333437,-0.040011674,1.2024882,138.78267,-131.29056,-35.972733,STU
42934743966000,1.880031,-7.67134077967332,8.40950774894132,-3.01858297277677,-0.8527679,-0.1518,1.244638,138.7284,-131.10944,-35.795208,STU
42934748925000,1.88499,-7.37445987967332,8.85004074894132,-2.55410782277677,-0.93370754,-0.24098633,1.2965615,138.69283,-130.92097,-35.621273,STU
42934753951000,1.890016,-7.15953688066406,9.2363879312686,-2.2179063984282,-0.9651671,-0.25625798,1.3524556,138.81941,-130.56522,-35.35718,STU
42934759037000,1.895102,-6.98286294902344,9.5987961781064,-1.9415702343843,-0.99296147,-0.23854288,1.3860532,138.96483,-130.20102,-35.09658,STU
42934763921000,1.899986,-6.85357899370771,10.0201453545332,-1.75119493991881,-1.0338894,-0.14385876,1.3918564,139.19914,-129.70581,-34.748283,STU
42934768909000,1.904974,-6.75661880159482,10.5141810576068,-1.62191452306205,-1.058324,0.034208454,1.3884968,139.39507,-129.21605,-34.3905,STU
42934773939000,1.910004,-6.72722290388634,11.0303508916873,-1.52575068559027,-1.1319333,0.23335053,1.3860532,139.62347,-128.63599,-33.968815,STU
42934779434000,1.915499,-6.78300013532529,11.6173407531419,-1.46466127876142,-1.2046263,0.33475417,1.3686435,139.814,-128.07352,-33.55396,STU
42934783930000,1.919995,-6.82863697473376,12.0976148963812,-1.4146780261495,-1.2696834,0.22724187,1.3371841,140.05673,-127.44112,-33.09166,STU
42934788911000,1.924976,-6.87919682729016,12.6296979718871,-1.35930289686569,-1.2599095,-0.028099801,1.289842,140.30084,-126.836624,-32.654396,STU
42934793932000,1.929997,-6.99676461160733,12.8304228620654,-1.25170642809702,-1.2064588,-0.3747658,1.2269229,140.58469,-126.25389,-32.256683,STU
42934798931000,1.934996,-7.18116552333958,12.6908760320633,-1.0922245373933,-1.0943651,-0.68477994,1.183246,140.9261,-125.704056,-31.893728,STU
42934803929000,1.939994,-7.17097120186028,12.2681178062203,-1.08087639185156,-1.0012082,-0.8970556,1.1759156,141.40247,-125.070404,-31.4783,STU
42934808949000,1.945014,-7.01725608782095,11.6346255186513,-1.17869513615929,-0.9633345,-0.95539325,1.2140946,141.91116,-124.46326,-31.08245,STU
42934813928000,1.949993,-6.7668235714008,10.9408910256635,-1.34737769603383,-1.0021244,-0.8735373,1.2577715,142.41779,-123.900055,-30.734915,STU
42934818921000,1.954986,-6.42284989444931,10.1832189288422,-1.58444064736075,-1.0922271,-0.75625116,1.2797627,142.91615,-123.3477,-30.38896,STU
42934823924000,1.959989,-6.13059596501039,9.4724387475052,-1.78427157972973,-1.2119566,-0.6246097,1.2996159,143.3357,-122.84155,-30.063503,STU
42934828936000,1.965001,-5.90107897948025,8.81881507474013,-1.93894596351351,-1.3301591,-0.4972443,1.2944235,143.70724,-122.33963,-29.734896,STU
42934833938000,1.970003,-5.76060273273526,8.38270364527614,-1.98253053194094,-1.427592,-0.38728857,1.276403,143.97531,-121.87077,-29.409765,STU
42934838914000,1.974979,-5.69825741921316,8.13777465800393,-1.92909156556397,-1.4737124,-0.33628133,1.2629639,144.21605,-121.40662,-29.085066,STU
42934843935000,1.98,-5.62507515310857,8.02767737998763,-1.81109764324157,-1.4743233,-0.34697145,1.2620476,144.40605,-120.984856,-28.780287,STU
42934848945000,1.98501,-5.5360310423755,8.1315618142592,-1.59343486408908,-1.4691309,-0.410196,1.287704,144.59529,-120.56567,-28.476631,STU
42934853922000,1.989987,-5.34525153009455,8.34862393719733,-1.32429882864786,-1.4395039,-0.43982297,1.3381003,144.75702,-120.15674,-28.184164,STU
42934858950000,1.995015,-5.02692683642094,8.70766484072565,-0.987466750695672,-1.4037683,-0.5009095,1.3686435,144.94682,-119.75737,-27.899563,STU
42934863893000,1.999958,-4.71398352678915,9.06063603924206,-0.656328930226766,-1.3845261,-0.54305923,1.434617,145.1576,-119.3103,-27.576267,STU
42934868925000,2.00499,-4.50074474500239,9.24920230435198,-0.494565363711143,-1.3637567,-0.552833,1.498147,145.37512,-118.8695,-27.2507,STU
42934873937000,2.010002,-4.30792248656145,9.40529674184601,-0.366017223376375,-1.357648,-0.5729916,1.5522085,145.60834,-118.4241,-26.916176,STU
42934878929000,2.014994,-4.16475021713229,9.54711660353328,-0.268083705201315,-1.3503176,-0.5564982,1.5903877,145.89638,-117.85503,-26.471613,STU
42934883866000,2.019931,-4.03848705063681,9.68309200924404,-0.180670753142975,-1.3384057,-0.5555819,1.6032158,146.19075,-117.291954,-26.026525,STU
42934888906000,2.024971,-3.97375946207149,9.80288079990834,-0.109729492751054,-1.3200798,-0.535118,1.6035212,146.48665,-116.68274,-25.53284,STU
42934893871000,2.029936,-3.92581840505958,9.91619611659029,-0.0443552758592117,-1.3081679,-0.52106804,1.5888605,146.77782,-116.08847,-25.047144,STU
42934898928000,2.034993,-3.94439461138812,10.0154649880989,-0.016065494127116,-1.2968669,-0.516792,1.5457945,147.06506,-115.47953,-24.544489,STU
42934903966000,2.040031,-4.00379494182826,10.1045652770083,-0.0111154629722992,-1.2589933,-0.48716503,1.493871,147.33353,-114.89445,-24.055086,STU
42934908986000,2.045051,-4.08828335437126,10.1421648796407,-0.0293841674512974,-1.2229522,-0.453262,1.4361442,147.58913,-114.31048,-23.565065,STU
42934913945000,2.05001,-4.18307656952096,10.156384144012,-0.0578221235827345,-1.1963795,-0.4251622,1.3591752,147.83015,-113.76269,-23.102737,STU
42934918963000,2.055028,-4.31504358453085,10.136446704142,-0.109991610194421,-1.1597277,-0.3585779,1.2996159,148.0367,-113.242836,-22.65947,STU
42934924087000,2.060152,-4.46713908354466,10.099574790927,-0.174516996308819,-1.1346822,-0.301462,1.2382239,148.23181,-112.75922,-22.246042,STU
42934928973000,2.065038,-4.59420839613318,10.0088020867137,-0.240300052232641,-1.0781772,-0.21594086,1.1792754,148.37898,-112.3196,-21.86587,STU
42934933962000,2.070027,-4.70999293571805,9.87288166768518,-0.310777522646718,-1.0290025,-0.129198,1.1340714,148.50534,-111.906,-21.505371,STU
42934938952000,2.075017,-4.77794452646593,9.7175053415214,-0.369224980622029,-0.9764681,-0.03604105,1.0983357,148.56651,-111.54146,-21.18596,STU
42934943985000,2.08005,-4.82091206901743,9.55040934270998,-0.421740895873613,-0.9431759,0.04428773,1.0876455,148.60506,-111.19419,-20.877827,STU
42934948968000,2.085033,-4.80576222944005,9.4234599585295,-0.425270458345187,-0.91996306,0.1255328,1.0842859,148.5869,-110.889885,-20.606834,STU
42934953961000,2.090026,-4.75786383977762,9.31808280106181,-0.401321253510969,-0.8894198,0.17287487,1.1129965,148.55707,-110.59013,-20.335506,STU
42934958938000,2.095003,-4.66566516253946,9.24399518064325,-0.362707388786504,-0.88270026,0.23884831,1.1252137,148.48314,-110.32152,-20.091364,STU
42934964664000,2.100729,-4.53041242151736,9.17907433948303,-0.308606371466062,-0.88056225,0.28985557,1.1713341,148.40369,-110.044334,-19.835436,STU
42934968963000,2.105028,-4.37768376094244,9.15658915487022,-0.263222316042525,-0.8854492,0.32711834,1.2302825,148.29626,-109.75918,-19.57103,STU
42934973984000,2.110049,-4.17504546293458,9.14277262857964,-0.20795732174217,-0.90377516,0.37110063,1.2843442,148.17624,-109.47054,-19.301376,STU
42934978961000,2.115026,-3.95061655107838,9.1310036580747,-0.116090445775907,-0.9388999,0.37598756,1.348485,148.06314,-109.1508,-19.00141,STU
42934983962000,2.120027,-3.70371641816938,9.12092641946344,0.00987907239032088,-0.9642508,0.34880406,1.3927728,147.95181,-108.83083,-18.69991,STU
42934988955000,2.12502,-3.46250911797235,9.08150295889401,0.117735587929954,-0.9957104,0.30451632,1.4376713,147.85405,-108.46658,-18.356533,STU
42934993967000,2.130032,-3.22362033732719,9.02399245308756,0.215060664162212,-1.0253373,0.2452624,1.4721853,147.77455,-108.10353,-18.013426,STU
42934998950000,2.135015,-3.01626496372436,8.93597139921094,0.290810501834824,-1.0348058,0.15882497,1.4862351,147.72517,-107.70086,-17.632156,STU
42935004001000,2.140066,-2.84323343329826,8.80874279379274,0.34170208216728,-1.0360274,0.06688975,1.4963144,147.69992,-107.30197,-17.252558,STU
42935008930000,2.144995,-2.68937273098479,8.69315286649319,0.340421362938351,-1.044885,-0.021380283,1.4905112,147.70064,-106.86472,-16.833511,STU
42935013969000,2.150034,-2.54448433466773,8.58207171221978,0.296954813785028,-1.0323622,-0.10934488,1.4764613,147.73222,-106.44138,-16.42431,STU
42935018957000,2.155022,-2.41333103953534,8.48134891800078,0.239037811567747,-1.0054842,-0.17837265,1.4587462,147.77768,-106.006516,-15.999983,STU
42935023949000,2.160014,-2.29199239994143,8.38801157789926,0.16903475776064,-0.9764681,-0.23762658,1.4376713,147.84882,-105.590805,-15.589867,STU
42935028931000,2.164996,-2.19085742094838,8.31516788815526,0.110229088145558,-0.94897914,-0.27855456,1.4110987,147.9308,-74.82341,-15.17619,STU
42935034638000,2.170703,-2.09790697070828,8.25502286794718,0.0555523782004802,-0.91690874,-0.30848694,1.3918564,148.02882,-75.22046,-14.774686,STU
42935038917000,2.174982,-2.04381216316783,8.24431239078575,0.0371273202084389,-0.89675015,-0.3286455,1.3683381,148.12035,-75.61312,-14.372348,STU
42935043976000,2.180041,-1.9932465769097,8.26116767839571,0.0347194345858059,-0.8677341,-0.3436117,1.3435981,148.22089,-75.98756,-13.98365,STU
42935048962000,2.185027,-1.94341063836787,8.27777974876994,0.0323462941006411,-0.8436049,-0.34513888,1.314582,148.30934,-76.3561,-13.595759,STU
42935053963000,2.190028,-1.89342477221311,8.2944417952885,0.0299660142036678,-0.81489426,-0.34605515,1.3142766,148.40358,-76.71411,-13.214229,STU
42935058914000,2.194979,-1.84523310673636,8.34980403580235,0.0509746062954927,-0.79473567,-0.34116822,1.3038919,148.4852,-77.05557,-12.844706,STU
42935063971000,2.200036,-1.79746712570273,8.45011308975244,0.0987405723661111,-0.7690793,-0.33322698,1.2953397,148.56778,-77.386604,-12.482226,STU
42935068976000,2.205041,-1.76321967751727,8.54665261241366,0.145722309503843,-0.7272351,-0.31795537,1.2971723,148.64334,-77.727196,-12.105881,STU
42935074001000,2.210066,-1.74449278968771,8.64028705156144,0.192539558409378,-0.6921103,-0.30940324,1.2990049,148.72029,-78.0541,-11.739665,STU
42935078906000,2.214971,-1.74255554562481,8.71404805301754,0.242235030825488,-0.6395759,-0.3100141,1.310306,148.78201,-78.39565,-11.354688,STU
42935083967000,2.220032,-1.76657114666535,8.7620791547914,0.29987239809236,-0.57940567,-0.29657507,1.31672,148.8392,-78.726166,-10.979193,STU
42935088881000,2.224946,-1.81063257293199,8.78460389983098,0.361082179971664,-0.5235115,-0.27672195,1.3228287,148.8793,-79.05891,-10.595585,STU
42935093975000,2.23004,-1.89308758292404,8.76520258694572,0.433836581635017,-0.47616947,-0.24709499,1.314582,148.91504,-79.379776,-10.223471,STU
42935098856000,2.234921,-1.97209482748061,8.74661251859217,0.503548838116922,-0.43554693,-0.20830505,1.3057245,148.93471,-79.69031,-9.857817,STU
42935104314000,2.240379,-2.06044179342812,8.72582485354941,0.581502023095049,-0.40286562,-0.16615535,1.2925909,148.94746,-79.9877,-9.505094,STU
42935108918000,2.244983,-2.14070886835369,8.69074308202443,0.635372931355439,-0.37690386,-0.12308934,1.2776246,148.93803,-80.2822,-9.155252,STU
42935113966000,2.250031,-2.23913982720574,8.62043521931355,0.672870492394803,-0.3652974,-0.08124508,1.2748758,148.91971,-80.5656,-8.815267,STU
42935118912000,2.254977,-2.3445757168282,8.54447090756546,0.701065759424273,-0.36285394,-0.04642576,1.2534955,148.87335,-80.80455,-8.513243,STU
42935123985000,2.26005,-2.47576126107816,8.44842440691451,0.708093548575148,-0.35735616,-0.016493361,1.2217305,148.81996,-81.03003,-8.223667,STU
42935128924000,2.264989,-2.60348162438401,8.35491491219442,0.714935703240272,-0.35277468,0.010995574,1.1997393,148.75539,-81.223595,-7.9642806,STU
42935133953000,2.270018,-2.73352934802546,8.25970145826703,0.721902537783885,-0.36560285,0.03604105,1.1600331,148.6872,-81.39312,-7.7263618,STU
42935138940000,2.275005,-2.87304876149494,8.16255369282311,0.730510514373635,-0.36254853,0.05222898,1.1200215,148.60004,-81.55488,-7.4942484,STU
42935143976000,2.280041,-3.07890913374032,8.0476547583383,0.749660311792734,-0.3576616,0.06627888,1.0775663,148.51085,-81.695656,-7.281005,STU
42935148964000,2.285029,-3.31909461572991,7.928355864061,0.767344130396125,-0.37751472,0.065973446,1.0216721,148.40837,-81.76968,-7.1404767,STU
42935153957000,2.290022,-3.80065849894495,7.77242106430079,0.776516802016114,-0.39522982,0.046731193,0.990518,148.31096,-81.83524,-7.009073,STU
42935158950000,2.295015,-4.27225144765244,7.62293109731707,0.783639747021342,-0.39492437,-0.014966198,0.9211848,148.19467,-81.85678,-6.929825,STU
42935164006000,2.300071,-4.52321058066057,7.61801033504065,0.74427361284248,-0.4147775,-0.10293079,0.84849185,148.09491,-81.86144,-6.862266,STU
42935168967000,2.305032,-4.76002479689869,7.62312237109383,0.70132925455351,-0.42852196,-0.21777347,0.7644979,147.99738,-81.77121,-6.9144416,STU
42935174222000,2.310287,-4.89380492818746,7.75194763288373,0.602232816550162,-0.43279803,-0.3313944,0.68539083,147.92822,-81.66379,-6.9841127,STU
42935179099000,2.315164,-5.00754567152966,7.87267736126453,0.505422409845609,-0.44318274,-0.44623706,0.61208695,147.8684,-81.50472,-7.1148815,STU
42935183967000,2.320032,-4.9925505181225,8.00763380903368,0.349044509594725,-0.42638394,-0.52534413,0.5687156,147.83365,-81.339935,-7.2559342,STU
42935188925000,2.32499,-4.97727813303772,8.14508534314203,0.189775481360566,-0.4147775,-0.5543602,0.54275376,147.79857,-81.15818,-7.425427,STU
42935193916000,2.329981,-4.96190409633782,8.28345174224142,0.0294463728658733,-0.38973203,-0.5381723,0.5326745,147.77505,-80.97803,-7.598463,STU
42935198868000,2.334933,-4.94665019336489,8.42073693726049,-0.129629913502734,-0.36010507,-0.48533243,0.539394,147.75053,-80.80175,-7.770664,STU
42935203914000,2.339979,-4.8945571561344,8.54323553822441,-0.24248451547164,-0.30818152,-0.39553526,0.5381723,147.71207,-80.63182,-7.94568,STU
42935209025000,2.34509,-4.82414420316482,8.65891366461159,-0.333015455754213,-0.2773328,-0.27977628,0.54061574,147.65166,-80.46894,-8.11618,STU
42935213978000,2.350043,-4.71679827647224,8.71641679084355,-0.350980423975283,-0.24709499,-0.14844026,0.5479461,147.52791,-80.36047,-8.265843,STU
42935218925000,2.35499,-4.59703743216927,8.75633691789158,-0.346544834747683,-0.2144137,-0.019547688,0.5448918,147.37308,-80.25691,-8.416877,STU
42935223910000,2.359975,-4.42553076023203,8.77852773606188,-0.270693702584596,-0.20433442,0.10048734,0.50793445,147.17088,-80.173836,-8.552956,STU
42935228972000,2.365037,-4.21722568099688,8.78894319937695,-0.145710665919003,-0.21288654,0.18203785,0.45662177,146.94556,-80.08895,-8.693384,STU
42935233927000,2.369992,-4.02578923291995,8.79818124013529,0.00851871993235627,-0.20861048,0.23304509,0.40225476,146.69936,-80.02184,-8.815311,STU
42935238916000,2.374981,-3.8372601069053,8.80715853410372,0.17460398294814,-0.21533,0.24465153,0.35124752,146.4454,-79.94017,-8.949728,STU
42935243979000,2.380044,-3.6662029356959,8.82247793862602,0.393028282823203,-0.23609942,0.22449298,0.3032946,146.19455,-79.87879,-9.049314,STU
42935248969000,2.385034,-3.5100939816274,8.84140012532172,0.639018152235201,-0.25320363,0.21227567,0.28252518,145.94208,-79.81146,-9.1546755,STU
42935253950000,2.390015,-3.36234225929573,8.88877968934646,0.819878666696508,-0.2574797,0.16157386,0.24923302,145.7271,-79.757515,-9.22864,STU
42935258953000,2.395018,-3.21936181442356,8.95550427185915,0.958093148164727,-0.2742785,0.116980694,0.22540927,145.51746,-79.697914,-9.30491,STU
42935264055000,2.40012,-3.08100818819964,9.03593691089109,1.04158754749444,-0.29046643,0.07422013,0.20708331,145.35034,-79.6422,-9.355413,STU
42935268963000,2.405028,-2.95279236577086,9.12141386138614,1.08432617149929,-0.3191771,0.030543262,0.21563543,145.19891,-79.58521,-9.403272,STU
42935273972000,2.410037,-2.87594631860967,9.19560086018237,1.10994149716639,-0.33628133,-0.007330383,0.22785273,145.06236,-79.54453,-9.417994,STU
42935278978000,2.415043,-2.83364073482694,9.26140921884499,1.12404330934405,-0.3417791,-0.02687807,0.23976462,144.93532,-79.50491,-9.429609,STU
42935283957000,2.420022,-2.81815869050099,9.32816681920636,1.09655389637276,-0.35979962,-0.023823744,0.2565634,144.80939,-79.49194,-9.401913,STU
42935288938000,2.425003,-2.8226764513685,9.3959322887584,1.03782418442087,-0.3717115,0.017715093,0.2706133,144.68025,-79.48124,-9.372905,STU
42935293971000,2.430036,-2.827420973871,9.48520221757021,0.980672497810925,-0.37384954,0.06383542,0.29138273,144.53873,-79.48787,-9.320827,STU
42935298964000,2.435029,-2.83234001110997,9.59833750591503,0.926564197623701,-0.36957347,0.1160644,0.29138273,144.38675,-79.49117,-9.273486,STU
42935303968000,2.440033,-2.86473936524607,9.68092507762557,0.880216906321664,-0.3643811,0.1740966,0.3100141,144.2137,-79.51208,-9.214208,STU
42935308971000,2.445036,-2.92308053871131,9.7344046347032,0.841322706067986,-0.3576616,0.23548855,0.31795537,144.02876,-79.52985,-9.161576,STU
42935313865000,2.44993,-2.95430532146835,9.77736152858734,0.816632093817524,-0.33444872,0.31245756,0.32559118,143.81006,-79.56165,-9.10154,STU
42935318967000,2.455032,-2.96337541214962,9.81364236485985,0.803026891498979,-0.32895094,0.36926803,0.33322698,143.58438,-79.59216,-9.043233,STU
42935323932000,2.459997,-2.97433877397882,9.83353804326778,0.813304169770045,-0.3032946,0.43218717,0.34238997,143.33014,-79.62804,-8.993519,STU
42935328972000,2.465037,-2.98894308260212,9.82866985567322,0.861985074822996,-0.29993483,0.48838675,0.33628133,143.06734,-79.65793,-8.95017,STU
42935333856000,2.469921,-2.99223193436145,9.79218323826506,0.911877256036627,-0.30024028,0.54733527,0.32834008,142.78908,-79.6925,-8.909398,STU
42935338960000,2.475025,-2.97809791296386,9.70266817937349,0.968413164524337,-0.31764993,0.59956425,0.30848694,142.50311,-79.71885,-8.8778925,STU
42935343863000,2.479928,-2.94201954223939,9.60961267502759,1.04426203651048,-0.32925636,0.6078109,0.30207285,142.21678,-79.74206,-8.847447,STU
42935348970000,2.485035,-2.85369231965486,9.49674987087388,1.17184583093208,-0.34422258,0.6264423,0.29810223,141.91888,-79.75686,-8.825859,STU
42935353891000,2.489956,-2.7554889792015,9.40386678060773,1.28943524361294,-0.3662137,0.60903263,0.28771752,141.64189,-79.757614,-8.810955,STU
42935359530000,2.495595,-2.61210244579605,9.33482854076114,1.41157928860262,-0.4007276,0.5500842,0.26939157,141.37735,-79.750854,-8.800657,STU
42935363891000,2.499956,-2.47997400819852,9.30459146534851,1.49549952775115,-0.42852196,0.46120325,0.26267207,141.1378,-79.73625,-8.778625,STU
42935368968000,2.505033,-2.27604951459956,9.32401324645496,1.56832973662872,-0.43249258,0.32711834,0.25686884,140.93353,-79.71558,-8.760347,STU
42935373926000,2.509991,-2.07780625848748,9.35666092222318,1.60282024605524,-0.4288274,0.18051068,0.25778514,140.77438,-79.70238,-8.71606,STU
42935378972000,2.515037,-1.87823819578422,9.42318363873354,1.54877056602426,-0.42210788,0.03145956,0.26175576,140.65804,-79.68766,-8.67038,STU
42935384281000,2.520346,-1.66484718746035,9.50014991080425,1.48600798007091,-0.39187005,-0.09010262,0.2773328,140.58865,-79.70608,-8.578413,STU
42935388951000,2.525016,-1.39779028766561,9.72965178428811,1.29406087146856,-0.3484986,-0.2049453,0.29046643,140.5623,-79.72601,-8.4841585,STU
42935393954000,2.530019,-1.11169057253219,9.9755185665236,1.08842674206009,-0.30298916,-0.28588495,0.29749137,140.55177,-79.80353,-8.330221,STU
42935398964000,2.535029,-0.95904139582689,10.1413211305352,1.03745120378552,-0.27305678,-0.34513888,0.3100141,140.56929,-79.885124,-8.17255,STU
42935403934000,2.539999,-0.83478039685109,10.2894784324731,1.01833409554172,-0.226631,-0.37048978,0.31429017,140.60155,-79.97213,-8.017996,STU
42935409004000,2.545069,-0.688439861526489,10.50462969999,1.07591022233862,-0.19211712,-0.39370266,0.32070425,140.63808,-80.120384,-7.804276,STU
42935413946000,2.550011,-0.542057939862317,10.7265636139878,1.14674018125312,-0.18600847,-0.4120286,0.33628133,140.68134,-80.26669,-7.592954,STU
42935418965000,2.55503,-0.454110213013339,10.9786578801596,1.31848816052936,-0.15332718,-0.4560109,0.3643811,140.73628,-80.43062,-7.360896,STU
42935423941000,2.560006,-0.379032726396387,11.2339212970276,1.50868445856528,-0.14446963,-0.52442783,0.38759398,140.80424,-80.58492,-7.1317186,STU
42935429549000,2.565614,-0.31194250428171,11.4593901259636,1.57986852782936,-0.124005646,-0.61269784,0.4025602,140.89638,-80.75985,-6.8683753,STU
42935433865000,2.56993,-0.261253216573231,11.6295613558164,1.62693716185179,-0.099265605,-0.6927212,0.42302418,141.00517,-80.93272,-6.603247,STU
42935438922000,2.574987,-0.265472350557918,11.7626246755066,1.6318859032024,-0.06963864,-0.77854776,0.4352415,141.15314,-81.0986,-6.3201623,STU
42935443939000,2.580004,-0.306342813249937,11.8563862174131,1.607844469327,-0.032070424,-0.82741696,0.4361578,141.31203,-81.26114,-6.041512,STU
42935448922000,2.584987,-0.346936298518889,11.9495123412559,1.58396596324744,-0.0012217305,-0.88025683,0.4343252,141.4933,-81.426796,-5.7450037,STU
42935453924000,2.589989,-0.387684565288967,12.0429935516637,1.55999640928196,0.041233405,-0.9098838,0.42149702,141.68019,-81.588264,-5.459315,STU
42935458946000,2.595011,-0.56433433869469,12.1168799535398,1.52338545562148,0.09468412,-0.89675015,0.40775254,141.86197,-81.7488,-5.1788406,STU
42935463925000,2.59999,-0.813681887610619,12.1792165929204,1.48022913193886,0.13683382,-0.8323039,0.37384954,142.0361,-81.89883,-4.916493,STU
42935468924000,2.604989,-1.08651452182555,12.2544817831141,1.49912316794918,0.18509217,-0.7134906,0.33444872,142.16913,-82.05596,-4.673453,STU
42935473984000,2.610049,-1.37469886570733,12.3374447187782,1.55152033879077,0.20433442,-0.56077427,0.30390546,142.27301,-82.202065,-4.4482784,STU
42935478964000,2.615029,-1.689466063911,12.4660231170248,1.62409020447159,0.20525073,-0.3848451,0.2843578,142.31195,-82.33268,-4.2770176,STU
42935483963000,2.620028,-2.04451719020613,12.6539907510088,1.72329562934889,0.20677789,-0.20952678,0.2602286,142.30853,-82.45579,-4.1263,STU
42935488916000,2.624981,-2.38964570455664,12.8433496840862,1.79884113988781,0.19242255,-0.034208454,0.23915374,142.24272,-82.53728,-4.04011,STU
42935493941000,2.630006,-2.7353806396024,13.037529511367,1.86041037150871,0.19303341,0.15760323,0.2144137,142.12509,-82.61517,-3.9711838,STU
42935498909000,2.634974,-3.07201205127549,13.2375954954201,1.92931102697725,0.19608775,0.34208453,0.18906279,141.955,-82.66137,-3.9610097,STU
42935503918000,2.639983,-3.40746813113365,13.4454840426475,2.00490676814735,0.20250183,0.47433686,0.17287487,141.74934,-82.70486,-3.960674,STU
42935508943000,2.645008,-3.70216486995815,13.6088163265245,2.08639073497409,0.23457226,0.56046885,0.14202617,141.51607,-82.727196,-4.0296254,STU
42935513932000,2.649997,-3.95924417243922,13.7325953254285,2.17208391865285,0.2959642,0.5714644,0.12461651,141.27101,-82.756256,-4.0996714,STU
42935518923000,2.654988,-4.16882442699464,13.7980272985874,2.22956833792499,0.38820487,0.50640726,0.11209377,141.02206,-82.76754,-4.223232,STU
42935523942000,2.660007,-4.33739496170482,13.8120746312713,2.26234590386751,0.5140431,0.3744604,0.10048734,140.79413,-82.79492,-4.3463235,STU
42935528927000,2.664992,-4.39649335367046,13.7116728891813,2.24267590232165,0.643852,0.20005837,0.10903945,140.5995,-82.81754,-4.495679,STU
42935533929000,2.669994,-4.33795961021713,13.4865429258389,2.16613171478522,0.7644979,0.019547688,0.113926366,140.44846,-82.85713,-4.640785,STU
42935538902000,2.674967,-4.21309821232805,13.1684533869579,2.05391488455319,0.8524625,-0.06841691,0.11362094,140.32034,-82.90096,-4.7979455,STU
42935543941000,2.680006,-3.9597246141342,12.666773658301,1.87148583458994,0.8915578,-0.26083946,0.105068825,140.27621,-82.94955,-4.9437747,STU
42935548925000,2.68499,-3.6874174592121,12.1270536358934,1.57642315146041,0.9282097,-0.4569272,0.07513642,140.25946,-83.00739,-5.08566,STU
42935553924000,2.689989,-3.38736854745324,11.5317185882411,1.13825665386192,0.926988,-0.63163465,0.02443461,140.2931,-83.047806,-5.2282443,STU
42935558901000,2.694966,-3.12345314065848,10.9824888718099,0.63367939765829,0.9279043,-0.78801614,-0.04184427,140.38324,-83.10306,-5.352809,STU
42935563930000,2.699995,-2.90295799259692,10.4852017962205,0.0331820659127216,0.9602802,-0.8912524,-0.14508049,140.5083,-83.13163,-5.497412,STU
42935568862000,2.704927,-2.71722135194521,10.1212567439361,-0.540456008945116,1.0009027,-0.9459248,-0.27397305,140.64677,-83.17872,-5.6340346,STU
42935573941000,2.710006,-2.57842015190716,9.95932201055836,-1.10491458960145,1.0732902,-0.9651671,-0.410196,140.80167,-83.19286,-5.799025,STU
42935578880000,2.714945,-2.4693485016207,9.8891350191451,-1.56368980909866,1.1597277,-0.95478237,-0.5516113,140.9127,-83.22576,-5.9700255,STU
42935583930000,2.719995,-2.42809501285186,10.054149069946,-1.78829232829116,1.2278391,-0.94042706,-0.6966918,141.02164,-83.20216,-6.1792855,STU
42935588896000,2.724961,-2.39971071545967,10.2219886515792,-1.96573928991149,1.2809844,-0.93676186,-0.8216137,141.11455,-83.15731,-6.4174323,STU
42935593997000,2.730062,-2.43410603707503,10.4234478801046,-1.92151661627439,1.3261884,-0.9593639,-0.9401216,141.20122,-83.03912,-6.6932635,STU
42935598897000,2.734962,-2.48158386253759,10.597020038801,-1.8654725556407,1.3588698,-1.0073168,-1.039998,141.27512,-82.86386,-6.993537,STU
42935603920000,2.739985,-2.5982399557183,10.6810121608303,-1.74415022263071,1.3771957,-1.0607675,-1.1285735,141.34558,-82.61976,-7.321088,STU
42935608931000,2.744996,-2.72217707318379,10.7588249142164,-1.63879701748004,1.3961325,-1.106277,-1.2021828,141.4292,-82.32202,-7.665323,STU
42935613905000,2.74997,-2.90026094841871,10.792516640194,-1.64842321772254,1.4291192,-1.1285735,-1.2687671,141.50879,-98.0281,-8.027964,STU
42935618909000,2.754974,-3.07598146020879,10.8224475743827,-1.67514522991367,1.4511104,-1.0946705,-1.3203852,141.58173,-98.42791,-8.412156,STU
42935623908000,2.759973,-3.22976418877735,10.8272528769323,-1.80970504214013,1.4785993,-1.0341948,-1.3784174,141.6405,-98.86516,-8.810518,STU
42935628887000,2.764952,-3.38290104309493,10.8278910099697,-1.93247178328565,1.5170839,-0.95203346,-1.4333953,141.68513,-99.35982,-9.245125,STU
42935633912000,2.769977,-3.53726316208062,10.8028596705678,-1.98670710708279,1.557401,-0.84971356,-1.4902058,141.6936,-99.88015,-9.688074,STU
42935638895000,2.77496,-3.69033509022107,10.7780375483312,-2.04048912071088,1.5769486,-0.8023715,-1.5253305,141.68108,-100.44697,-10.159237,STU
42935643913000,2.779978,-3.91753443409584,10.6947969465589,-2.01383662595149,1.5864171,-0.711658,-1.5879441,141.61365,-101.040955,-10.643706,STU
42935649020000,2.785085,-4.16347681841846,10.5983490711891,-1.9704350820351,1.5696182,-0.6203337,-1.6493362,141.52081,-101.642586,-11.12763,STU
42935653850000,2.789915,-4.44630217765758,10.4474397961306,-1.82831340332848,1.5378532,-0.5290093,-1.704314,141.39226,-102.28653,-11.640459,STU
42935658808000,2.794873,-4.74757009172041,10.2795196488454,-1.6603935138964,1.4895949,-0.44623706,-1.7718146,141.22826,-102.94179,-12.162219,STU
42935663849000,2.799914,-5.05198262427352,10.0697040305832,-1.50159308600894,1.4153748,-0.33200526,-1.861001,141.03145,-103.64382,-12.731865,STU
42935668828000,2.804893,-5.35236267915058,9.8565312972973,-1.34655824671815,1.3109168,-0.1908954,-1.9550742,140.79184,-104.34636,-13.3069725,STU
42935673881000,2.809946,-5.64355431394931,9.64805213580124,-1.16562986660347,1.1899655,-0.041233405,-2.068695,140.56615,-105.11354,-13.959553,STU
42935678826000,2.814891,-5.92707442350828,9.44486256934744,-0.986067107523448,1.0613784,0.101098195,-2.1960607,140.29086,-105.88295,-14.624828,STU
42935684079000,2.820144,-6.18986999577896,9.2935817485172,-0.72519603855773,0.9468411,0.21410827,-2.3310618,140.01819,-106.71485,-15.370284,STU
42935688817000,2.824882,-6.42311387658165,9.16350313404508,-0.482981211881178,0.84238315,0.28527406,-2.4691174,139.7062,-107.552956,-16.134514,STU
42935693848000,2.829913,-6.53957711315843,9.20097629788093,-0.157517700349142,0.76144356,0.267559,-2.5842655,139.41707,-108.44451,-16.973415,STU
42935698795000,2.83486,-6.63519064253279,9.26312529414733,0.172348698940464,0.7333437,0.18478674,-2.6658158,139.11853,-109.343155,-17.82636,STU
42935703913000,2.839978,-6.14621839707419,9.89855566144201,0.586787077951933,0.7266242,0.047647487,-2.706744,138.87646,-110.27379,-18.736446,STU
42935708922000,2.844987,-5.59483631803933,10.5912008666287,1.00146273626389,0.7733554,-0.11911872,-2.6691756,138.66582,-111.19366,-19.636297,STU
42935713926000,2.849991,-5.03634986330735,11.0053137864699,1.06785665835189,0.8585711,-0.2660318,-2.545781,138.5302,-112.08066,-20.523092,STU
42935718943000,2.855008,-4.47455527264291,11.3530916119154,1.05002191239792,0.9505063,-0.3866777,-2.3722951,138.44037,-112.93567,-21.375626,STU
42935723983000,2.860048,-3.86135339911073,11.6106042642388,0.882791841668431,1.040609,-0.4373795,-2.1792617,138.44965,-113.59786,-22.054197,STU
42935728900000,2.864965,-3.23821708564472,11.8149929084268,0.643507509790388,1.1047498,-0.43401974,-1.9920316,138.48518,-114.2089,-22.674232,STU
42935733928000,2.869993,-2.73473067888041,11.7914084657506,0.242609526581171,1.1630874,-0.4071417,-1.8249599,138.53627,-114.6617,-23.123163,STU
42935738935000,2.875,-2.27596207430025,11.6937982110941,-0.206397981186768,1.1716396,-0.29077184,-1.758681,138.55891,-115.08255,-23.533094,STU
42935743938000,2.880003,-1.93191823169056,11.4375542752798,-0.747496788576478,1.1771374,-0.111177474,-1.647809,138.51208,-115.349205,-23.755037,STU
42935748911000,2.884976,-1.6186543834675,11.1429921488317,-1.30856644734734,1.1585059,0.14049901,-1.5885551,138.40514,-115.6049,-23.958952,STU
42935754508000,2.890573,-1.42190832488161,10.727460972573,-1.83078964149566,1.1123856,0.66828656,-1.5723672,138.1078,-115.81071,-24.061052,STU
42935758977000,2.895042,-1.29945723988753,10.3769976364444,-2.22347748817088,0.97402465,0.8622363,-1.5885551,137.84084,-115.99746,-24.159246,STU
42935763926000,2.899991,-1.28031197785161,10.0203726511628,-2.39173067607973,0.9254609,1.2617421,-1.6621643,137.32573,-116.241516,-24.239048,STU
42935768925000,2.90499,-1.30240247396641,9.67134363372093,-2.46683815988372,0.81122905,1.6426166,-1.7660115,136.76212,-116.47752,-24.323042,STU
42935773988000,2.910053,-1.39885186961326,9.34269316152096,-2.29894089324017,0.7431176,1.9437732,-1.8933768,136.10666,-116.81349,-24.469463,STU
42935778940000,2.915005,-1.54783958379374,9.03957990575236,-1.95472780776731,0.7189884,2.1255057,-2.0442605,135.36862,-117.17326,-24.632229,STU
42935783924000,2.919989,-1.70986743896381,8.85421613796449,-1.50755773899292,0.7290677,2.1786509,-2.198504,134.57916,-117.610176,-24.861427,STU
42935788912000,2.924977,-1.87671407899486,8.71517739225769,-1.02092179025905,0.77946407,2.1041253,-2.3313673,133.76855,-118.07858,-25.115719,STU
42935793939000,2.930004,-2.04266314213156,8.64070376362291,-0.571735095813674,0.8396343,1.9065105,-2.4654522,133.0015,-118.60006,-25.442633,STU
42935798927000,2.934992,-2.20618024820983,8.60092943593302,-0.147474316037561,0.9120218,1.6190983,-2.5537221,132.28189,-119.14569,-25.79631,STU
42935803915000,2.93998,-2.37961359364354,8.56364894993768,0.19213493831533,0.9841039,1.2760975,-2.6083946,131.70068,-119.716324,-26.219732,STU
42935808936000,2.945001,-2.56440287303698,8.52868916836311,0.446844380582676,1.0155635,0.9068295,-2.6218336,131.21227,-120.29389,-26.668165,STU
42935813925000,2.94999,-2.73299881381822,8.48384859084107,0.517357777711264,1.035722,0.573297,-2.6083946,130.88101,-120.8698,-27.168764,STU
42935818918000,2.954983,-2.89043279144967,8.43137053187668,0.45056759783498,1.0146471,0.28710666,-2.5735753,130.64606,-121.43073,-27.677969,STU
42935824332000,2.960397,-3.05592976969666,8.32421706651214,0.237344215186939,0.9615019,0.084910266,-2.5094345,130.52591,-121.97633,-28.21651,STU
42935828939000,2.965004,-3.19376412486143,8.20416717988512,-0.024985783926232,0.8924741,-0.021685716,-2.4251351,130.46634,-122.49184,-28.741274,STU
42935833923000,2.969988,-3.30068905083082,8.05809047054381,-0.314085253323263,0.8029824,-0.03940081,-2.3463335,130.44278,-123.00848,-29.282612,STU
42935838918000,2.974983,-3.37746538872734,7.90002192239426,-0.607641667409366,0.75747293,-0.03176499,-2.309376,130.44415,-123.50007,-29.8048,STU
42935843937000,2.980002,-3.43044073857631,7.76167890631023,-0.862918800279764,0.67011917,0.02076942,-2.2360723,130.38957,-123.98699,-30.305357,STU
42935848928000,2.984993,-3.45520387648948,7.64776826505025,-1.07092936560978,0.60048056,0.11209377,-2.1853704,130.31598,-124.45558,-30.784416,STU
42935853909000,2.989974,-3.47412016217362,7.54807190623374,-1.2244611021293,0.5519168,0.20586158,-2.1410828,130.1977,-124.95804,-31.27098,STU
42935858952000,2.995017,-3.48807983142885,7.45966066761731,-1.33148528167454,0.5317582,0.2874121,-2.1114557,130.05038,-125.434525,-31.72727,STU
42935863928000,2.999993,-3.49775588286934,7.39245500778297,-1.38419403426133,0.51159966,0.36071593,-2.101682,129.83397,-125.91873,-32.169556,STU
42935868922000,3.004987,-3.50261531583012,7.34872000965251,-1.37447516833977,0.5149594,0.39645153,-2.1114557,129.59906,-126.390335,-32.59349,STU
42935873908000,3.009973,-3.51187737688716,7.32851243939689,-1.36271722311284,0.5235115,0.4071417,-2.1206186,129.32132,-126.86788,-33.00885,STU
42935878945000,3.01501,-3.52595471392996,7.33320498307393,-1.34863988607004,0.54275376,0.41172317,-2.1444426,129.02728,-127.34363,-33.417355,STU
42935883924000,3.019989,-3.54099862507424,7.35014798609186,-1.36938102556424,0.5503896,0.41263947,-2.155438,128.77914,-127.8445,-33.86284,STU
42935888917000,3.024982,-3.55756562841022,7.38328184448624,-1.43564886591764,0.5525276,0.43890667,-2.1636846,128.5132,-128.34152,-34.298935,STU
42935893907000,3.029972,-3.57412267760839,7.41639579469412,-1.5018768898238,0.5375614,0.45356745,-2.1771238,128.25977,-128.84016,-34.73915,STU
42935898930000,3.034995,-3.59078922232231,7.44972873495347,-1.56854289464957,0.5195409,0.5177083,-2.1633792,127.97798,-129.32278,-35.15498,STU
42935903909000,3.039974,-3.60813713326816,7.48261010900381,-1.61434679995112,0.50793445,0.6026186,-2.1429152,127.678795,-129.79544,-35.557236,STU
42935908947000,3.045012,-3.62700424379705,7.51562774943787,-1.62849713284779,0.4868596,0.6765333,-2.1077905,127.36118,-130.24727,-35.9354,STU
42935913868000,3.049933,-3.64230806602833,7.52602180371275,-1.64855904739619,0.46670106,0.7290677,-2.0766363,127.028625,-130.70538,-36.31721,STU
42935918931000,3.054996,-3.65178287568149,7.49285977205667,-1.68172093064973,0.47769663,0.7996226,-2.019215,126.66972,-131.13918,-36.66291,STU
42935923979000,3.060044,-3.65697309763314,7.45350380014793,-1.69646897152367,0.4831944,0.87689704,-1.9593502,126.30899,-131.56299,-36.995125,STU
42935928964000,3.065029,-3.65255923409763,7.40053752990015,-1.66998574422152,0.5002986,0.9077458,-1.8863518,125.94742,-131.96237,-37.296463,STU
42935933904000,3.069969,-3.64254518039177,7.34566029655961,-1.63104334979616,0.52198434,0.94225967,-1.8530598,125.55081,-132.3577,-37.579765,STU
42935938931000,3.074996,-3.59467536420404,7.27385577221836,-1.50658198766034,0.5317582,0.960891,-1.777007,125.16446,-132.71594,-37.82276,STU
42935943900000,3.079965,-3.55167555342861,7.19655564737675,-1.39451868960011,0.5534439,0.9062186,-1.7061466,124.82844,-133.08936,-38.090652,STU
42935948963000,3.085028,-3.54038945445743,7.07015124462083,-1.3629176124808,0.5858198,0.86834496,-1.6371188,124.490776,-133.43845,-38.3276,STU
42935953953000,3.090018,-3.52926608217495,6.9455693821377,-1.33177217008985,0.6062838,0.8542951,-1.570229,124.2086,-133.76881,-38.56012,STU
42935958994000,3.095059,-3.51802902412364,6.81971423809413,-1.3003084075462,0.59864795,0.8200866,-1.5018122,123.956085,-134.07411,-38.773308,STU
42935963882000,3.099947,-3.5071330233788,6.6976789387319,-1.26979960546064,0.59681535,0.75716746,-1.4355333,123.74299,-134.36897,-38.98211,STU
42935968957000,3.105022,-3.4899943272865,6.5805538482295,-1.26035928182162,0.58123827,0.70402217,-1.3634512,123.54933,-134.63516,-39.167953,STU
42935974078000,3.110143,-3.47142102950199,6.46447049465063,-1.2557159573755,0.5644395,0.65301496,-1.3035865,123.38468,-134.88051,-39.340714,STU
42935978962000,3.115027,-3.39662264858447,6.37245092296296,-1.20192570475901,0.52503866,0.5873469,-1.2311989,123.258385,-135.13373,-39.53683,STU
42935983864000,3.119929,-3.30135015214612,6.28670586518518,-1.13047135730086,0.4905248,0.46028697,-1.1664472,123.17776,-135.36537,-39.72618,STU
42935988961000,3.125026,-3.15592100353689,6.12683535945382,-1.18592763517922,0.46273044,0.3576616,-1.0980303,123.1196,-135.58759,-39.914097,STU
42935993966000,3.130031,-2.99684491397686,5.94503397864593,-1.2859183851318,0.40653083,0.30298916,-1.0412198,123.09551,-135.78192,-40.091206,STU
42935998964000,3.135029,-2.9370286823051,5.81608735937314,-1.3673651433049,0.34483343,0.2611449,-0.9801333,123.13431,-135.95348,-40.26405,STU
42936003954000,3.140019,-2.93228877623487,5.71654829252133,-1.43846447677048,0.28619036,0.22632557,-0.9166033,123.19708,-136.09727,-40.420803,STU
42936009658000,3.145723,-2.97506844123314,5.67161901999797,-1.47639277000304,0.20861048,0.21655174,-0.84788096,123.24673,-136.23434,-40.566162,STU
42936014007000,3.150072,-3.02575230732177,5.66317170163269,-1.48906374755096,0.1469131,0.19425514,-0.7831292,123.32108,-136.3458,-40.696293,STU
42936018955000,3.15502,-3.14354578076191,5.60637218285714,-1.56236933485714,0.083383106,0.13805555,-0.7156286,123.400566,-136.44958,-40.82529,STU
42936023970000,3.160035,-3.29449002095238,5.52403877857143,-1.66757285857143,0.04153884,0.07513642,-0.65118235,123.49938,-136.52873,-40.93729,STU
42936028960000,3.165025,-3.47846656570226,5.43457821304577,-1.75882261446607,0.011301007,0.051923547,-0.59498274,123.61735,-136.60072,-41.04806,STU
42936033966000,3.170031,-3.69030684494477,5.33874583492898,-1.83952370582851,-0.036957346,0.017104227,-0.56169057,123.76648,-136.65138,-41.152287,STU
42936038966000,3.175031,-3.87439215662177,5.25634787993314,-1.898229302222,-0.055283304,-0.045814894,-0.49571714,123.906,-136.71802,-41.265152,STU
42936044085000,3.18015,-4.04791020155344,5.17922884391899,-1.94642878151608,-0.0852157,-0.11362094,-0.42852196,124.063324,-136.76544,-41.36926,STU
42936048964000,3.185029,-4.21560347198776,5.10836179309897,-1.96049787728411,-0.13622294,-0.20830505,-0.36377025,124.234955,-136.84254,-41.508537,STU
42936053957000,3.190022,-4.38858028596605,5.03739677177442,-1.95606257792413,-0.1777618,-0.3295618,-0.2959642,124.44794,-136.89572,-41.635258,STU
42936059013000,3.195078,-4.57008303286979,4.97289000414033,-1.99654632003793,-0.21197024,-0.4569272,-0.22937989,124.68551,-136.97012,-41.79026,STU
42936063990000,3.200055,-4.75587740012642,4.917653955689,-2.08693277180784,-0.2657264,-0.5897904,-0.1600467,124.974144,-137.01538,-41.934765,STU
42936068965000,3.20503,-4.93742620772187,4.90588493647799,-2.24606912002096,-0.32345316,-0.7162395,-0.081855945,125.30848,-137.0794,-42.111237,STU
42936073993000,3.210058,-5.11769044821304,4.92751663027853,-2.45998266197963,-0.3753767,-0.81061816,-0.005497787,125.6819,-137.11612,-42.27261,STU
42936079567000,3.215632,-5.31752992245682,4.95149735049416,-2.69712547878107,-0.42943826,-0.8698721,0.069027774,126.06444,-137.16684,-42.44955,STU
42936083962000,3.220027,-5.47509979854248,4.97040572246182,-2.88410837792752,-0.4886922,-0.88208944,0.15577064,126.468956,-137.184,-42.599087,STU
42936088963000,3.225028,-5.69234357421759,5.03558781217089,-3.1267821869846,-0.53969944,-0.84238315,0.24495697,126.87902,-137.1726,-42.72017,STU
42936093973000,3.230038,-5.94022717451565,5.13569482975658,-3.39373385226031,-0.5842926,-0.7651087,0.33475417,127.28421,-137.12996,-42.80726,STU
42936098957000,3.235022,-6.22257211871345,5.21969590116959,-3.58166964912281,-0.63132924,-0.63621616,0.44104472,127.561195,-137.12964,-42.896873,STU
42936103968000,3.240033,-6.53650816446625,5.29104486250372,-3.70534136752899,-0.675617,-0.50243664,0.5479461,127.815895,-137.09918,-42.94874,STU
42936109069000,3.245134,-6.92334774400554,5.30394493866944,-3.70919081787942,-0.70616025,-0.3585779,0.6545421,127.967064,-137.06973,-42.969543,STU
42936114018000,3.250083,-7.3550271964657,5.26640764823285,-3.6106553018711,-0.71837753,-0.2415972,0.7693848,128.09383,-137.00645,-42.946693,STU
42936118957000,3.255022,-7.87090479579688,5.19358530882114,-3.43176027125462,-0.73426,-0.1441642,0.8668178,128.16344,-136.96358,-42.930668,STU
42936123975000,3.26004,-8.47773248173537,5.08522316708758,-3.17169123066655,-0.7467828,-0.12675454,0.947452,128.23413,-136.89342,-42.88428,STU
42936128962000,3.265027,-9.17399689060629,4.93200756976162,-2.86921213546315,-0.71959925,-0.13561209,0.9795224,128.29199,-136.88092,-42.89347,STU
42936133962000,3.270027,-10.1017600341787,4.66618777004463,-2.45745220294982,-0.6973027,-0.23915374,0.9987647,128.38812,-136.84683,-42.89081,STU
42936138954000,3.275019,-11.053519069278,4.48670452803274,-2.06784842356036,-0.6239988,-0.41783184,0.98654735,128.4769,-136.87311,-42.965603,STU
42936143977000,3.280042,-12.042509251291,4.41171010533957,-1.70225008067816,-0.5207626,-0.6453791,0.9233228,128.61841,-136.91086,-43.061134,STU
42936149320000,3.285385,-12.7861982289793,4.6319908026328,-1.3592238005006,-0.4279111,-0.90316427,0.8167268,128.77156,-137.04846,-43.292404,STU
42936153954000,3.290019,-13.0906426209326,5.1544827870585,-1.1123771288069,-0.3924809,-1.1459832,0.74189585,129.00414,-137.19368,-43.5464,STU
42936158979000,3.295044,-13.2757792629296,5.85608675073187,-0.861579311792259,-0.44776422,-1.4004086,0.7770206,129.31941,-137.41978,-43.929565,STU
42936164001000,3.300066,-13.009832155264,6.97723695218476,-0.663422582905779,-0.60139686,-1.6820174,0.94042706,129.75522,-137.61488,-44.310055,STU
42936168857000,3.304922,-12.6372467152613,7.95941936621455,-0.622602364516741,-0.7632761,-2.0329595,1.142318,130.44098,-137.70721,-44.652256,STU
42936173976000,3.310041,-12.0513617980651,8.82429682367448,-0.83184691537513,-0.8399397,-2.3405302,1.3161092,131.23947,-137.75182,-44.96146,STU
42936178864000,3.314929,-11.3795014567137,9.62560652988937,-1.21535832250076,-0.8576548,-2.402533,1.4850134,132.27158,-137.55472,-45.061665,STU
42936183965000,3.32003,-10.3680673282249,10.3940983501472,-2.12267453337055,-0.8512407,-2.134974,1.6676621,133.29648,-137.30833,-45.091366,STU
42936188885000,3.32495,-9.35914176597398,11.0665582681103,-3.0802202498155,-0.8857546,-1.6398678,1.853976,134.35208,-136.85338,-44.883266,STU
42936193961000,3.330026,-8.2403791417751,11.599976466207,-4.26034904243542,-0.93859446,-1.0170907,2.0335703,135.23615,-136.36148,-44.589226,STU
42936198896000,3.334961,-7.26636020842105,12.0439167860287,-5.24901918729187,-0.9850202,-0.29718593,2.1743748,135.88293,-135.70325,-44.04186,STU
42936203966000,3.340031,-6.62051692421053,12.2669419621053,-5.76941107073684,-1.0308352,0.40775254,2.2363777,136.28418,-135.03151,-43.437675,STU
42936208976000,3.345041,-6.06650493930611,12.3949009191885,-6.05499836082175,-1.0641272,0.9502009,2.2030854,136.36345,-134.21011,-42.614864,STU
42936214043000,3.350108,-5.92172635299633,12.0681146216861,-5.21528204190606,-1.0424415,1.2052372,2.05098,136.28195,-133.42744,-41.803524,STU
42936219001000,3.355066,-5.78006220637627,11.7483580669167,-4.39362948434064,-0.9388999,1.1450669,1.8542814,136.08234,-132.61072,-40.925514,STU
42936224017000,3.360082,-5.61626710303757,11.2193419832134,-3.05729803822942,-0.79259765,1.0173961,1.6707164,135.81303,-131.8588,-40.095886,STU
42936228884000,3.364949,-5.45326131338929,10.6651225707434,-1.66010610436651,-0.6713409,0.61727935,1.5919148,135.66803,-131.15776,-39.333603,STU
42936233971000,3.370036,-5.14891443017694,10.0296481471904,-0.591158743678787,-0.6264423,0.12156218,1.4816537,135.70848,-130.52399,-38.68883,STU
42936238888000,3.374953,-4.82387754580012,9.4024639073498,0.351906243914058,-0.5726862,-0.35063666,1.4214834,135.88223,-129.9235,-38.092163,STU
42936243976000,3.380041,-4.50514955928644,8.67747801845056,0.870228171449541,-0.5751296,-0.70463306,1.4046847,136.39049,-129.36723,-37.62746,STU
42936248864000,3.384929,-4.20452550122324,7.9569354969419,1.22334195522936,-0.6395759,-0.9071349,1.3952162,136.99696,-128.83524,-37.203224,STU
42936253956000,3.390021,-4.20454718781956,7.28849744045017,1.20671409579474,-0.7733554,-0.9618073,1.3683381,137.76,-128.30713,-36.83166,STU
42936258941000,3.395006,-4.28856618601334,6.65614506507966,1.08731891304187,-0.93431836,-0.893085,1.2962561,138.52933,-127.795906,-36.47692,STU
42936264011000,3.400076,-4.49498479860556,6.31413602810417,0.938365080775146,-1.0852021,-0.8332202,1.2290609,139.24844,-127.276405,-36.119583,STU
42936268940000,3.405005,-4.76118228396391,6.14473757319799,0.77864652891418,-1.1695015,-0.89766645,1.1624765,139.9681,-126.78063,-35.781845,STU
42936274009000,3.410074,-5.01907855291939,6.46669136602008,0.626523294638854,-1.1621711,-1.0659598,1.1475104,140.60934,-126.37039,-35.51406,STU
42936278961000,3.415026,-5.26408197492933,6.99830273320987,0.48321939445365,-1.0861185,-1.2779301,1.1743884,141.27544,-125.97499,-35.253452,STU
42936283957000,3.420022,-5.42728664887188,7.70299006809025,0.270944142415391,-0.9599747,-1.4666874,1.235475,141.93398,-125.64251,-35.040756,STU
42936288983000,3.425048,-5.54364351007252,8.5077929991942,0.0188372132554392,-0.83108217,-1.5925257,1.2959507,142.6329,-125.31386,-34.82048,STU
42936293967000,3.430032,-5.46507870518166,9.52845500734564,-0.55227773469327,-0.7189884,-1.6145169,1.3662001,143.36806,-124.975525,-34.57562,STU
42936299110000,3.435175,-5.27929051042287,10.7018559324002,-1.31498854018761,-0.64904433,-1.5323554,1.4269812,144.09602,-124.63129,-34.31072,STU
42936303912000,3.439977,-5.15320628671329,11.1735817958042,-1.66024994433566,-0.62125,-1.3439035,1.4886786,144.79883,-124.23112,-33.97453,STU
42936309079000,3.445144,-5.04445151848152,11.3268274795205,-1.82338189020979,-0.6310238,-1.0952814,1.5329664,145.43681,-123.82501,-33.620274,STU
42936313966000,3.450031,-4.99615099209393,11.258316539274,-1.85514589335521,-0.6627888,-0.8023715,1.5653422,145.9234,-123.27427,-33.10251,STU
42936318962000,3.455027,-4.97652596432527,11.0718789547785,-1.82080218441345,-0.72021013,-0.4746423,1.5674802,146.30432,-122.73074,-32.58482,STU
42936324038000,3.460103,-4.99620538059056,10.7581309262287,-1.68080286093104,-0.78954333,-0.3231477,1.5451837,146.61887,-122.16539,-32.041042,STU
42936328972000,3.465037,-5.03256346044051,10.3990940394345,-1.49901212948928,-0.8191703,-0.034208454,1.5213599,146.77267,-121.61308,-31.502287,STU
42936334610000,3.470675,-5.0290028040575,9.93322447303497,-1.22922797946987,-0.883922,0.20372356,1.46852,146.88316,-121.099625,-31.002949,STU
42936338957000,3.475022,-5.00778231797329,9.55125572351922,-0.995802437551228,-0.9147707,0.3680463,1.4052955,146.92133,-120.60892,-30.52267,STU
42936343971000,3.480036,-4.96265612441176,9.12157087823529,-0.721071599305882,-0.9184359,0.45875978,1.3594806,146.9054,-120.17584,-30.10014,STU
42936348969000,3.485034,-4.90634458941176,8.6992335082353,-0.444206105505882,-0.895223,0.48349985,1.3136657,146.85873,-119.77212,-29.705278,STU
42936353965000,3.49003,-4.82964676396833,8.36649088916378,-0.168744192091044,-0.84329945,0.44715336,1.2883148,146.81848,-119.4198,-29.362991,STU
42936359023000,3.495088,-4.73856812630381,8.08846106333498,0.109285528623454,-0.7779369,0.3820962,1.2651019,146.7823,-119.09031,-29.042088,STU
42936363980000,3.500045,-4.63836622083662,7.9136340367798,0.350734489335043,-0.70188415,0.27488935,1.2391402,146.7947,-118.80687,-28.768337,STU
42936368978000,3.505043,-4.52975400039463,7.80502201357537,0.572680970205209,-0.6545421,0.14721853,1.2284501,146.83707,-118.53403,-28.5041,STU
42936374005000,3.51007,-4.42736662924952,7.79194562514432,0.737359730207092,-0.6038403,0.022907447,1.2168436,146.9166,-118.275085,-28.254036,STU
42936378972000,3.515037,-4.33147230628608,7.85296931417575,0.855048341610923,-0.5910121,-0.08857546,1.2067643,147.03339,-118.02544,-28.01204,STU
42936383957000,3.520022,-4.24044170171355,7.96447247940511,0.927024362641448,-0.59498274,-0.19517145,1.2092078,147.18787,-117.757416,-27.750725,STU
42936388958000,3.525023,-4.15785740067895,8.16060944655674,0.921862860669253,-0.6123924,-0.28863382,1.207986,147.37254,-117.49971,-27.497555,STU
42936393970000,3.530035,-4.09804904680574,8.38006775619296,0.879418052346806,-0.64599,-0.35430184,1.2238685,147.59471,-117.21448,-27.214424,STU
42936398966000,3.535031,-4.05966121782168,8.61999250155451,0.802642219010129,-0.66675943,-0.39553526,1.2492194,147.83582,-63.066437,-26.93244,STU
42936404657000,3.540722,-4.02255078717086,8.85036108216195,0.652974757374777,-0.6985244,-0.4147775,1.280679,148.07506,-63.37681,-26.617102,STU
42936409021000,3.545086,-3.99772808560681,9.00343414927737,0.504038461591764,-0.7107417,-0.42943826,1.3005321,148.32257,-63.683426,-26.301542,STU
42936413965000,3.55003,-3.99113348807612,9.11951066498166,0.335196781592626,-0.71929383,-0.41996986,1.3267993,148.54866,-64.02243,-25.949553,STU
42936418962000,3.555027,-4.0053634225394,9.18117401149767,0.164437446191496,-0.7180721,-0.41263947,1.351234,148.777,-64.35761,-25.597485,STU
42936424004000,3.560069,-4.01970202063853,9.1848078197094,-0.00996586260452703,-0.71776664,-0.36774087,1.3567317,148.97145,-64.7025,-25.233416,STU
42936428975000,3.56504,-4.03381873689829,9.12834075812988,-0.184072154611446,-0.7076874,-0.31642818,1.3625349,149.15929,-65.04512,-24.868904,STU
42936433942000,3.570007,-4.03718452121679,9.03666180179053,-0.303094690358106,-0.6954701,-0.25473082,1.3628404,149.29643,-65.38524,-24.506422,STU
42936439017000,3.575082,-4.02782713577204,8.90097981055064,-0.359239042110127,-0.6747007,-0.17562376,1.351234,149.41127,-65.7146,-24.153847,STU
42936443890000,3.579955,-4.00793755686472,8.76832453101987,-0.367586883951377,-0.6575964,-0.10048734,1.3454307,149.47595,-66.03524,-23.8116,STU
42936448971000,3.585036,-3.96866813626551,8.62597298385958,-0.298865341521235,-0.63041294,-0.057421334,1.3353515,149.52673,-66.34354,-23.48203,STU
42936453884000,3.589949,-3.91487769908149,8.4845980166113,-0.209709037619699,-0.61483586,-0.044898596,1.3197744,149.54222,-66.63639,-23.168133,STU
42936458992000,3.595057,-3.83361797400821,8.33163802325581,-0.0806495479616963,-0.59589905,-0.064446285,1.317331,149.55583,-66.92293,-22.860872,STU
42936463911000,3.599976,-3.75126902612015,8.20448346081977,0.0116309043148483,-0.5656612,-0.10995574,1.317331,149.56558,-67.19649,-22.563982,STU
42936468970000,3.605035,-3.65879046546112,8.11200500180832,0.0457019783905968,-0.54244834,-0.12858713,1.318858,149.57474,-67.462425,-22.274405,STU
42936474553000,3.610618,-3.59015905671642,8.03479750746269,0.0799020171641791,-0.50732356,-0.10781772,1.3344351,149.60356,-67.72535,-21.98525,STU
42936478967000,3.615032,-3.57056502141467,7.99952847306943,0.103414777687031,-0.51007247,-0.03390302,1.3509285,149.62296,-67.98093,-21.702438,STU
42936483947000,3.620012,-3.55023349300226,7.97250584499624,0.138307035562453,-0.52290064,0.06291912,1.3649784,149.61217,-68.254585,-21.400984,STU
42936488971000,3.625036,-3.53665735214447,7.99513274642588,0.206187791830324,-0.54367006,0.16249016,1.3771957,149.58006,-68.52361,-21.104158,STU
42936493934000,3.629999,-3.52279399702617,8.01909629901212,0.27881392923923,-0.56291234,0.24770586,1.3875804,149.5112,-68.79561,-20.80325,STU
42936498967000,3.635032,-3.50315858225889,8.06327587972299,0.421170788817599,-0.5815437,0.31123585,1.3878858,149.42256,-69.05829,-20.511364,STU
42936503941000,3.640006,-3.48389670036184,8.10970637364312,0.559789081165492,-0.59498274,0.34483343,1.3744467,149.30893,-69.315414,-20.220327,STU
42936509053000,3.645118,-3.46525011814892,8.17963105694153,0.685653588984955,-0.6044512,0.3463606,1.3536774,149.1912,-69.560425,-19.940393,STU
42936513991000,3.650056,-3.44753990598326,8.24739791811313,0.806772135966919,-0.5870415,0.31948254,1.3381003,149.0692,-69.807396,-19.653177,STU
42936518945000,3.65501,-3.4426957700633,8.32490469981621,0.908499061100674,-0.59559363,0.30848694,1.3158038,148.94795,-70.03526,-19.382343,STU
42936524058000,3.660123,-3.43707143712272,8.40420487565516,1.01057551787457,-0.5885687,0.24465153,1.2986995,148.84753,-70.26845,-19.099955,STU
42936528933000,3.664998,-3.42441458731249,8.47170816275077,1.07385981097958,-0.5681047,0.16982053,1.2794572,148.75937,-70.486275,-18.83166,STU
42936533932000,3.669997,-3.41143579916862,8.54092845653353,1.13875379687331,-0.5571091,0.09254608,1.2586879,148.68799,-70.70042,-18.559168,STU
42936538982000,3.675047,-3.45255078951099,8.56289074698795,1.13121363770376,-0.5329799,0.013744468,1.239751,148.64404,-70.90385,-18.296593,STU
42936544196000,3.680261,-3.50563381771793,8.57616131927711,1.1090957092842,-0.52381694,-0.058337633,1.2220359,148.62503,-71.09376,-18.044046,STU
42936548952000,3.685017,-3.54932402460254,8.53626931259936,1.04843007165143,-0.5128214,-0.12339478,1.1988231,148.6169,-71.289406,-17.781206,STU
42936554008000,3.690073,-3.59262526848172,8.45928940162957,0.957016471333466,-0.50976706,-0.17715092,1.1795808,148.62964,-71.4737,-17.526579,STU
42936559028000,3.695093,-3.63660549219331,8.35698680185874,0.859230036998141,-0.5002986,-0.19303341,1.1597277,148.63034,-71.641716,-17.287916,STU
42936563975000,3.70004,-3.68063563122677,8.23810524256506,0.757960648257435,-0.50946164,-0.21777347,1.1383474,148.6521,-71.79601,-17.058445,STU
42936568949000,3.705014,-3.69545389181312,8.10870227415345,0.649563448601586,-0.51159966,-0.22204952,1.1203269,148.65262,-71.93639,-16.848063,STU
42936573958000,3.710023,-3.6697519033862,7.96477113896271,0.531334221324475,-0.52595496,-0.22479841,1.1010846,148.66248,-72.0631,-16.647888,STU
42936578923000,3.714988,-3.59175657983906,7.83657794194,0.359448986812385,-0.5335908,-0.19394971,1.0852021,148.63954,-72.178955,-16.46668,STU
42936583945000,3.72001,-3.46976353334208,7.71879150677862,0.140702753347153,-0.5558874,-0.14263703,1.0525209,148.6145,-72.27762,-16.300491,STU
42936588906000,3.724971,-3.36875008267591,7.64325971733475,-0.0270621368614073,-0.57757306,-0.08399397,1.0149527,148.55016,-72.37067,-16.142988,STU
42936594047000,3.730112,-3.32151015714286,7.68525072571429,-0.0585553328571429,-0.5888741,-0.013133603,0.95905846,148.4717,-72.44504,-16.006363,STU
42936598908000,3.734973,-3.29813756741379,7.74091648947262,-0.0710402859182556,-0.6075055,0.04550946,0.9083566,148.37599,-72.52496,-15.874105,STU
42936603964000,3.740029,-3.30795928327586,7.82439966415822,-0.0563079315945233,-0.61391956,0.11026118,0.8527679,148.26276,-72.58571,-15.766022,STU
42936608900000,3.744965,-3.31551376892012,7.93804359101257,-0.0168681827433436,-0.6160576,0.15424347,0.79381937,148.10956,-72.66208,-15.644963,STU
42936613944000,3.750009,-3.3202950096209,8.10060737246362,0.0596325231982579,-0.6133087,0.17623462,0.7284568,147.95032,-72.71878,-15.547507,STU
42936618873000,3.754938,-3.33393894476032,8.24448957121851,0.143099147238506,-0.59406644,0.20158553,0.69974613,147.7658,-72.77495,-15.452618,STU
42936623963000,3.760028,-3.36261024963239,8.36873227487501,0.243448609506911,-0.57451874,0.20097467,0.66675943,147.5894,-72.81122,-15.38093,STU
42936628867000,3.764932,-3.38215922289658,8.47303174758934,0.343569986103233,-0.5516113,0.18509217,0.6273586,147.40916,-72.85566,-15.302553,STU
42936633956000,3.770021,-3.38676650464171,8.55135630700511,0.454145989205899,-0.52931476,0.16432275,0.59773165,147.23604,-72.89432,-15.234048,STU
42936638871000,3.774936,-3.38021805872271,8.62284484594981,0.546272721609876,-0.49938235,0.14019357,0.5662721,147.06032,-72.92817,-15.167208,STU
42936643956000,3.780021,-3.33550440140788,8.68246286548663,0.590986290733524,-0.48502702,0.09560041,0.5357288,146.90225,-72.95388,-15.109854,STU
42936648916000,3.784981,-3.28785866327434,8.73812756797213,0.632424469652608,-0.47678033,0.043982297,0.50793445,146.7521,-72.98017,-15.046933,STU
42936653970000,3.790035,-3.2286217579646,8.78825123865562,0.668878012429863,-0.46395215,-0.018936822,0.48563787,146.62321,-73.00131,-14.991327,STU
42936658913000,3.794978,-3.17016716095896,8.83417123317494,0.696618173053996,-0.46273044,-0.08155051,0.46731192,146.50507,-73.022575,-14.926581,STU
42936663946000,3.800011,-3.10770482639309,8.86332002116631,0.679961573693305,-0.4578435,-0.1554652,0.4456262,146.4129,-73.03851,-14.868241,STU
42936668863000,3.804928,-3.04668211646652,8.8917969912743,0.663688873701944,-0.43035457,-0.22052236,0.42363504,146.34747,-73.06216,-14.799704,STU
42936673967000,3.810032,-2.9751838002096,8.96560558868151,0.632489854759956,-0.40500367,-0.2706133,0.39950588,146.30247,-73.07935,-14.737384,STU
42936678871000,3.814936,-2.90487045476594,9.04529424263898,0.599676930851382,-0.37843102,-0.29810223,0.38056904,146.27225,-73.095695,-14.67965,STU
42936683966000,3.820031,-2.86852681535753,9.13066561273599,0.56220343103003,-0.35888332,-0.3155119,0.364992,146.23738,-73.1293,-14.602582,STU
42936688892000,3.824957,-2.84083911035899,9.21372867954612,0.525286378599237,-0.3295618,-0.30451632,0.34574974,146.20464,-73.161285,-14.533979,STU
42936693972000,3.830037,-2.80802412889066,9.33125269313647,0.520963379868316,-0.30298916,-0.28191432,0.35216382,146.16733,-73.21807,-14.442181,STU
42936698864000,3.834929,-2.77530765881883,9.45277087110934,0.525637162701516,-0.27947086,-0.23426682,0.35918877,146.12161,-73.272255,-14.359709,STU
42936703989000,3.840054,-2.75712694314847,9.53741290633939,0.547864602000554,-0.26083946,-0.19914207,0.36774087,146.06236,-73.338295,-14.267781,STU
42936708948000,3.845013,-2.74397998756113,9.60753033837778,0.574158622998985,-0.23823744,-0.15851954,0.37293324,145.98926,-73.40689,-14.180151,STU
42936714037000,3.850102,-2.75465334535956,9.65309203995083,0.612421221303012,-0.22540927,-0.14935656,0.39095375,145.92238,-73.4873,-14.0802,STU
42936718931000,3.854996,-2.77865911221061,9.68189906043844,0.655631631714813,-0.21288654,-0.11484267,0.39492437,145.83855,-73.566055,-13.988864,STU
42936723953000,3.860018,-2.82876251624545,9.70070997174298,0.691332392492773,-0.20219639,-0.08399397,0.40103304,145.75836,-73.65203,-13.88899,STU
42936729421000,3.865486,-2.89713179167211,9.7153603158631,0.725517004709503,-0.1826487,-0.06841691,0.41630468,145.67404,-73.741394,-13.789643,STU
42936733960000,3.870025,-2.98692808228404,9.69141806504915,0.76909508736666,-0.16218472,-0.03023783,0.410196,145.55058,-73.82564,-13.691981,STU
42936738972000,3.875037,-3.11242217803807,9.63620062727463,0.829332230265635,-0.15424347,0.009162978,0.41630468,145.42407,-73.914276,-13.591185,STU
42936743972000,3.880037,-3.24902608121624,9.57373017823565,0.890763722684537,-0.15424347,0.043982297,0.40958515,145.28102,-73.98888,-13.507702,STU
42936748967000,3.885032,-3.39256318658732,9.50674631896379,0.952963163322665,-0.15668693,0.08002335,0.39858958,145.1296,-74.06178,-13.428982,STU
42936753951000,3.890016,-3.52330105769341,9.44181282190213,1.03287183938758,-0.16065755,0.105068825,0.38973203,144.96634,-74.111565,-13.374924,STU
42936759029000,3.895094,-3.64855506479061,9.37686644681866,1.12565261050272,-0.17837265,0.12767084,0.3726278,144.79805,-74.15235,-13.330267,STU
42936764165000,3.90023,-3.75649272681605,9.29669535653986,1.19629742694112,-0.20586158,0.14966199,0.3484986,144.62534,-74.16321,-13.318721,STU
42936768964000,3.905029,-3.84271097563314,9.21047690766024,1.2441963984888,-0.22632557,0.17073683,0.32986724,144.4503,-74.169075,-13.312516,STU
42936773956000,3.910021,-3.8701661349426,9.10705544450986,1.28383341451281,-0.24984388,0.19517145,0.32650748,144.2676,-74.14621,-13.330484,STU
42936778972000,3.915037,-3.85602506081837,8.99392645775684,1.3168293033559,-0.28405234,0.22082779,0.31887165,144.08252,-74.113686,-13.355881,STU
42936783965000,3.92003,-3.79095449869717,8.90188497255097,1.34992403192442,-0.31215215,0.24220806,0.30482176,143.89622,-74.06111,-13.401718,STU
42936788959000,3.925024,-3.68631154880159,8.82578147856788,1.3832194347091,-0.344528,0.24801129,0.29229903,143.7103,-74.002396,-13.449224,STU
42936793967000,3.930032,-3.54582115174715,8.83559802581468,1.43970946079702,-0.3680463,0.24648413,0.2837469,143.52292,-73.93622,-13.498745,STU
42936799561000,3.935626,-3.35651839077346,8.92499056311347,1.52384403343149,-0.39584067,0.20616703,0.2678644,143.34897,-73.86113,-13.5519,STU
42936803962000,3.940027,-3.18286754621204,9.07578393079794,1.59110630913951,-0.4111123,0.14263703,0.27183503,143.1936,-73.79703,-13.583972,STU
42936809068000,3.945133,-2.96089015827701,9.31749299808332,1.67003163582165,-0.41141775,0.041233405,0.27030787,143.06454,-73.72734,-13.618288,STU
42936814027000,3.950092,-2.7460142598516,9.61149964243457,1.69684153610749,-0.39095375,-0.011301007,0.29046643,142.95062,-73.685776,-13.607837,STU
42936818959000,3.955024,-2.53289118037702,9.95249653003108,1.68263334069989,-0.37843102,-0.116675265,0.30757064,142.8837,-73.64278,-13.592022,STU
42936823945000,3.96001,-2.35090324611655,10.31094000543,1.60917287234558,-0.35979962,-0.2171626,0.3399465,142.84032,-73.65581,-13.506227,STU
42936828966000,3.965031,-2.19703824790071,10.6839458256569,1.48328335933288,-0.321926,-0.321926,0.36346483,142.82983,-73.6749,-13.414925,STU
42936833960000,3.970025,-2.04197060559211,11.0260019945175,1.32705986184211,-0.28344148,-0.3753767,0.39522982,142.83922,-73.748245,-13.259645,STU
42936838951000,3.975016,-1.88474082212919,11.3356972260766,1.13647828803828,-0.23945917,-0.4111123,0.42546764,142.87384,-73.83013,-13.098262,STU
42936843935000,3.98,-1.7178593873857,11.5995373948481,0.951714810077672,-0.20586158,-0.42149702,0.4596761,142.90617,-73.961136,-12.89153,STU
42936848989000,3.985054,-1.53702710837676,11.8136807066169,0.770882580759021,-0.15974127,-0.4092797,0.48655418,142.94179,-74.10084,-12.683905,STU
42936853938000,3.990003,-1.39324917152624,11.9903966565453,0.641528607178765,-0.11728613,-0.3652974,0.5213735,142.97015,-74.27737,-12.450576,STU
42936859028000,3.995093,-1.2903269252966,12.1276260452443,0.572913759300221,-0.070554934,-0.29932398,0.5317582,142.98837,-74.45667,-12.224687,STU
42936863948000,4.000013,-1.27730011000298,12.2301757700705,0.578193188131388,-0.048258353,-0.20738874,0.53969944,142.9886,-74.67303,-11.973992,STU
42936869228000,4.005293,-1.37765846427508,12.3004274878436,0.678551490006947,-0.03756821,-0.1160644,0.5174029,142.97107,-74.88411,-11.738859,STU
42936873905000,4.00997,-1.68317067993285,12.4334763385345,0.895369969444993,-0.035124753,0.0012217305,0.48166725,142.92584,-75.106766,-11.502023,STU
42936878973000,4.015038,-2.30627782652578,12.673132278886,1.30278626922773,-0.043982297,0.118507855,0.44959682,142.85593,-75.31838,-11.281322,STU
42936883855000,4.01992,-2.77412816246449,12.8851441383168,1.60513208870739,-0.039095376,0.2501493,0.40103304,142.74162,-75.50648,-11.091871,STU
42936888969000,4.025034,-3.04805164540128,13.0764558182706,1.77470377510653,-0.041233405,0.37904188,0.35979962,142.59738,-75.680176,-10.920705,STU
42936893880000,4.029945,-3.31199339649578,13.2718721471447,1.94307881670993,-0.03268129,0.47342056,0.31642818,142.39543,-75.76393,-10.843031,STU
42936898964000,4.035029,-3.59108597136059,13.5509651069111,2.15371461125892,-0.015882496,0.5354234,0.28252518,142.17278,-75.83838,-10.782797,STU
42936903909000,4.039974,-3.80877751425791,13.7968513391728,2.32437243781022,0.020158553,0.54153204,0.2489276,141.93895,-75.87323,-10.772677,STU
42936908991000,4.045056,-3.89956371416058,13.9863180262774,2.41515872014599,0.09254608,0.52320606,0.20861048,141.70247,-75.907814,-10.777172,STU
42936913913000,4.049978,-3.98749163150041,14.1698196071371,2.5030867173236,0.16920967,0.44135013,0.19425514,141.47858,-75.92125,-10.804032,STU
42936918959000,4.055024,-3.94044378463046,14.2415677196628,2.4638715058812,0.21685717,0.31948254,0.16218472,141.27922,-75.92974,-10.84391,STU
42936923926000,4.059991,-3.86584209317781,14.2881943245442,2.39859498934523,0.32375857,0.17806722,0.13652839,141.11382,-75.96047,-10.880673,STU
42936928970000,4.065035,-3.66117479314987,14.0377646848149,2.16573112186696,0.4334089,0.019242255,0.12858713,140.99464,-75.99277,-10.917085,STU
42936933864000,4.069929,-3.42919648018214,13.7176344927737,1.89663626138388,0.5299256,-0.13133603,0.106901415,140.91814,-76.03167,-10.957388,STU
42936938964000,4.075029,-3.1701692006794,13.1845096234738,1.49317467008173,0.6258314,-0.26939157,0.08093964,140.8751,-76.09438,-10.98293,STU
42936943873000,4.079938,-2.91557195878299,12.6105085092556,1.06730284837534,0.7156286,-0.39095375,0.03756821,140.87318,-76.16095,-11.013044,STU
42936948965000,4.08503,-2.67472297697956,11.9799466296884,0.562996112725541,0.8035932,-0.49266282,-0.039095376,140.89369,-76.25092,-11.037482,STU
42936953930000,4.089995,-2.44825498079976,11.35244117821,0.0487250219327248,0.8903361,-0.61300325,-0.12980886,140.95573,-76.33698,-11.072581,STU
42936958992000,4.095057,-2.27491285648736,10.8572822842917,-0.352905742300498,0.9837985,-0.71868294,-0.24648413,141.02957,-76.4447,-11.120307,STU
42936963986000,4.100051,-2.12549850014644,10.4230470854242,-0.703095424720101,1.0708468,-0.8032878,-0.3622431,141.13225,-76.535576,-11.189716,STU
