timestamp,rel_time,acc_x,acc_y,acc_z,gyro_x,gyro_y,gyro_z,azimuth,pitch,roll,label
993003463000,0,-0.0572404899613903,9.82586569741479,0.910061080079464,0.006414085,-0.016493361,0.011301007,88.07279,53.224255,-35.937004,STD
993008369000,0.004906,-0.0543108496106601,9.82668598878871,0.913576648940851,0.010995574,-0.014049901,0.01740966,87.8297,52.71404,-36.38688,STD
993013331000,0.009868,-0.0513477686036639,9.82751564345592,0.917132346594785,0.0070249503,-0.0030543262,0.015577064,87.56295,52.19127,-36.847145,STD
993018311000,0.014848,-0.0483739388142966,9.82834830775313,0.92070094278918,0.006414085,-0.007941248,0.01160644,87.28274,51.661175,-37.31055,STD
993023343000,0.01988,-0.045369056986968,9.82918966653697,0.924306801433799,-0.002443461,-0.010079277,0.018936822,86.99798,51.12347,-37.779774,STD
993028335000,0.024872,-0.0423880613426865,9.83002433725417,0.927883996655169,0.009468411,-0.0070249503,0.01160644,86.70533,50.58401,-38.246136,STD
993033362000,0.029899,-0.0393861652882387,9.83086486002968,0.931486272371881,0.0021380284,0.0009162979,0.022907447,86.40242,50.03339,-38.72221,STD
993038355000,0.034892,-0.0364045724893811,9.83169969794855,0.935064184178832,0.0070249503,-0.01038471,0.02443461,86.084785,49.480305,-39.194633,STD
993043358000,0.039895,-0.0334170081447616,9.83253620788407,0.938649261841595,0.015271631,-0.009162978,0.02443461,85.76348,48.919056,-39.67285,STD
993048328000,0.044865,-0.030449149901156,9.83336720016461,0.942210692180179,0.0012217305,-0.013133603,0.02443461,85.42519,48.3529,-40.152267,STD
993054076000,0.050613,-0.0270167053972838,9.83432827534139,0.946329626100939,0.0015271631,-0.01282817,0.01740966,85.078094,47.781475,-40.63155,STD
993058341000,0.054878,-0.0244698411298839,9.83504139044733,0.949385863604774,0.00061086525,-0.011911872,0.011301007,84.71797,47.20522,-41.112206,STD
993063331000,0.059868,-0.0214900397947548,9.8358757267612,0.952961625654981,-0.008552114,-0.009468411,0.017715093,84.345825,46.622425,-41.59562,STD
993068310000,0.064847,-0.0185168071599636,9.83670822385674,0.956529505263796,-0.0030543262,-0.020158553,0.020463986,83.95732,46.03576,-42.076324,STD
993073310000,0.069847,-0.0155310342790727,9.83754423218726,0.960112433169816,-0.0030543262,-0.0067195175,0.022907447,83.56507,45.442966,-42.561245,STD
993078340000,0.074877,-0.0125273467608964,9.83838525656777,0.963716858643271,-0.009162978,-0.011301007,0.020463986,83.1485,44.845284,-43.043903,STD
993083361000,0.079898,-0.00952903363390575,9.83922477613329,0.967314834846496,-0.005497787,-0.020463986,0.018325957,82.72077,44.240593,-43.528072,STD
993088358000,0.084895,-0.00654505221674336,9.84006028285882,0.970895612995772,0.0021380284,-0.017104227,0.014966198,82.2817,43.631603,-44.011726,STD
993093335000,0.089872,-0.00357301389110454,9.84089244555102,0.974462059433424,-0.005192355,-0.021991149,0.010079277,81.82108,43.019096,-44.49251,STD
993098330000,0.094867,-0.000590226783094519,9.84172761787322,0.978041404411538,0.004581489,-0.004886922,0.013439035,81.35373,42.397823,-44.97599,STD
993103322000,0.099859,0.00239076886118697,9.84256228859042,0.981618599632908,-0.0021380284,-0.01740966,0.010079277,80.85799,41.776344,-45.4522,STD
993108341000,0.104878,0.00538788767902529,9.8434014737526,0.985215142664971,-0.008857546,-0.009162978,0.0125227375,80.35867,41.146214,-45.932854,STD
993113331000,0.109868,0.00836768901415443,9.84423581006647,0.988790904715178,-0.008857546,-0.010079277,0.011301007,79.83419,40.512722,-46.407837,STD
993118314000,0.114851,0.0113433102672503,9.84506897596867,0.992361650666317,-0.0018325958,-0.029932396,0.01282817,79.28653,39.87255,-46.88097,STD
993123916000,0.120453,0.0146885702030005,9.8460056397022,0.996375963092222,0.020463986,-0.023823744,0.009162978,78.73077,39.22755,-47.35232,STD
993128333000,0.12487,0.0173262019659795,9.84674416946138,0.9995411216044,0.005497787,-0.032986723,0.0143553335,78.13996,38.57728,-47.81981,STD
993133309000,0.129846,0.0202976431370422,9.84757616495192,1.00310685145647,0.008857546,-0.024740042,0.015271631,77.53932,37.92033,-48.284122,STD
993138352000,0.134889,0.0233090936647087,9.84841936295409,1.00672059254248,0.0061086523,-0.021380283,0.021380283,76.91042,37.2574,-48.745705,STD
993143343000,0.13988,0.0262894921544141,9.84925386646963,1.01029707117827,0.008857546,-0.012217305,0.022602014,76.26615,36.589687,-49.203373,STD
993148341000,0.144878,0.0292740707261526,9.85008954039682,1.01387856591313,0.008857546,-0.0061086523,0.01863139,75.599594,35.91725,-49.656456,STD
993153328000,0.149865,0.0322520805975532,9.85092337510569,1.01745217820659,0.009773844,0.0061086523,0.017104227,74.91556,35.238552,-50.106976,STD
993158350000,0.154887,0.03525099087912,9.85176306187287,1.0210508709954,0.008552114,0.004581489,0.020158553,74.204735,34.555054,-50.550804,STD
993163332000,0.159869,0.0382260149776398,9.85259606057341,1.02462090036096,0.005497787,0.0070249503,0.022602014,73.476746,33.86745,-50.989746,STD
993168315000,0.164852,0.0412016362307356,9.85342922647562,1.0281916463121,0.0070249503,0.009468411,0.020158553,72.72385,33.175297,-51.42108,STD
993173325000,0.169862,0.0441933806573884,9.8542669068228,1.03178174007393,0.0106901415,-0.003970624,0.019547688,71.93936,32.477444,-51.844055,STD
993178363000,0.1749,0.047201845412174,9.85510926881664,1.03539189823203,0.003970624,-0.013133603,0.010995574,71.134254,31.778734,-52.25713,STD
993183322000,0.179859,0.0501631349554416,9.85593842187886,1.03894544612922,0.003970624,-0.015577064,0.0125227375,70.298065,31.071913,-52.66266,STD
993188418000,0.184955,0.0532062346756457,9.85679048156933,1.04259716625104,-0.00061086525,-0.016187929,0.0018325958,69.43772,30.367416,-53.05243,STD
993193598000,0.190135,0.0562994953802487,9.85765658619976,1.04630907956167,0.0009162979,-0.016798794,0.009162978,68.54468,29.65273,-53.436222,STD
993198328000,0.194865,0.0591240365255715,9.85844745008044,1.04969852936077,-0.0027488936,0.0021380284,0.008552114,67.637276,28.939812,-53.807663,STD
993203630000,0.200167,0.0622901500884682,9.85933395331413,1.05349786611231,-0.00580322,0.0076358155,0.0076358155,66.695335,28.22065,-54.166843,STD
993208341000,0.204878,0.0651033452968436,9.86012164036315,1.05687370078536,-0.016493361,0.017104227,0.018020526,65.73216,27.49591,-54.52004,STD
993213330000,0.209867,0.0680825494773966,9.86095580947535,1.06044874624999,-0.015271631,0.028405234,0.01863139,64.737885,26.762045,-54.86821,STD
993218336000,0.214873,0.0710719052857446,9.86179282101588,1.0640359736695,-0.004276057,0.028710667,0.023518313,63.711124,26.020088,-55.206734,STD
993223309000,0.219846,0.0740415549930787,9.86262431490142,1.06759955376482,-0.007941248,0.022907447,0.01740966,62.6624,25.278217,-55.530483,STD
993228331000,0.224868,0.0770404652746455,9.8634640016686,1.07119824655363,-0.007941248,0.020158553,0.022296581,61.58249,24.526388,-55.84407,STD
993233325000,0.229862,0.0800226552280794,9.86429900678913,1.07477687494616,-0.0027488936,0.0125227375,0.02687807,60.47388,23.772068,-56.139153,STD
993238453000,0.23499,0.0830848638947211,9.86515641693292,1.07845152580658,0.0061086523,0.0106901415,0.020158553,59.342583,23.015108,-56.41771,STD
993243371000,0.239908,0.0860216701003654,9.86597871472683,1.08197569369494,0.005497787,0.013744468,0.020158553,58.180653,22.25198,-56.681362,STD
993248325000,0.244862,0.0889799738707521,9.86680703178071,1.08552565866422,0.004276057,0.003970624,0.01160644,56.994694,21.488169,-56.92146,STD
993253339000,0.249876,0.0919741069157095,9.86764538093457,1.08911861876838,-0.002443461,0.01740966,-0.00061086525,55.796116,20.722565,-57.148327,STD
993258338000,0.254875,0.0949592826420243,9.86848122206343,1.09270083008882,-0.0061086523,0.017104227,0.002443461,54.564648,19.951649,-57.352543,STD
993263314000,0.259851,0.0979307238130869,9.86931321755397,1.09626655994089,-0.0027488936,0.022296581,0.004581489,53.324345,19.180855,-57.53906,STD
993268316000,0.264853,0.10091769100313,9.87014956028783,1.09985092101807,-0.010079277,0.030543262,0.005192355,52.065224,18.408459,-57.706505,STD
993273343000,0.26988,0.103919587057578,9.87099008306334,1.10345319673478,-0.017104227,0.03848451,-0.003970624,50.79363,17.634634,-57.85324,STD
993278331000,0.274868,0.106898194083555,9.87182408497387,1.10702752561383,-0.0076358155,0.05589417,-0.004581489,49.507706,16.85449,-57.98466,STD
993283337000,0.279874,0.109887549891903,9.8726610965144,1.11061475303333,-0.002443461,0.06841691,0.010079277,48.205914,16.071695,-58.096252,STD
993288340000,0.284877,0.112875114236522,9.87349760644992,1.1141998306961,-0.005192355,0.087964594,0.005192355,46.90826,15.291357,-58.18889,STD
993293338000,0.289875,0.115859692808261,9.87433328037712,1.11778132543096,-0.007941248,0.09040806,0.0067195175,45.589367,14.502703,-58.26117,STD
993298328000,0.294865,0.11883949414339,9.87516761669099,1.12135708748116,-0.0009162979,0.108123146,0.008552114,44.273487,13.712108,-58.31896,STD
993303326000,0.299863,0.121824072715128,9.87600329061818,1.12493858221602,-0.0067195175,0.10323623,0.010079277,42.946136,12.921392,-58.348873,STD
993309117000,0.305654,0.125282194865776,9.8769715554666,1.12908832931677,-0.007330383,0.098043874,0.014660766,41.617077,12.125967,-58.360653,STD
993313332000,0.309869,0.127799201404367,9.87767631048923,1.13210873754155,-0.016493361,0.07788532,0.017104227,20.89286,11.331079,-58.343697,STD
993318309000,0.314846,0.130771239730006,9.87850847318144,1.1356751839792,-0.0076358155,0.06872234,0.0125227375,21.06237,10.532831,-58.304417,STD
993323343000,0.31988,0.133777315866487,9.87935016636861,1.13928247579498,-0.00030543262,0.0571159,0.015882496,21.223692,9.732177,-58.236393,STD
993328332000,0.324869,0.13675652004704,9.88018433548081,1.14285752125961,0.004581489,0.070249505,0.022907447,21.382517,8.929629,-58.148666,STD
993333384000,0.329921,0.139773344965892,9.88102903829798,1.14647771161585,0.0070249503,0.07391469,0.023823744,21.538597,8.125991,-58.031162,STD
993338368000,0.334905,0.142749563373564,9.88186237140185,1.15004917415257,0.008552114,0.07513642,0.028405234,21.689766,7.318252,-57.89372,STD
993343401000,0.339938,0.145755042355469,9.88270389738736,1.15365574938277,0.0018325958,0.09162979,0.02687807,21.835579,6.511938,-57.737698,STD
993348332000,0.344869,0.148699611570604,9.88352836880292,1.15718923288368,0.0070249503,0.09682214,0.038179077,21.977602,5.6988125,-57.55665,STD
993353323000,0.34986,0.151680010060309,9.88436287231846,1.16076571151947,0.012217305,0.09987647,0.03176499,22.115833,4.890997,-57.35576,STD
993358343000,0.35488,0.154677726032724,9.88520222468231,1.16436297113712,0.0018325958,0.09743301,0.032375857,22.243952,4.080141,-57.13317,STD
993363329000,0.359866,0.157655138749548,9.88603589218951,1.167935866845,0.009468411,0.099265605,0.028710667,22.374323,3.2682517,-56.89019,STD
993368322000,0.364859,0.160636731548406,9.88687073010837,1.17151377865195,0.01282817,0.11362094,0.025961773,22.495785,2.4583812,-56.628696,STD
993373344000,0.369881,0.163635641829972,9.88771041687555,1.17511247144076,0.004581489,0.10842858,0.030848695,22.610538,1.6484956,-56.341263,STD
993379070000,0.375607,0.167054948933169,9.88866781361567,1.17921564047873,-0.005192355,0.09407325,0.014049901,22.724371,0.84462184,-56.034687,STD
993383342000,0.379879,0.169605993282602,9.88938209913328,1.18227689408163,-0.003970624,0.07727446,0.0143553335,22.830143,0.03569542,-55.70652,STD
993388403000,0.38494,0.17262819259264,9.89022830676544,1.18590353370811,-0.0009162979,0.08155051,0.01863139,22.930794,-0.7681511,-55.361286,STD
993393412000,0.389949,0.175619339864716,9.89106581991096,1.18949291088436,-0.005192355,0.07727446,0.010079277,23.026814,-1.5671434,-54.990753,STD
993398343000,0.39488,0.178563909079851,9.89189029132652,1.19302639438527,0.0021380284,0.08124508,0.0143553335,23.118076,-2.3714936,-54.60611,STD
993403321000,0.399858,0.181536544560066,9.8927226212204,1.19659355740851,0.0021380284,0.06719518,0.013439035,23.1597342620524,-2.76847232078416,-54.4021006261252,STD
993408341000,0.404878,0.18319834699821,9.88912396086491,1.19152532296899,-0.004581489,0.05955936,0.015271631,23.201744,-3.1688004,-54.19637,STD
993413330000,0.409867,0.184631894262604,9.88482333279326,1.18507435965551,0.002443461,0.051618114,0.018020526,23.28379,-3.9696705,-53.77547,STD
993418315000,0.414852,0.186064292160581,9.88052615280987,1.1786285684914,0.0143553335,0.05131268,0.025350908,23.35642,-4.781573,-53.256744,STD
993423342000,0.419879,0.187508758405943,9.87619276789983,1.17212846975882,0.02321288,0.040317107,0.007941248,16.150394,-5.5873485,-52.721127,STD
993428337000,0.424874,0.188944029719964,9.8718869676958,1.16566974822127,0.016187929,0.03726278,0.014660766,15.326292,-6.3976965,-52.17446,STD
993433366000,0.429903,0.190389070648534,9.86755185874163,1.15916706341399,0.0018325958,0.05100725,0.020463986,14.547905,-7.201976,-51.61921,STD
993438417000,0.434954,0.191840433092402,9.86319778530209,1.15263593178513,0.0106901415,0.05131268,0.014966198,13.810087,-8.005811,-51.049385,STD
993443346000,0.439883,0.193256739860532,9.85894887855421,1.14626255071234,0.014049901,0.07422013,0.019242255,13.097756,-8.807221,-50.47923,STD
993448707000,0.445244,0.194797178201766,9.85432757827518,1.13933057750658,0.008246681,0.079107046,0.025961773,12.423943,-9.605241,-49.895428,STD
993453326000,0.449863,0.196124409072529,9.85034589836679,1.13335803801069,0.0018325958,0.07849618,0.016493361,11.787621,-10.398302,-49.309196,STD
993458344000,0.454881,0.197566289243452,9.84602027165532,1.12686957661421,0.008552114,0.07941248,0.016493361,11.177081,-11.193325,-48.71596,STD
993463329000,0.459866,0.198998687141428,9.84172309167192,1.12042378545011,0.015577064,0.06872234,0.015271631,10.605131,-11.981788,-48.11342,STD
993468314000,0.464851,0.200431085039405,9.83742591168852,1.11397799428601,0.022296581,0.06719518,0.0067195175,10.066494,-12.766602,-47.508083,STD
993473341000,0.469878,0.201875551284767,9.83309252677848,1.10747789555342,0.00580322,0.06291912,0.007330383,9.557397,-13.546695,-46.892773,STD
993478334000,0.474871,0.203310247915579,9.82878845061858,1.10102176009056,0.007330383,0.06536258,0.0012217305,9.083584,-14.324634,-46.275326,STD
993483367000,0.479904,0.204756438210567,9.82444989357616,1.09451390313391,-0.007941248,0.06780604,0.0076358155,8.634403,-15.095369,-45.650974,STD
993488391000,0.484928,0.206200042431116,9.82011909473232,1.08801768351336,-0.0036651916,0.06505715,0.01160644,8.217187,-15.864524,-45.02289,STD
993493416000,0.489953,0.207643933993269,9.8157874338664,1.08152017085546,-0.011301007,0.05955936,0.020158553,7.8233366,-16.626787,-44.390182,STD
993498335000,0.494872,0.209057367345355,9.81154714733915,1.07515972015612,-0.0076358155,0.056199603,0.020463986,7.4578276,-17.387108,-43.754932,STD
993503328000,0.499865,0.210492063976167,9.80724307117925,1.06870358469326,-0.004886922,0.05589417,0.025350908,7.113883,-18.14427,-43.115112,STD
993508338000,0.504875,0.211931645414254,9.80292434064429,1.06222546759554,0.0061086523,0.054061573,0.027488936,6.796839,-18.898958,-42.472378,STD
993513326000,0.509863,0.213364905337044,9.7986245745947,1.0557757973194,0.008552114,0.03756821,0.02687807,6.506116,-19.648464,-41.824062,STD
993518370000,0.514907,0.214814256389681,9.79427653530959,1.04925371695195,0.0009162979,0.034208454,0.01985312,6.23869,-20.392683,-41.178146,STD
993523321000,0.519858,0.216236884673108,9.79000866407633,1.04285188905758,0.0015271631,0.021380283,0.021380283,5.996292,-21.135975,-40.523964,STD
993528332000,0.524869,0.217676753452799,9.7856890715193,1.03637247892251,-0.0018325958,0.024129177,0.025045475,5.775744,-21.87112,-39.87329,STD
993533361000,0.529898,0.21912179438137,9.78135396256513,1.02986979411524,-0.008246681,0.026572637,0.021380283,5.5811305,-22.599714,-39.22031,STD
993538419000,0.534956,0.220575168216468,9.77699385497115,1.02332961122496,-0.01160644,0.032986723,0.018020526,5.404985,-23.324045,-38.569016,STD
993543383000,0.53992,0.222001531940752,9.77271477745107,1.0169109738451,-0.0070249503,0.019242255,0.017715093,5.252648,-24.043507,-37.914364,STD
993548332000,0.544869,0.22342358554097,9.76844863026193,1.01051173202541,-0.014660766,0.014966198,0.021380283,5.1168194,-24.754614,-37.264763,STD
993553331000,0.549868,0.224860006221409,9.76413938196966,1.00404783833848,-0.008552114,0.0009162979,0.01863139,5.006561,-25.463108,-36.61202,STD
993558339000,0.554876,0.226299012976287,9.75982237547881,0.997572307315451,0.0067195175,0.002443461,0.026267206,4.9083996,-26.169302,-35.96176,STD
993563328000,0.559865,0.227732560240681,9.75552174740716,0.99112134400197,0.007941248,-0.006414085,0.021380283,4.837433,-26.865532,-35.31022,STD
993568311000,0.564848,0.229164383455449,9.75122629146789,0.984678138912559,0.004276057,-0.005192355,0.029932396,4.775553,-27.562422,-34.660564,STD
993573346000,0.569883,0.230611148433646,9.74688601038135,0.978167695881215,-0.015882496,0.004886922,0.028099801,4.735034,-28.247536,-34.01608,STD
993578334000,0.574871,0.232044408356436,9.74258624433176,0.971718025605079,-0.016493361,0.021685716,0.023518313,4.7076807,-28.931572,-33.375496,STD
993583341000,0.579878,0.23348312776971,9.73827009986298,0.96524378761939,-0.01863139,0.021380283,0.022602014,4.6970353,-29.60544,-32.7362,STD
993588364000,0.584901,0.234926444648654,9.7339401630412,0.958748861036185,-0.021991149,0.0143553335,0.03176499,4.6982193,-30.27409,-32.101727,STD
993593336000,0.589873,0.236355107105774,9.72965418934461,0.952319879357567,-0.02076942,0.020158553,0.036651913,4.7131414,-30.93655,-31.47461,STD
993598330000,0.594867,0.23779009107819,9.72534925116265,0.945862450857362,-0.01863139,0.03268129,0.03359759,4.7421637,-31.592798,-30.851042,STD
993603327000,0.599864,0.23922593707542,9.7210417269145,0.939401143245122,-0.025045475,0.0421497,0.03481932,4.78217,-32.24301,-30.230507,STD
993608337000,0.604874,0.244198301494247,9.70757884650113,0.955146603636514,-0.022602014,0.057421334,0.032986723,4.8335495,-32.8887,-29.619322,STD
993613340000,0.609877,0.249713977967647,9.69271050133388,0.974331565990801,-0.020463986,0.07666359,0.044898596,4.8914146,-33.529316,-29.012726,STD
993618313000,0.61485,0.255196580226735,9.67793131274369,0.993401487595411,-0.027183503,0.09712757,0.053145275,4.92283,-34.16905,-28.44613,STD
993623341000,0.619878,0.260739818545394,9.66298867042889,1.01268231724109,-0.026267206,0.12308934,0.06047566,4.9585648,-34.807396,-27.886145,STD
993628330000,0.624867,0.266240060385449,9.64816193166427,1.0318135939122,-0.023518313,0.13683382,0.06505715,5.003125,-35.43992,-27.330246,STD
993633315000,0.629852,0.271735892330262,9.63334708044326,1.05092953181668,-0.021685716,0.14935656,0.069027774,5.052449,-36.06786,-26.781893,STD
993638338000,0.634875,0.27727361827987,9.61841929755797,1.07019118800408,-0.02107485,0.14782938,0.073303826,5.11199,-36.691193,-26.236103,STD
993643341000,0.639878,0.28278929475327,9.60355095239072,1.08937615035837,-0.015882496,0.15851954,0.07391469,5.17723,-37.310287,-25.69922,STD
993648327000,0.644864,0.288286229171893,9.58873312928381,1.10849592295451,-0.009162978,0.16798794,0.07574729,5.25252,-37.92487,-25.1645,STD
993653322000,0.649859,0.29379308585481,9.57388855920378,1.12765020777555,-0.00580322,0.15943582,0.070554934,5.3413806,-38.532963,-24.633442,STD
993658337000,0.654874,0.299321992013934,9.55898455140571,1.1468811864297,0.00030543262,0.15668693,0.07819075,5.433838,-39.139584,-24.106771,STD
993663326000,0.659863,0.304822233853989,9.54415781264108,1.16601246310081,-0.0027488936,0.16310102,0.06047566,5.54304,-39.734146,-23.590466,STD
993668313000,0.66485,0.310320270746423,9.52933701764827,1.1851360703886,-0.007941248,0.18112154,0.058643065,5.654723,-40.327114,-23.075611,STD
993673340000,0.669877,0.315862406591272,9.51439734721937,1.20441306534263,-0.010079277,0.21227567,0.064751714,5.7737117,-40.912533,-22.571012,STD
993678330000,0.674867,0.321363750905137,9.49956763656885,1.22354817670539,-0.027794369,0.24923302,0.0693332,5.8972816,-41.48621,-22.076271,STD
993683312000,0.679849,0.326856275428518,9.48476170100554,1.2426526105349,-0.025961773,0.2843578,0.08399397,6.019689,-42.060356,-21.588459,STD
993688428000,0.684965,0.332496531442493,9.46955753273138,1.2622708930463,-0.02321288,0.3268129,0.086437434,6.1423917,-42.62309,-21.11539,STD
993693336000,0.689873,0.337907472903906,9.45497151672481,1.28109155969328,-0.005497787,0.3903429,0.092240654,6.2569566,-43.186337,-20.653973,STD
993698324000,0.694861,0.34340661227015,9.44014774984609,1.30021900167273,0.016493361,0.42455134,0.08979719,6.3777366,-43.74431,-20.200626,STD
993703672000,0.700209,0.349302642208135,9.42425410404269,1.32072693264829,0.04520403,0.44012842,0.09162979,6.494053,-44.303497,-19.758131,STD
993708347000,0.704884,0.354456707271726,9.41036053745126,1.33865411613945,0.07849618,0.47983465,0.09743301,6.604347,-44.86322,-19.330662,STD
993713328000,0.709865,0.359948129321298,9.39555757377386,1.35775471527731,0.11636983,0.52748215,0.09101892,6.718618,-45.423546,-18.913982,STD
993718315000,0.714852,0.365446166213731,9.38073677878104,1.3768783225651,0.122478485,0.5510005,0.08368854,6.835392,-45.978348,-18.503319,STD
993723314000,0.719851,0.37095743279189,9.3658803211574,1.39604794615277,0.13316862,0.5635232,0.08246681,6.950682,-46.53725,-18.103622,STD
993728344000,0.724881,0.37650287605817,9.3509317350708,1.41533644518176,0.1386664,0.56779927,0.064446285,7.0737166,-47.086624,-17.716066,STD
993733330000,0.729867,0.381999810476793,9.33611391196388,1.4344562177779,0.14630222,0.5717699,0.049785517,7.1998277,-47.632915,-17.334343,STD
993738335000,0.734872,0.387517691897814,9.32123962302483,1.4536488495155,0.16401732,0.58551437,0.032070424,7.3327503,-48.17395,-16.96386,STD
993743300000,0.739837,0.392991474366419,9.30648420952186,1.47268809358686,0.15943582,0.59559363,0.025045475,7.4721856,-48.704132,-16.598328,STD
993748284000,0.744821,0.398486203837422,9.29167233018674,1.49180019679969,0.16707164,0.5644395,0.027488936,7.6252723,-49.234417,-16.233782,STD
993753299000,0.749836,0.404015109996546,9.27676832238867,1.51103117545384,0.18173242,0.5635232,0.03573562,7.774577,-49.75866,-15.880642,STD
993758290000,0.754827,0.409517556784222,9.26193563985225,1.53017012150826,0.18417588,0.54519725,0.042760566,7.9404674,-50.275333,-15.522844,STD
993763288000,0.759825,0.41502772088857,9.24708215411451,1.54933591040427,0.18234327,0.5296202,0.058643065,8.108127,-50.790176,-15.165666,STD
993768386000,0.764923,0.420648132373957,9.23193147978658,1.56888516846586,0.17195857,0.5180137,0.09010262,8.280404,-51.29949,-14.80508,STD
993773888000,0.770425,0.426713943278743,9.21558016355428,1.58998364195643,0.1591304,0.5198463,0.13927728,8.452481,-51.804955,-14.440667,STD
993778339000,0.774876,0.431621054208806,9.20235229940488,1.60705185451667,0.1441642,0.52534413,0.160963,8.630855,-52.300938,-14.078439,STD
993783329000,0.779866,0.437122398522671,9.18752258875436,1.62618696587944,0.13744467,0.5687156,0.19761491,8.793705,-52.79632,-13.712357,STD
993788312000,0.784849,0.442616025519863,9.17271368130515,1.6452952344006,0.119729586,0.58368176,0.24281894,8.961992,-53.281487,-13.339948,STD
993793329000,0.789866,0.448147136626608,9.15780372973528,1.66453388243807,0.106595986,0.59528816,0.25717425,9.124505,-53.75994,-12.977297,STD
993798358000,0.794895,0.453691477419079,9.14285811553458,1.68381854677541,0.11209377,0.6218608,0.2910773,9.27657425411151,-54.2371326920377,-12.6050430772162,STD
993803301000,0.799838,0.459141005463855,9.12816808352144,1.70277342763035,0.10476339,0.63132924,0.33078352,9.426043,-54.706165,-12.239155,STD
993808445000,0.804982,0.287460937495537,9.26801055306487,1.53686188254315,0.035124753,0.6759224,0.3381139,9.567523,-55.15154,-11.883575,STD
993813288000,0.809825,0.10804826528665,9.41522103650069,1.36204956556239,0.015271631,0.6579019,0.3390302,9.721289,-55.60472,-11.516456,STD
993818359000,0.814896,-0.0454197219756628,9.57750233785121,1.22612407263554,-0.033292156,0.6545421,0.34513888,9.908227,-55.946655,-11.128263,STD
993823288000,0.819825,-0.190188865059359,9.73628118816779,1.10003481064503,-0.045814894,0.6536258,0.30604348,10.107697,-56.28284,-10.754804,STD
993828375000,0.824912,-0.230625527250996,9.9062908565737,1.01838467699203,-0.05375614,0.58123827,0.31887165,10.255607,-56.65335,-10.421703,STD
993833309000,0.829846,-0.253036811132612,10.0721344752419,0.946668528320053,-0.09101892,0.589485,0.27488935,10.401898,-56.998005,-10.128515,STD
993838460000,0.834997,-0.172502907681455,10.1952665782857,0.991547261054545,-0.08155051,0.5204572,0.23487769,10.547783,-57.38695,-9.854428,STD
993843391000,0.839928,-0.0645640922967273,10.2982991188571,1.07004824312727,-0.108123146,0.49663344,0.2134974,10.688469,-57.748093,-9.598053,STD
993848357000,0.844894,-0.0255973480664268,10.2845052088754,0.974460207679675,-0.12034045,0.4914411,0.15302174,10.866405,-58.13603,-9.354494,STD
993853301000,0.849838,0.000612301164683088,10.249558759941,0.84778021290525,-0.1001819,0.48258355,0.13622294,11.052441,-58.521408,-9.105009,STD
993858362000,0.854899,0.101478311974067,10.2572992340079,0.696139277980271,-0.10323623,0.40653083,0.12461651,11.321835,-58.891594,-8.819463,STD
993863327000,0.859864,0.236876226572358,10.2863131529543,0.536563173164853,-0.13713925,0.38026363,0.119729586,11.586488,-59.251442,-8.547161,STD
993868348000,0.864885,0.305947828343866,10.2198126422862,0.394349052246283,-0.12614368,0.35369098,0.08674286,11.944462,-59.634445,-8.253973,STD
993873429000,0.869966,0.346648366639405,10.1112780434944,0.258680586539033,-0.08674286,0.2666427,0.07360926,12.326705,-60.011265,-7.950127,STD
993878366000,0.874903,0.439247976401634,9.99547467881835,0.438260795160277,-0.06780604,0.19242255,0.0852157,12.849468,-60.41291,-7.582034,STD
993883380000,0.879917,0.575062860413786,9.86972023926252,0.865826183787974,-0.070554934,0.19547687,0.064446285,13.386031,-60.8096,-7.230611,STD
993888425000,0.884962,0.493469935981595,9.809676198773,0.960306942147239,-0.038789943,0.13530666,0.061086524,14.123649,-61.23438,-6.8023667,STD
993893456000,0.889993,0.296410990199387,9.78504384662577,0.876556893404908,-0.037873644,0.076358154,0.0852157,14.864978,-61.644733,-6.3807735,STD
993898358000,0.894895,0.110242900684798,9.81990245020544,0.820041470054784,-0.07452556,0.09621128,0.05681047,15.759662,-61.9835,-5.9140697,STD
993903328000,0.899865,-0.0760092252788104,9.88043415241636,0.773478423977695,-0.043982297,0.051618114,0.037873644,16.685642,-62.337997,-5.4333925,STD
993908343000,0.90488,-0.291123060963422,9.86555047951229,0.793435445052968,-0.046731193,-0.057421334,0.056199603,17.793463,-62.69188,-4.947578,STD
993913355000,0.909892,-0.521379900947432,9.80798661263242,0.850999662562463,-0.086437434,-0.031154128,0.020158553,18.892893,-63.036022,-4.5035734,STD
993918320000,0.914857,-0.691703807858956,9.80130401631617,0.791408659231327,-0.07269296,-0.023518313,-0.022907447,20.1047,-63.431488,-4.0777555,STD
993923301000,0.919838,-0.830070958096447,9.8229238680203,0.666013447106599,-0.07147124,-0.12492194,-0.027794369,21.343355,-63.80916,-3.6529758,STD
993928315000,0.924852,-0.949461827986091,9.83339770163238,0.564013162974983,-0.11453723,-0.0983493,-0.046731193,22.626055,-64.153915,-3.296863,STD
993933344000,0.929881,-1.04250106763257,9.82874564589974,0.494233730811359,-0.11056661,-0.027488936,-0.073303826,23.930004,-64.511116,-2.9485812,STD
993938341000,0.934878,-1.12223916052263,9.84845246475771,0.382164267215459,-0.115453534,0.032070424,-0.09865474,25.24617,-64.875916,-2.6467824,STD
993943349000,0.939886,-1.17986109420304,9.91087597136564,0.194893007322787,-0.13958271,-0.02565634,-0.095294975,26.577383,-65.23612,-2.349798,STD
993948262000,0.944799,-1.22438460575337,9.94054583913845,0.118891035498011,-0.17195857,-0.02687807,-0.07971791,27.868757,-65.60231,-2.104334,STD
993953333000,0.94987,-1.24794332933928,9.91227527243621,0.241396489655962,-0.17165314,0.09315695,-0.08979719,29.14812,-65.97025,-1.8820109,STD
993958270000,0.954807,-1.26276592623469,9.91754741376926,0.313258267512841,-0.14385876,0.13713925,-0.122783914,30.567879,-66.37554,-1.6420424,STD
993963329000,0.959866,-1.25798036408534,10.0036878322797,0.270188178186488,-0.12461651,0.14996742,-0.13408493,31.961075,-66.77869,-1.4205406,STD
993968272000,0.964809,-1.23517960447716,10.0497182804061,0.245880876708629,-0.118202426,0.04337143,-0.10323623,33.244198,-67.153114,-1.2339842,STD
993973366000,0.969903,-1.16088886362437,9.9902855222335,0.270644450097462,-0.14782938,0.1337795,-0.110872045,34.475986,-67.52099,-1.0930588,STD
993978365000,0.974902,-0.973570158598603,9.92108086335404,0.464092214013975,-0.12736541,0.22052236,-0.14844026,35.77313,-67.920296,-0.9392033,STD
993983380000,0.979917,-0.535429383389946,9.82785948913044,1.02808196610054,-0.13194689,0.24312437,-0.15515977,37.05779,-68.302925,-0.79167306,STD
993988362000,0.984899,-0.208476621638655,9.7654054012605,1.38523688161765,-0.14019357,0.16462818,-0.14263703,38.374695,-68.68295,-0.6362331,STD
993993337000,0.989874,-0.199772816423091,9.79151688052612,1.14588228363171,-0.17012598,0.1591304,-0.109650314,39.660122,-69.05357,-0.49704584,STD
993998413000,0.99495,-0.185353209331269,9.81659070856553,0.920828255779154,-0.15974127,0.23426682,-0.12858713,40.83182,-69.31117,-0.30872262,STD
994003317000,0.999854,-0.102959070854489,9.82143752053664,0.940215124097007,-0.11942416,0.2452624,-0.13652839,42.01384,-69.56659,-0.11230375,STD
994008320000,1.004857,-0.0214443442557023,9.82468304261705,0.930217797163866,-0.10873401,0.20158553,-0.112704635,43.326313,-69.87514,0.10156495,STD
994013363000,1.0099,0.0413653651092437,9.81501981512605,0.693473491176471,-0.13347405,0.14752395,-0.06505715,44.6303,-70.18135,0.3075444,STD
994018336000,1.014873,0.0991752787241008,9.79869985053415,0.489552886739194,-0.14355333,0.22266038,-0.055588737,45.9,-70.48658,0.5038797,STD
994023374000,1.019911,0.127548084972067,9.7324967877095,0.499010476312849,-0.13591751,0.27183503,-0.052839845,47.179554,-70.785675,0.706741,STD
994028883000,1.02542,0.151668403828125,9.67491572544643,0.499768208325893,-0.12950343,0.26236662,-0.051618114,48.27639,-71.10265,0.87324095,STD
994033378000,1.029915,0.144276965216346,9.68600272321429,0.462811011407967,-0.112399206,0.12339478,0.010079277,49.38393,-71.41942,1.0552914,STD
994038398000,1.034935,0.136022232884615,9.69838464285714,0.42153734543956,-0.14996742,0.122783914,0.035124753,50.47702,-71.713844,1.2176565,STD
994043352000,1.039889,0.0576519735712126,9.64671695040822,0.491865209734906,-0.129198,0.16676621,0.032070424,51.58655,-72.0249,1.388148,STD
994048266000,1.044803,-0.0419618794980345,9.57556425128515,0.596222576079024,-0.11942416,0.18112154,0.02565634,52.69607,-72.31736,1.5577805,STD
994053359000,1.049896,0.0959446500549235,9.44537630953315,0.886885964358572,-0.12156218,0.16493362,0.0106901415,53.775013,-72.61594,1.707525,STD
994058280000,1.054817,0.30394151171734,9.30208958915261,1.22430312789035,-0.14080444,0.056505036,0.04550946,54.86527,-72.906624,1.8670312,STD
994063362000,1.059899,0.164263035699451,9.30981048107838,1.14646286628058,-0.18936823,0.062002823,0.0711658,56.02633,-73.17515,2.0024846,STD
994068314000,1.064851,-0.105650874083874,9.37610547378931,0.909696250124813,-0.18142697,0.1572978,0.03481932,57.185608,-73.45164,2.1225123,STD
994073346000,1.069883,-0.232990674241002,9.46969370109546,0.835954811768388,-0.15485434,0.17745635,0.031154128,58.504433,-73.64956,2.3263867,STD
994078345000,1.074882,-0.303229024973592,9.57270957658451,0.826589685950704,-0.17256944,0.12614368,0.030848695,59.804592,-73.83447,2.5068133,STD
994083355000,1.079892,-0.310190161519321,9.57777878633365,0.894543259046183,-0.17592919,0.079107046,0.043066,61.06263,-74.0837,2.6154416,STD
994088376000,1.084913,-0.287529863230914,9.53699037813384,0.998780657673892,-0.16554448,0.025961773,0.0571159,62.322197,-74.32828,2.7189777,STD
994093312000,1.089849,-0.307621744428807,9.57913469846234,0.951889388828077,-0.17256944,0.04886922,0.07696902,63.583122,-74.57572,2.8033142,STD
994099145000,1.095682,-0.370709194158631,9.7053096181913,0.757774131604552,-0.1591304,0.105374254,0.09040806,64.83338,-74.82776,2.8817356,STD
994103332000,1.099869,-0.406663711383264,9.76667883792146,0.654697681630796,-0.13836098,0.13652839,0.10140363,66.00655,-75.0482,2.953849,STD
994108305000,1.104842,-0.424000188578059,9.76017775542613,0.630860024639396,-0.1423316,0.14538592,0.1151481,67.15538,-75.26124,3.0197644,STD
994113289000,1.109826,-0.441375013098239,9.75366229289712,0.606969640073713,-0.15210545,0.1572978,0.12797627,68.255775,-75.516495,3.0566413,STD
994118329000,1.114866,-0.458945060365837,9.74707362292397,0.582810824220776,-0.1731803,0.16982053,0.1301143,69.340126,-75.76311,3.0871084,STU
994123429000,1.119966,-0.476724274862811,9.74040651640351,0.558364403417209,-0.17806722,0.17989981,0.14446963,70.40687,-76.00576,3.1176124,STU
994128309000,1.124846,-0.399343991503238,9.85317894407956,0.426746411182239,-0.17104226,0.17654006,0.15821409,71.46053,-76.241585,3.142709,STU
994133852000,1.130389,-0.296220117141536,10.0004983983349,0.259783949395005,-0.16676621,0.0143553335,0.24495697,72.53679,-76.46521,3.1961899,STU
994138405000,1.134942,-0.308597350119754,9.92744662252189,0.271003293493006,-0.22357668,0.15088372,0.25961772,73.493935,-76.68361,3.195569,STU
994143332000,1.139869,-0.35133301863339,9.78974274886787,0.327984184844521,-0.19486602,0.23640485,0.23976462,74.49461,-76.91943,3.2179012,STU
994148339000,1.144876,-0.374304486321033,9.69379825404087,0.372460579266036,-0.18142697,0.29871312,0.23182335,75.34069,-77.14687,3.240728,STU
994153323000,1.14986,-0.38886099880248,9.61616398017688,0.411277949260954,-0.18051068,0.3100141,0.2452624,76.168144,-77.37395,3.2585473,STU
994158345000,1.154882,-0.425772208107913,9.56651801279274,0.483945411637264,-0.20433442,0.29932398,0.26267207,77.005394,-77.58488,3.2646742,STU
994163316000,1.159853,-0.469974911416486,9.52722644516662,0.567439410764469,-0.2098322,0.26816985,0.2666427,77.83547,-77.79697,3.268079,STU
994168844000,1.165381,-0.521867125860188,9.51504323480416,0.622909345013386,-0.2284636,0.24770586,0.2742785,78.67908,-77.987144,3.2745202,STU
994173348000,1.169885,-0.56463750733763,9.51076610956867,0.661402695042142,-0.22632557,0.21563543,0.27458394,79.52432,-78.17805,3.2790852,STU
994178330000,1.174867,-0.567240765955782,9.47293082977891,0.744052878908237,-0.24617869,0.17745635,0.29046643,80.458885,-78.347084,3.2914612,STU
994183395000,1.179932,-0.557750159029544,9.42547779514772,0.838958997720603,-0.27000242,0.14049901,0.29535335,81.38859,-78.51293,3.2984276,STU
994188338000,1.184875,-0.73856815581325,9.46785782524957,0.624942403940708,-0.28985557,0.043676864,0.33353242,82.37356,-78.66742,3.3142338,STU
994193336000,1.189873,-0.984722150529394,9.54025599969749,0.306390214617324,-0.32253686,0.022602014,0.36987892,83.331474,-78.808174,3.3247468,STU
994198333000,1.19487,-1.00838430989848,9.5647506751269,0.382440277360406,-0.32436943,0.13775012,0.33505958,84.20399,-78.92588,3.322069,STU
994203337000,1.199874,-0.96160338227255,9.57410704139008,0.583598068317064,-0.28893927,0.14844026,0.31398472,85.09599,-79.03827,3.3364072,STU
994208344000,1.204881,-0.903981723993719,9.60832278313476,0.606978638551769,-0.31031954,0.13530666,0.30604348,85.98152,-79.21454,3.2840264,STU
994213330000,1.209867,-0.842237991109264,9.65242541987624,0.558465738136141,-0.29260445,0.14385876,0.29443705,86.84456,-79.409454,3.2212749,STU
994218330000,1.214867,-0.774458695777946,9.69801269944704,0.505210576797138,-0.27977628,0.16279559,0.2883284,87.61808,-79.5472,3.164584,STU
994223380000,1.219917,-0.701046567077957,9.74520608012577,0.447529589591239,-0.26145032,0.17623462,0.28955013,88.37997,-79.68861,3.1055117,STU
994228351000,1.224888,-0.630884363367297,9.80783490247453,0.401514938020378,-0.24251351,0.17806722,0.29260445,89.17941,-79.842804,3.0545578,STU
994233375000,1.229912,-0.560849608355167,9.87786960873362,0.3594940850131,-0.22388211,0.17654006,0.28863382,89.96335,-79.99865,3.0002506,STU
994238668000,1.235205,-0.492828261528423,9.94923489569946,0.321356543264459,-0.20463985,0.17592919,0.29260445,90.67882,-80.155464,2.9557638,STU
994243345000,1.239882,-0.435262312142363,10.0112288428077,0.290359504976767,-0.18387043,0.16279559,0.2864958,91.38836,-80.31515,2.9070961,STU
994248330000,1.244867,-0.391496837052632,10.0626005876537,0.283529072009838,-0.17623462,0.14660765,0.2846632,92.048,-80.471596,2.8719516,STU
994253333000,1.24987,-0.358502315368421,10.1050222378751,0.292956082424004,-0.17134771,0.12736541,0.28955013,92.70337,-80.62897,2.8369389,STU
994258333000,1.25487,-0.347584822370041,10.1339636942566,0.319439243627738,-0.16218472,0.112704635,0.29565877,93.333145,-80.786,2.8133414,STU
994263336000,1.259873,-0.35242108263652,10.1533088464217,0.358129265159988,-0.15424347,0.07391469,0.29535335,93.96702,-80.94018,2.7903438,STU
994268339000,1.264876,-0.37419901205657,10.1666652909055,0.418883250516598,-0.13316862,0.039095376,0.29840767,94.58833,-81.09182,2.7756722,STU
994273410000,1.269947,-0.407586153329405,10.176204169613,0.495196740473384,-0.12889257,0.011301007,0.2932153,95.21097,-81.23789,2.7589529,STU
994278366000,1.274903,-0.431681905060162,10.174993962869,0.575660812605753,-0.10995574,-0.016187929,0.29535335,95.846596,-81.38433,2.7450528,STU
994283414000,1.279951,-0.449859654358902,10.1659053800526,0.662005101607445,-0.10170906,-0.035124753,0.30024028,96.4792,-81.525345,2.7302125,STU
994288389000,1.284926,-0.44878590126495,10.1762530077032,0.750106842363673,-0.09743301,-0.05222898,0.301462,97.1357,-81.65961,2.7078698,STU
994293382000,1.289919,-0.424552669798297,10.2101791926819,0.842193106754511,-0.10354166,-0.05955936,0.30757064,97.784386,-81.78856,2.6876676,STU
994298360000,1.294897,-0.391826772543375,10.2591028048107,0.919497144428233,-0.095294975,-0.058643065,0.3100141,98.45879,-81.90812,2.6635945,STU
994303327000,1.299864,-0.349623313446372,10.3247529913249,0.980457687752366,-0.08735373,-0.04734206,0.3203988,99.120476,-82.02104,2.6423895,STU
994308331000,1.304868,-0.311070254335226,10.3600278634598,1.02968269217209,-0.07971791,-0.038179077,0.32436943,99.79505,-82.118355,2.625475,STU
994313406000,1.309943,-0.277187555873917,10.3551878873618,1.06356540579624,-0.06383542,-0.034208454,0.33322698,100.45504,-82.21524,2.6115394,STU
994318309000,1.314846,-0.262584653905941,10.3445070772277,1.12028255836634,-0.040927973,-0.04428773,0.33108896,101.10865,-82.301315,2.603139,STU
994323359000,1.319896,-0.272161468905941,10.3253530772277,1.21126220836634,-0.01160644,-0.05467244,0.3268129,101.74904,-82.3896,2.5953043,STU
994328286000,1.324823,-0.290995058110283,10.2971624342772,1.31910453874814,-0.0027488936,-0.07238753,0.32284227,102.383224,-82.46675,2.5941262,STU
994333408000,1.329945,-0.325109990259314,10.2532999977149,1.46043789741679,-0.007941248,-0.07452556,0.31856623,103.004105,-82.54537,2.590147,STU
994338373000,1.33491,-0.348571571545293,10.2375453189264,1.57993127570555,-0.009468411,-0.084910266,0.3191771,103.61125,-82.60797,2.5868363,STU
994343363000,1.3399,-0.358002848809947,10.2611234874679,1.67424394987172,-0.0125227375,-0.10415252,0.3173445,104.210655,-82.66693,2.5809324,STU
994348257000,1.344794,-0.362255752705975,10.3041826670932,1.76666018060833,-0.004886922,-0.113926366,0.3203988,104.75111,-82.698326,2.5753975,STU
994354133000,1.35067,-0.356716499157397,10.3983507871838,1.87744536726056,-0.015577064,-0.10323623,0.32345316,105.282776,-82.722694,2.5685213,STU
994358267000,1.354804,-0.346909594300817,10.4580438125901,1.95020791331091,-0.029321533,-0.10293079,0.3313944,105.782715,-82.72787,2.5662856,STU
994363368000,1.359905,-0.32343467954445,10.5190783438731,2.03002265485824,-0.036651913,-0.08582657,0.3378085,106.26741,-82.73083,2.5629132,STU
994368301000,1.364838,-0.315294122926015,10.6283856769887,2.10873019695902,-0.046731193,-0.06627888,0.3481932,106.72824,-82.711044,2.5651705,STU
994373392000,1.369929,-0.351456195431114,10.8950807280734,2.19461502711849,-0.06078109,-0.055588737,0.3594942,107.18,-82.68715,2.5686934,STU
994378312000,1.374849,-0.372931857584387,11.1505578890227,2.25347845771624,-0.06780604,-0.034513887,0.37201694,107.608376,-82.645905,2.5798178,STU
994383432000,1.379969,-0.262230662770018,11.3941005580975,2.07635656327514,-0.073303826,-0.009468411,0.3820962,108.02641,-82.6006,2.592342,STU
994388355000,1.384892,-0.155788869396749,11.6282725424443,1.90604971047562,-0.081855945,0.013744468,0.40194935,108.41977,-82.54368,2.6067216,STU
994393371000,1.389908,-0.0473362926020469,11.8668682510536,1.73252560451535,-0.07544186,0.018936822,0.5876524,108.79971,-82.472206,2.6704676,STU
994398296000,1.394833,0.044260563427949,12.0986114669572,1.56671450627658,-0.09590584,0.08155051,0.5674938,109.14889,-82.409515,2.6813004,STU
994403307000,1.399844,0.00940988969561158,12.3126943420479,1.43726918353564,-0.04337143,0.1591304,0.48808134,109.48318,-82.35655,2.7255304,STU
994408327000,1.404864,-0.0215875818606291,12.5149296805233,1.29953461222047,0.007330383,0.10934488,0.46822822,109.95027,-82.35882,2.8008049,STU
994413333000,1.40987,-0.0349330836243853,12.6617303866568,1.12604305863413,0.0061086523,0.070554934,0.45112398,110.3854,-82.3671,2.8499513,STU
994418659000,1.415196,-0.0537566020440252,12.8155446194969,0.933407409056604,0.009162978,0.05467244,0.42210788,110.82229,-82.41941,2.8794978,STU
994423393000,1.41993,-0.113159906720126,12.9303908474843,0.687873735283019,0.03481932,0.043066,0.52626044,111.25527,-82.461235,2.942779,STU
994428339000,1.424876,-0.175223435433263,13.0503801680643,0.431344468176101,0.03940081,0.018325957,0.59712076,111.65795,-82.53294,2.984029,STU
994433366000,1.429903,-0.358202564040469,13.3041399484527,0.357382719536715,0.062002823,0.04795292,0.5137377,112.04249,-82.61798,3.0088122,STU
994438338000,1.434875,-0.580543725845999,13.6005948794177,0.348663455790148,0.14477506,0.06078109,0.47678033,112.42734,-82.702354,3.0670516,STU
994443331000,1.439868,-0.857029820343293,13.8652454638695,0.26887508761602,0.18997909,0.06627888,0.41416663,112.786674,-82.8445,3.0781305,STU
994448336000,1.444873,-1.17698216125238,14.1039396305361,0.131752628525111,0.2666427,0.08124508,0.31642818,113.13524,-83.01927,3.0680752,STU
994453318000,1.449855,-1.28178538449543,14.1546240379675,0.0440055554822961,0.35827246,0.11453723,0.2507602,113.50063,-83.240005,3.003681,STU
994458370000,1.454907,-1.27949209690003,14.111051166564,-0.020207213190027,0.46028697,0.13225232,0.20677789,113.86016,-83.48536,2.920533,STU
994463358000,1.459895,-1.27722786124567,14.0680302871972,-0.0836065184429066,0.54244834,0.12003502,0.16432275,114.237564,-83.80126,2.7664406,STU
994468347000,1.464884,-1.27496317165474,14.0250007829549,-0.147018534061715,0.6426302,0.109650314,0.14355333,114.600075,-84.14079,2.6108122,STU
994473341000,1.469878,-1.21529156641304,13.9709107815217,-0.217013567711957,0.7257079,0.08735373,0.1423316,114.97687,-84.490944,2.4579296,STU
994478370000,1.474907,-1.0844171983913,13.9028563856522,-0.295538183058696,0.8222246,0.08124508,0.13041973,115.34204,-84.86408,2.3005235,STU
994483439000,1.479976,-0.737332457593487,13.8940918431992,-0.478417464777778,0.88789266,0.058948494,0.11789699,115.68791,-85.25574,2.1503341,STU
994488400000,1.484937,-0.268598232655939,13.9213968260536,-0.719610811555556,0.97158116,0.17073683,0.20158553,115.986206,-85.65487,2.0251987,STU
994493426000,1.489963,-0.104701615480702,14.0401412992481,-1.00880017814536,1.0158689,0.2779437,0.3036,116.260735,-86.04498,1.9255997,STU
994498373000,1.49491,-0.209191052461754,14.2348715852632,-1.33176751564912,1.0742066,0.35705075,0.25625798,116.505745,-86.45671,1.8078613,STU
994503305000,1.499842,-0.324236066561919,14.3877013827704,-1.57681861799315,1.1548407,0.4147775,0.17501289,116.66314,-86.841705,1.7883517,STU
994508379000,1.504916,-0.45267496122467,14.5066262070485,-1.75758449991189,1.2690725,0.45356745,0.08124508,116.800964,-87.232376,1.7508429,STU
994513359000,1.509896,-0.374858765621183,14.2910759002903,-1.87398233867254,1.3683381,0.39645153,0.016798794,116.93194,-87.661125,1.6817758,STU
994518317000,1.514854,-0.0849007946511162,13.7301736724397,-1.926269856362,1.4395039,0.43218717,0.05955936,117.02234,-88.04637,1.6172704,STU
994523362000,1.519899,0.0535099722223398,13.377640059746,-2.0393438520204,1.509448,0.49541172,0.05100725,117.13196,-88.40872,1.5039037,STU
994529124000,1.525661,0.0216560779212045,13.2396065101982,-2.24108508705984,1.5824465,0.56382865,-0.008857546,117.225914,-91.39206,1.3906109,STU
994534041000,1.530578,-0.0374550756428186,13.0696833774942,-2.34815785096171,1.7037032,0.61300325,-0.07788532,117.27717,-91.4824,1.3215624,STU
994538379000,1.534916,-0.112134543763077,12.8829848407334,-2.39669954849901,1.8753563,0.6215554,-0.13041973,117.31798,-91.79966,1.2414637,STU
994543314000,1.539851,-0.190215882564298,12.6231053019834,-2.4255725891238,1.9724839,0.61086524,-0.22724187,117.346985,-92.265495,1.1291,STU
994548374000,1.544911,-0.237745070249564,12.1319704305798,-2.33051418066696,2.1740694,0.5726862,-0.3155119,117.3779,-92.87316,1.0058738,STU
994553284000,1.549821,-0.296292278620219,11.7224108374317,-2.39946751331967,2.3689353,0.5006041,-0.44348818,117.41629,-93.54228,0.8311282,STU
994558348000,1.554885,-0.381474263397736,11.4337381301717,-2.79225112901054,2.5329528,0.49480084,-0.56291234,117.44105,-94.27817,0.6367762,STU
994563708000,1.560245,-0.468564370440451,10.9038145452556,-2.96234634406369,2.708271,0.49235737,-0.66523224,117.496826,-95.07565,0.4112031,STU
994568322000,1.564859,-0.538513684562808,10.0808819307664,-2.70723717127293,2.9153545,0.48166725,-0.80481493,117.54679,-95.9313,0.14371246,STU
994573324000,1.569861,-0.611738429767442,9.34273225415282,-2.48761528538206,3.075401,0.44959682,-1.0009027,117.57793,-96.89014,-0.1760535,STU
994578336000,1.574873,-0.669725680338266,9.51186139439243,-2.60358982689016,3.1468723,0.42760566,-1.1432343,117.59808,-97.88159,-0.51577675,STU
994583340000,1.579877,-0.717529039350453,9.70974357694486,-2.69188197984328,3.1951306,0.419359,-1.2647965,117.6324,-98.89099,-0.9135747,STU
994588346000,1.584883,-0.713002844033233,10.05826127804,-2.63756768329872,3.1813862,0.42485678,-1.3771957,117.653305,-99.90454,-1.3446325,STU
994593486000,1.590023,-0.707290780677151,10.4225248855054,-2.56763003425824,3.120605,0.41233405,-1.473407,117.67597,-100.93441,-1.8075709,STU
994598328000,1.594865,-0.688710848552539,10.8452179533206,-2.32609072262847,2.989269,0.35521814,-1.5677856,117.69269,-101.93995,-2.297162,STU
994603477000,1.600014,-0.67491416896257,11.2926915108557,-2.07413098618725,2.8344147,0.2657264,-1.6584991,117.7344,-102.9017,-2.8026094,STU
994608338000,1.604875,-0.734368640194518,11.6905795708812,-1.89576748175656,2.6615398,0.13439035,-1.7672331,117.78527,-103.82161,-3.3374422,STU
994613653000,1.61019,-0.806823880438877,12.1456260491618,-1.68503995095122,2.4996605,-0.004886922,-1.8591684,117.89923,-104.64748,-3.886009,STU
994618310000,1.614847,-0.958036043248258,12.7798771685817,-1.31541020307026,2.3512204,-0.15515977,-1.9679024,118.0313,-105.43348,-4.4688907,STU
994623305000,1.619842,-1.12022302053682,13.4601615451121,-0.918953129704276,2.2470677,-0.32528573,-2.055867,118.25082,-106.15025,-5.077258,STU
994628342000,1.624879,-1.02954896813735,13.7006251712066,-0.651307361820449,2.1615467,-0.47555858,-2.1288655,118.483574,-106.83739,-5.707856,STU
994633436000,1.629973,-0.903213370861308,13.8831096839632,-0.398636196583541,2.1065688,-0.5390886,-2.198504,118.716805,-107.51064,-6.3538003,STU
994638334000,1.634871,-0.708683692857143,13.9766651428571,-0.0259942,2.087632,-0.6469063,-2.2250767,118.95584,-108.08813,-6.997945,STU
994643272000,1.639809,-0.496143163451043,14.0525724276083,0.378844937348315,2.0964894,-0.75747293,-2.2464569,119.19923,-108.66581,-7.6510463,STU
994648332000,1.644869,-0.334872804910299,13.9105502245847,0.589644934299003,2.1099286,-0.86101454,-2.2693644,119.47042,-109.19021,-8.275436,STU
994653292000,1.649829,-0.181571168232558,13.7527398325581,0.77901753655814,2.107485,-0.93767816,-2.2815816,119.75565,-109.71397,-8.896867,STU
994658342000,1.654879,-0.0485470937659394,13.5029843026353,0.914971762108246,2.0916026,-0.960891,-2.302962,120.05055,-110.17253,-9.485049,STU
994663331000,1.659868,0.0778157373958628,13.2367195772173,1.03682166177387,2.0668626,-0.8713993,-2.296548,120.32968,-110.62618,-10.054129,STU
994668312000,1.664849,0.0787268482192841,12.7929643753628,1.05812443947114,2.0118847,-0.73823065,-2.3011293,120.602196,-111.04415,-10.591849,STU
994673347000,1.669884,0.0268949432090723,12.2694623872944,1.03739163763302,1.9242256,-0.6404922,-2.302351,120.85468,-111.44587,-11.1119995,STU
994679283000,1.67582,-0.269460678881824,11.7222767447543,0.366874590031792,1.8225164,-0.49388456,-2.3252585,121.04949,-111.82271,-11.602214,STU
994683304000,1.679841,-0.493326047646834,11.3584954977745,-0.150814042410755,1.6985108,-0.26939157,-2.3857343,121.187645,-112.178055,-12.077648,STU
994688352000,1.684889,-0.819266959781247,11.1273265386298,-0.781567206978224,1.5968018,0.05955936,-2.4932466,121.24708,-112.55911,-12.558843,STU
994693338000,1.689875,-1.16586607508004,11.0228718960923,-1.3940505009466,1.5845845,0.42210788,-2.637716,121.222916,-112.946205,-13.032925,STU
994698331000,1.694868,-1.29874955640031,11.1463126080295,-1.86252360552754,1.5855007,0.7333437,-2.7681358,121.094345,-113.46819,-13.55368,STU
994703327000,1.699864,-1.30802917098526,11.4015024935997,-2.24762794994182,1.6444492,0.94897914,-2.8499918,120.88009,-114.0115,-14.063444,STU
994708339000,1.704876,-1.29852468862405,11.6597987150596,-2.58072923608786,1.7284433,1.061073,-2.866485,120.59301,-114.67795,-14.609552,STU
994713331000,1.709868,-1.27498116186349,11.9187769685807,-2.87266850574215,1.842675,1.1343768,-2.8350255,120.25126,-115.36166,-15.133705,STU
994718323000,1.71486,-1.2499770710259,12.0805301883408,-2.99059563286355,1.9220876,1.1982121,-2.7907379,119.900085,-116.07909,-15.621969,STU
994723365000,1.719902,-1.22346317392697,12.1600716950673,-2.9596627529148,1.9975294,1.2458596,-2.7705793,119.53103,-116.80847,-16.088465,STU
994728290000,1.724827,-1.24077795559893,12.1115373299774,-2.97076996564619,2.0549507,1.2476922,-2.7324002,119.187096,-117.54404,-16.506361,STU
994733315000,1.729852,-1.33965492292994,11.8247943312102,-3.05975933949045,2.0760255,1.219287,-2.7269025,118.83407,-118.27759,-16.913498,STU
994738300000,1.734837,-1.37531371038484,11.7236739489189,-3.11818729242214,2.0867157,1.2608259,-2.7806585,118.47575,-119.000984,-17.302134,STU
994743293000,1.73983,-1.31839999801627,11.8944150365007,-3.13241570813331,2.0735822,1.4126259,-2.8533516,118.09016,-119.71355,-17.672945,STU
994749012000,1.745549,-1.29056072336305,11.9900473604161,-3.12665537977183,2.053118,1.5100589,-2.833193,117.7163,-120.44958,-18.052622,STU
994753309000,1.749846,-1.30239615507622,11.974266771067,-3.10298472231809,2.0595322,1.5705346,-2.7849348,117.30359,-121.183495,-18.417553,STU
994758270000,1.754807,-1.30638249737873,11.937461141157,-3.06681167741288,2.0943515,1.6276505,-2.7482827,116.891914,-121.88922,-18.744976,STU
994763285000,1.759822,-1.28708842190419,11.8554615848147,-3.00892940062268,2.1248949,1.7189748,-2.7369816,116.45692,-122.57922,-19.043486,STU
994768276000,1.764813,-1.2794779411975,11.7265931730712,-2.93423422803098,2.1499403,1.8142698,-2.6911669,116.01933,-123.25162,-19.310291,STU
994773309000,1.769846,-1.29862208188859,11.4872920391222,-2.8193696337603,2.17804,1.9327776,-2.6258042,115.55635,-123.914604,-19.544004,STU
994778302000,1.774839,-1.28852140173811,11.2174866451613,-2.62975527769922,2.2107213,2.0842721,-2.5610526,115.06468,-124.56446,-19.74115,STU
994783311000,1.779848,-1.20844146834094,10.8689033333333,-2.25761921354642,2.2269092,2.2452352,-2.496301,114.55201,-125.1947,-19.895418,STU
994788327000,1.784864,-1.12824962447587,10.5198328817204,-1.88496309500172,2.2565362,2.3768766,-2.4388795,114.02347,-125.82782,-20.033493,STU
994793326000,1.789863,-1.04832956317573,10.171945483871,-1.51356996569451,2.28036,2.5540276,-2.408947,113.451965,-126.44644,-20.124832,STU
994798299000,1.794836,-0.971335680394562,9.76889286456097,-1.20429497985281,2.2907448,2.6038132,-2.2879958,112.88735,-127.03878,-20.194149,STU
994803237000,1.799774,-0.903660751293059,9.1694863929265,-1.10761648086477,2.3231206,2.6294694,-2.1642957,112.29665,-127.62661,-20.226028,STU
994808256000,1.804793,-0.839295632627283,8.57856505736494,-1.03192416272833,2.3383923,2.7003298,-2.039679,111.68021,-128.14847,-20.201208,STU
994813246000,1.809783,-0.788219937815779,8.04459219727944,-1.02263768157792,2.3692408,2.7479773,-1.9413297,111.08872,-128.65732,-20.147308,STU
994818609000,1.815146,-0.70591980207772,7.4135056107772,-1.00719225979275,2.3768766,2.814867,-1.8038851,110.50746,-129.1778,-20.06292,STU
994823255000,1.819792,-0.562986228334715,6.71728079734715,-0.979527712974093,2.3732114,2.8206704,-1.6542231,109.95881,-129.67743,-19.950336,STU
994828251000,1.824788,-0.392566974594412,6.0425835200867,-0.983391376136802,2.3371704,2.8072312,-1.5903877,109.4064,-130.211,-19.837967,STU
994833242000,1.829779,-0.176141284745665,5.5728936367052,-1.08009219346821,2.302351,2.7818804,-1.4618006,108.903656,-130.70364,-19.673763,STU
994838276000,1.834813,0.0354779859826947,5.10145509814586,-1.18084747700865,2.2177463,2.7534752,-1.3487904,108.45235,-131.23546,-19.534836,STU
994843252000,1.839789,0.217101914223321,4.6449408763082,-1.29374880622167,2.1401663,2.7528641,-1.2519683,108.02926,-131.73703,-19.367678,STU
994848247000,1.844784,0.402316226606924,4.21296308785964,-1.37459738247335,2.072971,2.6829202,-1.1365148,107.67195,-132.25273,-19.190765,STU
994853732000,1.850269,0.61538456736723,3.82646683920385,-1.3547771349967,1.9914207,2.5778513,-1.047023,107.34311,-132.7297,-19.004307,STU
994858314000,1.854851,0.780077624580401,3.48999325830175,-1.36316714923299,1.8851302,2.477364,-0.95356065,106.868835,-133.19788,-18.72629,STU
994863326000,1.859863,0.87969648391987,3.03954285631655,-1.52342352006858,1.7760907,2.3683245,-0.816116,106.45772,-133.62262,-18.439444,STU
994868306000,1.864843,0.978679309041689,2.59196843455153,-1.68265670577513,1.6615535,2.283109,-0.7666359,105.972694,-134.03606,-18.111237,STU
994873380000,1.869917,1.15079578507543,2.44580604832974,-1.82080072079741,1.5216653,2.205529,-0.659429,105.55919,-134.38687,-17.759163,STU
994878360000,1.874897,1.32101058072409,2.33574232543337,-1.94941801569159,1.3897184,2.1105394,-0.5665775,105.18543,-134.70319,-17.419456,STU
994883321000,1.879858,1.4368271323402,2.32287369030336,-2.01805010931744,1.2718215,1.9666806,-0.46792278,104.74491,-135.04356,-17.037876,STU
994888379000,1.884916,1.55490818819068,2.30975344106176,-2.08802413261105,1.1270463,1.8054122,-0.3717115,104.31493,-135.34796,-16.618797,STU
994893332000,1.889869,1.36696231321192,2.54784585923841,-2.25117753016556,1.0091494,1.7214183,-0.36163223,103.90935,-135.62654,-16.208294,STU
994898484000,1.895021,1.13066735401217,2.82558896368467,-2.42707331889673,0.8888089,1.6310102,-0.30085114,103.57677,-135.84932,-15.798921,STU
994903322000,1.899859,1.01428756503333,2.95539735056516,-2.48078703745532,0.77488256,1.5161675,-0.23884831,103.26175,-136.04352,-15.375188,STU
994908663000,1.9052,0.899030184742448,3.09461336281952,-2.54176769235089,0.6600399,1.4156802,-0.18325958,103.01026,-136.1991,-14.990206,STU
994913332000,1.909869,1.09385349530209,3.12491918721921,-2.63268525596437,0.55833083,1.287093,-0.11759156,102.80943,-136.31995,-14.62056,STU
994918284000,1.914821,1.30048554368319,3.15706192494191,-2.72911356502711,0.46731192,1.2095132,-0.1020145,102.649796,-136.40785,-14.286093,STU
994923555000,1.920092,1.10009999642026,3.26186681982,-2.78511251347962,0.37995818,1.2024882,-0.08032878,102.521576,-136.4617,-13.951228,STU
994928301000,1.924838,0.879483801375265,3.36298253588836,-2.83107432476489,0.28863382,1.1670581,-0.06658431,102.421074,-136.48868,-13.638819,STU
994933320000,1.929857,0.687565886385542,3.242351520594,-3.13776607598767,0.24709499,1.0931433,-0.04153884,102.31395,-136.49501,-13.27132,STU
994938325000,1.934862,0.499544920722892,3.10357414084244,-3.46456429519006,0.15974127,1.0290025,-0.01160644,102.21962,-136.46275,-12.908135,STU
994943331000,1.939868,0.347233215374115,3.04701102725033,-3.78201477592117,0.07452556,0.94134337,0.00030543262,102.18234,-136.42566,-12.621561,STU
994948269000,1.944806,0.206473911135174,3.01303461725341,-4.09265587673201,-0.0021380284,0.84482664,0.018020526,102.17044,-136.3639,-12.345745,STU
994953318000,1.949855,0.0350824242360974,3.01505658660202,-4.36905739791213,-0.07880162,0.7641924,0.03176499,102.14761,-136.36755,-12.124216,STU
994958309000,1.954846,-0.139914624383535,3.02451587985355,-4.6339180534336,-0.13897185,0.6713409,0.03848451,102.15182,-136.354,-11.925306,STU
994963331000,1.959868,-0.316003944153776,3.08371950265446,-4.88771922979405,-0.20677789,0.6209445,0.044593163,102.157974,-136.378,-11.760128,STU
994968307000,1.964844,-0.490481533653089,3.15351057853547,-5.13634979528604,-0.2657264,0.5867361,0.042760566,102.181305,-136.38821,-11.612957,STU
994973437000,1.969974,-0.707800408964401,3.2302817696548,-5.33050033325782,-0.3268129,0.56291234,0.046120327,102.21557,-136.4306,-11.514989,STU
994978326000,1.974863,-0.935086854563107,3.3060439181877,-5.48202447210356,-0.38606682,0.56291234,0.04184427,102.25082,-136.45807,-11.422491,STU
994983386000,1.979923,-1.19219468799314,3.37369530962455,-5.57039429681723,-0.44623706,0.5693264,0.024129177,102.30032,-136.51205,-11.378469,STU
994988397000,1.984934,-1.45285736732419,3.4377176869068,-5.6389898920526,-0.5143485,0.5653558,0.002443461,102.34996,-136.54791,-11.338796,STU
994993371000,1.989908,-1.74876756073696,3.55000370552722,-5.63583970698449,-0.58123827,0.5647449,-0.02687807,102.43038,-136.5956,-11.361597,STU
994998344000,1.994881,-2.06108200301863,3.68385272263974,-5.60113792973873,-0.6585127,0.5326745,-0.054367006,102.511734,-136.6228,-11.394217,STU
995003311000,1.999848,-2.36444978666667,3.830211912,-5.54637559733333,-0.73639804,0.4908302,-0.09468412,102.64533,-136.656,-11.524606,STU
995008370000,2.004907,-2.67069566464198,3.98333487597037,-5.48416943381728,-0.82802784,0.43982297,-0.13041973,102.7769,-136.66586,-11.662442,STU
995013358000,2.009895,-2.89250579953451,4.16622109953452,-5.47537907071407,-0.9242391,0.35094208,-0.1872302,103.05337,-136.6589,-11.948254,STU
995018346000,2.014883,-3.08647769312667,4.36019299312667,-5.48484100586313,-1.0054842,0.25381452,-0.226631,103.320724,-136.63315,-12.233129,STU
995023414000,2.019951,-3.17932092013841,4.56048875986159,-5.54296949910035,-1.0885619,0.21227567,-0.27214047,103.819855,-136.58743,-12.692702,STU
995028367000,2.024904,-3.23090493389026,4.75744628610974,-5.61800115685615,-1.1588113,0.12339478,-0.28893927,104.29861,-136.52527,-13.142182,STU
995033345000,2.029882,-3.22565499653288,4.91557963859523,-5.66758824450815,-1.1948525,0.028710667,-0.321926,104.68219,-136.43355,-13.568812,STU
995038889000,2.035426,-3.19235846365347,5.07254904336141,-5.71039813635549,-1.2705997,-0.0852157,-0.34666604,105.056816,-136.31686,-13.987534,STU
995043366000,2.039903,-3.09696645486111,5.18657211319444,-5.75848748611111,-1.3356569,-0.2134974,-0.36285394,105.40274,-136.17545,-14.375107,STU
995048365000,2.044902,-2.92034629550781,5.30085600097656,-5.82601868203125,-1.4049901,-0.35827246,-0.3555236,105.75444,-136.0175,-14.76354,STU
995053360000,2.049897,-2.67666156353747,5.3678889455278,-5.93553657798147,-1.5045611,-0.50946164,-0.3323107,106.13314,-135.81543,-15.147514,STU
995058374000,2.054911,-2.3913000158743,5.40658199564867,-6.07096220290089,-1.6074919,-0.67011917,-0.29260445,106.52906,-135.59686,-15.531824,STU
995063367000,2.059904,-2.17497458018894,5.48435777507494,-6.33901082184576,-1.707063,-0.83169305,-0.22785273,106.97402,-135.33089,-15.884237,STU
995068351000,2.064888,-1.99721432803161,5.58407707121446,-6.68152466615496,-1.7935003,-0.96852684,-0.13958271,107.43896,-135.0397,-16.225067,STU
995073542000,2.070079,-1.86898061810786,5.91754823174651,-7.28228496026916,-1.8377881,-1.1533136,-0.051923547,107.85175,-134.7124,-16.504404,STU
995078371000,2.074908,-1.81324531566737,6.48419081271467,-8.11367061581802,-1.7974709,-1.3374895,0.056505036,108.30637,-134.3786,-16.771515,STU
995083369000,2.079906,-1.9494365398976,7.30305164463371,-8.92249307709728,-1.6227635,-1.5228871,0.16829337,108.7305,-134.0798,-16.997728,STU
995088465000,2.085002,-2.3338666169358,8.43231505865498,-9.68174238391099,-1.3200798,-1.6807957,0.25778514,109.20067,-133.82008,-17.224257,STU
995093323000,2.08986,-2.70328914207146,9.45709848845845,-10.3801800856082,-0.9789116,-1.7895297,0.25137106,109.65266,-133.64091,-17.417831,STU
995098367000,2.094904,-3.09112880196708,10.4460894996989,-11.0685954717985,-0.7275405,-1.8842138,0.15424347,110.131035,-133.51869,-17.63087,STU
995103305000,2.099842,-3.35563915116665,11.2637994722249,-11.7502373209997,-0.54061574,-1.6093245,0.055283304,110.5508,-133.42351,-17.780895,STU
995109031000,2.105568,-3.47341793443327,11.9651195944547,-12.5532754197989,-0.3820962,-1.0980303,0.0106901415,110.92105,-133.38882,-17.906338,STU
995113259000,2.109796,-3.53927095689074,12.1745183648622,-12.4964608072576,-0.3463606,-0.47952923,0.004276057,111.19862,-133.34114,-17.961315,STU
995118347000,2.114884,-3.58275121102518,11.9039745837795,-11.3273270916121,-0.53969944,-0.19181168,0.005497787,111.42219,-133.2774,-17.98984,STU
995123323000,2.11986,-3.66935943088677,11.4989957533424,-10.0733875025375,-0.945314,0.27183503,-0.0027488936,111.44943,-133.17017,-17.853018,STU
995128370000,2.124907,-3.84080384050932,10.8220101311505,-8.59193147099591,-1.1636983,0.61086524,-0.05009095,111.43198,-133.06555,-17.701405,STU
995133293000,2.12983,-4.02561195364112,10.1870983609938,-7.20268826702877,-1.5271631,0.58032197,-0.1469131,111.438835,-132.73186,-17.582273,STU
995138395000,2.134932,-4.32540197377791,9.68580966958358,-6.10673453385637,-1.8106046,0.3323107,-0.21135938,111.4164,-132.37361,-17.452618,STU
995143392000,2.139929,-4.56162240737359,9.25223927334315,-5.03288821201767,-1.9523253,-0.14752395,-0.27000242,111.50636,-131.90207,-17.469023,STU
995148371000,2.144908,-4.52416898591065,9.09306232989691,-3.96078309381443,-1.9495764,-0.7284568,-0.28191432,111.67565,-131.41083,-17.548883,STU
995153305000,2.149842,-4.39419899369737,8.93313488024111,-3.06812497405372,-1.9483547,-1.1866057,-0.25228736,111.887856,-130.85306,-17.758734,STU
995158317000,2.154854,-3.57301311627515,8.75443160039003,-3.42127753155749,-1.9883664,-1.349096,-0.14813483,112.17789,-130.29214,-17.9949,STU
995163319000,2.159856,-2.75346567835298,8.57608487137665,-3.77372547501995,-2.0412061,-1.2843442,-0.0036651916,112.56065,-129.61641,-18.25309,STU
995168353000,2.16489,-1.59241044218891,8.22809582209875,-4.24583960082818,-2.0607538,-1.1502593,0.12492194,112.97916,-128.9429,-18.496426,STU
995173647000,2.170184,-0.333770333403979,7.83607519506148,-4.73232707488753,-2.0137172,-1.0833695,0.23335053,113.41698,-128.27101,-18.70097,STU
995178969000,2.175506,0.1706592226652,7.49978879952014,-3.91708728136559,-1.9685133,-1.1664472,0.29352075,113.89383,-127.5936,-18.74628,STU
995183741000,2.180278,0.575592743075734,7.23397515278207,-3.19278444860896,-2.0073032,-1.391551,0.30634892,114.3365,-126.91202,-18.680532,STU
995188393000,2.18493,-0.0479572225845784,7.74276130902456,-2.63044189270994,-2.1355848,-1.6325374,0.31398472,114.80985,-126.221085,-18.610003,STU
995193266000,2.189803,-0.701129832787223,8.27571808876868,-2.041384438949,-2.2858577,-1.9843957,0.31887165,115.40373,-125.41801,-18.537546,STU
995198368000,2.194905,-1.10221288112586,8.74583707718432,-1.47696399432541,-2.3915374,-2.2308798,0.34605515,116.033936,-124.598816,-18.465414,STU
995203337000,2.199874,-1.32748904424205,9.15231324328497,-0.957849219953689,-2.431549,-2.2727242,0.39736784,116.702034,-123.76419,-18.393637,STU
995208344000,2.204881,-1.55622401837452,9.83457346312396,-1.25278237974993,-2.403144,-2.3851233,0.4175264,117.51267,-122.83891,-18.390749,STU
995213696000,2.210233,-1.801559447426,10.6957508854157,-1.96375437191169,-2.3811526,-2.257758,0.42760566,118.26094,-121.909904,-18.327478,STU
995218305000,2.214842,-2.0448715160137,11.1993444254205,-2.52180404320677,-2.3112087,-2.143526,0.4474588,119.06927,-120.922226,-18.29036,STU
995223434000,2.219971,-2.3318014857186,11.6396336130527,-3.11545213882566,-2.26631,-1.9300288,0.49174652,119.80724,-119.94648,-18.196419,STU
995228369000,2.224906,-2.48244514047619,11.9712365714286,-3.62801361190476,-2.1358902,-1.883603,0.46670106,120.507515,-119.06787,-18.09654,STU
995233399000,2.229936,-2.57299280944027,12.2630017844612,-4.12099531846282,-2.0216584,-1.6707164,0.47769663,121.09726,-118.20263,-17.920368,STU
995238381000,2.234918,-2.58885885680058,12.2542296229508,-4.13277613078725,-1.9117028,-1.4040737,0.55741453,121.60443,-117.44481,-17.74264,STU
995243368000,2.239905,-2.58025509142497,12.1466821065574,-3.98651193972257,-1.8090774,-1.2415836,0.6075055,122.065346,-116.73305,-17.55344,STU
995248361000,2.244898,-2.54164768400472,11.9944320953036,-3.93910111141678,-1.7421877,-1.1691961,0.6432411,122.45398,-116.0934,-17.350624,STU
995253362000,2.249899,-2.47576921324425,11.8015024775987,-3.9814513954608,-1.6972891,-1.2244794,0.6432411,122.82499,-115.48508,-17.141413,STU
995258368000,2.254905,-2.37034023850311,11.5258857234628,-3.8380904710207,-1.6771306,-1.1679744,0.6951646,123.15198,-114.8739,-16.90421,STU
995263368000,2.259905,-2.22386114193943,11.1645703364943,-3.50118861520343,-1.6762142,-1.0995574,0.75502944,123.48257,-114.28132,-16.670038,STU
995268342000,2.264879,-2.06823016452473,10.8631106183003,-3.15189255744744,-1.6606371,-1.1120802,0.8029824,123.8146,-113.719666,-16.449198,STU
995273455000,2.269992,-1.89906445749679,10.6069458359491,-2.7797280322673,-1.6328428,-1.1905763,0.84696466,124.14327,-113.16242,-16.21387,STU
995278360000,2.274897,-1.75389430315192,10.404480070184,-2.56265643759789,-1.6062702,-1.2421945,0.8707884,124.47525,-112.58458,-15.969175,STU
995283356000,2.279893,-1.62275879046594,10.2405603125489,-2.47835505055795,-1.5668694,-1.3041973,0.91813046,124.8299,-112.013115,-15.713601,STU
995288346000,2.284883,-1.50403178146718,10.097538981784,-2.31829175137115,-1.5317446,-1.3072516,0.9465357,125.19297,-111.410385,-15.447553,STU
995293369000,2.289906,-1.39926053474903,9.9784808033858,-2.06588821425601,-1.4844025,-1.2684617,0.98929626,125.557236,-110.816475,-15.165936,STU
995298320000,2.294857,-1.30109156922807,9.91379782824562,-1.83119303250877,-1.4514158,-1.2608259,1.0274754,125.93457,-110.22005,-14.87958,STU
995303332000,2.299869,-1.20846198347368,9.91800834789474,-1.61225045121053,-1.4117095,-1.235475,1.0375546,126.28784,-109.6416,-14.585628,STU
995308271000,2.304808,-1.13224055009242,9.9252009168207,-1.42476693475046,-1.3768903,-1.2641857,1.0604621,126.665565,-109.03282,-14.273953,STU
995313332000,2.309869,-1.14805054839622,9.95155091399369,-1.40895682638904,-1.3466524,-1.2486086,1.0595458,127.01349,-108.44409,-13.962234,STU
995318280000,2.314817,-1.17844011180812,9.98629575422412,-1.42066685216547,-1.3148874,-1.1893547,1.054048,127.35994,-107.82338,-13.624049,STU
995323360000,2.319897,-1.24457946236162,10.0429862455817,-1.4962546672752,-1.3020593,-1.1734722,1.0552697,127.705635,-107.214294,-13.287063,STU
995328294000,2.324831,-1.31327005829745,10.1076925763498,-1.55338565793309,-1.2684617,-1.0809261,1.0567969,128.0076,-106.629105,-12.961643,STU
995333372000,2.329909,-1.39783869016231,10.204342777741,-1.56143981334879,-1.2327261,-1.0005972,1.0476339,128.29982,-106.05944,-12.640537,STU
995338403000,2.33494,-1.48162458754554,10.3000984223253,-1.56941942262339,-1.1997393,-0.93828905,1.0351112,128.56317,-105.52226,-12.329869,STU
995343360000,2.339897,-1.65253518457418,10.3934977675415,-1.65347647487949,-1.1734722,-0.93737274,1.0345002,128.81444,-104.99966,-12.020077,STU
995348324000,2.344861,-1.83926329869666,10.4868619132298,-1.75108434868773,-1.1661417,-0.88056225,1.0290025,129.02452,-104.49335,-11.7127075,STU
995353375000,2.349912,-1.93439348295778,10.5122230109385,-1.71156248809888,-1.1560625,-0.86620694,1.0024298,129.23933,-104.017395,-11.431536,STU
995358363000,2.3549,-1.96574487985124,10.491322188799,-1.58093155858674,-1.1496484,-0.87995136,0.9950995,129.441,-103.54869,-11.148283,STU
995363365000,2.359902,-2.05416831662516,10.3867696838331,-1.43681865816316,-1.1530081,-0.93859446,0.9981538,129.62894,-103.13041,-10.905122,STU
995368344000,2.364881,-2.15866323785238,10.2585253442574,-1.28957585519474,-1.16492,-0.95325524,0.9837985,129.80257,-102.72687,-10.670344,STU
995373401000,2.369938,-2.15892752648423,10.1507637318436,-1.22646515883913,-1.1731668,-0.9492846,0.98532563,129.97934,-102.3191,-10.436622,STU
995378371000,2.374908,-2.12737967381877,10.0516136201117,-1.19041047007859,-1.1768318,-0.9599747,1.0036516,130.15993,-101.919205,-10.205122,STU
995383392000,2.379929,-2.0926414725372,9.90115484413261,-1.14517707917687,-1.181108,-0.96577793,1.0345002,130.33484,-101.53259,-9.998254,STU
995388400000,2.384937,-2.05650604997175,9.72499521331701,-1.09549095568845,-1.174083,-0.95264435,1.0580186,130.50317,-101.15482,-9.788951,STU
995393364000,2.389901,-2.04789862401011,9.55541776800758,-1.0993985080139,-1.1756102,-0.93645644,1.0928379,130.6697,-100.770294,-9.566087,STU
995398378000,2.394915,-2.06306861406908,9.38854756055181,-1.14996519434499,-1.1725558,-0.89766645,1.135904,130.82227,-100.38991,-9.334753,STU
995403313000,2.39985,-2.12883267390777,9.22539764967637,-1.22258870135518,-1.1737776,-0.83260936,1.1887437,130.9678,-100.0049,-9.09158,STU
995408372000,2.404909,-2.22682838950243,9.05880469781553,-1.31078480445995,-1.1502593,-0.72295904,1.2229522,131.08551,-99.62786,-8.842032,STU
995413362000,2.409899,-2.30990908365117,8.94930416259436,-1.34697582733413,-1.1206323,-0.66645396,1.2605205,131.20313,-99.26046,-8.588595,STU
995418352000,2.414889,-2.38585392969805,8.86861316636869,-1.35646892069925,-1.102001,-0.5128214,1.273654,131.2581,-98.9024,-8.33201,STU
995423356000,2.419893,-2.50177205438137,8.83110376554463,-1.31569824395813,-1.0775663,-0.3494149,1.2852604,131.28113,-98.576035,-8.0905075,STU
995428372000,2.424909,-2.64049521308546,8.81809819781608,-1.24633661933941,-1.0644327,-0.12095132,1.273654,131.23982,-98.262764,-7.8528275,STU
995433372000,2.429909,-2.79124783412225,8.8169650897304,-1.13524287684709,-1.0549643,0.14019357,1.2382239,131.13214,-97.98026,-7.636609,STU
995438405000,2.434942,-2.95988363155999,8.83184475699733,-0.966607105304589,-1.0375546,0.32711834,1.1826351,130.98189,-97.71773,-7.4323072,STU
995443361000,2.439898,-3.12593946547644,8.84649677984153,-0.80055129688722,-1.0170907,0.35308012,1.1267409,130.82016,-97.49047,-7.2576966,STU
995448367000,2.444904,-3.29367060038074,8.86129662373945,-0.632820187739247,-1.003957,0.26328292,1.0714576,130.64119,-97.28806,-7.102094,STU
995453347000,2.449884,-3.24358760150449,8.75566857678781,-0.595438621014068,-0.9825767,0.14966199,1.0134255,130.45712,-97.1126,-6.9673896,STU
995458378000,2.454915,-3.00353035971082,8.54385345017585,-0.670750715181712,-0.9575313,0.08979719,0.97097033,130.28671,-96.957375,-6.8475204,STU
995463365000,2.459902,-2.78478571072626,8.40614657877095,-0.682435762815643,-0.93554014,0.10354166,0.9272934,130.15527,-96.84792,-6.7730355,STU
995468479000,2.465016,-2.58082344356526,8.34147538669375,-0.627714217458608,-0.90469146,0.13408493,0.8875872,130.03677,-96.759575,-6.7120333,STU
995473410000,2.469947,-2.40513745369134,8.33387625227231,-0.626903360792061,-0.870483,0.13744467,0.8338311,129.91605,-96.66898,-6.6416206,STU
995478354000,2.474891,-2.24704826192729,8.37339890558338,-0.670817039946207,-0.86193085,0.10934488,0.7840455,129.79707,-96.59625,-6.583386,STU
995483380000,2.479917,-2.08731551271291,8.42599557685204,-0.711770169197619,-0.86070913,0.07544186,0.73731434,129.67325,-96.513565,-6.5100574,STU
995488388000,2.484925,-1.92984155794172,8.49981142089062,-0.74621756308229,-0.8707884,0.03481932,0.70249504,129.56142,-96.44925,-6.4492264,STU
995493324000,2.489861,-1.79392865856701,8.58733011934937,-0.781733459734557,-0.88025683,-0.040011674,0.66798115,129.46022,-83.623314,-6.3743215,STU
995498372000,2.494909,-1.68297108978146,8.69828738588963,-0.820327412034727,-0.8903361,-0.050396383,0.6246097,129.35461,-83.67636,-6.3131933,STU
995503303000,2.49984,-1.5592997093332,8.7685052716111,-0.827486574715512,-0.89552844,-0.087964594,0.60231316,129.27054,-83.739655,-6.235466,STU
995508383000,2.50492,-1.40875519226393,8.78307439518866,-0.788636339139549,-0.8949176,-0.090713486,0.5714644,129.18239,-83.78142,-6.1734686,STU
995513301000,2.509838,-1.29970269598111,8.80245719005397,-0.806288460543562,-0.9095783,-0.1142318,0.5549711,129.10658,-83.831055,-6.09687,STU
995518311000,2.514848,-1.24421332464341,8.83020146530455,-0.9080189827101,-0.9049969,-0.22266038,0.53969944,129.05824,-83.866554,-6.0292773,STU
995523326000,2.519863,-1.2035978193038,8.89054745371836,-1.03997190251187,-0.9080512,-0.33261612,0.537256,129.01974,-83.91715,-5.9366436,STU
995528344000,2.524881,-1.19409299683544,9.01886275553797,-1.23482091198576,-0.883922,-0.36682457,0.51068336,128.9917,-83.95129,-5.8562913,STU
995533348000,2.529885,-1.18620659307658,9.08514532727273,-1.39056351077474,-0.8597928,-0.39370266,0.5207626,128.99338,-83.99664,-5.7619905,STU
995538435000,2.534972,-1.18184320914465,9.01096761818182,-1.46037765368562,-0.8368854,-0.39858958,0.5317582,128.99837,-84.03091,-5.6761117,STU
995543434000,2.539971,-1.18600981176952,8.93891409691946,-1.52539970704124,-0.7840455,-0.41050145,0.50854534,129.01448,-84.068924,-5.6001,STU
995548334000,2.544871,-1.27245687450619,8.87648034397708,-1.5542154280524,-0.73731434,-0.44929138,0.5112942,129.03871,-84.11533,-5.5146446,STU
995553335000,2.549872,-1.35251082098933,8.83332511454898,-1.58289937623666,-0.74128497,-0.40561453,0.4908302,129.02388,-84.148575,-5.447155,STU
995558334000,2.554871,-1.37108479701261,8.94476887371484,-1.60611684626576,-0.7122689,-0.36377025,0.44715336,129.02032,-84.1824,-5.386636,STU
995563420000,2.559957,-1.39459532352782,9.05039560235188,-1.63746498390773,-0.6737844,-0.3912592,0.47555858,129.01094,-84.21469,-5.33015,STU
995568308000,2.564845,-1.47504915061058,9.05463010040705,-1.76449740529172,-0.6789767,-0.3417791,0.48624873,128.96806,-84.2283,-5.2932935,STU
995573735000,2.570272,-1.56437462515604,9.05933153677069,-1.905537698019,-0.63621616,-0.28680122,0.47494772,128.93039,-84.25251,-5.2577443,STU
995578333000,2.57487,-1.65564096120279,9.15813189843836,-1.80793653035774,-0.58459806,-0.23273966,0.48075095,128.8787,-84.28374,-5.2157617,STU
995583553000,2.58009,-1.76439863410619,9.28010210274336,-1.66740512452212,-0.5216789,-0.18967366,0.5006041,128.81483,-84.321304,-5.1744585,STU
995588341000,2.584878,-1.90236565916814,9.39372219017699,-1.45639673574336,-0.46578476,-0.15393804,0.4981606,128.71399,-84.351006,-5.1604238,STU
995593336000,2.589873,-2.0462974240354,9.51225442424779,-1.23626580384071,-0.41233405,-0.16340645,0.4981606,128.59235,-84.373985,-5.151492,STU
995598333000,2.59487,-2.18133675328138,9.61874309710829,-1.06907002630845,-0.398895,-0.3454443,0.5708536,128.51195,-84.41648,-5.121414,STU
995603331000,2.599868,-2.31385857977851,9.72181557188269,-0.91691544899918,-0.4147775,-0.31642818,0.5885687,128.37679,-84.44641,-5.109781,STU
995608338000,2.604875,-2.46376786401552,9.68572251076625,-0.494165106764694,-0.4007276,-0.27916542,0.53786683,128.26405,-84.44142,-5.118206,STU
995613267000,2.609804,-2.61485749064016,9.62162351910766,-0.0225821358436469,-0.3857614,-0.26450464,0.5137377,128.1529,-84.446785,-5.113836,STU
995618309000,2.614846,-2.74945166281812,9.55898940345878,0.0420590903063771,-0.39614612,-0.45051312,0.5348125,128.09247,-84.434456,-5.1177855,STU
995623315000,2.619852,-2.87664243050997,9.49774964832465,-0.0286024398671514,-0.46486846,-0.5103779,0.5531385,127.99534,-84.41159,-5.129594,STU
995628330000,2.624867,-2.94322117766518,9.44916719629104,0.0229424116226186,-0.50701815,-0.42210788,0.49174652,127.95952,-84.34199,-5.159936,STU
995633295000,2.629832,-2.9865875445075,9.40580093007702,0.119312182131334,-0.49113566,-0.36193767,0.44898596,127.948456,-84.28115,-5.177685,STU
995638334000,2.634871,-2.94364786247398,9.43077642501735,0.215509002557241,-0.49846604,-0.3295618,0.41813725,127.91998,-84.1915,-5.228981,STU
995643276000,2.639813,-2.87328130642284,9.47768746238478,0.309331145869759,-0.49510628,-0.31612277,0.40378192,127.88053,-84.1001,-5.286395,STU
995648330000,2.644867,-2.81322420197431,9.55838971209507,0.331799554395246,-0.5161811,-0.3747658,0.4034765,127.86261,-83.99288,-5.3491426,STU
995653325000,2.649862,-2.75820844665517,9.65008247805252,0.327214916097374,-0.52687126,-0.41325033,0.4111123,127.83562,-83.88762,-5.412121,STU
995658334000,2.654871,-2.69167230920468,9.72944639079532,0.306693670512717,-0.52412236,-0.38515055,0.408058,127.80174,-83.782684,-5.4619403,STU
995663358000,2.659895,-2.61883140811465,9.80228729188534,0.277557289794106,-0.50885075,-0.36560285,0.40683624,127.78135,-83.6817,-5.5066295,STU
995668347000,2.664884,-2.48122879418182,9.86700152,0.230121968036364,-0.49693888,-0.36835176,0.4184427,127.75424,-83.5922,-5.5369205,STU
995673431000,2.669968,-2.30896483659951,9.92920769513514,0.172700653838821,-0.50610185,-0.3735441,0.44532076,127.722466,-83.506546,-5.5618052,STU
995678365000,2.674902,-2.14596559019412,9.93184594536722,0.100936899636782,-0.5174029,-0.39920044,0.48075095,127.68698,-83.441536,-5.565601,STU
995683391000,2.679928,-1.98221505023014,9.90294870842506,0.0190616211054633,-0.53969944,-0.42149702,0.5119051,127.65235,-83.37955,-5.561778,STU
995688357000,2.684894,-1.8058827981717,9.86231399841017,-0.0675781492281399,-0.52870387,-0.44532076,0.5537493,127.60698,-83.36076,-5.513127,STU
995693384000,2.689921,-1.61932060833665,9.81447757790143,-0.158467409633645,-0.52839845,-0.4465425,0.59650993,127.562164,-83.343376,-5.4554057,STU
995698361000,2.694898,-1.40694093946004,9.77937916453096,-0.282955620458769,-0.5354234,-0.41447207,0.6395759,127.486786,-83.35531,-5.3643947,STU
995703322000,2.699859,-1.17921754872347,9.75149507375526,-0.427025535378069,-0.5360342,-0.39492437,0.6908886,127.416985,-83.37719,-5.2600794,STU
995708369000,2.704906,-0.987199734112382,9.76754811128792,-0.597364156946793,-0.56077427,-0.3484986,0.7134906,127.30743,-83.418976,-5.1278687,STU
995713371000,2.709908,-0.825219751715564,9.81518923868722,-0.783164678170065,-0.58062744,-0.29932398,0.7672467,127.194885,-83.474205,-4.976036,STU
995718344000,2.714881,-0.613460743513193,9.84618146160688,-0.886213779587904,-0.5946773,-0.28130344,0.80573124,127.109795,-83.56115,-4.7938375,STU
995723449000,2.719986,-0.357393090914122,9.86550720871628,-0.929696962832296,-0.6218608,-0.29352075,0.91599244,127.01946,-83.66012,-4.5808773,STU
995728364000,2.724901,-0.317534015919258,9.96915020232019,-0.950551612867749,-0.66828656,-0.3549127,1.0067059,126.96433,-83.784004,-4.3469057,STU
995733350000,2.729887,-0.441617425851508,10.1419804640371,-0.954983183549884,-0.6921103,-0.4071417,0.9746355,126.911736,-83.89404,-4.122091,STU
995738373000,2.73491,-0.588606441971046,10.3594756863271,-0.869888338863271,-0.68783426,-0.4569272,0.90285885,126.88992,-84.02946,-3.8452904,STU
995743353000,2.73989,-0.767613148115818,10.6407722546917,-0.649965824546917,-0.68569624,-0.5140431,0.8680395,126.88511,-84.14617,-3.5719337,STU
995748327000,2.744864,-0.882063000642483,10.8903392793318,-0.46660547702481,-0.6954701,-0.55833083,0.8347474,126.87741,-84.22946,-3.342827,STU
995753354000,2.749891,-0.939166033745181,11.113992332905,-0.314330745272314,-0.6933321,-0.5873469,0.81092364,126.88223,-84.30106,-3.12522,STU
995758874000,2.755411,-0.912325361041316,11.3483371962746,-0.161358716578024,-0.6808093,-0.59040123,0.786489,126.86913,-84.32194,-2.9390962,STU
995763346000,2.759883,-0.831702937206975,11.5307986067572,-0.0467900049196473,-0.657291,-0.5885687,0.7483099,126.86436,-84.33219,-2.7674904,STU
995768332000,2.764869,-0.584276143484968,11.9304999936709,0.112811599284019,-0.6392705,-0.56413406,0.7098254,126.85354,-84.30799,-2.6134446,STU
995773370000,2.769907,-0.164396802861946,12.5460048892405,0.308437192095332,-0.61819565,-0.5152648,0.643852,126.837456,-84.27642,-2.4821227,STU
995778346000,2.774883,0.0379130035166128,13.1220918629815,0.405286736773498,-0.5662721,-0.46486846,0.59315014,126.82231,-84.23799,-2.341716,STU
995783358000,2.779895,-0.00442656279917672,13.665449547192,0.391173552913849,-0.5305365,-0.42180246,0.58093286,126.796684,-84.19355,-2.213028,STU
995793385000,2.789922,-0.0891310383475448,14.7524901496619,0.362938737558561,-0.4297437,-0.30390546,0.5589417,126.75783,-84.121864,-1.8449324,STU
995798315000,2.794852,-0.275480357347292,15.2164058389358,0.347436108033039,-0.2996294,-0.19639318,0.51343226,126.708176,-84.136116,-1.6615995,STU
995803323000,2.79986,-0.703864937078371,15.571090272282,0.329010958405686,-0.17073683,-0.15668693,0.51068336,126.65976,-84.16106,-1.4851876,STU
995808299000,2.804836,-1.10794407905776,15.8047967933179,0.291171058259907,-0.10629055,-0.079107046,0.50610185,126.56053,-84.1951,-1.3519496,STU
995813371000,2.809908,-1.46630723335793,15.7484825184444,0.204140012610666,0.014660766,0.016493361,0.4700608,126.447975,-84.273346,-1.2339315,STU
995818284000,2.814821,-1.6321035971577,15.666222641968,0.100258458132902,0.13897185,0.12186762,0.40042216,126.28134,-84.364815,-1.1985241,STU
995823417000,2.819954,-1.51647234567284,15.53613733941,-0.0394626772390473,0.27000242,0.19730948,0.30176744,126.10319,-84.48413,-1.1837728,STU
995828937000,2.825474,-1.29816807001289,15.3682080799411,-0.270315033864432,0.38606682,0.22052236,0.19333886,125.890465,-84.62812,-1.2436291,STU
995833397000,2.829934,-1.02280619950267,15.2029909165592,-0.541743158086204,0.5018258,0.20708331,0.13103059,125.676476,-84.7987,-1.3161019,STU
995838309000,2.834846,-0.671142665452632,15.0079547926316,-0.839422252452632,0.6062838,0.17195857,0.083383106,125.45959,-85.005554,-1.3961127,STU
995843365000,2.839902,-0.09009861944,14.748014124,-1.14013803364,0.72265357,0.15210545,0.04153884,125.25067,-85.23288,-1.4891163,STU
995848297000,2.844834,0.347277914281714,14.4863401223747,-1.42281424043685,0.8362745,0.1704314,0.0720821,125.07679,-85.534676,-1.5312134,STU
995853369000,2.849906,0.460629837455428,14.1961590384579,-1.68579069386726,0.93554014,0.13194689,0.07422013,124.9292,-85.84327,-1.5902176,STU
995858309000,2.854846,0.567538738700593,13.92453985789,-1.92928114786282,1.0369438,0.12095132,-0.029321533,124.79658,-86.21685,-1.6009398,STU
995863363000,2.8599,0.655160297083375,13.7152220153877,-2.09965640309766,1.1609493,0.10903945,-0.16371189,124.676186,-86.59978,-1.6197474,STU
995868321000,2.864858,0.724285184563238,13.4968483009878,-2.26157507695139,1.2932017,0.13133603,-0.25228736,124.551575,-87.01569,-1.6432716,STU
995873369000,2.869906,0.700876465601395,13.2018981487507,-2.39734569581639,1.4309518,0.17012598,-0.31795537,124.42678,-87.40272,-1.6979109,STU
995878324000,2.874861,0.674313950766871,12.9144072339468,-2.53128018570552,1.5497651,0.2134974,-0.376293,124.29543,-87.75028,-1.7657347,STU
995883400000,2.879937,0.609696937883436,12.6410277836401,-2.67542581785276,1.6603317,0.2733622,-0.42485678,124.147705,-87.987625,-1.8483169,STU
995888400000,2.884937,0.531489740551595,12.3781170339512,-2.81408595834076,1.7739527,0.35155296,-0.47219884,123.97993,-88.04419,-1.9499563,STU
995893372000,2.889909,0.370252561150419,12.1532335005347,-2.93289225721797,1.8903224,0.40194935,-0.52564955,123.80187,-92.12807,-2.0647724,STU
995899082000,2.895619,0.182415865316584,11.8983585260445,-3.06475339324498,2.0042489,0.44684792,-0.5757405,123.59897,-92.51834,-2.2002015,STU
995903332000,2.899869,-0.0123636568166759,11.7784941325235,-3.06849922887907,2.1111503,0.47067168,-0.59528816,123.386444,-93.04838,-2.3385904,STU
995908295000,2.904832,-0.239820308192527,11.6385207242776,-3.0728734835266,2.1633792,0.47708577,-0.64873886,123.15808,-93.70752,-2.5245068,STU
995913354000,2.909891,-0.535390315858076,11.5530934344814,-3.07073802800871,2.2455406,0.45051312,-0.7110472,122.93064,-94.43102,-2.714766,STU
995918331000,2.914868,-0.851450518877672,11.4917685585907,-3.06602061619161,2.3102922,0.3817908,-0.7806858,122.711075,-95.18559,-2.9190457,STU
995923426000,2.919963,-1.16534961348383,11.5247401432027,-3.14388995825859,2.402533,0.25778514,-0.86162543,122.50182,-96.002815,-3.1768286,STU
995928319000,2.924856,-1.46285409731432,11.5955744912829,-3.25250272393429,2.5121834,0.14049901,-0.9584476,122.30624,-96.846924,-3.4562073,STU
995933402000,2.929939,-1.71703413568022,11.7465425560542,-3.23614130038336,2.597399,0.0067195175,-1.0858129,122.1223,-97.738396,-3.815068,STU
995938362000,2.934899,-1.94354641394109,11.9241991357644,-3.16952012936886,2.6920831,-0.16829337,-1.2000448,121.9772,-98.65802,-4.1973286,STU
995943350000,2.939887,-2.2095313765641,12.0817470935385,-2.94607040909744,2.7754662,-0.38515055,-1.323745,121.84948,-99.635376,-4.6669383,STU
995948372000,2.944909,-2.50549895471795,12.2247983772308,-2.60570773285128,2.8334985,-0.63804877,-1.4453071,121.770706,-100.62929,-5.169246,STU
995953362000,2.949899,-2.77084130349895,12.3015242402279,-2.1676469930021,2.8661797,-0.9166033,-1.5705346,121.73606,-101.63941,-5.7508035,STU
995958377000,2.954914,-3.02051039377187,12.3399346381086,-1.66830881245626,2.8554895,-1.1908818,-1.6841555,121.75561,-102.65136,-6.3642426,STU
995963363000,2.9599,-3.2036593441804,12.3662405381737,-1.2868113460815,2.7925704,-1.3976597,-1.7913623,121.827835,-103.630264,-7.041684,STU
995968395000,2.964932,-3.34985352268177,12.385732986753,-0.970057199373041,2.6917777,-1.4694363,-1.894904,121.91801,-104.59733,-7.741434,STU
995973379000,2.969916,-3.36491815022789,12.5032685842196,-0.789048149924035,2.5378397,-1.4013249,-1.9752327,122.07902,-105.489204,-8.452807,STU
995978370000,2.974907,-3.31166413473108,12.6727128572876,-0.677698955089639,2.3854287,-1.2202033,-2.0482311,122.20943,-106.35889,-9.172663,STU
995983387000,2.979924,-3.00110645618637,12.9666916676782,-0.657587055608849,2.2595906,-1.0180069,-2.0977113,122.34484,-107.16769,-9.895551,STU
995988399000,2.984936,-2.56885285477682,13.3190726516249,-0.681079137558732,2.205529,-0.8374963,-2.1096232,122.42458,-107.95277,-10.602047,STU
995993360000,2.989897,-2.11275347510188,13.5179813389325,-0.770692599006063,2.2354615,-0.6826419,-2.0882428,122.46616,-108.69464,-11.271535,STU
995998353000,2.99489,-1.63748260397575,13.6320461534639,-0.899015701456118,2.2849414,-0.59773165,-2.0460932,122.47178,-109.416565,-11.915544,STU
996003313000,2.99985,-1.22489837387739,13.5413038448845,-0.889679481813181,2.3173172,-0.41416663,-2.0329595,122.36496,-110.07564,-12.463213,STU
996008369000,3.004906,-0.842339488868887,13.3185478316832,-0.792829119336934,2.3402247,-0.26816985,-1.9911152,122.246895,-110.71993,-12.973331,STU
996013349000,3.009886,-0.594498124839788,12.9009796602615,-0.669393726768233,2.3130412,-0.15302174,-1.9504927,122.03036,-111.31161,-13.390736,STU
996018341000,3.014878,-0.425334857719678,12.3605971322489,-0.528424347314724,2.239432,-0.0027488936,-1.9547688,121.76548,-111.88866,-13.783782,STU
996023391000,3.019928,-0.22267735540487,11.8676835174223,-0.343201765316274,2.1227567,0.18448131,-2.010663,121.54013,-112.41981,-14.135674,STU
996028374000,3.024911,-0.00065223648861612,11.4189091706593,-0.130624532291229,1.9862283,0.33078352,-2.0363193,121.28834,-112.91698,-14.462906,STU
996033403000,3.02994,0.149583012478964,10.9737777796411,-0.145937124238894,1.861001,0.49693888,-2.0528126,120.97941,-113.39329,-14.774888,STU
996038398000,3.034935,0.243406980245955,10.5374968352457,-0.333585060262724,1.7708983,0.7770206,-2.1001546,120.597626,-113.84977,-15.070763,STU
996043369000,3.039906,0.324756405424131,10.2459863207958,-0.551213813006038,1.7003434,0.9816604,-2.094657,120.258194,-114.2587,-15.344351,STU
996048463000,3.045,0.39718675258834,10.0769817908542,-0.802305684855983,1.6643023,1.2232577,-2.1025982,119.8312,-114.65934,-15.597394,STU
996053358000,3.049895,0.339765211118886,10.0319604538521,-1.15241734909733,1.6679676,1.4859297,-2.1481075,119.33338,-115.0962,-15.840129,STU
996058357000,3.054894,0.158866697897978,10.0989598565531,-1.61471356004478,1.7009543,1.613906,-2.1551325,118.81693,-115.51814,-16.056963,STU
996063336000,3.059873,-0.0213080765222868,10.165691208033,-2.07516021623749,1.7547104,1.7327193,-2.1917844,118.24562,-115.99053,-16.275316,STU
996068337000,3.064874,-0.189849237112236,10.2263075893619,-2.35987461244418,1.8524488,1.781894,-2.2290473,117.664925,-116.472824,-16.481936,STU
996073379000,3.069916,-0.352768040291753,10.283809005061,-2.54675208699018,1.9599612,1.7724255,-2.2079725,117.078125,-116.95671,-16.668922,STU
996078326000,3.074863,-0.417646538243693,10.3776929992177,-2.52681042634461,2.0570886,1.8558086,-2.235767,116.42166,-117.563385,-16.890724,STU
996084174000,3.080711,-0.428600026387639,10.5146111721103,-2.36250810418541,2.1273382,1.9550742,-2.2250767,115.77646,-118.167114,-17.085611,STU
996088317000,3.084854,-0.63220003682347,10.4210820720789,-2.47250671016692,2.1728477,1.9969184,-2.1673498,115.13299,-118.80696,-17.28685,STU
996093339000,3.089876,-0.982510624805261,10.2070031282246,-2.72550882124431,2.1627684,2.006387,-2.1533,114.474266,-119.44516,-17.479183,STU
996098366000,3.094903,-1.18405612185362,10.0197621007153,-2.82818518981961,2.1423044,2.0552561,-2.1713204,113.83815,-120.05206,-17.651344,STU
996103322000,3.099859,-1.28738558774622,9.8524667872175,-2.8331057384408,2.112372,2.058616,-2.195755,113.22056,-120.643005,-17.817125,STU
996108347000,3.104884,-1.34027288591184,9.7037054079516,-2.82539814330164,2.0613647,1.9770653,-2.1707096,112.623886,-121.28868,-18.030342,STU
996113332000,3.109869,-1.36778096134639,9.56616479141458,-2.81164393802939,2.03693,1.9785925,-2.1743748,112.00425,-121.931915,-18.236965,STU
996119108000,3.115645,-1.31340736841514,9.47329526023064,-2.485035199602,2.0735822,2.1416936,-2.205529,111.38307,-122.59337,-18.450891,STU
996123408000,3.119945,-1.23776247403817,9.43127031891009,-2.11521549657108,2.175902,2.1832323,-2.2021692,110.80505,-123.24884,-18.662157,STU
996128331000,3.124868,-1.26810342310075,9.23849893399787,-1.89889458138004,2.219579,2.1884248,-2.1450534,110.20327,-123.899734,-18.852797,STU
996133379000,3.129916,-1.36635343901094,8.9577846028259,-1.79596589557728,2.2922719,2.2018638,-2.0726657,109.59872,-124.5675,-19.02205,STU
996138334000,3.134871,-1.46556678728271,8.59178029917658,-1.76080937584629,2.3561072,2.2656991,-2.0421226,109.08435,-125.18765,-19.202333,STU
996143340000,3.139877,-1.56791218506659,8.15315709311782,-1.77543018330792,2.3991733,2.3133466,-2.0069978,108.587814,-125.79761,-19.3551,STU
996148327000,3.144864,-1.50355399362198,7.75014686379963,-1.74524547025532,2.4446826,2.2773056,-1.9596558,108.14998,-126.43742,-19.53883,STU
996153322000,3.149859,-1.32708827116785,7.36935242539559,-1.68487560252403,2.430022,2.2073615,-1.8668042,107.72477,-127.05031,-19.692484,STU
996158335000,3.154872,-1.13354710807193,6.94949528945091,-1.71869746141937,2.4452937,2.1881194,-1.7629571,107.31696,-127.722145,-19.867695,STU
996163334000,3.159871,-0.926378078005577,6.49832724704298,-1.83379132428118,2.4465153,2.2522602,-1.6249015,106.92739,-128.35693,-20.00066,STU
996168312000,3.164849,-0.781020327684979,5.89496543923576,-2.23289180472329,2.463314,2.3515258,-1.4953982,106.53711,-128.99867,-20.10206,STU
996173420000,3.169957,-0.706646242698155,5.08676681709913,-2.99150777601865,2.459038,2.4944682,-1.3545936,106.14818,-129.6033,-20.144173,STU
996178332000,3.174869,-0.484856252940828,4.50940559594982,-3.11409894029438,2.4596488,2.5179865,-1.2104294,105.66045,-130.22198,-20.090023,STU
996183353000,3.17989,-0.10009906149758,4.12939843021831,-2.60108928887681,2.4382687,2.3582454,-1.0638218,105.21764,-130.80574,-20.007145,STU
996188984000,3.185521,0.175616196603003,3.80853535005774,-2.36229966092209,2.352442,2.2699752,-0.91629785,104.56332,-131.51044,-19.82049,STU
996193336000,3.189873,0.279284254181398,3.6345210727192,-2.41413369357733,2.2635612,2.2675319,-0.8155051,103.956924,-132.18958,-19.617422,STU
996198261000,3.194798,0.406801702412739,3.45580929203838,-2.46711686785827,2.2159138,2.2153027,-0.77518797,103.4118,-132.79482,-19.377356,STU
996203322000,3.199859,0.580577880609512,3.34847691905515,-2.49778322964252,2.0998492,2.123673,-0.6988298,102.9122,-133.33862,-19.111103,STU
996208268000,3.204805,0.731242734756508,3.26504278468606,-2.58151107831547,1.9911152,1.9416351,-0.6258314,102.421936,-133.89098,-18.833878,STU
996213340000,3.209877,0.840341097464012,3.23032974742215,-2.79474888421644,1.8536706,1.8316795,-0.56230146,101.95796,-134.39551,-18.543003,STU
996218337000,3.214874,0.953318814218487,3.20320851579832,-2.89702438621849,1.7321084,1.7941113,-0.49296826,101.51994,-134.86868,-18.221539,STU
996223358000,3.219895,1.07691877820662,3.18894698951063,-2.80194739538309,1.6355917,1.6823229,-0.4129449,101.14597,-135.30185,-17.917055,STU
996228262000,3.224799,1.14539758762927,3.20480351000689,-2.82827354239141,1.536326,1.4694363,-0.31642818,100.80124,-135.71516,-17.593483,STU
996233356000,3.229893,1.10215342602187,3.28648702672117,-3.11656825414163,1.4223998,1.3078625,-0.2929099,100.47771,-136.09752,-17.279263,STU
996238315000,3.234852,1.07385756630309,3.3611331814401,-3.30102359765008,1.2745703,1.2754866,-0.22815818,100.210495,-136.40817,-16.93251,STU
996243336000,3.239873,1.07812156495522,3.4250931166977,-3.25838347755609,1.1753048,1.1801916,-0.16646078,100.00133,-136.6982,-16.625631,STU
996248504000,3.245041,1.0649179329773,3.49478002723631,-3.21435475300401,1.0638218,1.0207558,-0.08399397,99.81999,-136.96516,-16.31836,STU
996253316000,3.249853,0.851940453712642,3.60363520636746,-3.17175933622266,0.95081174,0.87964594,-0.061391957,99.659706,-137.2043,-16.02716,STU
996258645000,3.255182,0.638318671014648,3.72727844751697,-3.16964940066095,0.8237518,0.86498517,-0.041233405,99.546,-137.38187,-15.728011,STU
996263332000,3.259869,0.56214471477492,3.85156214790997,-3.39416201728296,0.7266242,0.80664754,-0.015882496,99.480286,-137.53325,-15.462245,STU
996268284000,3.264821,0.481663931480886,3.98287276970346,-3.63136843450339,0.6227771,0.7199047,0.002443461,99.45836,-137.63657,-15.254038,STU
996273372000,3.269909,0.374801167124442,3.8223945349529,-3.52416999628161,0.5152648,0.6627888,0.016493361,99.449326,-137.70937,-15.04975,STU
996278333000,3.27487,0.266447934149727,3.61511023042142,-3.35928470484879,0.4089743,0.5815437,0.025350908,99.46814,-137.75204,-14.8677435,STU
996283363000,3.2799,0.0156346948310616,3.60895137934344,-3.52719744571895,0.30543262,0.43951756,0.036957346,99.51304,-137.78363,-14.717247,STU
996288346000,3.284883,-0.25920440163947,3.64101591771933,-3.75623000618161,0.19211712,0.46486846,0.037873644,99.54149,-137.78317,-14.551419,STU
996293333000,3.28987,-0.504872667303847,3.59388747627991,-3.9505881660103,0.1423316,0.5174029,0.022296581,99.61489,-137.79124,-14.453965,STU
996298264000,3.294801,-0.738533019361809,3.5223587477936,-4.13179422506311,0.105374254,0.4465425,0.004581489,99.708984,-137.77151,-14.378237,STU
996303312000,3.299849,-0.983061315649236,3.44358883175676,-4.29853273648649,0.021380283,0.37843102,-0.00061086525,99.810844,-137.77621,-14.365151,STU
996308279000,3.304816,-1.22527991602233,3.36440209864865,-4.4569062027027,-0.053450707,0.301462,-0.009162978,99.9242,-137.77457,-14.372713,STU
996313332000,3.309869,-1.49067790501911,3.2963856906558,-4.68477874230537,-0.12950343,0.2452624,-0.021991149,100.056046,-137.8086,-14.456355,STU
996318284000,3.314821,-1.75780353841279,3.23437426816536,-4.93282403379602,-0.2171626,0.19486602,-0.042455133,100.19671,-137.82024,-14.555563,STU
996323399000,3.319936,-2.01483452520893,3.20709563458854,-5.32757631420706,-0.30268374,0.16279559,-0.05681047,100.362206,-137.8729,-14.744684,STU
996328320000,3.324857,-2.25577720359847,3.19319515220726,-5.7538596446957,-0.4092797,0.14446963,-0.07727446,100.52438,-137.89859,-14.940608,STU
996333302000,3.329839,-2.48617857534481,3.24111784472715,-6.16060323253662,-0.49602258,0.13744467,-0.094989546,100.72938,-137.98227,-15.237243,STU
996338345000,3.334882,-2.71373547190097,3.31559102658271,-6.56193077154973,-0.58246,0.13469578,-0.116980694,100.92093,-138.03981,-15.529134,STU
996343331000,3.339868,-2.97206258130426,3.42245236330722,-6.99780706735126,-0.6719518,0.14263703,-0.14019357,101.08103,-138.1673,-15.868802,STU
996348328000,3.344865,-3.28616677506881,3.58457062785306,-7.49936065493331,-0.768163,0.13072516,-0.16798794,101.228,-138.27206,-16.203411,STU
996353306000,3.349843,-3.58052926111221,3.75726659469712,-7.90842066897716,-0.86193085,0.105068825,-0.20097467,101.368,-138.43365,-16.588188,STU
996358342000,3.354879,-3.8583117204568,3.94405138460775,-8.22451813654419,-0.94959,0.07574729,-0.22724187,101.4921,-138.57156,-16.960873,STU
996363269000,3.359806,-4.08463540819157,4.09033066619822,-8.43616294480399,-1.0494665,0.03634648,-0.25961772,101.60409,-138.75029,-17.378801,STU
996368317000,3.364854,-4.26342146403476,4.19760234637574,-8.53896483940458,-1.1484267,-0.019547688,-0.29260445,101.70479,-138.90529,-17.788338,STU
996373354000,3.369891,-4.39982733620968,4.30462225045363,-8.53826687948589,-1.2565498,-0.113926366,-0.31612277,101.8521,-139.06636,-18.256138,STU
996378335000,3.374872,-4.44310539741935,4.41041301653226,-8.31225877459677,-1.3677273,-0.23976462,-0.33200526,101.99343,-139.19873,-18.717531,STU
996383261000,3.379798,-4.42303676305981,4.49988435352169,-8.03685666516381,-1.4856243,-0.376293,-0.32650748,102.16453,-139.30804,-19.209538,STU
996388370000,3.384907,-4.26126727279832,4.55870951567979,-7.63488416922152,-1.6383406,-0.45814893,-0.28313604,102.337524,-139.37277,-19.680777,STU
996393284000,3.389821,-4.04795187803479,4.58515003574842,-7.23060790881285,-1.790446,-0.60994893,-0.24984388,102.564095,-139.35696,-20.167917,STU
996398335000,3.394872,-3.70580306675588,4.54816104422673,-6.7774918815714,-1.8784106,-0.7809912,-0.16462818,102.81876,-139.30634,-20.629423,STU
996403298000,3.399835,-3.32050868053457,4.5373474272516,-6.3821931293434,-2.02624,-1.0100657,-0.07971791,103.13943,-139.1195,-21.06896,STU
996409019000,3.405556,-2.68910436016851,4.62224233576409,-6.11689729511912,-2.1090124,-1.2617421,0.03481932,103.51446,-138.91582,-21.500921,STU
996413303000,3.40984,-2.27233318051847,4.7277732603255,-6.08474611548582,-2.1190915,-1.6206255,0.1459968,104.01348,-138.60117,-21.919956,STU
996418309000,3.414846,-2.05741180852743,5.05482747114316,-6.85565996785888,-2.0100522,-2.0186043,0.22418754,104.581535,-138.29115,-22.357382,STU
996423374000,3.419911,-1.89206911895343,5.45913235100985,-7.7029417926473,-1.8594738,-2.2730296,0.21960606,105.14353,-137.88947,-22.713371,STU
996428333000,3.42487,-2.08232002408613,6.35093346623268,-8.98713551610749,-1.638646,-2.4895813,0.17989981,105.78863,-137.53345,-23.113335,STU
996433287000,3.429824,-2.27237910535804,7.24183540711067,-10.2700344283926,-1.3182472,-2.5677722,0.08735373,106.35796,-137.28067,-23.467525,STU
996438340000,3.434877,-2.46893218974104,8.68465164681275,-11.7117386815239,-0.9987647,-1.8869628,0.052534413,106.79998,-137.08263,-23.699928,STU
996443287000,3.439824,-2.66240177171315,10.303190018008,-13.1745579587649,-0.7867944,-1.1896601,0.024740042,107.23053,-136.9515,-23.950197,STU
996448327000,3.444864,-3.12369728613193,11.6649777552474,-12.9611460378561,-0.95814216,-0.28771752,-0.0729984,107.37088,-136.86435,-23.99261,STU
996453289000,3.449826,-3.68474818976762,12.8894939964393,-12.0616835725262,-1.4110987,0.14966199,-0.16584991,107.45095,-136.7606,-23.993256,STU
996458345000,3.454882,-4.39013099006595,13.9239432124897,-9.8973203928277,-1.9300288,-0.13836098,-0.2302962,107.50692,-136.52856,-23.875437,STU
996463332000,3.459869,-5.18251400166942,14.7901502692704,-6.86067216220115,-2.2000313,-0.83077675,-0.28527406,107.542984,-136.26382,-23.779446,STU
996468317000,3.464854,-5.42604222781575,14.993815551263,-4.33863806175334,-2.1981986,-1.491122,-0.34574974,107.83131,-135.66925,-23.751404,STU
996473343000,3.46988,-5.35929017678058,14.8221673204557,-2.08813859859336,-2.1542163,-1.7192802,-0.3463606,108.172,-135.04984,-23.774643,STU
996478967000,3.475504,-4.00709519382592,14.3118669024194,-2.36715874781648,-2.1700988,-1.4239268,-0.22571471,108.869804,-134.02818,-23.857664,STU
996483326000,3.479863,-2.46066250932637,13.7921984839876,-3.67471175573738,-2.2321017,-1.1511755,0.005497787,109.61562,-133.03778,-23.943514,STU
996488331000,3.484868,-0.864592510746152,12.3894555051476,-5.00347293050299,-2.2101104,-0.5696318,0.13836098,110.282074,-131.8796,-23.94217,STU
996493337000,3.489874,0.625500055858417,10.5092128997941,-6.23033132620845,-2.1514673,-0.23915374,0.3817908,110.97358,-130.70541,-23.849415,STU
996498329000,3.494866,0.672659780200649,9.240624122455,-5.65966964747713,-2.0399845,-0.28893927,0.5140431,111.50872,-129.6771,-23.551556,STU
996503318000,3.499855,-0.281316219622307,8.39473370109177,-3.84100597760401,-2.0506747,-0.72601336,0.5522222,112.069046,-128.63792,-23.230364,STU
996508365000,3.504902,-0.90086908606403,7.83427862937853,-2.15876732244821,-2.155438,-1.3640621,0.52290064,112.4576,-127.84913,-22.895496,STU
996513394000,3.509931,-1.24457474271979,7.50966782004163,-0.60731800114382,-2.3393085,-1.8521434,0.4868596,112.92194,-127.04707,-22.592802,STU
996518353000,3.51489,-1.24157952278634,7.5452962068127,0.481391434284388,-2.5146267,-2.235767,0.46761733,113.61575,-126.20804,-22.524502,STU
996523409000,3.519946,-0.949457648941897,7.88236002652682,1.21843757267681,-2.6282477,-2.488665,0.45723262,114.39437,-125.35901,-22.496674,STU
996528376000,3.524913,-0.707578150544549,8.28725456539778,1.18367883161498,-2.6725354,-2.543643,0.50823987,115.33333,-124.37344,-22.50516,STU
996533363000,3.5299,-0.534195301037237,8.80740264837672,-0.0200933254952806,-2.656042,-2.652377,0.539394,116.33909,-123.39618,-22.528646,STU
996538385000,3.534922,-0.409817960082661,9.32094662408975,-1.15304304005117,-2.5970936,-2.4923303,0.6197228,117.36107,-122.25006,-22.406017,STU
996543383000,3.53992,-0.343875404538477,9.82022626549892,-2.18928331804763,-2.4749205,-2.4324653,0.6789767,118.42561,-121.13605,-22.273159,STU
996548786000,3.545323,-0.280408276896253,10.295350266641,-3.1206542532415,-2.3451116,-2.289523,0.7348709,119.33324,-120.12287,-22.070963,STU
996553355000,3.549892,-0.234042728613814,10.6367691327425,-3.73183632455447,-2.1731532,-2.0995438,0.80909103,120.19954,-119.14215,-21.81519,STU
996558351000,3.554888,-0.183975497684211,11.0077829157895,-4.21732304842105,-2.005776,-1.865277,0.90010995,120.94801,-118.267914,-21.509659,STU
996563366000,3.559903,-0.134892531828309,11.3759054415943,-4.36457200749106,-1.8359555,-1.6646078,0.9764681,121.641304,-117.42923,-21.165543,STU
996568338000,3.564875,-0.0859914218029663,11.6491222501509,-4.3580605355523,-1.715615,-1.5161675,1.0580186,122.24091,-116.65199,-20.767033,STU
996573376000,3.569913,-0.0360668327621799,11.782254560576,-4.1125980717082,-1.6514742,-1.4355333,1.131017,122.79495,-115.89466,-20.338617,STU
996578605000,3.575142,0.00544478078031165,11.9010195548355,-3.8445021776651,-1.6050484,-1.42973,1.1777482,123.32568,-115.14032,-19.872349,STU
996583346000,3.579883,-0.0259997397775414,11.878559199258,-3.51208865713579,-1.6007724,-1.4553864,1.2208142,123.83585,-114.38964,-19.386953,STU
996588649000,3.585186,-0.0611717061387089,11.8534363843186,-3.1402707074697,-1.616044,-1.5632042,1.2635747,124.38617,-113.597305,-18.881016,STU
996593415000,3.589952,-0.0927820383426169,11.8308575919367,-2.80610432087559,-1.6230689,-1.6065756,1.2797627,124.91351,-112.819954,-18.372133,STU
996598576000,3.595113,-0.136890935596548,11.7989086576252,-2.45911212781677,-1.6190983,-1.6676621,1.289842,125.46898,-112.051735,-17.871454,STU
996603297000,3.599834,-0.291256992750379,11.6831340128983,-2.31332201521244,-1.6111571,-1.717753,1.3066407,126.02291,-111.293495,-17.370415,STU
996608332000,3.604869,-0.455890142034332,11.5596590422989,-2.1578352079761,-1.6050484,-1.7550159,1.3078625,126.61959,-110.48663,-16.880396,STU
996613352000,3.609889,-0.6817249933,11.399656225,-1.8869182865,-1.611768,-1.7776178,1.3161092,127.213234,-109.69084,-16.388138,STU
996618437000,3.614974,-0.916027008422642,11.2342666,-1.60208052437736,-1.6288722,-1.8267925,1.2892311,127.80906,-108.91976,-15.911276,STU
996623336000,3.619873,-1.18680302857448,11.0698453041386,-1.44915596066731,-1.647809,-1.840537,1.2635747,128.3821,-108.17863,-15.467658,STU
996628281000,3.624818,-1.47041001600898,10.9027195341675,-1.32254571636189,-1.675298,-1.8411479,1.2586879,128.95125,-107.452354,-15.028698,STU
996728302000,3.724839,-3.05387810100338,8.52590990081373,-1.57969699456803,-1.1340714,-0.41325033,1.2345587,134.24458,-78.47423,-11.294446,STU
996733344000,3.729881,-3.13816566771011,8.43046175639071,-1.56181147053547,-1.0656544,-0.18448131,1.2773192,134.16994,-78.607796,-11.105561,STU
996738249000,3.734786,-3.23507190800072,8.40518180258319,-1.45647865230065,-1.003957,0.021991149,1.2977833,134.0471,-78.74202,-10.916538,STU
996743575000,3.740112,-3.32444618510523,8.38103126095204,-1.34701671335019,-0.94959,0.13347405,1.2962561,133.86957,-78.85032,-10.761085,STU
996748246000,3.744783,-3.22343166480896,8.39719390822871,-1.30661089679342,-0.89827734,0.1563815,1.2803736,133.6625,-78.95835,-10.609792,STU
996753434000,3.749971,-3.11123656069912,8.41514548478006,-1.26173284577726,-0.8790351,0.1872302,1.2195925,133.40353,-79.0136,-10.505548,STU
996758249000,3.754786,-2.81191517244269,8.32935518469151,-1.18132230084823,-0.8597928,0.2125811,1.1902709,133.14708,-79.0727,-10.400447,STU
996763556000,3.760093,-2.43726503427244,8.21131395718469,-1.08381063720085,-0.86284715,0.12034045,1.1991285,132.92378,-79.121475,-10.303164,STU
996768306000,3.764843,-2.15990905562914,8.08059981762608,-1.16551159246052,-0.829555,0.008246681,1.201572,132.72017,-79.18546,-10.192006,STU
996773261000,3.769798,-1.87949346423841,7.94039224910851,-1.27671087957208,-0.8173377,-0.053450707,1.1808025,132.53442,-79.23912,-10.087357,STU
996778258000,3.774795,-1.64982919966749,7.8848717214416,-1.34119671445887,-0.8151997,-0.057421334,1.1707232,132.39775,-79.35303,-9.912379,STU
996783526000,3.780063,-1.4230635811536,7.84670359541845,-1.39355684224697,-0.81245077,0.0015271631,1.1429288,132.26366,-79.45149,-9.752777,STU
996788254000,3.784791,-1.3404147581546,7.91695476270877,-1.29437835820936,-0.7993172,0.01863139,1.1362094,132.15945,-79.59903,-9.546006,STU
996793245000,3.789782,-1.25316850697271,7.9911137254723,-1.18968296611299,-0.788627,0.05375614,1.1239921,132.03969,-79.76646,-9.319321,STU
996798249000,3.794786,-1.24634622269212,8.05360876009546,-0.931377651312649,-0.7883216,0.05681047,1.110553,131.9254,-79.92539,-9.099268,STU
996803444000,3.799981,-1.26059485543675,8.11535313288783,-0.622657027207637,-0.79717916,-0.021991149,1.0919216,131.82617,-80.073425,-8.8877325,STU
996808270000,3.804807,-1.37495149683143,8.18432815589354,-0.59234797243346,-0.7965683,-0.10873401,1.054048,131.73517,-80.216545,-8.667989,STU
996813229000,3.809766,-1.53044715367554,8.2595679391635,-0.657555836977186,-0.79779,-0.093767814,1.0296134,131.63843,-80.34961,-8.454809,STU
996818248000,3.814785,-1.61464431586391,8.48502976233805,-0.685697864533676,-0.7993172,-0.03756821,0.98654735,131.56027,-80.430466,-8.260098,STU
996823250000,3.819787,-1.68097253766195,8.74560472505192,-0.704648770912867,-0.78038037,-0.04917465,0.95233893,131.49846,-80.50165,-8.072701,STU
996828267000,3.824804,-1.77436422970297,8.86594197029703,-0.715890004950495,-0.77213365,-0.07941248,0.94042706,131.41315,-80.53895,-7.927062,STU
996833241000,3.829778,-1.87413299067022,8.94757116317593,-0.724959883701447,-0.75777835,-0.21319197,0.91874135,131.36343,-80.56404,-7.794063,STU
996838401000,3.834938,-1.92730086443655,9.02725866109136,-0.77086986631821,-0.7415904,-0.26267207,0.88697636,131.29665,-80.57896,-7.6794233,STU
996843248000,3.839785,-1.95641569797198,9.10004574492996,-0.829099584058123,-0.72173727,-0.30604348,0.87781334,131.2671,-80.593094,-7.563592,STU
996848262000,3.844799,-1.89315234884933,9.07706672833513,-0.809381354935275,-0.6844745,-0.31123585,0.8472701,131.21669,-80.57845,-7.488485,STU
996853327000,3.849864,-1.80158121032003,9.02474023336929,-0.765776048705502,-0.65026605,-0.3173445,0.7965683,131.18057,-80.55843,-7.42192,STU
996858337000,3.854874,-1.78787962683004,9.05941399323967,-0.769877315219182,-0.605062,-0.34269542,0.7910705,131.14023,-80.55319,-7.356595,STU
996863329000,3.859866,-1.83332876273371,9.16041195584662,-0.810276531900285,-0.6017023,-0.34666604,0.7644979,131.09837,-80.53006,-7.312963,STU
996868309000,3.864846,-1.67548560617869,9.12274709437246,-0.567434583069039,-0.5723807,-0.3436117,0.713796,131.06361,-80.5237,-7.2558265,STU
996873810000,3.870347,-1.39022237362212,9.00558568787469,-0.144633669808548,-0.5510005,-0.4465425,0.6908886,131.06094,-80.51597,-7.1961665,STU
996878332000,3.874869,-1.32683097020316,9.01493137471783,-0.0879639410158014,-0.56382865,-0.48991394,0.7153232,131.0227,-80.50566,-7.148229,STU
996883329000,3.879866,-1.35138220640263,9.08367473353171,-0.186168952467679,-0.57451874,-0.45631635,0.70829827,130.99393,-80.487946,-7.1154366,STU
996888336000,3.884873,-1.27613892934653,9.27197590217822,-0.145806405039208,-0.591623,-0.38453966,0.6792821,130.97377,-80.45508,-7.022247,STU
996893344000,3.889881,-1.14792728673267,9.52365071089109,-0.0318405107960396,-0.6001751,-0.4605924,0.72509706,130.98466,-80.43372,-6.9074016,STU
996898332000,3.894869,-1.15009600862248,9.53479829611421,0.0726821398754846,-0.6395759,-0.45906523,0.79626286,130.9522,-80.412254,-6.8037205,STU
996903312000,3.899849,-1.22675029490404,9.40854444341496,0.171881810872932,-0.65118235,-0.3943135,0.7779369,130.92519,-80.38364,-6.713661,STU
996908335000,3.904872,-1.17930160754319,9.45176227742065,0.317579456896344,-0.6386596,-0.3484986,0.77579886,130.88594,-80.37652,-6.565833,STU
996914101000,3.910638,-0.990724305343512,9.68471018320611,0.533888717175573,-0.6579019,-0.45173484,0.8344419,130.8702,-80.36422,-6.4054966,STU
996918338000,3.914875,-1.07338102859183,9.69861899219271,0.526335044417785,-0.68294734,-0.44776422,0.88208944,130.79099,-80.31387,-6.2766075,STU
996923430000,3.919967,-1.33338726069694,9.6011171066362,0.396331916244882,-0.700357,-0.35979962,0.84757555,130.72008,-80.25341,-6.1558175,STU
996928325000,3.924862,-1.53942702500512,9.57725059973377,0.415216257990989,-0.70188415,-0.31306845,0.79290307,130.665,-80.18868,-5.98919,STU
996933343000,3.92988,-1.69197145035839,9.64614148136392,0.62681012936924,-0.71593404,-0.36682457,0.788627,130.6149,-80.11474,-5.8203435,STU
996938334000,3.934871,-1.96567218597713,9.74079196976628,0.660731072395823,-0.7498371,-0.37751472,0.8353582,130.48726,-80.0135,-5.720772,STU
996943332000,3.939869,-2.37505858965689,9.86455994649428,0.498880661937345,-0.79168135,-0.2302962,0.7684685,130.33992,-79.888336,-5.659112,STU
996948330000,3.944867,-2.71169810890977,9.98310562321429,0.372315455387218,-0.79534656,-0.15271631,0.7244862,130.19409,-79.72455,-5.604784,STU
996953316000,3.949853,-2.96301369003759,10.0952995267857,0.287047676296992,-0.80878556,-0.1386664,0.68477994,130.03616,-79.54379,-5.569018,STU
996958339000,3.954876,-3.16860841694046,10.1840199169195,0.278606208554986,-0.8237518,-0.15760323,0.66248333,129.8314,-79.37767,-5.6032357,STU
996963334000,3.959871,-3.27872618935859,10.2240630188344,0.423761410302396,-0.8399397,-0.19120082,0.63713247,129.63899,-79.209045,-5.6445103,STU
996968285000,3.964822,-3.3104564109029,10.2490565244179,0.488835875337876,-0.84665924,-0.23884831,0.63346726,129.45364,-79.04974,-5.7238636,STU
996973352000,3.969889,-3.23238173850085,10.2536492424759,0.442909625099375,-0.84391034,-0.24740042,0.61911196,129.27716,-78.891075,-5.807285,STU
996978417000,3.974954,-3.12721039673075,10.259664880561,0.365323104686542,-0.8023715,-0.25350907,0.61208695,129.10022,-78.73078,-5.887638,STU
996983331000,3.979868,-2.96986157917712,10.2684062051639,0.225457438372806,-0.7877107,-0.27488935,0.6035349,128.93896,-78.569595,-5.9650383,STU
996988384000,3.984921,-2.751417302277,10.3149447872601,0.0573058593507716,-0.75655663,-0.30390546,0.6062838,128.78726,-78.43745,-6.0259066,STU
996993333000,3.98987,-2.25641215698156,10.5468395233346,-0.228102439800527,-0.7086037,-0.36163223,0.6215554,128.65662,-78.319466,-6.0781918,STU
996998558000,3.995095,-1.74896026291216,10.7884145529113,-0.508889520228904,-0.66248333,-0.36377025,0.6188065,128.50513,-78.24484,-6.105681,STU
997003314000,3.999851,-1.46348811307112,10.9704545678082,-0.525438646267599,-0.63224554,-0.39095375,0.6227771,128.38217,-78.18439,-6.1202545,STU
997008355000,4.004892,-1.16090924272868,11.1634032042874,-0.542979467201381,-0.59559363,-0.46395215,0.6337727,128.296,-78.21417,-6.0543447,STU
997013332000,4.009869,-0.820671153410315,11.4435174649731,-0.56879156052348,-0.57940567,-0.54153204,0.6545421,128.2212,-78.247086,-5.984225,STU
997018284000,4.014821,-0.473841812794457,11.7401480785219,-0.596172823002309,-0.54550266,-0.5684101,0.63499445,128.15671,-78.28745,-5.922734,STU
997023351000,4.019888,-0.055700038312149,12.2590204407331,-0.68874028945906,-0.5195409,-0.6239988,0.6261369,128.15697,-78.36188,-5.792587,STU
997028318000,4.024855,0.375500657822446,12.8402034874372,-0.8012274280067,-0.4905248,-0.70952,0.63194007,128.17358,-78.4416,-5.6637454,STU
997033328000,4.029865,0.640957515646603,13.5517416016223,-0.941199107420039,-0.45081854,-0.70921457,0.6246097,128.19589,-78.554115,-5.486185,STU
997038396000,4.034933,0.842274367743571,14.3212194657572,-1.0933051609918,-0.40500367,-0.63194007,0.6020077,128.21996,-78.6697,-5.3147516,STU
997043334000,4.039871,0.889653060626396,15.0061888450495,-1.17844221227268,-0.3387248,-0.5149594,0.593761,128.25223,-78.84719,-5.078152,STU
997048334000,4.044871,0.818359175696054,15.6478340646602,-1.21408918664256,-0.24953845,-0.4156938,0.5647449,128.26889,-79.03037,-4.861356,STU
997053314000,4.049851,0.527516153437919,15.8875004945802,-1.20381349805873,-0.14172074,-0.31215215,0.59864795,128.25255,-79.281586,-4.61073,STU
997058343000,4.05488,0.124111566432006,15.9302137916831,-1.17059191811194,-0.024129177,-0.2733622,0.55771995,128.23174,-79.53738,-4.395813,STU
997063331000,4.059868,-0.209362225522114,15.7772276269328,-1.01820464331176,0.12705997,-0.19730948,0.4447099,128.16599,-79.83078,-4.2122035,STU
997068314000,4.064851,-0.505367694358684,15.5155417356167,-0.799418018959008,0.2950479,-0.16646078,0.3203988,128.10548,-80.14353,-4.0473948,STU
997073339000,4.069876,-0.606475859082648,15.2228874443964,-0.540710424978797,0.4447099,-0.14569137,0.25045475,127.999214,-80.45496,-3.964429,STU
997078335000,4.074872,-0.430496331363046,14.8916316745997,-0.230158310498486,0.5161811,-0.1740966,0.113926366,127.90812,-80.75636,-3.9357414,STU
997083329000,4.079866,-0.184400890334835,14.6075498441355,-0.2763303384813,0.63224554,-0.21746802,0.024129177,127.79412,-81.04006,-3.960803,STU
997088411000,4.084948,0.120556739551596,14.355007183082,-0.600347809849227,0.698219,-0.19517145,-0.043982297,127.6761,-81.30323,-4.018575,STU
997094113000,4.09065,0.50410125630273,14.1598675235732,-0.962575993300248,0.7495316,-0.07422013,-0.110872045,127.56099,-81.53591,-4.0743637,STU
997098330000,4.094867,0.808448525479276,14.0596555432405,-1.22980772123886,0.79717916,0.111177474,-0.06872234,127.420555,-81.77996,-4.1203947,STU
997103301000,4.099838,1.09377066892422,13.9464961202091,-1.50245853343859,0.8323039,0.2565634,-0.13775012,127.27729,-82.05669,-4.176134,STU
997108343000,4.10488,1.24098488116289,13.8413431898955,-1.69699161921821,0.9062186,0.42485678,-0.28802297,127.07674,-82.33461,-4.249398,STU
997113330000,4.109867,1.3023281049346,13.6306429453032,-1.78359202237416,0.9947941,0.5342017,-0.35827246,126.87219,-82.67705,-4.270221,STU
997118331000,4.114868,1.28334526631986,13.3174263311534,-1.76935488102457,1.102001,0.58123827,-0.39858958,126.641914,-83.00412,-4.326575,STU
997123324000,4.119861,1.2646593289537,13.0023165467321,-1.70779652644143,1.2195925,0.57787853,-0.4392121,126.39781,-83.350914,-4.384116,STU
997128335000,4.124872,1.24618234568293,12.6835886817788,-1.59693453034941,1.3301591,0.54641896,-0.47128254,126.1498,-83.686424,-4.4486575,STU
997133326000,4.129863,1.20868345686898,12.3774720760116,-1.52847119668593,1.4871514,0.4718934,-0.49877146,125.91755,-84.009,-4.523629,STU
997138381000,4.134918,1.14338956077071,12.0836494705202,-1.51914350420039,1.6368134,0.38453966,-0.52839845,125.69893,-84.30189,-4.6048326,STU
997143356000,4.139893,1.07956582263019,11.8123493400122,-1.56001813528275,1.8023579,0.30604348,-0.5653558,125.506004,-84.55385,-4.693195,STU
997148366000,4.144903,1.01612628998169,11.5732313955452,-1.69665717179618,1.954158,0.25381452,-0.6017023,125.33037,-84.7561,-4.7865267,STU
997153312000,4.149849,0.932704744184419,11.4074791924192,-1.85365856637664,2.1050417,0.1863139,-0.63071835,125.178925,-84.88291,-4.8963194,STU
997158376000,4.154913,0.811450229452945,11.3589774270427,-2.05251595635564,2.2479842,0.13958271,-0.68233645,125.03544,-84.915985,-5.020414,STU
997163362000,4.159899,0.655629189833366,11.3755892613213,-2.26994356747697,2.3747387,0.12705997,-0.74006325,124.89366,-84.835365,-5.1641965,STU
997168315000,4.164852,0.441753445347971,11.4964755719467,-2.52101507968045,2.5088236,0.10140363,-0.8002335,124.76647,-95.36616,-5.3206706,STU
997173417000,4.169954,0.194656894771894,11.665250300611,-2.79330680387984,2.5647178,0.04886922,-0.82527894,124.637695,-95.70058,-5.5009327,STU
997178336000,4.174873,-0.093173942089613,11.9099059323829,-3.08113758063136,2.6728408,-0.030848695,-0.8961393,124.520096,-96.16721,-5.7090535,STU
997183264000,4.179801,-0.439854087832808,12.1575670819735,-3.32405663267487,2.803566,-0.13775012,-0.9764681,124.40082,-96.77344,-5.9602804,STU
997188346000,4.184883,-0.904300439335814,12.4176574306709,-3.49125739099151,2.9254336,-0.2751948,-1.0839803,124.30721,-97.47217,-6.2379003,STU
997193281000,4.189818,-1.37434127073749,12.6415327212953,-3.49013013993484,3.046385,-0.4569272,-1.2272283,124.226814,-98.31586,-6.5919795,STU
997198338000,4.194875,-1.90984816434989,12.7897533962879,-3.02634287945503,3.150232,-0.7476991,-1.3970488,124.206894,-99.22866,-6.9863944,STU
997203319000,4.199856,-2.42628986009014,12.9151830418628,-2.48944809269905,3.1700852,-1.112691,-1.5815301,124.207405,-100.25746,-7.505878,STU
997208307000,4.204844,-2.9094826903355,12.9773759336004,-1.70485772282424,3.1413746,-1.4972308,-1.772731,124.279854,-101.32584,-8.079643,STU
997213316000,4.209853,-3.33504154204768,13.031205681744,-1.02124901209585,3.0137036,-1.8185458,-1.9504927,124.36723,-102.400894,-8.8132515,STU
997218310000,4.214847,-3.57714216474526,13.0585397584912,-0.658098179984487,2.8307495,-2.0332649,-2.1010711,124.51177,-103.46897,-9.588019,STU
997223354000,4.219891,-3.82166670236773,13.0861475044089,-0.291311476506368,2.613587,-2.0570886,-2.268448,124.69892,-104.475006,-10.460588,STU
997228332000,4.224869,-3.41171092472293,13.4181512387042,-0.347299626465852,2.356718,-1.9190332,-2.4260514,124.87784,-105.44453,-11.347479,STU
997233940000,4.230477,-2.7707098314578,13.8760088209719,-0.525355485706167,2.1114557,-1.6875153,-2.5350907,125.01587,-106.37905,-12.23552,STU
997238343000,4.23488,-2.13759527913784,14.1541533485897,-0.650544990612028,1.9007072,-1.4413365,-2.5689938,125.14131,-107.248695,-13.136673,STU
997243329000,4.239866,-1.38030482877062,14.4438556044705,-0.78777210794678,1.7898352,-1.2131784,-2.5476136,125.194695,-108.08702,-14.010237,STU
997248354000,4.244891,-0.827838205841025,14.447880902524,-0.758951564684498,1.8096883,-1.0192287,-2.509129,125.185295,-108.83718,-14.770039,STU
