timestamp,rel_time,acc_x,acc_y,acc_z,gyro_x,gyro_y,gyro_z,azimuth,pitch,roll,label
9459943118000,0,-5.37493414502064,8.33809785456753,-0.950015037670552,-0.040317107,0.2049453,-0.002443461,206.31297,-118.03017,-27.994257,STD
9459948364000,0.005246,-5.38171361013264,8.32855636203932,-0.955539054485821,-0.06383542,0.23304509,0.003970624,206.2671,-118.17592,-28.1325,STD
9459953129000,0.010011,-5.38787147350639,8.31988971852104,-0.960556580243495,-0.040927973,0.22785273,0.0018325958,206.2369,-118.32977,-28.278435,STD
9459958125000,0.015007,-5.39432786079186,8.31080292922043,-0.965817348068331,-0.040317107,0.24709499,0.0070249503,206.19066,-118.475136,-28.415802,STD
9459963157000,0.020039,-5.40083077128435,8.30165066265506,-0.971116023747788,-0.03970624,0.26267207,0.0030543262,206.14807,-118.620316,-28.552355,STD
9459968171000,0.025053,-5.40731042017333,8.29253113472207,-0.976395745499935,-0.058337633,0.27916542,0.01160644,206.10013,-118.75641,-28.679684,STD
9459973582000,0.030464,-5.41430311665084,8.28268953806363,-0.982093506648891,-0.057726767,0.28008172,0.005192355,206.05305,-118.894714,-28.808607,STD
9459978288000,0.03517,-5.42038473365753,8.27413020450706,-0.987048905644823,-0.05131268,0.28496864,0.004276057,206.00061,-119.02535,-28.929655,STD
9459983168000,0.04005,-5.42669121283148,8.26525439750407,-0.992187525938097,-0.059864793,0.2919936,0.010079277,205.94832,-119.15221,-29.047028,STD
9459988174000,0.045056,-5.43316052323001,8.25614942007437,-0.997458823722549,-0.083383106,0.2919936,0.005192355,205.89769,-119.27883,-29.164303,STD
9459993167000,0.050049,-5.43961303358156,8.2470680872125,-1.0027164325595,-0.06841691,0.29443705,0.0143553335,205.84543,-119.39734,-29.272484,STD
9459998269000,0.055151,-5.44620640586548,8.23778850374339,-1.00808881795628,-0.08277224,0.28863382,0.010995574,205.79668,-119.5164,-29.382605,STD
9460003232000,0.060114,-5.45262014687784,8.22876173526883,-1.01331483691438,-0.099571034,0.269697,0.007941248,205.7527,-119.63008,-29.487158,STD
9460008174000,0.065056,-5.45900674935278,8.2197731618654,-1.01851874295728,-0.099571034,0.25167647,0.007941248,205.71136,-119.74098,-29.588957,STD
9460013172000,0.070054,-5.46546572126086,8.21068273493898,-1.02378161677404,-0.10476339,0.24312437,0.004276057,205.67383,-119.85033,-29.689987,STD
9460018127000,0.075009,-5.47186912378277,8.2016705169677,-1.02899921176444,-0.11636983,0.2275473,0.0061086523,205.64534,-119.95511,-29.787092,STD
9460023252000,0.080134,-5.47849221922673,8.19234910080165,-1.03439581606834,-0.11575896,0.21471913,0.005497787,205.61922,-120.05905,-29.883343,STD
9460029080000,0.085962,-5.48602380951891,8.18174905915956,-1.04053267653334,-0.12308934,0.1957823,0.006414085,205.60077,-120.1588,-29.976414,STD
9460033230000,0.090112,-5.49138690143938,8.1742009855812,-1.04490260977455,-0.13164146,0.18570304,0.003970624,205.58391,-120.25702,-30.068161,STD
9460038178000,0.09506,-5.49778125778215,8.1652014993003,-1.05011283379322,-0.12797627,0.16523905,0.0015271631,205.57697,-120.352585,-30.157715,STD
9460043159000,0.100041,-5.50421826039803,8.15614199219336,-1.05535780667863,-0.124311075,0.15363261,0.0027488936,205.57057,-120.44504,-30.244555,STD
9460048368000,0.10525,-5.5109499099917,8.14666779574283,-1.06084286264331,-0.112704635,0.15027285,0.0012217305,205.56807,-120.53688,-30.330734,STD
9460053262000,0.110144,-5.51727448152394,8.13776652535909,-1.06599622488005,-0.11301007,0.13897185,0.006414085,205.57213,-120.623795,-30.412703,STD
9460058115000,0.114997,-5.52354606829263,8.12893982630469,-1.07110641428236,-0.10842858,0.12705997,0.004581489,205.57724,-120.71129,-30.494915,STD
9460063163000,0.120045,-5.53006965576602,8.11975845873274,-1.0764219378972,-0.10048734,0.10598512,0.00030543262,205.58907,-120.79582,-30.574566,STD
9460068181000,0.125063,-5.53655447390022,8.11063165554812,-1.0817058716332,-0.09254608,0.100792766,0.0061086523,205.59952,-120.87589,-30.649622,STD
9460073366000,0.130248,-5.54325510802255,8.10120111060744,-1.0871656556948,-0.08032878,0.08857546,0.009162978,205.61882,-120.95612,-30.72509,STD
9460078157000,0.135039,-5.54944657149026,8.09248717795348,-1.09221055934748,-0.06719518,0.07696902,0.007941248,205.63934,-121.03404,-30.798141,STD
9460083175000,0.140057,-5.55593138962446,8.08336037476885,-1.09749449308347,-0.05131268,0.06169739,0.00061086525,205.66469,-121.11122,-30.870369,STD
9460089012000,0.145894,-5.56347461071839,8.07274396381056,-1.10364083051213,-0.040317107,0.04428773,0.015882496,205.6947,-121.1805,-30.934765,STD
9460093186000,0.150068,-5.56886871811021,8.06515223872235,-1.10803603565642,-0.033292156,0.03390302,0.016798794,205.72644,-121.25421,-31.003498,STD
9460098254000,0.155136,-5.57541815180972,8.0559344948922,-1.1133726191905,-0.03481932,0.006414085,0.0076358155,205.76927,-121.32452,-31.06955,STD
9460103265000,0.160147,-5.58189392376478,8.04682042339794,-1.11864918195476,-0.018936822,-0.004581489,0.006414085,205.80966,-121.391174,-31.131071,STD
9460108186000,0.165068,-5.58825338770229,8.03787004506562,-1.12383097508246,-0.01740966,-0.022907447,0.0036651916,205.86061,-121.458336,-31.194485,STD
9460113148000,0.17003,-5.59466583640335,8.02884509540398,-1.1290559410446,-0.012217305,-0.032070424,0.0018325958,205.91136,-121.52428,-31.256123,STD
9460118165000,0.175047,-5.60114936222624,8.01972011103226,-1.13433882178463,-0.014660766,-0.044898596,0.014049901,205.96878,-121.58481,-31.31312,STD
9460123252000,0.180134,-5.60772334984057,8.0104678097568,-1.13969541224199,-0.016798794,-0.05497787,0.01282817,206.02701,-121.64794,-31.37276,STD
9460128158000,0.18504,-5.61406342910848,8.00154471361814,-1.14486141043027,-0.02321288,-0.06261369,0.011911872,206.08798,-121.705444,-31.427301,STD
9460133107000,0.189989,-5.62045907776256,7.99254340852433,-1.1500726874449,-0.018936822,-0.073303826,0.004276057,206.15205,-121.76373,-31.482689,STD
9460138118000,0.195,-5.62693484971762,7.98342933703008,-1.15534925020916,-0.013744468,-0.076052725,0.005192355,206.21509,-121.81793,-31.534214,STD
9460143122000,0.200004,-5.62712600516638,7.98135126544083,-1.16159408912479,-0.022296581,-0.07696902,0.004276057,206.27963,-121.87271,-31.58694,STD
9460148251000,0.205133,-5.61518104411524,7.99280869212636,-1.16988243806943,-0.028710667,-0.06536258,-0.0009162979,206.33963,-121.927025,-31.638763,STD
9460153259000,0.210141,-5.60351788074146,8.00399582272513,-1.17797525372838,-0.034208454,-0.062308256,-0.0033597588,206.37654,-122.01352,-31.721216,STD
9460159166000,0.216048,-5.58976103049207,8.01719118623291,-1.18752083322068,-0.03359759,-0.054367006,-0.00061086525,206.40733,-122.09788,-31.80125,STD
9460163111000,0.219993,-5.58057349464751,8.02600373220179,-1.19389586472518,-0.032986723,-0.050396383,0.005192355,206.43791,-122.17978,-31.879122,STD
9460168100000,0.224982,-5.56895458049579,8.03714841961339,-1.20195797681034,-0.035430185,-0.035430185,0.0076358155,206.4616,-122.25972,-31.954773,STD
9460173282000,0.230164,-5.55688618740415,8.04872424045262,-1.21033197256607,-0.046120327,-0.027183503,0.0018325958,206.48569,-122.33813,-32.029316,STD
9460178208000,0.23509,-5.54541399435718,8.05972819519095,-1.21829227806447,-0.047036625,-0.01985312,0.0021380284,206.50491,-122.412506,-32.0993,STD
9460183119000,0.240001,-5.53397673490657,8.07069864214993,-1.22622834389935,-0.04917465,-0.026267206,0.006414085,206.5256,-122.48514,-32.16819,STD
9460188104000,0.244986,-5.52236713638055,8.0818343941537,-1.23428399207425,-0.03481932,-0.021685716,-0.0033597588,206.53946,-122.56046,-32.238853,STD
9460193107000,0.249989,-5.5107156175389,8.09301035549269,-1.24236872784536,-0.027488936,-0.029321533,-0.0021380284,206.55971,-122.62938,-32.30395,STD
9460198278000,0.25516,-5.49867284241793,8.1045616039604,-1.25072494784784,-0.02076942,-0.038179077,0.0027488936,206.5784,-122.69878,-32.36903,STD
9460203161000,0.260043,-5.4873007923472,8.11546950306459,-1.25861576631083,-0.013439035,-0.05222898,0.004276057,206.60106,-122.76733,-32.43336,STD
9460208119000,0.265001,-5.47575407429465,8.12654494106553,-1.26662778309139,-0.01740966,-0.06566802,0.01282817,206.62654,-122.83063,-32.492886,STD
9460213113000,0.269995,-5.46412351561081,8.13770079773692,-1.27469797506439,0.02076942,-0.0852157,0.008857546,206.65814,-122.89729,-32.554462,STD
9460218104000,0.274986,-5.45249994364624,8.14884995285243,-1.28276331910469,0.03573562,-0.098043874,0.003970624,206.69176,-122.95914,-32.612503,STD
9460223195000,0.280077,-5.44064348103923,8.1602224931636,-1.29099026090176,0.048258353,-0.1142318,0.0061086523,206.73273,-123.01987,-32.668686,STD
9460229026000,0.285908,-5.42706362767811,8.17324808392268,-1.30041302609891,0.08002335,-0.13408493,-0.00061086525,206.7783,-123.08415,-32.727604,STD
9460233120000,0.290002,-5.4175290847763,8.1823934738331,-1.307028838261,0.094989546,-0.15118915,-0.0033597588,206.82799,-123.14486,-32.783535,STD
9460238109000,0.294991,-5.40591017062458,8.1935381612447,-1.31509095034616,0.122783914,-0.15760323,-0.010079277,206.87978,-123.20863,-32.841095,STD
9460243106000,0.299988,-5.39427262522147,8.20470071947195,-1.32316599025187,0.14294247,-0.17195857,-0.015271631,206.93924,-123.27128,-32.897984,STD
9460248259000,0.305141,-5.38227177041614,8.21621175860443,-1.33149312265813,0.15699236,-0.18661933,-0.020463986,207.00006,-123.334885,-32.955254,STD
9460253131000,0.310013,-5.37092533831609,8.2270950853371,-1.33936616536788,0.18478674,-0.204029,-0.017104227,207.066,-123.39708,-33.010273,STD
9460258125000,0.315007,-5.35929477963225,8.23825094200849,-1.34743635734088,0.21594086,-0.20525073,-0.01740966,207.13028,-123.46062,-33.066,STD
9460263106000,0.319988,-5.34769449673193,8.24937775860443,-1.3554855416055,0.25442538,-0.22266038,-0.019242255,207.20517,-123.52323,-33.12036,STD
9460268107000,0.324989,-5.33604763570312,8.26054925223951,-1.36356704542147,0.27488935,-0.2321288,-0.03604105,207.27644,-123.58886,-33.17713,STD
9460273332000,0.330214,-5.32387909963523,8.27222112871287,-1.37201052821261,0.30482176,-0.24495697,-0.044898596,207.35413,-123.65286,-33.23096,STD
9460278131000,0.335013,-5.31270267770416,8.28294138425271,-1.37976560455991,0.33444872,-0.25503623,-0.049785517,207.4328,-123.719376,-33.286762,STD
9460283176000,0.340058,-5.30095334479267,8.29421116737388,-1.38791821138887,0.355829,-0.25778514,-0.059253927,207.51201,-123.78856,-33.344597,STD
9460288168000,0.34505,-5.28932744392169,8.30536255634135,-1.39598517140673,0.376293,-0.25870144,-0.073303826,207.59277,-123.85957,-33.403404,STD
9460293129000,0.350011,-5.27777373914985,8.31644469589816,-1.40400203612,0.37659842,-0.2489276,-0.079107046,207.66992,-123.928825,-33.460308,STD
9460298457000,0.355339,-5.26536532572024,8.32834665912305,-1.41261196460061,0.38362336,-0.25473082,-0.08032878,207.75153,-123.999756,-33.518337,STD
9460303222000,0.360104,-5.25426808660761,8.33899096369637,-1.42031209771061,0.38728857,-0.23915374,-0.0870483,207.82129,-124.07156,-33.5766,STD
9460308294000,0.365176,-5.24245587322266,8.35032106082037,-1.42850833593389,0.3848451,-0.20189096,-0.09315695,207.8848,-124.14141,-33.63252,STD
9460313177000,0.370059,-5.23108382315194,8.36122895992456,-1.43639915439688,0.36254853,-0.17104226,-0.10354166,207.94406,-124.21144,-33.689262,STD
9460318128000,0.37501,-5.21955340744435,8.37228876096181,-1.44439985933447,0.34574974,-0.13164146,-0.108123146,207.9872,-124.27962,-33.742725,STD
9460323225000,0.380107,-5.20768297139879,8.38367470438472,-1.45263649699695,0.32375857,-0.09621128,-0.11728613,208.02026,-124.34863,-33.797676,STD
9460328199000,0.385081,-5.19609899084345,8.39478588401697,-1.4606743694186,0.29749137,-0.03726278,-0.10873401,208.03224,-124.41094,-33.845036,STD
9460333151000,0.390033,-5.18456624622943,8.40584791890618,-1.46867669033376,0.26389378,0.006414085,-0.110872045,208.03664,-124.47548,-33.895615,STD
9460338178000,0.39506,-5.17285883363359,8.41707749269213,-1.47680020956649,0.24404067,0.034208454,-0.11209377,208.02716,-124.53498,-33.94054,STD
9460343212000,0.400094,-5.16268932472123,8.42686290103861,-1.48454725849603,0.19761491,0.07941248,-0.10751228,207.99757,-124.58884,-33.98094,STD
9460348275000,0.405157,-5.17488875784187,8.41563941920464,-1.48674315717111,0.17898351,0.1282817,-0.10934488,207.95772,-124.64369,-34.021103,STD
9460353211000,0.410093,-5.18678218108571,8.40469746654171,-1.48888397405046,0.15424347,0.1685988,-0.1020145,207.93013,-124.642044,-33.998978,STD
9460358108000,0.41499,-5.19858163279256,8.39384196771869,-1.49100787604766,0.12339478,0.19761491,-0.09407325,207.89128,-124.63925,-33.975883,STD
9460363102000,0.419984,-5.21061480857856,8.38277144267844,-1.49317384839278,0.099265605,0.21135938,-0.08582657,207.84605,-124.633286,-33.949875,STD
9460368131000,0.425013,-5.22273231779518,8.37162333085876,-1.49535500076034,0.07727446,0.22266038,-0.0842994,207.79378,-124.62549,-33.92284,STD
9460373331000,0.430213,-5.23526185605853,8.36009615220251,-1.4976103183804,0.050396383,0.23090707,-0.07269296,207.74065,-124.61113,-33.890617,STD
9460378217000,0.435099,-5.24703480297291,8.34926503779588,-1.49972944951341,0.025961773,0.23487769,-0.06841691,207.68683,-124.59751,-33.86024,STD
9460383110000,0.439992,-5.25882461657341,8.33841840603337,-1.5018516166509,0.008246681,0.22602014,-0.06047566,207.63719,-124.57881,-33.82629,STD
9460388099000,0.444981,-5.27084574472646,8.32735896481875,-1.50401542042138,-0.0070249503,0.2302962,-0.05681047,207.58354,-124.5593,-33.792366,STD
9460393115000,0.449997,-5.28293193009742,8.31623967094571,-1.50619093449489,-0.021991149,0.23487769,-0.03604105,207.53566,-124.53224,-33.752357,STD
9460398313000,0.455195,-5.2954566493076,8.30471692581971,-1.5084453846851,-0.042455133,0.26725355,-0.035430185,207.4777,-124.50914,-33.71654,STD
9460403129000,0.460011,-5.30706092936073,8.29404098497192,-1.51053415577322,-0.052839845,0.31642818,-0.022602014,207.41563,-124.47719,-33.67142,STD
9460408122000,0.465004,-5.31909169562014,8.28297267669679,-1.51269969440341,-0.06841691,0.40225476,-0.0106901415,207.33177,-124.44457,-33.62461,STD
9460414055000,0.470937,-5.33338741687331,8.26982060920303,-1.51527292506491,-0.08857546,0.516792,-0.0015271631,207.224,-124.40912,-33.572933,STD
9460418109000,0.474991,-5.34315563766555,8.26083384338141,-1.51703120537871,-0.093462385,0.66431594,0.005192355,207.07898,-124.37198,-33.51506,STD
9460423281000,0.480163,-5.35561770918441,8.24936873414869,-1.51927437898082,-0.09987647,0.8228355,0.002443461,206.89478,-124.334816,-33.45364,STD
9460428146000,0.485028,-5.36734005604042,8.23858417180971,-1.52138440210036,-0.1328632,0.97127575,-0.0018325958,206.66876,-124.295555,-33.386734,STD
9460433107000,0.489989,-5.37929371744898,8.22758680001862,-1.52353606185288,-0.14966199,1.028697,-0.01038471,206.42525,-124.26015,-33.320766,STD
9460438124000,0.495006,-5.39138231234652,8.21646528938046,-1.52571200964132,-0.1695151,1.0946705,-0.015577064,206.13515,-124.22417,-33.250374,STD
9460443102000,0.499984,-5.4033769357071,8.20543023258222,-1.5278710425476,-0.1853976,1.1029172,-0.037873644,205.85075,-124.19591,-33.189167,STD
9460448245000,0.505127,-5.41576913095487,8.19402940953816,-1.53010163841683,-0.21594086,1.0262536,-0.05131268,205.5801,-124.16577,-33.12981,STD
9460453126000,0.510008,-5.4275300302363,8.18320937895717,-1.5322186009752,-0.25625798,0.89766645,-0.055588737,205.33043,-124.138824,-33.07807,STD
9460458111000,0.514993,-5.439541520283,8.17215880480305,-1.53438066988597,-0.29749137,0.71959925,-0.07086037,205.12805,-124.11774,-33.04077,STD
9460463119000,0.520001,-5.45160842944125,8.16105724505102,-1.53655271424007,-0.33658674,0.52290064,-0.07269296,204.98053,-124.09271,-33.009266,STD
9460468095000,0.524977,-5.46359823374864,8.15002662178304,-1.5387108797165,-0.36957347,0.3100141,-0.07360926,204.90088,-124.07044,-32.992023,STD
9460473289000,0.530171,-5.47611331485246,8.13851274371754,-1.540963595047,-0.39828414,0.11148291,-0.07086037,204.8842,-124.04649,-32.98354,STD
9460478117000,0.534999,-5.48774650922467,8.12781020168824,-1.54305757071424,-0.4184427,-0.06169739,-0.062308256,204.93074,-124.02076,-32.982655,STD
9460484133000,0.541015,-5.50224222118474,8.114474142689,-1.54566679971469,-0.41386122,-0.18784106,-0.05589417,205.02661,-123.99582,-32.98844,STD
9460488110000,0.544992,-5.51182490842961,8.10565806778209,-1.54739168397911,-0.39064834,-0.29077184,-0.052534413,205.17027,-123.970505,-32.998955,STD
9460493100000,0.549982,-5.52384844610926,8.09459640980234,-1.54955592146451,-0.35124752,-0.3640757,-0.055588737,205.34258,-123.94768,-33.013012,STD
9460498249000,0.555131,-5.53625509851657,8.08318228616753,-1.5517891196233,-0.2929099,-0.42332962,-0.04337143,205.54132,-123.92328,-33.024677,STD
9460503122000,0.560004,-5.54799672158528,8.07237998970754,-1.55390261246226,-0.23548855,-0.4615087,-0.047036625,205.75192,-123.90723,-33.04277,STD
9460508319000,0.565201,-5.56051903126887,8.06085946134666,-1.55615662893754,-0.16126843,-0.49510628,-0.03359759,205.97739,-123.888,-33.053604,STD
9460513116000,0.569998,-5.57207753031682,8.05022563903627,-1.55823715944205,-0.08582657,-0.514654,-0.03390302,206.20506,-123.87727,-33.06905,STD
9460518100000,0.574982,-5.58408661083692,8.03917728164728,-1.5603987946379,-0.007941248,-0.5323691,-0.01740966,206.43987,-123.8625,-33.075897,STD
9460523260000,0.580142,-5.59651976803671,8.02773877359607,-1.56263676366088,0.064751714,-0.54305923,-0.014966198,206.67332,-123.855484,-33.086006,STD
9460528156000,0.585038,-5.60831681021698,8.01688549153818,-1.56476023194316,0.1328632,-0.548557,0.0033597588,206.90775,-123.8431,-33.086174,STD
9460533161000,0.590043,-5.62037649079546,8.00579058208154,-1.56693097515247,0.20066923,-0.5338962,0.018020526,207.13432,-123.834526,-33.08512,STD
9460538103000,0.594985,-5.63228437119882,7.99483532882785,-1.56907439432138,0.25870144,-0.5158757,0.0143553335,207.35727,-123.82858,-33.08307,STD
9460543124000,0.600006,-5.64383949647941,7.98345193351805,-1.56720781937146,0.29077184,-0.49663344,0.017715093,207.57181,-123.81824,-33.073307,STD
9460548308000,0.60519,-5.65446839869453,7.97109273415137,-1.55559017150219,0.3475823,-0.46883908,0.014049901,207.77324,-123.81482,-33.064667,STD
9460554082000,0.610964,-5.66630699464169,7.95732691294319,-1.54265029904903,0.39278635,-0.43401974,0.021685716,207.94691,-123.871414,-33.11321,STD
9460558142000,0.615024,-5.67463132778085,7.9476474473898,-1.53355160106499,0.44684792,-0.41813725,0.02443461,208.11476,-123.932,-33.161766,STD
9460563105000,0.619987,-5.68480710742854,7.93581513518748,-1.52242922715002,0.4709771,-0.38728857,0.024129177,208.26381,-123.9901,-33.20516,STD
9460568104000,0.624986,-5.69505669889717,7.92389699521178,-1.51122617512485,0.49663344,-0.3481932,0.027183503,208.40315,-124.04762,-33.243958,STD
9460573214000,0.630096,-5.70553387681369,7.91171421960149,-1.49977436559321,0.5002986,-0.31490102,0.022602014,208.5321,-124.105484,-33.282177,STD
9460578133000,0.635015,-5.71561944201357,7.89998680801107,-1.48875059825738,0.50488013,-0.2764165,0.01985312,208.64503,-124.16164,-33.31552,STD
9460583127000,0.640009,-5.72585878184041,7.88808058855945,-1.47755875152529,0.50610185,-0.24037547,0.01985312,208.74648,-124.21648,-33.34647,STD
9460588110000,0.644992,-5.73607556805529,7.87620059426081,-1.46639155643799,0.4908302,-0.1957823,0.026267206,208.83147,-124.26778,-33.37285,STD
9460593098000,0.64998,-5.74630260591196,7.86430867943808,-1.4552131560576,0.4633413,-0.1423316,0.02321288,208.90034,-124.31929,-33.39852,STD
9460598219000,0.655101,-5.75680233744044,7.85209967867481,-1.44373669488118,0.4260785,-0.10445796,0.02443461,208.95978,-124.36467,-33.41857,STD
9460603135000,0.660017,-5.76688175165524,7.84037941939885,-1.4327196507212,0.3848451,-0.04917465,0.023518313,208.99506,-124.408005,-33.435833,STD
9460608130000,0.665012,-5.77712314181043,7.82847081584241,-1.42152556293049,0.3371976,-0.002443461,0.017715093,209.02052,-124.44821,-33.451744,STD
9460613099000,0.669981,-5.78731122342828,7.81662419901119,-1.41038974266382,0.2742785,0.05009095,0.015577064,209.02602,-124.48274,-33.46325,STD
9460618099000,0.674981,-5.79756286522527,7.80470367493067,-1.39918444958003,0.19822577,0.09254608,0.01282817,209.01953,-124.51395,-33.474113,STD
9460623452000,0.680334,-5.80853827293313,7.79194156185007,-1.38718806280452,0.13255776,0.13439035,0.008246681,208.99619,-124.5418,-33.483116,STD
9460628115000,0.684997,-5.818098954073,7.78082448109257,-1.37673800647458,0.05589417,0.17073683,0.007941248,208.96146,-124.56267,-33.489532,STD
9460633126000,0.690008,-5.82837314948194,7.76887773185908,-1.36550806174601,-0.019242255,0.19058995,-0.0027488936,208.91847,-124.582794,-33.498714,STD
9460638107000,0.694989,-5.8385858350401,7.75700250577006,-1.35434534877593,-0.057726767,0.22021692,-0.0018325958,208.86168,-124.59669,-33.502453,STD
9460643095000,0.699977,-5.84881287289678,7.74511059094734,-1.34316694839554,-0.122783914,0.24251351,-0.005192355,208.80092,-124.60765,-33.509785,STD
9460648250000,0.705132,-5.85938231558948,7.73282053062032,-1.33161429122616,-0.17623462,0.27152961,-0.0076358155,208.72916,-124.616196,-33.51501,STD
9460653142000,0.710024,-5.86941252192365,7.72115748985994,-1.32065103247298,-0.23365596,0.28252518,-0.014049901,208.65672,-124.62221,-33.5223,STD
9460658130000,0.715012,-5.87963955978033,7.70926557503722,-1.30947263209259,-0.27947086,0.2938262,-0.015271631,208.57573,-124.62488,-33.52778,STD
9460663104000,0.719986,-5.88983789303998,7.69740703768192,-1.29832560653283,-0.30879238,0.30024028,-0.0143553335,208.49355,-124.62638,-33.53456,STD
9460668100000,0.724982,-5.90008133352353,7.68549605002066,-1.28712927768351,-0.33383787,0.30573806,-0.02107485,208.40843,-124.62812,-33.54383,STD
9460673333000,0.730215,-5.91081070182826,7.67302002951799,-1.27540181794202,-0.3286455,0.30757064,-0.018936822,208.32397,-124.62782,-33.550716,STD
9460678282000,0.735164,-5.92095777687892,7.66122109478309,-1.26431081884768,-0.34269542,0.30115658,-0.020158553,208.24089,-124.62807,-33.56108,STD
9460683115000,0.739997,-5.93086701383989,7.64969871620686,-1.25347978255289,-0.3304781,0.28710666,-0.021380283,208.1609,-124.63042,-33.571568,STD
9460688098000,0.74498,-5.94108380005477,7.63781872190822,-1.24231258746558,-0.32284227,0.2733622,-0.019242255,208.08403,-124.63161,-33.582195,STD
9460693219000,0.750101,-5.95158353158324,7.62560972114495,-1.23083612628917,-0.2968805,0.269697,-0.0143553335,208.00941,-124.63495,-33.59296,STD
9460698327000,0.755209,-5.96205660884305,7.61343171374429,-1.21938879887477,-0.2733622,0.2556471,-0.015271631,207.94354,-124.64019,-33.606186,STD
9460703229000,0.760111,-5.97210731846082,7.60174483193575,-1.20840312953542,-0.23273966,0.23273966,-0.013133603,207.88316,-124.64647,-33.61803,STD
9460708115000,0.764997,-5.98212522282484,7.59009609580427,-1.19745331713394,-0.20525073,0.2003638,-0.01740966,207.83109,-124.65579,-33.633213,STD
9460713094000,0.769976,-5.99233380772628,7.57822563792489,-1.1862950862811,-0.17928895,0.16065755,-0.019547688,207.79019,-124.66664,-33.648636,STD
9460718116000,0.774998,-6.00263055674718,7.56625266353841,-1.17504048990774,-0.1328632,0.12217305,-0.015577064,207.76048,-124.68014,-33.664898,STD
9460723341000,0.780223,-6.01334352242503,7.55379571587427,-1.16333095863518,-0.09590584,0.08032878,-0.0106901415,207.74557,-124.69496,-33.68325,STD
9460728164000,0.785046,-6.02323225610241,7.5422971783462,-1.15252233292656,-0.06872234,0.05589417,-0.0036651916,207.73827,-124.71023,-33.70053,STD
9460733124000,0.790006,-6.03340188476502,7.53047201845833,-1.14140668218744,-0.045814894,0.0036651916,-0.0033597588,207.75441,-124.7278,-33.721035,STD
9460739107000,0.795989,-6.0456689993393,7.51620791934358,-1.12799842848337,-0.02107485,-0.022296581,0.00580322,207.77054,-124.74244,-33.73657,STD
9460743178000,0.80006,-6.05076611485302,7.5040733803507,-1.12344571475847,0.01282817,-0.061391957,0.010079277,207.80812,-124.75998,-33.75576,STD
9460748338000,0.80522,-6.03802338973698,7.47434044378546,-1.14468363430462,0.038789943,-0.105374254,0.00061086525,207.8553,-124.77942,-33.777077,STD
9460753109000,0.809991,-6.02624130804538,7.44684900185663,-1.16432047813306,0.07544186,-0.1282817,0.007941248,207.91461,-124.850006,-33.859497,STD
9460758157000,0.815039,-6.03958120081037,7.441179,-1.19991030162075,0.103847094,-0.13652839,0.01282817,207.98145,-124.923294,-33.94443,STD
9460763101000,0.819983,-6.0587658439222,7.441179,-1.23827958784441,0.1328632,-0.15057829,0.022907447,208.05685,-124.99362,-34.02492,STD
9460768107000,0.824989,-6.0621185,7.45221792949907,-1.27810218799629,0.15851954,-0.15057829,0.031154128,208.1314,-125.07201,-34.109016,STD
9460773223000,0.830105,-6.0621185,7.4658526864564,-1.3190070758256,0.17379116,-0.1432479,0.036957346,208.20685,-125.14734,-34.189007,STD
9460778197000,0.835079,-6.06810960927873,7.48488685139543,-1.33417177027909,0.19425514,-0.13225232,0.046120327,208.29214,-125.23229,-34.274372,STD
9460783166000,0.840048,-6.07673354381116,7.50644680028996,-1.33848376005799,0.204029,-0.11026118,0.052534413,208.36964,-125.314255,-34.35564,STD
9460788181000,0.845063,-6.09113019429552,7.52765122003002,-1.34568208428051,0.21594086,-0.094989546,0.062002823,208.45172,-125.39606,-34.433094,STD
9460793175000,0.850057,-6.11164345359211,7.54816453287583,-1.35593868715419,0.21960606,-0.07422013,0.06688975,208.52322,-125.47505,-34.506546,STD
9460798183000,0.855065,-6.12216900806154,7.5794081240967,-1.3573168648967,0.20891592,-0.0580322,0.084910266,208.59673,-125.55408,-34.57805,STD
9460803410000,0.860292,-6.12656965956923,7.61901458503736,-1.35291616743736,0.20280726,-0.03604105,0.09132435,208.65973,-125.63301,-34.647976,STD
9460809082000,0.865964,-6.14495040215668,7.64031767396131,-1.34440694557564,0.1881465,-0.02565634,0.09712757,208.72807,-125.71027,-34.716644,STD
9460813176000,0.870058,-6.16982051078338,7.63720886980653,-1.33508072787821,0.17195857,-0.018020526,0.094989546,208.78886,-125.78512,-34.782722,STD
9460818075000,0.874957,-6.1995808093086,7.63348878393593,-1.32392070333016,0.16126843,-0.028099801,0.10048734,208.86812,-125.86127,-34.85036,STD
9460823340000,0.880222,-6.25633726954276,7.64049459479625,-1.29437134622154,0.1469131,-0.027794369,0.09896017,208.93954,-125.93625,-34.9175,STD
9460828099000,0.884981,-6.31301293528793,7.64921411708437,-1.26385361001531,0.111177474,-0.02107485,0.09132435,209.01099,-126.00705,-34.982803,STD
9460833160000,0.890042,-6.36317866727273,7.66649530909091,-1.25090510363636,0.10903945,-0.04795292,0.09101892,209.10869,-126.08503,-35.057606,STD
9460838201000,0.895083,-6.40910782575053,7.68690816183932,-1.2458018638055,0.10567969,-0.073303826,0.09010262,209.2015,-126.16055,-35.132004,STD
9460843160000,0.900042,-6.47625425816011,7.70424505475453,-1.25201946410438,0.0852157,-0.08460484,0.089186326,209.31723,-126.2539,-35.22728,STU
9460848296000,0.905178,-6.5502187913755,7.72164839416188,-1.26072117923927,0.083383106,-0.086132,0.06780604,209.43451,-126.35115,-35.326233,STU
9460853185000,0.910067,-6.61162760251005,7.75005738290028,-1.27492569145014,0.069027774,-0.10262536,0.052839845,209.5633,-126.45664,-35.435482,STU
9460858124000,0.915006,-6.66728009373468,7.78715901143249,-1.29347650571625,0.0571159,-0.11453723,0.05222898,209.68785,-126.560715,-35.54309,STU
9460863167000,0.920049,-6.72907385936676,7.82656580390501,-1.31854695292876,0.06352998,-0.11789699,0.04062254,209.82268,-126.68604,-35.672363,STU
9460868173000,0.925055,-6.79485111435356,7.86704408215303,-1.34890566161478,0.06719518,-0.098043874,0.027183503,209.9503,-126.80734,-35.797874,STU
9460873242000,0.930124,-6.84812227337111,7.9218516909606,-1.37596250432655,0.07941248,-0.096516706,0.016798794,210.07556,-126.941574,-35.933582,STU
9460879074000,0.935956,-6.90086249773371,7.99377017872779,-1.40472994949781,0.08979719,-0.07666359,0.010995574,210.18459,-127.07431,-36.065956,STU
9460883160000,0.940042,-6.92093486567307,8.0284604181606,-1.4297532211414,0.094989546,-0.047036625,0.0018325958,210.27768,-127.21004,-36.19955,STU
9460888162000,0.945044,-6.91077189683887,8.03862333393444,-1.47040504341784,0.100792766,-0.02687807,-0.0015271631,210.36522,-127.34226,-36.32858,STU
9460893125000,0.950007,-6.89331696257422,8.03956288839174,-1.49893639436313,0.13775012,0.017104227,-0.01740966,210.44765,-127.48563,-36.463837,STU
9460898373000,0.955255,-6.86389370844693,8.02695289725684,-1.51154634160743,0.14844026,0.05131268,-0.03604105,210.52423,-127.624954,-36.596004,STU
9460903302000,0.960184,-6.83106778995164,8.01191717506717,-1.52222847125201,0.17989981,0.09132435,-0.058337633,210.57013,-127.76796,-36.723316,STU
9460908255000,0.965137,-6.71212184537883,7.94394822864052,-1.51373234185922,0.21899518,0.12461651,-0.07238753,210.60501,-127.91052,-36.8481,STU
9460913081000,0.969963,-6.59622579682071,7.87772207571198,-1.50545406193803,0.23518312,0.15821409,-0.08307768,210.61745,-128.05453,-36.970013,STU
9460918159000,0.975041,-6.51520276796742,7.82850431747964,-1.48312618604672,0.2519819,0.19058995,-0.094989546,210.61798,-128.20093,-37.090736,STU
9460923144000,0.980026,-6.44683746160387,7.78577600100242,-1.45748924077687,0.2770274,0.21471913,-0.10720685,210.60945,-128.34763,-37.209415,STU
9460928207000,0.985089,-6.34907392919498,7.75275152497426,-1.42925122065061,0.30207285,0.23182335,-0.119729586,210.59103,-128.48361,-37.31451,STU
9460933182000,0.990064,-6.23136037942145,7.72822785810171,-1.3998227691888,0.3051272,0.25259277,-0.12156218,210.56381,-128.61646,-37.41529,STU
9460938175000,0.995057,-6.10670342690047,7.7189064,-1.36199905017435,0.3100141,0.2828306,-0.12644911,210.5345,-128.74257,-37.508553,STU
9460943164000,1.000046,-5.9781764082694,7.7189064,-1.31915677690545,0.31612277,0.31948254,-0.13439035,210.49648,-128.86684,-37.598732,STU
9460948572000,1.005454,-5.84347836735231,7.73254589382919,-1.2915341764522,0.3173445,0.35918877,-0.13133603,210.44186,-128.97104,-37.666847,STU
9460953214000,1.010096,-5.73008989781142,7.75083431969722,-1.27690339756459,0.30482176,0.40744713,-0.13041973,210.37248,-129.07472,-37.73303,STU
9460958139000,1.015021,-5.60760464558233,7.77183839447791,-1.25151846109438,0.29993483,0.4636467,-0.12614368,210.29277,-129.15852,-37.77661,STU
9460963168000,1.02005,-5.47221043373494,7.80085138216868,-1.17898568891566,0.27947086,0.52778757,-0.12308934,210.1956,-129.23843,-37.81555,STU
9460968116000,1.024998,-5.34220974460991,7.82665127116231,-1.09968417802754,0.26358834,0.5671884,-0.11148291,210.09529,-129.28856,-37.822926,STU
9460973332000,1.030214,-5.22056785658893,7.84068693751054,-0.978042485417252,0.22571471,0.5839872,-0.096516706,209.98392,-129.33269,-37.825455,STU
9460978216000,1.035098,-5.11023428421053,7.85266658026316,-0.866448975657895,0.19181168,0.57451874,-0.08827003,209.8766,-129.35182,-37.8053,STU
9460983181000,1.040063,-5.05064930676692,7.84770126917293,-0.787002287218045,0.14996742,0.54550266,-0.07849618,209.77467,-129.3627,-37.78091,STU
9460988156000,1.045038,-4.99467732139038,7.84285302792632,-0.710533048888889,0.1133155,0.46975538,-0.0693332,209.6996,-129.3475,-37.74099,STU
9460993172000,1.050054,-4.96205722727273,7.83877542568542,-0.653447784126984,0.071776666,0.37934732,-0.048563786,209.64398,-129.32318,-37.69853,STU
9460998159000,1.055041,-4.92962572620321,7.83472139809863,-0.596692557777778,0.023518313,0.2724459,-0.047036625,209.62112,-129.29216,-37.660744,STU
9461003186000,1.060068,-4.92616237316882,7.833828,-0.621021994766941,-0.009773844,0.15515977,-0.029932396,209.6377,-129.24966,-37.619736,STU
9461008088000,1.06497,-4.9307594622405,7.833828,-0.666992914285155,-0.048258353,0.052839845,-0.025961773,209.68617,-129.20702,-37.588253,STU
9461013101000,1.069983,-4.95917719732865,7.82365737677683,-0.79183022625524,-0.07086037,-0.023518313,-0.008552114,209.76993,-129.14821,-37.550026,STU
9461018332000,1.075214,-4.99825006946476,7.80900506885054,-0.953005715443112,-0.09987647,-0.08582657,0.005192355,209.88374,-129.087,-37.517437,STU
9461023285000,1.080167,-5.05087713520724,7.78886403430205,-1.11286967473082,-0.09896017,-0.124311075,0.015882496,210.00537,-129.0262,-37.48335,STU
9461028300000,1.085182,-5.11036808041925,7.76598282801334,-1.27761450336351,-0.08735373,-0.12767084,0.025961773,210.13556,-128.96165,-37.447563,STU
9461033199000,1.090081,-5.19166637149028,7.7448982075162,-1.43619732389849,-0.073303826,-0.14019357,0.030543262,210.26291,-128.90883,-37.416004,STU
9461038179000,1.095061,-5.28952390928726,7.7242967111879,-1.59585897422246,-0.05589417,-0.14294247,0.03634648,210.38678,-128.855,-37.381313,STU
9461043181000,1.100063,-5.37762835667193,7.71561690392794,-1.7396083812796,-0.045814894,-0.12705997,0.030848695,210.49185,-128.82347,-37.358112,STU
9461048320000,1.105202,-5.46445975243755,7.7110468254434,-1.88128095746123,-0.0067195175,-0.09254608,0.042455133,210.59113,-128.78949,-37.327816,STU
9461053181000,1.110063,-5.56371162880886,7.69544949315394,-1.99281150672734,0.015577064,-0.047036625,0.043982297,210.65761,-128.78296,-37.314686,STU
9461058216000,1.115098,-5.67820139196676,7.67159750067273,-2.09298997477246,0.028710667,0.0012217305,0.034513887,210.71008,-128.77832,-37.29919,STU
9461064260000,1.121142,-5.8089810491764,7.67636395553559,-2.1878419328242,0.046731193,0.059864793,0.03481932,210.71767,-128.78867,-37.284992,STU
9461068179000,1.125061,-5.89141009565738,7.69135114736947,-2.24029679125487,0.04337143,0.1337795,0.022907447,210.70193,-128.80377,-37.272877,STU
9461073213000,1.130095,-5.98470281048426,7.71544720643112,-2.27755023052855,0.052534413,0.21319197,0.026267206,210.65407,-128.84023,-37.27133,STU
9461078191000,1.135073,-6.06731762563782,7.74298536632329,-2.29131935839992,0.03573562,0.2929099,0.01985312,210.58064,-128.87907,-37.27061,STU
9461083280000,1.140162,-6.17954489131516,7.76440763270991,-2.25047330697374,0.026572637,0.40500367,0.0125227375,210.46147,-128.93314,-37.27442,STU
9461088163000,1.145045,-6.31445768304815,7.77836411333068,-2.15743015141265,0.0012217305,0.50579643,0.008552114,210.32191,-128.98366,-37.27375,STU
9461093164000,1.150046,-6.37682236656323,7.83611902269201,-2.08726381425524,-0.053450707,0.6102544,0.01038471,210.1346,-129.04088,-37.27495,STU
9461098274000,1.155156,-6.35309396858029,7.94526945519783,-2.04455259877812,-0.099571034,0.7086037,0.0018325958,209.91887,-129.09866,-37.27306,STU
9461103142000,1.160024,-6.32581294727752,8.037784560949,-2.00316483830561,-0.12889257,0.8127562,0.005192355,209.66618,-129.16249,-37.28045,STU
9461108151000,1.165033,-6.29092879785474,8.11627437523861,-1.95955953769657,-0.15699236,0.91904676,0.0076358155,209.38435,-129.22337,-37.282993,STU
9461113092000,1.169974,-6.26027786382252,8.19139334897611,-1.89244487120307,-0.18509217,1.0305296,0.01863139,209.0741,-129.26279,-37.261383,STU
9461118158000,1.17504,-6.24475437764505,8.25866157295222,-1.72168636115614,-0.20677789,1.1377366,0.026572637,208.73604,-129.2995,-37.233032,STU
9461123158000,1.18004,-6.21871504640223,8.30940567331074,-1.50944940639825,-0.2098322,1.1835514,0.047647487,208.39049,-129.31003,-37.17893,STU
9461128156000,1.185038,-6.17101238903727,8.32848713474188,-1.20892246575643,-0.2144137,1.2709051,0.054061573,208.00146,-129.32027,-37.117416,STU
9461134049000,1.190931,-6.12198577103682,8.33930529772787,-0.890425425790024,-0.23701571,1.3231341,0.06414085,207.63782,-129.30783,-37.046513,STU
9461138120000,1.195002,-6.09483340245495,8.33591084852442,-0.703753986001567,-0.23793201,1.3445144,0.089491755,207.26488,-129.29147,-36.9672,STU
9461143409000,1.200291,-6.0621185,8.32943709464387,-0.465132812585528,-0.25442538,1.3292428,0.103847094,206.89963,-129.25287,-36.886463,STU
9461148266000,1.205148,-6.0621185,8.29928441674095,-0.291753882319666,-0.28924468,1.2822062,0.122478485,206.54768,-129.20572,-36.80062,STU
9461153110000,1.209992,-6.0621185,8.26921244396726,-0.118839009310024,-0.3200934,1.1979067,0.13347405,206.23122,-129.14067,-36.719814,STU
9461158293000,1.215175,-6.11454787767699,8.23161389638081,0.0455796204356121,-0.34300083,1.0876455,0.15088372,205.94731,-129.06836,-36.640137,STU
9461163107000,1.219989,-6.2007778141775,8.19281061629103,0.183547260871224,-0.36957347,0.9459248,0.16676621,205.70856,-128.9925,-36.569016,STU
9461168106000,1.224988,-6.33155853459344,8.14704318412472,0.292120911597718,-0.3915646,0.77732605,0.16584991,205.5252,-128.91013,-36.517704,STU
9461173260000,1.230142,-6.5277064668331,8.09171934776849,0.352474104550642,-0.37415496,0.5830709,0.17440203,205.40381,-128.82486,-36.47368,STU
9461178182000,1.235064,-6.71043373732695,8.02990751587948,0.356061458601384,-0.35796702,0.40194935,0.17959438,205.33316,-128.75122,-36.463833,STU
9461183131000,1.240013,-6.88893903898616,7.95754048127036,0.298167800688111,-0.33475417,0.22937989,0.19425514,205.32803,-128.67795,-36.462967,STU
9461188109000,1.244991,-7.03891292532564,7.89016027712041,0.190058247083623,-0.29535335,0.11636983,0.19700404,205.35683,-128.63986,-36.505863,STU
9461193100000,1.249982,-7.15773043705877,7.82837549855822,0.0284666494859302,-0.2742785,0.06658431,0.19853121,205.4228,-128.60133,-36.551895,STU
9461198202000,1.255084,-7.25053655987558,7.77729077636081,-0.153169333265941,-0.2669481,0.06505715,0.19272798,205.49086,-128.60443,-36.63471,STU
9461204267000,1.261149,-7.32393113632387,7.73212480153577,-0.390290253060848,-0.27305678,0.105374254,0.17928895,205.5588,-128.61166,-36.718193,STU
9461208118000,1.265,-7.33944234938457,7.69901103644551,-0.517383319624737,-0.29657507,0.15454891,0.17562376,205.59898,-128.6488,-36.81838,STU
9461213108000,1.26999,-7.32509573735615,7.65118932925048,-0.656066355379766,-0.32711834,0.21624629,0.18051068,205.6184,-128.68683,-36.91472,STU
9461218099000,1.274981,-7.30805814691385,7.6461310448855,-0.773340184536532,-0.3707952,0.24373524,0.18112154,205.60478,-128.74646,-37.019035,STU
9461223316000,1.280198,-7.28626439965104,7.70424762839695,-0.864147540654308,-0.41538838,0.2761111,0.17928895,205.56703,-128.80276,-37.116844,STU
9461228714000,1.285596,-7.2637145342639,7.76438052427481,-0.958105391588513,-0.46731192,0.31215215,0.17806722,205.49905,-128.86336,-37.209846,STU
9461233193000,1.290075,-7.28702070931968,7.89452164203455,-0.98030943866496,-0.5180137,0.3173445,0.17623462,205.4299,-128.921,-37.30205,STU
9461238122000,1.295004,-7.3272886105353,8.06566011708254,-0.985342926316912,-0.5531385,0.32070425,0.17501289,205.34843,-128.97597,-37.39115,STU
9461243101000,1.299983,-7.35877457367339,8.21094620403502,-0.977808384872478,-0.6093381,0.3191771,0.15118915,205.24554,-129.02234,-37.46755,STU
9461248273000,1.305155,-7.38894204050247,8.35424230148458,-0.966495584811572,-0.6404922,0.3313944,0.1563815,205.1389,-129.06046,-37.534428,STU
9461253192000,1.310074,-7.41710326362311,8.49227563613997,-0.953025816934573,-0.6826419,0.3924809,0.16035213,205.00948,-129.08151,-37.586636,STU
9461258128000,1.31501,-7.44294849066885,8.6387323425369,-0.927180481939129,-0.70005155,0.47525316,0.16371189,204.86855,-129.10164,-37.63536,STU
9461263487000,1.320369,-7.46973661134922,8.79633597582719,-0.894530911757243,-0.6768387,0.58001655,0.1591304,204.69807,-129.10406,-37.66263,STU
9461268105000,1.324987,-7.46594570282873,8.90248347282702,-0.76942823087605,-0.6658431,0.6835582,0.15149458,204.49985,-129.10565,-37.685707,STU
9461273172000,1.330054,-7.46178621095491,9.01895150385736,-0.632162036847248,-0.65270954,0.743423,0.14844026,204.28104,-129.08939,-37.687813,STU
9461278142000,1.335024,-7.45432183235236,9.13178650215813,-0.49102039332941,-0.63163465,0.7449502,0.15363261,204.04889,-129.07568,-37.68825,STU
9461283185000,1.340067,-7.44484659238768,9.24549047008044,-0.344152521569551,-0.6230826,0.6844745,0.15393804,203.82,-129.06555,-37.692104,STU
9461288176000,1.345058,-7.44694779906838,9.32988425609514,-0.238268862766105,-0.6087272,0.56077427,0.1414153,203.63092,-129.03622,-37.687645,STU
9461293171000,1.350053,-7.45642958628345,9.39625785569871,-0.157672775407334,-0.61666846,0.4016439,0.116980694,203.47714,-129.01122,-37.69298,STU
9461298320000,1.355202,-7.51114876529695,9.53730974005392,-0.230970740995017,-0.6267477,0.20738874,0.09865474,203.39185,-128.97018,-37.696793,STU
9461303192000,1.360074,-7.59119316611388,9.71645653525039,-0.398682608711707,-0.6291912,-0.0018325958,0.08155051,203.36674,-128.93811,-37.716965,STU
9461308356000,1.365238,-7.68788179304449,9.91086400699436,-0.581401683466097,-0.64996064,-0.20311269,0.07544186,203.40617,-128.89713,-37.741077,STU
9461313109000,1.369991,-7.82938092090538,10.1098477471343,-0.771541399135419,-0.6597345,-0.40225476,0.050701816,203.51472,-128.8696,-37.785122,STU
9461318155000,1.375037,-7.98070032140428,10.3244807763516,-0.977516509758586,-0.66156703,-0.49541172,0.022602014,203.63048,-128.83759,-37.817307,STU
9461323347000,1.380229,-8.14976824183951,10.5865351041312,-1.23957127888473,-0.64996064,-0.6603453,0.009162978,203.83824,-128.81136,-37.863945,STU
9461328216000,1.385098,-8.30831826198572,10.8322867454947,-1.48532333413805,-0.62980205,-0.79443026,0.0067195175,204.03796,-128.79077,-37.906586,STU
9461333117000,1.389999,-8.56134679533437,11.1622612870918,-1.80460105150855,-0.6133087,-0.8698721,0.015271631,204.27036,-128.77328,-37.952682,STU
9461338105000,1.394987,-8.8535577469155,11.5287637020218,-2.15624512205288,-0.57696223,-0.8866709,0.036957346,204.5244,-128.75674,-37.996765,STU
9461343443000,1.400325,-9.09912478283054,11.9074026896428,-2.50607229182705,-0.52442783,-0.8258898,0.07391469,204.73346,-128.73404,-38.018024,STU
9461348482000,1.405364,-9.31511975185749,12.2616338795094,-2.83006429428878,-0.4569272,-0.643852,0.1020145,204.89984,-128.71143,-38.03031,STU
9461353175000,1.410057,-9.48346337637452,12.6257417627654,-3.03827190721829,-0.37384954,-0.35643986,0.13622294,204.96393,-128.682,-38.013607,STU
9461358106000,1.414988,-9.63770355318454,13.0319074543277,-3.19251213771366,-0.27916542,0.0143553335,0.17989981,204.93236,-128.64671,-37.97657,STU
9461363117000,1.419999,-9.60546646375465,13.279959972119,-3.07080836013011,-0.16768251,0.42332962,0.23579398,204.74626,-128.59729,-37.896164,STU
9461368119000,1.425001,-9.49861937397769,13.462491133829,-2.83930599137546,-0.05100725,0.8185594,0.28008172,204.4411,-128.5457,-37.794777,STU
9461373173000,1.430055,-9.29500283665339,13.4603302356289,-2.43221999630051,0.069027774,1.1383474,0.321926,204.01665,-128.46317,-37.638996,STU
9461378127000,1.435009,-9.02497694156706,13.3208170053121,-1.90567004130146,0.1572978,1.3756685,0.33658674,203.4989,-128.38486,-37.468624,STU
9461383114000,1.439996,-8.70883628462604,13.095344498615,-1.21147549642363,0.19761491,1.5344934,0.33505958,202.94887,-128.26454,-37.25094,STU
9461388106000,1.444988,-8.33992264473684,12.7689976842105,-0.322299137800752,0.19303341,1.59558,0.3191771,202.36877,-128.15277,-37.031284,STU
9461393111000,1.449993,-7.97735831712239,12.3696532789829,0.732341148825547,0.12492194,1.5793921,0.30940324,201.83017,-128.01056,-36.79951,STU
9461398280000,1.455162,-7.61274484895571,11.8601935931793,2.04095367021895,-0.004581489,1.4453071,0.28221974,201.3238,-127.87823,-36.58496,STU
9461403123000,1.460005,-7.30201894265464,11.3630419007732,3.30444265811856,-0.20525073,1.1652255,0.24801129,200.9604,-127.71297,-36.392178,STU
9461408158000,1.46504,-7.01522742892546,10.8229178657811,4.66192282916336,-0.48930305,0.6759224,0.20158553,200.71988,-127.547745,-36.23359,STU
9461413091000,1.469973,-6.79100480169642,10.3324434118483,5.65285518531841,-0.82863873,0.37843102,0.15668693,200.6015,-127.35395,-36.117504,STU
9461418100000,1.474982,-6.63762271742606,9.88507907354117,6.2152559088729,-1.1829406,-0.27183503,0.13775012,200.77354,-127.15294,-36.051506,STU
9461423176000,1.480058,-6.49777193331966,9.42875143496102,6.57383848291957,-1.3426818,-0.89461213,0.09101892,201.12953,-126.962036,-36.052624,STU
9461428121000,1.485003,-6.42489963746409,8.97208464177267,6.06373215828888,-1.6331482,-1.321607,0.048258353,201.64053,-126.76474,-36.06999,STU
9461433117000,1.489999,-6.376679356246,8.5525024777066,5.522718119795,-1.8322903,-1.564426,0.022296581,202.3435,-126.61145,-36.133335,STU
9461438120000,1.495002,-6.41120967123639,8.26858639420243,4.89733510730301,-1.9593502,-1.6633861,-0.00030543262,203.14165,-126.489334,-36.20023,STU
9461443080000,1.499962,-6.44544320358744,7.98711052488789,4.27732716367713,-2.0088303,-1.6450601,-0.03359759,203.92844,-126.43823,-36.28741,STU
9461448311000,1.505193,-6.70190774384075,7.47533694651054,3.13381373620609,-2.0011945,-1.5632042,-0.062308256,204.72305,-126.419846,-36.363308,STU
9461453151000,1.510033,-7.01019583976581,6.93257653545667,1.91803035559719,-1.93797,-1.4306464,-0.08552113,205.48752,-126.4379,-36.42964,STU
9461459327000,1.516209,-7.30169559973446,6.5543184308812,1.2122629282022,-1.824349,-1.2006557,-0.17654006,206.0983,-53.45783,-36.541084,STU
9461463124000,1.520006,-7.4518973093037,6.41126906986625,1.01914632817467,-1.645671,-1.131017,-0.2098322,206.71346,-53.34513,-36.631897,STU
9461468108000,1.52499,-7.66118528460543,6.31946594760673,0.88818999469599,-1.5757269,-0.98440933,-0.30115658,207.02946,-53.088573,-36.85805,STU
9461473248000,1.53013,-7.88651513036123,6.29987200572196,0.849002182535576,-1.4892895,-0.8347474,-0.39675698,207.31319,-52.817493,-37.091843,STU
9461478127000,1.535009,-8.10560746998012,6.35602567924453,0.814496940477137,-1.4398094,-0.6814202,-0.48563787,207.47827,-52.47987,-37.3921,STU
9461483134000,1.540016,-8.33439999572565,6.47042184257455,0.781131357584493,-1.4404203,-0.5225952,-0.57635134,207.58357,-52.114056,-37.719204,STU
9461488106000,1.544988,-8.53881434515689,6.6082056760573,0.644167611514325,-1.5198327,-0.35124752,-0.6930266,207.60822,-51.688152,-38.10647,STU
9461493108000,1.54999,-8.72553488150458,6.76691837566751,0.420102831416878,-1.6471981,-0.18051068,-0.81183994,207.57361,-51.236217,-38.519295,STU
9461498218000,1.5551,-8.83553326972867,6.94136699909558,0.177549655336939,-1.8057177,-0.02107485,-0.92087936,207.46518,-50.73943,-38.97671,STU
9461503138000,1.56002,-8.86477843376485,7.12101487921617,-0.0689439980413193,-1.9398025,0.10995574,-1.0372492,207.30559,-50.20773,-39.46802,STU
9461508187000,1.565069,-8.86788875956284,7.28773164823818,-0.307614532268702,-2.0305161,0.18845193,-1.1468995,207.04291,-49.65228,-39.98942,STU
9461513114000,1.569996,-8.79231450273224,7.39886998816657,-0.498772630130959,-2.065641,0.21319197,-1.2311989,206.75334,-49.074883,-40.531944,STU
9461518162000,1.575044,-8.72083839747702,7.50071538680423,-0.684906939895093,-2.0971005,0.19150625,-1.2596041,206.36673,-48.515434,-41.06672,STU
9461523297000,1.580179,-8.69099293514826,7.51777005118779,-0.804289034073175,-2.1013765,0.14844026,-1.3008375,205.98323,-47.936287,-41.621166,STU
9461529320000,1.586202,-8.65919093993551,7.53958316563795,-0.938966410557347,-2.0818288,0.08674286,-1.3335189,205.54964,-47.39774,-42.141888,STU
9461533351000,1.590233,-8.68764170451405,7.58225940534316,-0.946079110985721,-2.0589213,0.087659165,-1.3451253,205.11188,-46.861046,-42.661537,STU
9461538106000,1.594988,-8.72120245508982,7.63260064071856,-0.954469309580838,-2.0460932,0.07574729,-1.3552046,204.72191,-46.337658,-43.164238,STU
9461543107000,1.599989,-8.77532686287263,7.77020162529359,-0.949424913057814,-2.0289888,0.13439035,-1.3704761,204.30522,-45.81785,-43.66735,STU
9461548289000,1.605171,-8.8425720899729,7.96297108906956,-0.935975844232159,-2.021353,0.2452624,-1.3994923,203.8738,-45.298676,-44.17195,STU
9461553131000,1.610013,-8.90328999037258,8.19162156849908,-0.879738541109079,-2.0415115,0.39370266,-1.4425583,203.41675,-44.78769,-44.66922,STU
9461558147000,1.615029,-8.96341148531819,8.49223049196111,-0.764119837691345,-2.0861049,0.5491679,-1.5063937,202.91565,-44.269257,-45.178436,STU
9461563108000,1.61999,-8.9646266710175,8.82991553515277,-0.647058051646396,-2.159714,0.65301496,-1.5586227,202.38185,-43.772156,-45.666676,STU
9461568096000,1.624978,-8.85598563393652,9.2455866408583,-0.524246122841887,-2.2391264,0.7021896,-1.5900823,201.81189,-43.268276,-46.16418,STU
9461573238000,1.63012,-8.67692857257295,9.63074427884799,-0.38803145107572,-2.2815816,0.6637051,-1.5925257,201.24083,-42.801456,-46.621918,STU
9461578153000,1.635035,-8.38066459679573,9.91802991922563,-0.239899645987984,-2.3066273,0.5412266,-1.5592335,200.68933,-42.33971,-47.07092,STU
9461583091000,1.639973,-8.07196242592975,10.1747534178719,-0.0839029206146694,-2.2748623,0.31429017,-1.502423,200.20847,-41.96522,-47.42435,STU
9461588108000,1.64499,-7.71955290103306,10.3236593254132,0.0997471890392562,-2.1584923,-0.009773844,-1.4193454,199.82356,-41.612656,-47.748604,STU
9461593079000,1.649961,-7.37696156438356,10.4517159347847,0.330757793540117,-1.9657644,-0.4089743,-1.3179418,199.58586,-41.370544,-47.94816,STU
9461598177000,1.655059,-7.04256069863014,10.532927523728,0.693821860009785,-1.7418822,-0.88056225,-1.221425,199.51613,-41.155067,-48.108093,STU
9461603145000,1.660027,-6.62514889480048,10.5221947991815,1.05443575722258,-1.4905112,-1.3692545,-1.1346822,199.69025,-41.027836,-48.156704,STU
9461608122000,1.665004,-5.93796782466747,10.2473221396614,1.43571043639661,-1.2660183,-1.8106046,-1.0800097,200.03299,-40.92497,-48.16616,STU
9461613164000,1.670046,-5.28970156997059,9.95780287735294,1.77430629241176,-1.0772609,-1.9975294,-1.0461067,200.56416,-40.89037,-48.083225,STU
9461618096000,1.674978,-5.05353744020588,9.58271895852941,1.70947689311765,-0.9966267,-2.2702806,-1.0485502,201.29634,-40.864048,-47.963604,STU
9461624316000,1.681198,-4.81071424122336,9.11418120195806,1.63613622853925,-0.8717047,-2.4587326,-1.0910053,202.20772,-40.872932,-47.780396,STU
9461628918000,1.6858,-4.76107452221452,8.77815824943684,1.60177026922544,-0.7849618,-2.4767532,-1.1676689,203.1398,-40.8739,-47.594147,STU
9461633142000,1.690024,-4.71551212041241,8.46973561765725,1.57022706797782,-0.7779369,-2.4694228,-1.2131784,204.1043,-40.858845,-47.40723,STU
9461638100000,1.694982,-4.68174730884406,8.18529013328234,1.50644659389043,-0.79534656,-2.4401011,-1.3274102,205.05681,-40.809326,-47.25296,STU
9461643071000,1.699953,-4.65443684682092,7.92584281154986,1.43361923381776,-0.82772243,-2.4049764,-1.4358387,205.98364,-40.750935,-47.103157,STU
9461648218000,1.7051,-4.644751,7.72453788808093,1.18579513223522,-0.87781334,-2.324953,-1.5048665,206.84122,-40.633087,-47.011616,STU
9461653147000,1.710029,-4.644751,7.56535025165982,0.862445496386342,-0.9575313,-2.2153027,-1.5647314,207.66235,-40.48792,-46.94489,STU
9461658125000,1.715007,-4.6302620212893,7.42594661949861,0.535361800783924,-1.0247264,-2.0567832,-1.5873333,208.36636,-40.317436,-46.915325,STU
9461663178000,1.72006,-4.61100562743733,7.29115115877437,0.203187031281337,-1.0519099,-1.8851302,-1.5781704,209.00584,-40.141594,-46.89846,STU
9461668117000,1.724999,-4.62114791662564,7.19158152210734,0.0627419959537174,-1.0320568,-1.7278323,-1.5467108,209.38533,-39.989506,-46.91159,STU
9461673318000,1.7302,-4.64158486755293,7.09757146248154,-0.0230932594002954,-0.9795224,-1.5867225,-1.5271631,209.69547,-39.840908,-46.938473,STU
9461678221000,1.735103,-4.65110203185877,7.01798429971591,-0.00886942721022727,-0.9126327,-1.4856243,-1.5109752,209.93163,-39.69893,-46.983738,STU
9461683179000,1.740061,-4.64146688122971,6.95535609730114,0.193467827502841,-0.8527679,-1.4489723,-1.4807373,210.13031,-39.573208,-47.02584,STU
9461688144000,1.745026,-4.60655493055892,6.87868028819865,0.392867011977851,-0.8216137,-1.4333953,-1.461495,210.3729,-39.42743,-47.08221,STU
9461693148000,1.75003,-4.5236300175982,6.77502414699775,0.587740713296418,-0.81122905,-1.4089607,-1.4532484,210.58998,-39.29427,-47.135704,STU
9461698310000,1.755192,-4.43183425238299,6.67036777543424,0.783407756721143,-0.84788096,-1.3811663,-1.4483615,210.79398,-39.16445,-47.178394,STU
9461703174000,1.760056,-4.26044652817661,6.60260972084367,0.895009067442457,-0.8927795,-1.3170254,-1.4446963,210.97017,-39.039722,-47.223934,STU
9461708158000,1.76504,-4.08483048840592,6.53318000372208,1.00936369997433,-0.96791595,-1.282817,-1.4162911,211.23222,-38.90663,-47.237846,STU
9461713110000,1.769992,-3.8738884752566,6.43983613368211,1.08993992570005,-1.0231993,-1.1792754,-1.4016303,211.43779,-38.77161,-47.267616,STU
9461718096000,1.774978,-3.64548813767813,6.335152740857,1.15655671152965,-1.040609,-1.0564915,-1.3756685,211.61089,-38.646664,-47.291996,STU
9461723243000,1.780125,-3.44977292506401,6.22746912972973,1.25523738887624,-1.0665708,-0.9755518,-1.3603969,211.82416,-38.52222,-47.295597,STU
9461728170000,1.785052,-3.2797371322807,6.12455253333333,1.36262832736842,-1.0464121,-0.9074403,-1.3472633,211.98576,-38.409595,-47.304905,STU
9461733151000,1.790033,-3.10827512166069,5.99559620953357,1.47918705169657,-0.98929626,-0.8622363,-1.3289373,212.18538,-38.30968,-47.289146,STU
9461738146000,1.795028,-2.9366435933675,5.8484836026653,1.60178099316248,-0.90041536,-0.8396343,-1.3057245,212.3589,-38.222366,-47.273872,STU
9461743105000,1.799987,-2.81042140254375,5.631723772057,1.66998184526155,-0.82436264,-0.80970186,-1.269378,212.58652,-38.145287,-47.231564,STU
9461748227000,1.805109,-2.70722233556469,5.3643444491728,1.70750880987855,-0.72326446,-0.7806858,-1.2318097,212.79416,-38.08923,-47.185467,STU
9461753123000,1.810005,-2.68882843442382,5.19293166549849,1.68190469030643,-0.64965516,-0.7742717,-1.1801916,213.09856,-38.029663,-47.115406,STU
9461758147000,1.815029,-2.73866586392749,5.08910364761329,1.60299549558912,-0.5739079,-0.79076505,-1.1221595,213.38312,-37.996082,-47.033955,STU
9461763087000,1.819969,-2.78874209575319,4.98573381847267,1.5294422304323,-0.49235737,-0.7840455,-1.0790935,213.71146,-37.94149,-46.962452,STU
9461768174000,1.825056,-2.84440832008189,4.87440141825367,1.46913715811274,-0.43493605,-0.7791586,-1.0180069,214.02261,-37.916252,-46.868275,STU
9461773434000,1.830316,-2.89964578993103,4.76516817586207,1.40681319296552,-0.39095375,-0.7968737,-0.960891,214.30624,-37.893375,-46.783203,STU
9461778227000,1.835109,-2.93963266679492,4.69185876243194,1.35016504781851,-0.3594942,-0.8078693,-0.89552844,214.56416,-37.89631,-46.68228,STU
9461784299000,1.841181,-2.9902899412196,4.59898691633394,1.27840048755717,-0.32895094,-0.81122905,-0.81245077,214.84729,-37.895714,-46.5758,STU
9461788155000,1.845037,-3.00892713982119,4.54641837646696,1.28170958079334,-0.301462,-0.82863873,-0.74067414,215.12045,-37.914528,-46.453724,STU
9461793227000,1.850109,-3.01391871544548,4.48651879138835,1.356583996989,-0.26389378,-0.8390234,-0.6585127,215.36638,-37.96395,-46.310223,STU
9461798224000,1.855106,-2.99479604765864,4.43131706671335,1.40733789285777,-0.24129178,-0.8738427,-0.5665775,215.64851,-38.00268,-46.16463,STU
9461803165000,1.860047,-2.94509564227571,4.38161670457768,1.42804649961488,-0.19608775,-0.88056225,-0.46822822,215.89864,-38.072685,-46.00126,STU
9461808193000,1.865075,-2.88833670533485,4.3164604292849,1.44441842712826,-0.1423316,-0.8713993,-0.39858958,216.19698,-38.139553,-45.822495,STU
9461813181000,1.870063,-2.79538560437814,4.16541485989946,1.43279954961894,-0.08124508,-0.8533788,-0.35796702,216.47144,-38.231007,-45.630352,STU
9461818133000,1.875015,-2.70310536140749,4.01545943496027,1.4212645292849,-0.042760566,-0.818254,-0.28313604,216.76463,-38.33912,-45.412384,STU
9461823170000,1.880052,-2.65209842057686,3.88830817734787,1.35787540256771,0.015577064,-0.77579886,-0.21930063,217.03297,-38.464527,-45.19483,STU
9461828960000,1.885842,-2.61796654368625,3.75665655036933,1.25547967006683,0.109650314,-0.6771441,-0.14874569,217.24474,-38.61953,-44.973743,STU
9461833136000,1.890018,-2.61071191583032,3.6751820497672,1.18521237002587,0.2452624,-0.63591075,-0.13041973,217.50116,-38.760227,-44.76256,STU
9461838133000,1.895015,-2.62556616399379,3.59595956523539,1.10598993719607,0.2874121,-0.550695,-0.07971791,217.6809,-38.926777,-44.549088,STU
9461843123000,1.900005,-2.66250164100142,3.48904728502598,1.01764319622107,0.37720928,-0.47158796,-0.03176499,217.86421,-39.099052,-44.35207,STU
9461848280000,1.905162,-2.72782282900331,3.34440719839395,0.914995364515824,0.4550946,-0.38728857,0.028405234,217.99991,-39.290474,-44.15477,STU
9461854126000,1.911008,-2.8154615750439,3.21073792478048,0.797406582340327,0.54702985,-0.3268129,0.080634214,218.12868,-39.483967,-43.97166,STU
9461858134000,1.915016,-2.88641799341899,3.14332943290507,0.715806766039375,0.6386596,-0.27183503,0.13469578,218.21722,-39.701763,-43.78604,STU
9461863112000,1.919994,-2.96845503107553,3.069189457056,0.615753887839527,0.72143185,-0.17898351,0.20066923,218.28882,-39.899075,-43.638645,STU
9461868086000,1.924968,-3.02148265,3.04063615,0.521935955,0.8032878,-0.08002335,0.2751948,218.3282,-40.122692,-43.484486,STU
9461873210000,1.930092,-3.07610941304162,3.0112217661329,0.425288772074842,0.88270026,0.031154128,0.35308012,218.3253,-40.343815,-43.355522,STU
9461878120000,1.935002,-3.11372705258983,3.05210997676155,0.213085062540364,0.9502009,0.172264,0.43951756,218.2661,-40.59307,-43.22211,STU
9461883103000,1.939985,-3.14935645594027,3.10555419804946,-0.0229602027281381,1.0027353,0.35705075,0.5412266,218.14174,-40.871544,-43.084457,STU
9461888096000,1.944978,-3.16682075633803,3.24829096619718,-0.254392357859155,1.0677924,0.5864306,0.65026605,217.93307,-41.165554,-42.971333,STU
9461893097000,1.949979,-3.17618960938967,3.43098369853286,-0.483929421976526,1.1187997,0.82344633,0.784351,217.64442,-41.492874,-42.8476,STU
9461898133000,1.955015,-3.20326647304043,3.67378402352439,-0.627418966682482,1.181108,1.0519099,0.9306532,217.23972,-41.87036,-42.72879,STU
9461903247000,1.960129,-3.24044672832606,3.95263644772253,-0.725017312725375,1.2544118,1.2339478,1.0818423,216.7593,-42.285107,-42.592167,STU
9461908093000,1.964975,-3.35629890494118,4.196691772,-0.642231897741176,1.3041973,1.3029755,1.1560625,216.22803,-42.757866,-42.425095,STU
9461913096000,1.969978,-3.54255831736061,4.4319667653913,-0.411858523864962,1.3213016,1.3946054,1.3011429,215.6109,-43.284428,-42.216633,STU
9461918087000,1.974969,-3.90321074372252,4.54072094621397,-0.00290531673668781,1.3051136,1.4162911,1.4162911,215.02432,-43.85908,-41.955177,STU
9461923249000,1.980131,-4.40553497502687,4.56004109925745,0.552549481698095,1.2388347,1.393689,1.4834863,214.43405,-44.444458,-41.667522,STU
9461928174000,1.985056,-5.08726110374965,4.59280902950285,0.893856164763548,1.1462886,1.3713925,1.498147,213.8995,-45.019188,-41.354534,STU
9461933099000,1.989981,-5.92754314157262,4.6368029552094,1.0874289830874,1.0735956,1.4932601,1.4715744,213.34496,-45.58324,-41.044456,STU
9461938091000,1.994973,-6.89174625912715,4.88226464381032,1.84208458571129,1.0797043,1.7137824,1.3836098,212.8561,-45.998676,-40.83001,STU
9461943088000,1.99997,-8.03139724475451,5.43953897482165,3.4637026694188,1.1606439,1.8573358,1.25319,212.37921,-46.384384,-40.638786,STU
9461948183000,2.005065,-9.15971145625123,6.69141123551254,5.61453796594904,1.1068878,1.724778,1.0757337,211.8992,-46.56839,-40.618347,STU
9461953112000,2.009994,-10.2179107071894,8.57938782504444,8.18778048722102,0.7663304,1.670411,0.8698721,211.3745,-46.68523,-40.655212,STU
9461958753000,2.015635,-11.1257892908549,11.0689778753479,8.34288222425447,0.52106804,1.964848,0.68416905,211.04095,-46.54429,-40.841362,STU
9461963101000,2.019983,-11.6142101580517,13.217202360835,6.51751229821074,0.7156286,2.3945918,0.67073005,210.67766,-46.41461,-41.033676,STU
9461968105000,2.024987,-11.8282631773438,15.1218771310547,5.06367309589844,1.1133019,2.6963592,0.8573494,210.33296,-46.317116,-41.116405,STU
9461973259000,2.030141,-11.61135426875,16.3703093109375,4.3792042796875,1.3997977,2.7284296,1.0445796,209.92972,-46.244488,-41.20394,STU
9461978095000,2.034977,-10.9324806960539,16.3118901303176,3.91259452323388,1.473407,2.5271494,1.1194105,209.43646,-46.58495,-41.038624,STU
9461983128000,2.04001,-9.52683887930703,14.4423394102021,3.68527953842156,1.4520267,2.1520782,1.133155,209.00255,-46.956097,-40.836075,STU
9461988074000,2.044956,-8.44951804384077,12.7591598934911,3.44493804666487,1.4825699,1.6798794,1.1319333,208.64084,-47.545547,-40.444424,STU
9461993106000,2.049988,-8.00450996135915,11.3766104497041,3.16410773882912,1.5274686,1.2165382,1.1187997,208.43648,-48.099968,-40.047592,STU
9461998320000,2.055202,-7.57448752037471,9.97371218978923,2.81671160580796,1.5302174,0.8188649,1.0769554,208.37991,-48.56905,-39.691303,STU
9462003174000,2.060056,-7.36546450416862,8.85021448940515,2.14609647061358,1.4676038,0.6597345,1.0082331,208.41757,-49.010384,-39.34176,STU
9462008494000,2.065376,-7.1371010532583,7.63233794561627,1.43140317142857,1.4001031,0.3659083,0.9147707,208.60692,-49.34075,-39.06875,STU
9462013118000,2.07,-6.95623865253222,6.90084993545108,1.30278991428571,1.3475688,0.33841935,0.86742866,208.76105,-49.655045,-38.813168,STU
9462018077000,2.074959,-6.76227311507533,6.11636701105464,1.16485887142857,1.3179418,0.3472769,0.77518797,208.89667,-49.87332,-38.66384,STU
9462023253000,2.080135,-6.55544633835652,5.63886020680844,1.34059034885797,1.2339478,0.44043383,0.691194,209.01651,-50.069893,-38.529446,STU
9462028357000,2.085239,-6.35012202604358,5.27526503971296,1.61435609860856,1.0873401,0.6044512,0.6478226,209.1128,-50.243298,-38.41399,STU
9462033119000,2.090001,-6.19335348050288,5.1261465772427,1.79604407670999,0.86834496,0.786489,0.6478226,209.08531,-50.356472,-38.36048,STU
9462038099000,2.094981,-6.06632236075005,5.17187784402301,1.90783133475389,0.66767573,0.9370673,0.6765333,209.01567,-50.4545,-38.317818,STU
9462043107000,2.099989,-6.02228577201436,5.32481703996599,1.80069482405518,0.5369505,1.0189233,0.713796,208.97047,-50.511066,-38.289024,STU
9462048275000,2.105157,-6.0363144212963,5.55862729166667,1.5341511712963,0.5323691,1.0393872,0.74372846,208.89389,-50.566452,-38.259808,STU
9462053186000,2.110068,-6.05268492236313,5.82498959514383,1.31788072335292,0.6450737,1.0079277,0.7699956,208.77116,-50.64846,-38.205814,STU
9462058125000,2.115007,-6.07219190999072,6.13710307763687,1.13744009480359,0.80970186,0.9584476,0.7816021,208.6508,-50.734104,-38.149876,STU
9462063169000,2.120051,-6.09390332615799,6.46175021058043,0.982713312843552,0.9966267,0.90102625,0.7892379,208.49655,-50.8726,-38.060406,STU
9462068166000,2.125048,-6.11689740149914,6.78826622448587,0.853946380486258,1.1355985,0.8536842,0.79320854,208.36285,-51.016357,-37.968155,STU
9462073281000,2.130163,-6.15393542182342,7.12903556737044,0.688433636198657,1.2464706,0.8145888,0.7877107,208.20255,-51.207138,-37.84704,STU
9462078163000,2.135045,-6.20329206700576,7.46106966410749,0.495494976868522,1.3264939,0.7816021,0.7663304,208.06679,-51.39576,-37.727978,STU
9462083174000,2.140056,-6.28023233323682,7.74914607180972,0.3258590186515,1.3778065,0.75533485,0.7333437,207.90738,-51.625134,-37.57547,STU
9462088171000,2.145053,-6.39900440880041,7.95204835249224,0.202137970097208,1.3976597,0.72051555,0.6930266,207.7747,-51.842937,-37.429966,STU
9462093166000,2.150048,-6.50308717997274,8.12544988579496,0.114180418310194,1.3906348,0.6966918,0.62888575,207.61621,-52.081604,-37.270866,STU
9462098224000,2.155106,-6.59033583326843,8.26457615665466,0.0693770738814137,1.3643675,0.68691796,0.58062744,207.4771,-52.306564,-37.118332,STU
9462103091000,2.159973,-6.67428980629929,8.39844874666537,0.0262655916088015,1.3164146,0.68691796,0.5537493,207.31316,-52.527893,-36.96862,STU
9462108286000,2.165168,-6.7639016595755,8.54134336452147,-0.0197512874555545,1.2889256,0.67073005,0.5198463,207.17114,-52.726875,-36.83384,STU
9462113077000,2.169959,-6.84755988318962,8.62457828224731,-0.0616332923626989,1.2208142,0.6545421,0.48716503,207.0138,-52.912155,-36.70608,STU
9462118128000,2.17501,-6.93786295346253,8.61167800400036,-0.104634849076007,1.1420126,0.6215554,0.464563,206.87862,-53.08379,-36.5843,STU
9462123241000,2.180123,-7.0238066725227,8.593961485985,-0.152168388156336,1.0836749,0.57971114,0.4541783,206.7258,-53.253513,-36.462852,STU
9462128217000,2.185099,-7.06143342435847,8.53752130911962,-0.232125086016581,1.0369438,0.5299256,0.43554693,206.59729,-53.407093,-36.349644,STU
9462133338000,2.19022,-7.09436479889359,8.47316791935345,-0.300311412402109,1.0067059,0.4859433,0.43463063,206.45493,-53.548904,-36.24471,STU
9462138181000,2.195063,-7.0743196599879,8.35690577880543,-0.240175953823148,0.98868537,0.45051312,0.45265114,206.33487,-53.68565,-36.139236,STU
9462143084000,2.199966,-7.05402618155415,8.23920326484571,-0.179295476141412,0.9795224,0.44165558,0.4718934,206.19096,-53.811386,-36.043995,STU
9462148272000,2.205154,-6.9731298358613,8.11821422362322,-0.0702695799814574,0.9636399,0.42302418,0.5002986,206.06969,-53.94039,-35.9406,STU
9462153140000,2.210022,-6.87804018512887,8.00583559061747,0.04643143805229,0.95142263,0.38881573,0.5335908,205.96358,-54.072407,-35.830647,STU
9462158149000,2.215031,-6.75194850072941,7.8810241210617,0.17879648519299,0.9300423,0.32925636,0.54641896,205.87268,-54.192745,-35.727917,STU
9462163172000,2.220054,-6.60574958482423,7.74944538679972,0.320122056068078,0.91507614,0.2611449,0.56413406,205.80243,-54.32051,-35.61498,STU
9462168112000,2.224994,-6.47669329106325,7.63727081795147,0.407576612194718,0.9279043,0.17684549,0.57910025,205.75156,-54.451103,-35.49579,STU
9462173313000,2.230195,-6.35048416556866,7.53047823535718,0.465827046819998,0.9627236,0.112704635,0.56688297,205.72253,-54.57587,-35.380714,STU
9462178290000,2.235172,-6.24898233411397,7.47799841139735,0.477352613387978,0.9935723,0.070554934,0.5702427,205.70798,-54.710003,-35.254295,STU
9462183284000,2.240166,-6.16031071606167,7.45933065616706,0.458684945874317,1.0183123,0.026572637,0.55833083,205.72015,-54.83383,-35.137085,STU
9462188136000,2.245018,-6.10455479561484,7.45826785219258,0.41505272433916,1.0552697,-0.021685716,0.539394,205.73868,-54.95836,-35.01869,STU
9462193122000,2.250004,-6.07526934648881,7.4729105767556,0.346719953649187,1.1093313,-0.05497787,0.5143485,205.77014,-55.075493,-34.907032,STU
9462198220000,2.255102,-6.07766799618552,7.56241675456697,0.308259866495031,1.1499538,-0.11484267,0.48899764,205.80598,-55.192276,-34.795486,STU
9462203128000,2.26001,-6.10436156991008,7.70478266691907,0.294913070341694,1.1976013,-0.14752395,0.48349985,205.84663,-55.305588,-34.686707,STU
9462208260000,2.265142,-6.14156456072588,7.88707550604898,0.280708663104161,1.2140946,-0.18906279,0.45265114,205.89778,-55.40501,-34.591003,STU
9462213961000,2.270843,-6.19526549105931,8.13409809216091,0.264598484936559,1.2452488,-0.18234327,0.42394048,205.9457,-55.501564,-34.497086,STU
9462218104000,2.274986,-6.23484869306399,8.30643013274605,0.244923233948967,1.2385293,-0.17134771,0.42455134,205.9942,-55.601135,-34.398773,STU
9462223184000,2.280066,-6.28410951890442,8.50840025425273,0.2104405272661,1.2269229,-0.15271631,0.4288274,206.03996,-124.3083,-34.307964,STU
9462228915000,2.285797,-6.34145954526389,8.63863281101636,0.159024869286472,1.1930199,-0.15057829,0.44868052,206.07587,-124.20152,-34.199383,STU
9462233124000,2.290006,-6.38481230993316,8.66650252166398,0.112575481525697,1.1838568,-0.1572978,0.4642576,206.11131,-124.09708,-34.091583,STU
9462238085000,2.294967,-6.43591068615657,8.69935156764231,0.0578272247708381,1.1633929,-0.17562376,0.46578476,206.1458,-123.984344,-33.973972,STU
9462243101000,2.299983,-6.47976595350061,8.61542272920688,0.0686290214297245,1.1566733,-0.18997909,0.4615087,206.1843,-123.87154,-33.85491,STU
9462248228000,2.30511,-6.52284390893139,8.50342018003158,0.0944758162793473,1.1191051,-0.20830505,0.44257188,206.23302,-123.76456,-33.741047,STU
9462253162000,2.310044,-6.540959,8.35049178684389,0.118250850247405,1.0839803,-0.20799962,0.4083634,206.26662,-123.67615,-33.64353,STU
9462258181000,2.315063,-6.540959,8.15929062743766,0.141568008156593,1.0589349,-0.14660765,0.3839288,206.2878,-123.592094,-33.549137,STU
9462263116000,2.319998,-6.47581186,7.95750538181818,0.201486064831169,1.0012082,-0.076052725,0.3753767,206.29016,-123.532555,-33.47882,STU
9462268106000,2.324988,-6.341756508,7.73904499636364,0.300786354566234,0.94042706,-0.037873644,0.35338554,206.2848,-123.4845,-33.419292,STU
9462273172000,2.330054,-6.17602184590706,7.58379203499903,0.416560370818588,0.8961393,-0.058643065,0.34391713,206.26268,-123.45837,-33.380867,STU
9462278166000,2.335048,-5.99003476966751,7.48149902897142,0.542101646066498,0.87781334,-0.11575896,0.32895094,206.24281,-123.44008,-33.350323,STU
9462283842000,2.340724,-5.76573648173037,7.37295868038639,0.675014049239815,0.86345804,-0.22235495,0.32253686,206.24632,-123.42636,-33.32614,STU
9462288104000,2.344986,-5.59002564195716,7.29581737538849,0.769297920159597,0.85918194,-0.3368922,0.31795537,206.27391,-123.416306,-33.306534,STU
9462293101000,2.349983,-5.40742105128205,7.24267917571359,0.803001583609095,0.8707884,-0.42241332,0.3155119,206.33012,-123.40086,-33.282486,STU
9462298291000,2.355173,-5.23428797435897,7.21382378006773,0.78376460630866,0.86926126,-0.4474588,0.31337386,206.40451,-123.38599,-33.26015,STU
9462303150000,2.360032,-5.07552417118352,7.2116303486344,0.763382124015333,0.88025683,-0.46578476,0.3200934,206.51514,-123.36153,-33.22881,STU
9462308131000,2.365013,-4.91552676607571,7.22991565452803,0.740525324580738,0.8677341,-0.47616947,0.32834008,206.63019,-123.33632,-33.19757,STU
9462313117000,2.369999,-4.77078382700883,7.2579625694573,0.721126086453513,0.86101454,-0.4981606,0.34238997,206.75911,-123.29109,-33.145206,STU
9462318107000,2.374989,-4.64513092461085,7.29817143104754,0.706047763357173,0.86406887,-0.52381694,0.37965274,206.89198,-123.236885,-33.08408,STU
9462323239000,2.380121,-4.61300572091305,7.30382274324683,0.652819308836901,0.8503244,-0.5717699,0.39095375,207.03679,-123.16786,-33.007362,STU
9462328172000,2.385054,-4.65775146037128,7.28144996696344,0.572277267493843,0.84421575,-0.6200282,0.41355577,207.19005,-123.08595,-32.9178,STU
9462333135000,2.390017,-4.75049217740573,7.20749313397486,0.489942461722309,0.818254,-0.659429,0.42577308,207.37085,-122.99054,-32.815495,STU
9462338113000,2.394995,-4.90497163001768,7.06705702800471,0.405680847020817,0.7910705,-0.6994407,0.4269948,207.56621,-122.892456,-32.7115,STU
9462343117000,2.399999,-5.06431724093198,6.93863042656728,0.317070882416823,0.7779369,-0.72021013,0.398895,207.7535,-122.81299,-32.624363,STU
9462348223000,2.405105,-5.23328475701451,6.82759481319972,0.22051806073255,0.7293731,-0.7150178,0.3662137,207.94266,-122.73337,-32.53903,STU
9462353637000,2.410519,-5.40345102023414,6.7592494493098,0.0738734442844662,0.68203104,-0.7049385,0.3118467,208.10858,-122.70274,-32.501564,STU
9462358120000,2.415002,-5.53473273382841,6.75549858908789,-0.09491715352787,0.63224554,-0.68203104,0.2843578,208.26534,-122.671936,-32.465073,STU
9462363111000,2.419993,-5.68534838667926,6.75411896929617,-0.288968958431743,0.57787853,-0.6575964,0.2828306,208.41,-122.68288,-32.47084,STU
9462368109000,2.424991,-5.88883601904582,6.78577257581483,-0.555764228795465,0.5320636,-0.6026186,0.29810223,208.53326,-122.69417,-32.47723,STU
9462373778000,2.43066,-6.11469882463879,6.82387671605588,-0.855673173878098,0.4792238,-0.52290064,0.29840767,208.62361,-122.7301,-32.505894,STU
9462378111000,2.434993,-6.24572731840972,6.87152333929768,-1.06214222009377,0.43157628,-0.39095375,0.28038713,208.67552,-122.764114,-32.531807,STU
9462383161000,2.440043,-6.39843765617644,6.92705425260741,-1.30277658044206,0.36041048,-0.23396139,0.2611449,208.67876,-122.82136,-32.576958,STU
9462388115000,2.444997,-6.48828104827916,6.94956811258126,-1.49875746543021,0.27305678,-0.069027774,0.25320363,208.63461,-122.876465,-32.619244,STU
9462393075000,2.449957,-6.57002265439771,6.96773290340344,-1.68948786390057,0.19242255,0.035430185,0.2312125,208.5584,-122.93718,-32.66743,STU
9462398203000,2.455085,-6.67902946451613,6.98232132216265,-1.83052587929123,0.112399206,0.27916542,0.19272798,208.3748,-123.01953,-32.729153,STU
9462403206000,2.460088,-6.79222637419355,6.99538249355747,-1.9524302365652,0.07238753,0.571159,0.17348573,208.14296,-123.09933,-32.78614,STU
9462408347000,2.465229,-6.85880815258733,6.99165926229607,-2.04947979697728,-0.0125227375,0.86101454,0.1386664,207.83264,-123.1962,-32.855896,STU
9462413112000,2.469994,-6.89078039165249,6.97795689456511,-2.12255918692824,-0.083383106,1.131017,0.11056661,207.43646,-123.2941,-32.92055,STU
9462418107000,2.474989,-6.91557447018526,6.99598287008877,-2.07990432039753,-0.1151481,1.3628404,0.083383106,206.95349,-123.41431,-32.999557,STU
9462423639000,2.480521,-6.93602178624083,7.0419892111154,-1.93677332151679,-0.10751228,1.525636,0.052534413,206.41109,-123.540955,-33.079884,STU
9462428154000,2.485036,-6.9557521726245,7.09329458832875,-1.70063664017721,-0.04917465,1.6074919,0.033292156,205.83011,-123.682724,-33.166794,STU
9462433315000,2.490197,-6.98092065454731,7.16376654795804,-1.32814289747428,0.034208454,1.5677856,0.03359759,205.2466,-123.827835,-33.25292,STU
9462438117000,2.494999,-7.00951089317561,7.22643133236275,-0.985623974658781,0.1328632,1.4236214,0.030543262,204.69585,-123.984726,-33.35105,STU
9462443107000,2.499989,-7.04333119708826,7.28924065558589,-0.632925189854413,0.26206118,1.2067643,0.032375857,204.19637,-124.14383,-33.448746,STU
9462448174000,2.505056,-7.06302338765783,7.35847479509159,-0.350998577452605,0.3472769,0.9941832,0.05131268,203.76892,-124.30029,-33.556423,STU
9462453143000,2.510025,-7.07148632900587,7.43040979654988,-0.130961941571759,0.40622538,0.7892379,0.079107046,203.4239,-124.45559,-33.66571,STU
9462458122000,2.515004,-7.10206706650025,7.50429301793174,0.0703180582907794,0.4364632,0.6258314,0.10720685,203.1644,-124.60449,-33.78543,STU
9462463110000,2.519992,-7.17993846215996,7.58216426113092,0.230927402609475,0.4447099,0.5009095,0.13622294,202.96861,-124.743546,-33.900475,STU
9462468081000,2.524963,-7.31483981211305,7.64805150284922,0.405480348107192,0.42638394,0.3857614,0.18448131,202.84105,-124.86015,-34.007923,STU
9462473219000,2.530101,-7.56492228830279,7.69352118065609,0.613882455120899,0.40469822,0.27366763,0.21533,202.75813,-124.97051,-34.114212,STU
9462478127000,2.535009,-7.80380994753581,7.73695543107962,0.812955546055752,0.3622431,0.20738874,0.24648413,202.70554,-125.066734,-34.21692,STU
9462483120000,2.540002,-7.8953708187632,7.80232435191554,0.858266771463047,0.3005457,0.1881465,0.26419923,202.67601,-125.15321,-34.314644,STU
9462488127000,2.545009,-7.93876537257919,7.87464859149321,0.85344514877828,0.25411993,0.23701571,0.26908615,202.64597,-125.23103,-34.4047,STU
9462493168000,2.55005,-7.93851473637446,7.94246251125767,0.818220004369332,0.1863139,0.2751948,0.27580565,202.61879,-125.331276,-34.533485,STU
9462498319000,2.555201,-7.92495874063387,8.01024234841073,0.773033461995054,0.1151481,0.37232238,0.29077184,202.55437,-125.42334,-34.651203,STU
9462503365000,2.560247,-7.91067136100616,8.08791112782341,0.666206511894251,0.07696902,0.42302418,0.29718593,202.48227,-125.51034,-34.76384,STU
9462508198000,2.56508,-7.89641540036961,8.16869516940452,0.528397858655031,-0.00061086525,0.42852196,0.2941316,202.39316,-125.58908,-34.870934,STU
9462513141000,2.570023,-7.88808987931214,8.20094498749349,0.315695275671183,-0.070554934,0.39003745,0.2941316,202.29987,-125.65549,-34.963276,STU
9462518189000,2.575071,-7.88305145446587,8.20598351756123,0.0587354206908806,-0.14049901,0.30207285,0.29046643,202.2225,-125.719826,-35.057915,STU
9462523306000,2.580188,-7.88869392738509,8.21779574526844,-0.194598004091058,-0.18234327,0.20280726,0.28405234,202.1445,-125.77751,-35.141132,STU
9462528247000,2.585129,-7.89783239181151,8.23150325106219,-0.436767470270375,-0.20616703,0.1142318,0.27672195,202.09337,-125.834366,-35.22747,STU
9462533176000,2.590058,-7.95577753352058,8.28486398983051,-0.63307281581017,-0.21899518,0.06780604,0.2687807,202.03664,-125.88539,-35.302467,STU
9462539041000,2.595923,-8.05369741497337,8.3719045661017,-0.839792713233898,-0.21746802,0.056199603,0.2574797,201.9973,-125.939415,-35.381462,STU
9462543161000,2.600043,-8.09734519937429,8.49370438367463,-0.905163483248009,-0.20861048,0.09712757,0.25473082,201.92856,-125.99184,-35.449223,STU
9462548259000,2.605141,-8.1390025484452,8.67421988519151,-0.946820977313235,-0.1704314,0.18845193,0.23701571,201.84471,-126.05292,-35.52228,STU
9462553163000,2.610045,-8.1338585599232,8.91626064046079,-0.878888811643088,-0.11056661,0.33536503,0.21991149,201.70786,-126.114075,-35.58586,STU
9462558125000,2.615007,-8.0810370269806,9.23318983811641,-0.696414641178254,-0.05009095,0.48380527,0.20525073,201.53947,-126.18063,-35.64995,STU
9462563138000,2.62002,-8.01785992141768,9.54657845826982,-0.408580019689406,0.015577064,0.6169739,0.17837265,201.31232,-126.24492,-35.701614,STU
9462568172000,2.625054,-7.94436985228658,9.85431863833841,-0.0135695839748476,0.070554934,0.70280045,0.16737708,201.05511,-126.31023,-35.748974,STU
9462573254000,2.630136,-7.86665921604833,10.1201086669499,0.406501219980176,0.09132435,0.711658,0.1414153,200.78967,-126.35133,-35.771954,STU
9462578238000,2.63512,-7.7855533085245,10.3183676983857,0.848077621112999,0.062002823,0.6072,0.10842858,200.54068,-126.39739,-35.801254,STU
9462583167000,2.640049,-7.70250706718201,10.4988875856842,1.23398706419034,0.0012217305,0.39645153,0.08002335,200.35822,-126.40834,-35.81,STU
9462588112000,2.644994,-7.61217585214336,10.6415156631864,1.49547207151892,-0.07422013,0.118202426,0.06047566,200.24014,-126.42433,-35.832237,STU
9462593097000,2.649979,-7.5452296659932,10.7671743915493,1.66869649310345,-0.17470746,-0.01160644,0.046120327,200.17444,-126.411545,-35.843353,STU
9462598239000,2.655121,-7.54044648219524,10.8484904140845,1.60651375517241,-0.21624629,-0.23182335,0.027794369,200.23724,-126.40545,-35.873016,STU
9462603157000,2.660039,-7.55956145125348,10.9172343273909,1.54765642980501,-0.31306845,-0.36651915,0.0061086523,200.3352,-126.3743,-35.889515,STU
9462609009000,2.665891,-7.67404222005571,10.9640671715877,1.48000877688022,-0.3903429,-0.3921755,-0.016798794,200.46942,-126.3495,-35.913303,STU
9462613192000,2.670074,-7.75510796224521,10.9907497994904,1.44305810090334,-0.5296202,-0.36835176,-0.026572637,200.62712,-126.3152,-35.930565,STU
9462618170000,2.675052,-7.84344632342495,10.9502612718499,1.52035427262971,-0.5757405,-0.27152961,-0.03756821,200.76378,-126.29081,-35.9515,STU
9462623195000,2.680077,-7.93261873502162,10.9093904700432,1.59838023946881,-0.66431594,-0.1731803,-0.054061573,200.87456,-126.27193,-35.978565,STU
9462628906000,2.685788,-7.92582710768449,10.6770520336355,1.98370852122342,-0.786489,-0.102319926,-0.06719518,200.95738,-126.25575,-36.004826,STU
9462633186000,2.690068,-7.85637238600356,10.3922875296958,2.44905548284335,-0.93401295,-0.10293079,-0.09040806,201.02713,-126.247116,-36.037067,STU
9462638152000,2.695034,-7.76910224105396,10.0808817827182,2.94183299312215,-1.0781772,-0.18875736,-0.119729586,201.09673,-126.26011,-36.091682,STU
9462643167000,2.700049,-7.63417984310762,9.89943477845588,3.10932272236753,-1.2241739,-0.33505958,-0.15424347,201.1847,-126.28192,-36.15401,STU
9462648314000,2.705196,-7.49926671920951,9.72257793267459,3.26494519326746,-1.3405437,-0.52442783,-0.19211712,201.36612,-126.34425,-36.2619,STU
9462653233000,2.710115,-7.40459256908391,9.64368280756992,3.25705568075699,-1.4214834,-0.70829827,-0.22235495,201.59464,-126.4191,-36.37449,STU
9462658091000,2.714973,-7.31109246310501,9.56576605258751,3.24926400525875,-1.4853189,-0.8875872,-0.2510656,201.90005,-126.511475,-36.49551,STU
9462663173000,2.720055,-7.22367985293931,9.54875486649077,3.12347725310818,-1.5076154,-1.0146471,-0.28893927,202.24835,-126.62335,-36.621822,STU
9462668122000,2.725004,-7.14364514726121,9.56376117467019,2.94339899557784,-1.5231925,-1.0818423,-0.321926,202.63452,-53.249542,-36.74789,STU
9462673394000,2.730276,-7.06584302812142,9.61955466743139,2.78665819522633,-1.5402967,-1.1410962,-0.35246924,203.05785,-53.110332,-36.86954,STU
9462678874000,2.735756,-6.98711917494926,9.68901667749051,2.6338417247419,-1.5305228,-1.1643091,-0.3839288,203.48676,-52.953743,-36.992725,STU
9462683219000,2.740101,-6.9140189511929,9.76993921621911,2.48104574879641,-1.5338826,-1.1780536,-0.40469822,203.90817,-52.801495,-37.097652,STU
9462688170000,2.745052,-6.82270994697764,9.88153932213544,2.28320936112122,-1.5430456,-1.1609493,-0.42546764,204.32,-52.634247,-37.204636,STU
9462693163000,2.750045,-6.81006605976315,9.93880907837561,2.07434493304737,-1.5628988,-1.1420126,-0.44684792,204.71046,-52.47761,-37.291634,STU
9462698401000,2.755283,-6.84280976291496,9.9668749212514,1.84981682241701,-1.5754215,-1.1099422,-0.47128254,205.08235,-52.30962,-37.380512,STU
9462703201000,2.760083,-6.87938874982035,9.96659095000513,1.60823203509907,-1.6136005,-1.0613784,-0.50243664,205.40543,-52.15794,-37.448948,STU
9462708190000,2.765072,-6.92353292348835,9.94206669361462,1.32374753676214,-1.6762142,-0.9935723,-0.5299256,205.70215,-51.995438,-37.521133,STU
9462713170000,2.770052,-6.96701275240481,9.86496064529058,1.02501103952906,-1.7568485,-0.9077458,-0.54428095,205.92119,-51.83377,-37.59453,STU
9462718125000,2.775007,-7.00980597935872,9.74609029458918,0.715947879458918,-1.8338175,-0.82711154,-0.5558874,206.11095,-51.65998,-37.67513,STU
9462723142000,2.780024,-7.07189600654532,9.59015338769838,0.456497598929795,-1.88849,-0.7318166,-0.5687156,206.18689,-51.48289,-37.771442,STU
9462728266000,2.785148,-7.15109357598852,9.40095911745719,0.236504961821931,-1.9453003,-0.6356053,-0.59040123,206.22972,-51.294376,-37.876556,STU
9462733082000,2.789964,-7.24262855703102,9.19234732335745,0.0373828551969081,-1.9456058,-0.52564955,-0.6035349,206.1482,-51.10588,-38.00198,STU
9462738117000,2.794999,-7.37642453859875,8.90564147036964,-0.153754678173422,-1.9193386,-0.4071417,-0.6218608,206.0311,-50.90718,-38.14038,STU
9462743076000,2.799958,-7.53737176500782,8.6135680804165,-0.302146004075088,-1.8710803,-0.2565634,-0.6420194,205.86078,-50.683094,-38.31336,STU
9462748970000,2.805852,-7.81330898704537,8.23829321641572,-0.36285217563551,-1.8209893,-0.08827003,-0.6963864,205.64665,-50.446297,-38.507595,STU
9462753163000,2.810045,-8.03942134404739,7.95737743367644,-0.363634089904836,-1.7742581,0.043982297,-0.77366084,205.3824,-50.164295,-38.75722,STU
9462758124000,2.815006,-8.38543905044669,7.588292137114,-0.25290842385706,-1.7321084,0.172264,-0.8585711,205.0667,-49.86983,-39.03059,STU
9462763144000,2.820026,-8.71387638823145,7.23570549546234,-0.136683460510895,-1.7140878,0.26206118,-0.9440922,204.73584,-49.49488,-39.38529,STU
9462768102000,2.824984,-8.95025843589325,6.97219760787562,-0.00492948030033462,-1.7006488,0.30085114,-1.0042624,204.3843,-49.110165,-39.75619,STU
9462774718000,2.8316,-9.26938206334797,6.62308701139092,0.176446008905808,-1.6847663,0.29352075,-1.0613784,204.03502,-48.6232,-40.222515,STU
9462778209000,2.835091,-9.4782341625183,6.46644803923865,0.333084984465593,-1.6487253,0.25992316,-1.0928379,203.68568,-48.1357,-40.692383,STU
9462783233000,2.840115,-9.77879931469009,6.24102432222548,0.558508706382626,-1.6093245,0.20616703,-1.112691,203.36621,-47.57344,-41.22448,STU
9462788176000,2.845058,-9.84196648548887,6.25929113009298,0.546568783719358,-1.5650368,0.18753563,-1.1377366,203.04935,-47.012188,-41.7588,STU
9462793105000,2.849987,-9.81093142378135,6.37456348233305,0.440163423322062,-1.5195273,0.15790866,-1.1499538,202.75752,-46.460217,-42.283348,STU
9462798182000,2.855064,-9.71022992856439,6.63229025351266,0.308519628623904,-1.5106697,0.14569137,-1.1774428,202.4973,-45.837635,-42.865917,STU
9462803454000,2.860336,-9.55103776145433,7.01037285814366,0.154301802596512,-1.4947872,0.15393804,-1.2089024,202.24124,-45.224403,-43.442677,STU
9462808174000,2.865056,-9.31436691735808,7.44098982347162,0.058812673389083,-1.4926492,0.16798794,-1.2202033,202.00935,-44.640244,-43.987614,STU
9462813174000,2.870056,-8.99026047631004,7.96896853526201,-0.0091450143838428,-1.486846,0.16187929,-1.2156218,201.78218,-44.063133,-44.5268,STU
9462818116000,2.874998,-8.65001823212095,8.44142962243646,0.0535478666432954,-1.509448,0.13897185,-1.1914927,201.56448,-43.564915,-44.98756,STU
9462823177000,2.880059,-8.29319710666082,8.9044476936021,0.172488286152498,-1.5418239,0.103847094,-1.1575897,201.352,-43.07864,-45.435616,STU
9462828425000,2.885307,-7.85527510774818,9.37551424318349,0.360403101149595,-1.5833627,0.021685716,-1.0965031,201.20622,-42.70652,-45.75887,STU
9462833364000,2.890246,-7.36728875302663,9.80872678113486,0.609375870965365,-1.6453656,-0.1282817,-1.0283916,201.09668,-42.347446,-46.059376,STU
9462838137000,2.895019,-6.92635901593625,10.0978841354582,0.948332787649402,-1.6966782,-0.34300083,-0.95417154,201.08871,-42.12058,-46.206707,STU
9462843175000,2.900057,-6.48769635703341,10.2901073296557,1.3919241329145,-1.7165314,-0.6209445,-0.9089675,201.15997,-41.903126,-46.32772,STU
9462848186000,2.905068,-6.11178605764065,10.3936534108893,1.71000402214156,-1.706452,-0.95814216,-0.88453287,201.39513,-41.798306,-46.301533,STU
9462853313000,2.910195,-5.77316324682396,10.432862399274,1.94169324519056,-1.6856827,-1.3384057,-0.8744536,201.74625,-41.69843,-46.244686,STU
9462858128000,2.91501,-5.45514709038113,10.4696853520871,2.15928318257713,-1.6120734,-1.7165314,-0.8527679,202.30624,-41.671772,-46.063084,STU
9462863834000,2.920716,-5.01854075763138,10.3496992287481,2.16315019860896,-1.5204436,-2.0292943,-0.8304713,202.96675,-41.64692,-45.854237,STU
9462868079000,2.924961,-4.68473560089838,10.2358125054096,2.12780614489954,-1.4208726,-2.2308798,-0.83260936,203.70541,-41.624645,-45.624004,STU
9462873320000,2.930202,-4.32962866190476,9.97310395238095,1.93770727619048,-1.3112222,-2.3109033,-0.8564331,204.56326,-41.65446,-45.306755,STU
9462878149000,2.935031,-4.02086534150221,9.69158439440353,1.71521592544919,-1.2205088,-2.2656991,-0.9083566,205.41934,-41.68071,-44.991222,STU
9462883409000,2.940291,-3.71521924700828,9.31272189188913,1.39146091106679,-1.1319333,-2.087021,-0.9767735,206.27425,-41.72754,-44.655506,STU
9462888186000,2.945068,-3.4485056612151,8.94306603262759,1.06859707868467,-1.0720685,-1.9590448,-1.0454959,207.10652,-41.76608,-44.333504,STU
9462893166000,2.950048,-3.31590247089947,8.51179390574452,1.03068664365079,-1.0552697,-1.638646,-1.0839803,207.77197,-41.809,-44.051937,STU
9462898491000,2.955373,-3.22435543716931,8.03478610103931,1.09332406924603,-1.0711522,-1.3051136,-1.2415836,208.38943,-41.80639,-43.836933,STU
9462903197000,2.960079,-3.15659445051778,7.72361701973427,1.30618344685424,-1.1520919,-1.0354166,-1.289842,208.88132,-41.811382,-43.641876,STU
9462908140000,2.965022,-3.09184892526377,7.45076129495897,1.60678719179367,-1.2507466,-0.80939645,-1.3478742,209.27856,-41.771587,-43.52321,STU
9462913182000,2.970064,-3.04672519512963,7.22574138742521,1.81671529652566,-1.3503176,-0.62949663,-1.3991868,209.6316,-41.659348,-43.469635,STU
9462918167000,2.975049,-3.01665890044085,7.0403320382072,1.95702502057311,-1.4361442,-0.49663344,-1.4129313,209.91293,-41.53659,-43.44061,STU
9462923162000,2.980044,-2.97034368094881,6.90181585738796,1.97397238571161,-1.4709635,-0.4260785,-1.4022411,210.23344,-41.350945,-43.444798,STU
9462928321000,2.985203,-2.9147576567223,6.7813795199325,1.93228286754172,-1.455081,-0.37720928,-1.3723087,210.50345,-41.167847,-43.458282,STU
9462934022000,2.990904,-2.87447925851882,6.63682636800698,1.7523699903785,-1.4034629,-0.31429017,-1.3240504,210.78703,-40.961823,-43.48078,STU
9462938177000,2.995059,-2.85407121461688,6.52662276045748,1.56461581600164,-1.3267993,-0.24373524,-1.273654,211.03609,-40.774033,-43.49961,STU
9462943108000,2.99999,-2.94266017357406,6.27722443611766,1.32597644308476,-1.2525792,-0.17531833,-1.2458596,211.26755,-40.592583,-43.519356,STU
9462948184000,3.005066,-3.11223111510323,5.93808269662487,1.06932850894692,-1.1530081,-0.10842858,-1.2315043,211.46075,-40.43738,-43.53691,STU
9462953229000,3.010111,-3.31703041591844,5.68345022437597,0.992334764592667,-1.061073,-0.062308256,-1.2345587,211.62152,-40.292244,-43.563156,STU
9462958141000,3.015023,-3.55359160834781,5.52000776958947,1.09986263036939,-0.9807441,-0.058948494,-1.25319,211.76897,-40.16107,-43.592194,STU
9462963183000,3.020065,-3.81094319266738,5.36829381269926,1.21997940786397,-0.8872818,-0.1001819,-1.2895365,211.92406,-39.967564,-43.69827,STU
9462968109000,3.024991,-4.09670259895856,5.25800088209352,1.36035239995749,-0.83260936,-0.21777347,-1.3295482,212.10446,-39.77848,-43.797264,STU
9462973163000,3.030045,-4.37156350690955,5.1660256876208,1.44988306694047,-0.7816021,-0.33475417,-1.366811,212.32729,-39.527546,-43.948963,STU
9462978456000,3.035338,-4.6311858218593,5.1023445243332,1.4596800784886,-0.7648033,-0.46761733,-1.3961325,212.59706,-39.277367,-44.086254,STU
9462983154000,3.040036,-4.82854525669596,5.0561868856942,1.44394344077329,-0.73884153,-0.5143485,-1.4114041,212.91133,-38.973373,-44.26287,STU
9462988174000,3.045056,-4.97640494544815,5.02661493912127,1.38057498383128,-0.72418076,-0.59528816,-1.41904,213.28049,-38.672337,-44.416397,STU
9462993245000,3.050127,-5.12073916604374,4.99557062211514,1.32031852741138,-0.72295904,-0.627664,-1.409877,213.66594,-38.327568,-44.610474,STU
9462998360000,3.055242,-5.20694506908573,4.95041532667393,1.30389831866253,-0.70371675,-0.63255095,-1.3888022,214.06105,-37.996597,-44.789463,STU
9463003866000,3.060748,-5.2997407097796,4.90180827746585,1.28622291898098,-0.6881397,-0.62796944,-1.3503176,214.4694,-37.644535,-44.9874,STU
9463008183000,3.065065,-5.3754041507961,4.83347204430406,1.33687099496662,-0.6377433,-0.62796944,-1.3399329,214.87502,-37.306057,-45.17905,STU
9463013175000,3.070057,-5.46379972799178,4.7450763132717,1.41544512624551,-0.5992588,-0.65087694,-1.318858,215.26942,-36.98869,-45.34961,STU
9463018166000,3.075048,-5.46130221356313,4.67222597283627,1.49876485196703,-0.52442783,-0.6774496,-1.2932017,215.67554,-36.665623,-45.532314,STU
9463023244000,3.080126,-5.42486104720869,4.60389819136381,1.58531312148745,-0.44318274,-0.7150178,-1.2528846,216.07855,-36.365463,-45.695007,STU
9463028808000,3.08569,-5.35815399162798,4.54606832251313,1.65012553255956,-0.3539964,-0.7654142,-1.1945469,216.5086,-36.06115,-45.85375,STU
9463033211000,3.090093,-5.2939685126722,4.50755706865058,1.68863685344395,-0.25411993,-0.8350528,-1.1059716,216.93501,-35.79465,-45.980713,STU
9463038548000,3.09543,-5.20706762256067,4.45742490368995,1.73911535458148,-0.15485434,-0.90408057,-1.0143417,217.39195,-35.547127,-46.07627,STU
9463043169000,3.100051,-4.94769284563315,4.34417672081889,1.85966974508833,-0.06078109,-0.9654725,-0.9202685,217.84052,-35.342278,-46.135498,STU
9463048146000,3.105028,-4.66833593916956,4.22220394303285,1.98951159783721,0.03390302,-1.0305296,-0.82344633,218.31026,-35.177036,-46.145973,STU
9463053214000,3.110096,-4.39756568607344,4.08185707904583,2.05731662953578,0.13805555,-1.0891727,-0.7370089,218.76901,-35.052708,-46.124813,STU
9463058148000,3.11503,-4.14500646950411,3.93219249377413,2.07134768898347,0.21991149,-1.1255192,-0.6600399,219.21153,-34.965363,-46.07405,STU
9463063170000,3.120052,-3.88187028726038,3.78512987310768,2.05063986318326,0.29626966,-1.144456,-0.59437186,219.69508,-34.925854,-45.945877,STU
9463068124000,3.125006,-3.61682276740059,3.6448106042721,1.99866980381203,0.3567453,-1.1566733,-0.51923543,220.15472,-34.92113,-45.79316,STU
9463073173000,3.130055,-3.38684165482204,3.53881270266212,1.95299898367626,0.43768495,-1.1481212,-0.45173484,220.62895,-34.947144,-45.603996,STU
9463078151000,3.135033,-3.17764619253047,3.4504856531058,1.9111598523842,0.5018258,-1.1129965,-0.36957347,221.0628,-35.004845,-45.398674,STU
9463083181000,3.140063,-2.98839933599768,3.36770249895491,1.85101581137023,0.5647449,-1.0870347,-0.28924468,221.50513,-35.0917,-45.166405,STU
9463088181000,3.145063,-2.81232095395781,3.28893058101413,1.78151121489259,0.61086524,-1.0299188,-0.24007004,221.90018,-35.200123,-44.937042,STU
9463093115000,3.149997,-2.66139266134104,3.20956986320674,1.68791055878398,0.63591075,-0.96486163,-0.1386664,222.27768,-35.354042,-44.663403,STU
9463098240000,3.155122,-2.52194441576854,3.12590107118098,1.57170367129463,0.6597345,-0.8576548,-0.035124753,222.59915,-35.52817,-44.39936,STU
9463103128000,3.16001,-2.40734947074174,3.04828154883067,1.47768499510188,0.6747007,-0.72784597,0.065973446,222.89093,-35.731094,-44.118965,STU
9463108344000,3.165226,-2.30707321884974,2.96806048449262,1.39746403547124,0.70096785,-0.5739079,0.16035213,223.10976,-35.9624,-43.84392,STU
9463113109000,3.169991,-2.22963328372822,2.91743447611122,1.30327648143724,0.70646566,-0.43768495,0.23487769,223.29541,-36.20723,-43.574123,STU
9463118098000,3.17498,-2.16414462377129,2.88936780986881,1.18165458668494,0.73914695,-0.28680122,0.3023783,223.40425,-36.479435,-43.317013,STU
9463123263000,3.180145,-2.10544227677824,2.90807711782997,1.02847401471092,0.7687739,-0.12614368,0.36346483,223.47797,-36.75662,-43.075417,STU
9463128186000,3.185068,-2.06060898953975,2.98429359378091,0.849141099828832,0.79259765,0.01282817,0.43799037,223.49336,-37.054737,-42.839924,STU
9463133135000,3.190017,-2.03511567715325,3.09545076868571,0.642459944753247,0.82924956,0.17348573,0.50946164,223.45111,-37.370907,-42.628777,STU
9463138182000,3.195064,-2.05018085417143,3.28125477588571,0.376308300571429,0.8741482,0.33078352,0.59559363,223.35089,-37.71005,-42.420494,STU
9463143077000,3.199959,-2.06890092075371,3.49730410416852,0.12963119489201,0.9279043,0.48624873,0.6805039,223.18639,-38.093525,-42.219532,STU
9463148185000,3.205067,-2.09498844968447,3.77991819884455,-0.10950382261399,1.0103711,0.6374379,0.782213,222.95993,-38.508514,-42.018234,STU
9463153187000,3.210069,-2.1244657278626,4.07733916793893,-0.329705335925573,1.0772609,0.78893244,0.88300574,222.65575,-38.98706,-41.811424,STU
9463158143000,3.215025,-2.17428336419847,4.4804095129771,-0.47462947294084,1.1404854,0.91538155,1.0064005,222.2989,-39.50171,-41.591652,STU
9463163172000,3.220054,-2.23517678338387,4.88999087446938,-0.601009967167981,1.2070698,1.0387764,1.1429288,221.87051,-40.11387,-41.33344,STU
9463168121000,3.225003,-2.45553238393976,5.30196006029917,-0.404606051015767,1.2589933,1.1600331,1.2727377,221.39908,-40.753227,-41.060642,STU
9463173394000,3.230276,-2.75180078563601,5.7145163623092,-0.167303626183953,1.2611313,1.2947289,1.382999,220.8994,-41.483723,-40.724907,STU
9463178145000,3.235027,-3.42850421757339,5.91040404372798,0.233376072940313,1.2293663,1.3723087,1.4401149,220.39285,-42.22319,-40.374836,STU
9463183294000,3.240176,-4.18788271435653,6.12706037347164,0.644082838663485,1.1594223,1.5531249,1.4095715,219.85725,-42.969414,-40.02181,STU
9463188878000,3.24576,-5.4543631824307,6.43631740420415,0.688262407159905,1.1563679,1.8530598,1.3762794,219.2769,-43.71763,-39.677982,STU
9463193072000,3.249954,-6.40558436493483,6.66859247348999,0.721444554415274,1.1878275,2.2791383,1.2638801,218.58408,-44.332367,-39.47674,STU
9463198285000,3.255167,-7.77312552757169,7.72421116074795,3.58280405391017,1.320996,2.7220156,1.1093313,217.82079,-44.923756,-39.327454,STU
9463203138000,3.26002,-9.07785267996792,8.83788868470022,6.72812838006818,1.3723087,2.9132164,0.89644474,217.04892,-45.447197,-39.2353,STU
9463208126000,3.265008,-11.0031759157969,10.6355322044787,7.81400971425676,1.0809261,2.9480357,0.6059783,216.10873,-45.75947,-39.37113,STU
9463213084000,3.269966,-13.0142610863309,12.5311480719424,8.53569084892086,0.6038403,3.223536,0.3032946,215.0677,-45.98425,-39.59521,STU
9463218106000,3.274988,-14.0043158154353,14.0752080205647,6.91414175417412,0.5198463,3.4223726,0.14782938,214.54436,-45.856598,-39.86509,STU
9463223322000,3.280204,-14.8740785380706,15.6219763699294,4.87372389922823,0.9275989,3.2388074,0.2657264,214.06506,-45.73789,-40.118214,STU
9463228903000,3.285785,-15.0610327939973,16.2912374547522,3.41702118499318,1.4385877,2.7592783,0.5839872,213.57729,-45.652912,-40.35128,STU
9463233193000,3.290075,-15.0759793178718,16.6350100400182,2.4230714946794,1.7623463,2.194228,0.8723156,213.17674,-45.63465,-40.515903,STU
9463238183000,3.295065,-15.2968792418619,16.0776681462199,2.01722323361255,1.9272798,1.6688838,0.9776898,212.5477,-45.959324,-40.54132,STU
9463243234000,3.300116,-15.6764320871594,14.7800078150779,2.18135411557629,1.9459113,1.2791518,0.8875872,212.08241,-46.306816,-40.495804,STU
9463248262000,3.305144,-15.9377540123983,13.2292697574584,2.9043921534289,1.6530013,1.0577132,0.69974613,211.63689,-46.731583,-40.385593,STU
9463253145000,3.310027,-16.1415856811313,11.6122040503681,3.84654817900039,1.097114,0.9850202,0.4972443,211.31252,-47.082737,-40.282177,STU
9463258163000,3.315045,-15.8951123387571,10.3410976115468,3.95867211669281,0.56230146,1.0772609,0.36774087,210.98701,-47.21204,-40.34296,STU
9463263164000,3.320046,-15.3599357306411,9.32238430366595,3.52677517821996,0.24862215,1.2605205,0.3744604,210.67206,-47.292294,-40.415073,STU
9463268153000,3.325035,-13.6490569382455,8.28542215996537,3.37384389156406,0.21930063,1.3264939,0.49754974,210.41278,-47.138187,-40.634903,STU
9463273183000,3.330065,-11.0356835696422,7.22431811321662,3.42944750304925,0.38698313,1.2226468,0.62980205,210.15215,-46.988525,-40.84045,STU
9463278223000,3.335105,-9.730036,6.694188,3.4572272,0.5821546,1.1438452,0.75594574,209.81026,-46.849808,-41.050934,STU
9463283366000,3.340248,-9.730036,6.694188,3.4572272,0.6899723,0.78038037,0.8744536,209.60547,-46.756332,-41.191853,STU
9463288108000,3.34499,-8.50407262551683,6.50280449931089,3.38788537794842,0.73945236,0.6188065,0.93615097,209.47289,-46.8084,-41.17574,STU
9463293100000,3.349982,-6.42385197105729,6.17806403859027,3.27022583488876,0.7696902,0.28527406,1.0509937,209.52481,-46.91137,-41.075577,STU
9463298182000,3.355064,-5.18659543057953,6.08513671237156,2.91181525936704,0.9007208,-0.025045475,1.1603385,209.61404,-47.0396,-40.952656,STU
9463303366000,3.360248,-4.62340848310727,6.17900141668722,2.35679035263461,1.0885619,-0.30879238,1.2501358,209.80618,-47.197304,-40.784767,STU
9463308154000,3.365036,-4.11058529676629,6.26676033517883,1.90412823694268,1.3448198,-0.54153204,1.3005321,210.22232,-47.52567,-40.42088,STU
9463313103000,3.369985,-3.62757254743753,6.36429161908868,1.82052985503185,1.6175711,-0.7058548,1.3393221,210.69783,-47.88814,-40.025528,STU
9463318152000,3.375034,-3.14926698888541,6.46232593764393,1.73816901795253,1.8356501,-0.7892379,1.3301591,211.18553,-48.35883,-39.561752,STU
9463323239000,3.380121,-2.81347044119997,6.54627518413879,1.68474683176157,1.930945,-0.8258898,1.3008375,211.70372,-48.844135,-39.089554,STU
9463329018000,3.3859,-2.43199447322785,6.64164430061095,1.62405746396178,1.9220876,-0.81336707,1.2568552,212.1149,-49.407753,-38.572598,STU
9463333168000,3.39005,-2.179720049112,6.73731466901756,1.47051221704137,1.881465,-0.732122,1.2070698,212.51694,-49.96242,-38.07251,STU
9463338184000,3.395066,-1.88876434550867,6.87046374792116,1.21407679948671,1.7928895,-0.5873469,1.1417072,212.89609,-50.491577,-37.598804,STU
9463343167000,3.400049,-1.76927914334617,7.04067409550706,1.00155697445443,1.6853772,-0.40653083,1.0754282,213.17587,-51.062996,-37.101818,STU
9463348255000,3.405137,-1.76510911695336,7.24083549299101,0.813905656148909,1.5940529,-0.23457226,1.0115929,213.41623,-51.606102,-36.634907,STU
9463353116000,3.409998,-1.82927035526862,7.48015250088156,0.657980870396183,1.4993688,-0.1133155,0.95539325,213.58492,-52.17761,-36.154457,STU
9463358332000,3.415214,-2.11421061131508,7.8894302523854,0.564727662248496,1.430341,-0.020463986,0.90133166,213.71422,-52.721203,-35.702915,STU
9463363078000,3.41996,-2.40061625859889,8.22506863608417,0.483163487168341,1.3662001,0.07360926,0.8622363,213.79535,-53.27284,-35.25434,STU
9463368172000,3.425054,-2.76814575601836,8.50388419141843,0.402898447836855,1.2956452,0.21868975,0.83016586,213.8377,-53.79911,-34.82951,STU
9463373188000,3.43007,-3.13969119311355,8.77797947887668,0.319381253504273,1.2165382,0.39675698,0.8026769,213.84464,-54.31018,-34.423767,STU
9463378208000,3.43509,-3.93801560239316,9.032347802849,0.037619666039886,1.1585059,0.5006041,0.7703011,213.83897,-54.799187,-34.03505,STU
9463383472000,3.440354,-4.77514303076923,9.29907984615385,-0.257837106153846,1.0839803,0.8680395,0.74006325,213.69849,-55.247955,-33.698307,STU
9463388170000,3.445052,-5.37164984318937,9.3669286320598,-0.383462025149502,1.0213667,0.9978484,0.72509706,213.61647,-55.67962,-33.362747,STU
9463393171000,3.450053,-5.89871827566445,9.31720471501246,-0.418268424406146,0.9859365,1.2547172,0.7031059,213.38307,-56.087345,-33.061855,STU
9463398433000,3.455315,-6.35876776163873,9.22806430726257,-0.437412179013035,0.9272934,1.4553864,0.67347896,213.06667,-56.410767,-32.85216,STU
9463403211000,3.460093,-6.73100266803881,9.12939952043517,-0.446381702108203,0.87781334,1.6145169,0.6435465,212.69463,-56.715378,-32.656456,STU
9463408174000,3.465056,-7.03214017407559,8.98004130515612,-0.420826698242605,0.80573124,1.7275269,0.6273586,212.23427,-56.94713,-32.52713,STU
9463413180000,3.470062,-7.27834755312243,8.79784830536154,-0.371585227574979,0.7476991,1.813048,0.61300325,211.74614,-57.159542,-32.407825,STU
9463418106000,3.474988,-7.4476209197738,8.58225508925542,-0.288469494789821,0.68233645,1.8597792,0.61422503,211.20706,-57.308956,-32.3414,STU
9463423244000,3.480126,-7.58211332399623,8.33645868982092,-0.18180318137983,0.6178902,1.8600847,0.6160576,210.6699,-57.444454,-32.27702,STU
9463428818000,3.4857,-7.63733051617496,8.06522877568615,-0.0646144746420944,0.5525276,1.8023579,0.61391956,210.12411,-57.530445,-32.249626,STU
9463433208000,3.49009,-7.63067985541406,7.84908230095705,0.0284948454559835,0.48563787,1.715615,0.60994893,209.60146,-57.608658,-32.219387,STU
9463438501000,3.495383,-7.61566367930622,7.58826229066986,0.138199283552632,0.43127087,1.6197093,0.59742624,209.09697,-57.64258,-32.222103,STU
9463443149000,3.500031,-7.50537002284689,7.35626497966507,0.199050951973684,0.37507126,1.5497651,0.5925393,208.62395,-57.672222,-32.221504,STU
9463448187000,3.505069,-7.3858219502905,7.10480145710868,0.265008504793233,0.31642818,1.4822645,0.573297,208.18571,-57.664852,-32.249767,STU
9463453179000,3.510061,-7.25533351669901,6.85572959820243,0.293738298271882,0.2669481,1.3997977,0.552833,207.78499,-57.652534,-32.27838,STU
9463458123000,3.515005,-7.11992972301093,6.60910171055051,0.303409986279236,0.2452624,1.3133603,0.52687126,207.41658,-57.63065,-32.31321,STU
9463463179000,3.520061,-7.02181864106308,6.42376060864486,0.3292866425,0.23548855,1.2043208,0.5036584,207.08264,-57.59465,-32.358475,STU
9463468165000,3.525047,-6.9427933078271,6.27035859112149,0.361826525,0.25045475,1.0705414,0.46578476,206.7928,-57.5456,-32.414783,STU
9463473254000,3.530136,-6.93253799420345,6.22740362084088,0.385551150077224,0.2764165,0.9257663,0.4392121,206.53714,-57.491707,-32.474186,STU
9463478381000,3.535263,-6.96062465726952,6.24612799771189,0.404275634483745,0.31795537,0.8512407,0.40591997,206.30745,-57.424397,-32.54629,STU
9463483180000,3.540062,-7.07727196269014,6.31135031516311,0.431870643155075,0.34972036,0.6963864,0.38362336,206.14497,-57.35121,-32.622364,STU
9463488145000,3.545027,-7.26832248378456,6.41597312005166,0.46826123375586,0.36254853,0.5323691,0.33200526,206.0139,-57.259956,-32.715897,STU
9463493172000,3.550054,-7.48751916493017,6.52949885640738,0.470632345413396,0.3827071,0.35277468,0.2883284,205.92886,-57.165703,-32.811554,STU
9463498226000,3.555108,-7.73917188585992,6.65285808788867,0.431157421223366,0.4202753,0.2049453,0.23762658,205.88945,-57.055534,-32.92246,STU
9463503392000,3.560274,-7.92918472638037,6.76516217607362,0.389593894233129,0.43860126,0.087964594,0.18509217,205.89183,-56.918495,-33.058964,STU
9463508185000,3.565067,-8.04798680314417,6.85756379133436,0.34999318360046,0.46731192,0.022296581,0.13652839,205.92499,-56.770733,-33.206017,STU
9463513975000,3.570857,-8.11258122009644,6.93155597052102,0.282857656554146,0.4813618,-0.016187929,0.11453723,205.95416,-56.60465,-33.371315,STU
9463518177000,3.575059,-8.0999252225076,6.95686783354649,0.2195778404078,0.4831944,-0.041233405,0.113926366,205.99823,-56.43434,-33.540623,STU
9463523192000,3.580074,-7.95310625325753,6.94944825953024,0.179712631261068,0.49602258,-0.07544186,0.12095132,206.03671,-56.25669,-33.71802,STU
9463528213000,3.585095,-7.67523520284276,6.90463041761581,0.175230837709945,0.50610185,-0.12339478,0.13927728,206.08522,-56.085926,-33.88821,STU
9463533206000,3.590088,-7.39748850292072,6.85043093759189,0.160381543715478,0.5305365,-0.18997909,0.15363261,206.13051,-55.930054,-34.044086,STU
9463538179000,3.595061,-7.11834066397775,6.77946119827141,0.127262312271011,0.5702427,-0.25442538,0.18081611,206.18848,-55.786655,-34.18739,STU
9463543082000,3.599964,-6.85943565493008,6.71146131827178,0.0942743791985658,0.605062,-0.30115658,0.19883664,206.25859,-55.681385,-34.292908,STU
9463548204000,3.605086,-6.62375901011115,6.64462753761922,0.0590987556843313,0.6542367,-0.3036,0.2134974,206.33235,-55.58578,-34.389133,STU
9463553228000,3.61011,-6.39259160215131,6.57907249779132,0.0245961526902833,0.6908886,-0.27763826,0.23243423,206.40239,-55.5308,-34.445427,STU
9463558306000,3.615188,-6.09654182712564,6.51145166542513,0.009576807,0.74067414,-0.24617869,0.24404067,206.46889,-55.47988,-34.49819,STU
9463563176000,3.620058,-5.76734907655554,6.44561311531111,0.009576807,0.7852673,-0.24923302,0.24831672,206.53629,-55.43379,-34.54624,STU
9463568167000,3.625049,-5.52423278136593,6.41312730628745,0.0483067150061828,0.8323039,-0.26419923,0.28069258,206.58003,-55.43996,-34.543026,STU
9463573229000,3.630111,-5.3167276160468,6.39468237595358,0.103641401522496,0.86742866,-0.2837469,0.30757064,206.6261,-55.44615,-34.539692,STU
9463578306000,3.635188,-5.13995974638152,6.37928257740768,0.155472501229356,0.8958339,-0.32070425,0.33108896,206.68106,-55.497383,-34.491386,STU
9463583982000,3.640864,-4.96343999076823,6.36415238787345,0.210950092815921,0.92149025,-0.3726278,0.35246924,206.74835,-55.555115,-34.436234,STU
9463588175000,3.645057,-4.86144775631517,6.34969364044932,0.22286381047834,0.91813046,-0.39187005,0.3594942,206.81993,-55.643684,-34.349705,STU
9463593168000,3.65005,-4.76892869537784,6.32913383720305,0.20744394730947,0.9236283,-0.42577308,0.3820962,206.91475,-55.741714,-34.253365,STU
9463598183000,3.655065,-4.74503042177019,6.31787495564596,0.170119929745981,0.93554014,-0.45875978,0.39828414,207.01373,-55.858418,-34.138092,STU
9463603352000,3.660234,-4.76959009591189,6.31296302081762,0.1160886076539,0.94714653,-0.5112942,0.40469822,207.13144,-55.977074,-34.02051,STU
9463608141000,3.665023,-4.81447438249652,6.31557167630632,0.0656902810463652,0.96761054,-0.5519168,0.39400807,207.24869,-56.103413,-33.895187,STU
9463613180000,3.670062,-4.87761275581814,6.32346400130019,0.0124171884968518,0.9804387,-0.62980205,0.38515055,207.39679,-56.23034,-33.768894,STU
9463618111000,3.674993,-4.93939789549841,6.33118717148172,-0.0397141112375501,1.0002918,-0.6957755,0.38056904,207.53537,-56.34869,-33.651096,STU
9463623244000,3.680126,-5.00371408328563,6.33922672381225,-0.0939809864224384,1.0381655,-0.7440339,0.36193767,207.69394,-56.459118,-33.54088,STU
9463628986000,3.685868,-5.07566100521711,6.34822012133453,-0.154686304425873,1.0549643,-0.8054258,0.35002577,207.87064,-123.43309,-33.432995,STU
9463633170000,3.690052,-5.09163520015531,6.30496559367113,-0.426375214436032,1.0699304,-0.8353582,0.34269542,208.05147,-123.33029,-33.329792,STU
9463638178000,3.69506,-5.10094632731508,6.23978916191031,-0.8127792039371,1.094976,-0.8414669,0.34055737,208.24294,-123.23015,-33.228928,STU
9463643162000,3.700044,-5.09065032001483,6.215348,-1.13416311898582,1.1172725,-0.84421575,0.3484986,208.41786,-123.14874,-33.14616,STU
9463648236000,3.705118,-5.06812659553166,6.215348,-1.42246698052285,1.153619,-0.79290307,0.35369098,208.57455,-123.06943,-33.0647,STU
9463654016000,3.710898,-5.075126118142,6.215348,-1.78417656363451,1.1798862,-0.6921103,0.36285394,208.72023,-123.00033,-32.991047,STU
9463658141000,3.715023,-5.0992704570439,6.215348,-2.06183763753693,1.1976013,-0.5546656,0.37415496,208.83495,-122.930695,-32.914745,STU
9463663167000,3.720049,-5.12590153838994,6.25100844280622,-2.25754709565304,1.1921035,-0.40103304,0.3707952,208.91629,-122.85959,-32.83262,STU
9463668133000,3.725015,-5.14944782321022,6.32164655966927,-2.30934858787999,1.1948525,-0.32620203,0.39003745,208.979,-122.782104,-32.74061,STU
9463673179000,3.730061,-5.19335858937813,6.3589997,-2.34853833061848,1.1924089,-0.23487769,0.39736784,208.97646,-122.71721,-32.653076,STU
9463678200000,3.735082,-5.25863073742258,6.3589997,-2.37301535418682,1.1878275,-0.17195857,0.39400807,208.96104,-122.65464,-32.5628,STU
9463683151000,3.740033,-5.32043813798371,6.3589997,-2.40423207774949,1.1850786,-0.11789699,0.3820962,208.92761,-122.59564,-32.469822,STU
9463688170000,3.745052,-5.36449034052953,6.3589997,-2.48744193564155,1.1661417,-0.021380283,0.3539964,208.86201,-122.54664,-32.38097,STU
9463693166000,3.750048,-5.41126983031821,6.35971047465442,-2.54421336364227,1.1029172,0.09773844,0.34025195,208.77156,-122.51297,-32.3024,STU
9463698237000,3.755119,-5.47434565599777,6.36421589749513,-2.46311579955469,1.0195341,0.22510384,0.33017266,208.64981,-122.48903,-32.22829,STU
9463703406000,3.760288,-5.53668220829754,6.36728829618622,-2.37625166624291,0.9419542,0.33658674,0.3100141,208.49599,-122.48526,-32.167465,STU
9463708181000,3.765063,-5.56025000377942,6.34372058273493,-2.22306136474833,0.8924741,0.4334089,0.2950479,208.3097,-122.48453,-32.104713,STU
9463713172000,3.770054,-5.58488390267995,6.31908676957567,-2.06294140773063,0.84299403,0.54092115,0.26725355,208.08191,-122.50429,-32.060753,STU
9463718108000,3.77499,-5.59583944374589,6.34394389562729,-1.94845735900347,0.7831292,0.6826419,0.2489276,207.81642,-122.525375,-32.01373,STU
9463723213000,3.780095,-5.60042709364737,6.39440699068218,-1.8521186750868,0.7504479,0.8894198,0.2275473,207.49892,-122.556305,-31.969099,STU
9463728343000,3.785225,-5.66242650370447,6.49931005983742,-1.73002387811278,0.732122,1.2040154,0.21013765,207.1109,-122.598785,-31.933706,STU
9463733200000,3.790082,-5.76294161391233,6.63811665250051,-1.596003814468,0.71837753,1.6172657,0.19608775,206.62892,-122.646225,-31.891127,STU
9463738166000,3.795048,-5.89172886620988,6.81349579239091,-1.34215518346917,0.7067711,2.0796907,0.18081611,206.04417,-122.6999,-31.841852,STU
9463743129000,3.800011,-6.03742012053732,7.01060783421385,-1.01220685376127,0.6908886,2.4819455,0.16737708,205.35579,-122.75752,-31.779902,STU
9463748166000,3.805048,-6.19470151591926,7.23486019446157,-0.520421401411952,0.66645396,2.7275133,0.1563815,204.5858,-122.82408,-31.71719,STU
9463753161000,3.810043,-6.36593574814557,7.49646781885254,0.221593055255046,0.61636305,2.713769,0.16279559,203.79105,-122.88812,-31.6455,STU
9463758206000,3.815088,-6.54082481990731,7.76657955728882,0.978170875279124,0.56230146,2.424524,0.16982053,203.05283,-122.9457,-31.594555,STU
9463763167000,3.820049,-6.71597435144302,8.04181415470824,1.73381567008637,0.4999932,1.917506,0.20616703,202.41917,-122.990204,-31.547667,STU
9463768106000,3.824988,-6.84654878210074,8.32691467184689,2.29639605986408,0.43554693,1.6029104,0.26908615,201.85228,-123.02586,-31.538395,STU
9463773178000,3.83006,-6.92907421644014,8.63274496806916,2.65077050559664,0.41172317,0.9251554,0.31031954,201.5862,-123.05731,-31.572279,STU
9463778274000,3.835156,-7.06617167564436,8.81978576553447,2.69335028653347,0.3585779,0.24740042,0.39614612,201.3781,-123.06787,-31.625654,STU
9463783257000,3.840139,-7.25686595828172,8.87699369190809,2.40730886257742,0.2950479,-0.2733622,0.4373795,201.34758,-123.077545,-31.704937,STU
9463788167000,3.845049,-7.47540723279405,8.87967023166253,1.96576720188586,0.20555615,-0.6227771,0.40775254,201.4802,-123.06572,-31.800137,STU
9463793199000,3.850081,-7.73369861907692,8.82227246769231,1.33438805230769,0.12980886,-0.77946407,0.3494149,201.72295,-123.04965,-31.902203,STU
9463798216000,3.855098,-8.10338602362205,8.85786784514436,0.601855805511811,0.0870483,-0.75747293,0.3023783,202.00995,-123.06007,-32.024036,STU
9463803368000,3.86025,-8.61692277952756,9.00523024608562,-0.273389259489547,0.04795292,-0.6017023,0.27091873,202.29741,-123.08016,-32.15198,STU
9463808092000,3.864974,-9.0308233235351,9.11497798220847,-0.872569123740089,0.013744468,-0.3454443,0.24465153,202.51501,-123.14775,-32.29869,STU
9463813156000,3.870038,-9.28404682691936,9.14780339624831,-0.835054569093019,-0.011911872,-0.022296581,0.22632557,202.64662,-123.22052,-32.4372,STU
9463818159000,3.875041,-9.50002025731982,9.17869532038288,-0.772124645563063,-0.028405234,0.2959642,0.21655174,202.62521,-123.35361,-32.595264,STU
9463824193000,3.881075,-9.56509512964527,9.20716528505067,-0.548429911030405,-0.032070424,0.54336464,0.19914207,202.51465,-123.488914,-32.745697,STU
9463829249000,3.886131,-9.61962256658221,9.23102079405968,-0.360991963102478,-0.021685716,0.68539083,0.17379116,202.30869,-123.659,-32.923126,STU
9463833301000,3.890183,-9.60460542693617,9.25588711343715,-0.188546658116943,-0.04795292,0.7067711,0.15363261,202.06308,-123.8252,-33.094196,STU
9463839001000,3.895883,-9.48075959832938,9.30092252129525,0.0929207996535011,-0.07696902,0.63621616,0.15149458,201.80539,-123.98895,-33.260715,STU
9463843105000,3.899987,-9.37920688607711,9.33677808714457,0.221343470398454,-0.11881329,0.5140431,0.15271631,201.55013,-124.15833,-33.442387,STU
9463849206000,3.906088,-9.20715385782645,9.39592106998252,0.285863316692739,-0.17440203,0.36132678,0.13683382,201.3332,-124.326645,-33.628597,STU
9463853257000,3.910139,-9.10387513812858,9.44366127657543,0.289561241832113,-0.23548855,0.21960606,0.12644911,201.14777,-124.47441,-33.80226,STU
9463858214000,3.915096,-9.00944444589434,9.52676044350732,0.180021562718412,-0.29657507,0.106595986,0.10873401,201.0063,-124.62332,-33.98289,STU
9463863087000,3.919969,-8.91661395098663,9.6084514341184,0.0723381137934437,-0.36377025,0.05222898,0.09896017,200.8938,-124.7487,-34.142384,STU
9463868104000,3.924986,-8.96080966849218,9.76368543512057,-0.0999342840537055,-0.42821655,-0.030543262,0.09437868,200.82964,-124.87357,-34.30672,STU
9463873553000,3.930435,-9.07604680125431,9.96650269251833,-0.316580241411094,-0.45723262,-0.15974127,0.071776666,200.79886,-125.00395,-34.478672,STU
9463878144000,3.935026,-9.18481413190862,10.0905171982314,-0.423426114473102,-0.5170974,-0.21777347,0.065973446,200.7535,-125.09851,-34.610893,STU
9463883127000,3.940009,-9.31668920854827,10.1696420606116,-0.449801148161385,-0.5363397,-0.31856623,0.035430185,200.7643,-125.20704,-34.759117,STU
9463888078000,3.94496,-9.46421539736598,10.2330504135199,-0.486838574808108,-0.5757405,-0.44409904,0.01282817,200.78912,-125.30328,-34.893295,STU
9463893108000,3.94999,-9.66247161302603,10.2528759315773,-0.556228312394279,-0.5815437,-0.591623,-0.02076942,200.8527,-125.411606,-35.039566,STU
9463898262000,3.955144,-9.86725882013847,10.3076956180012,-0.642191646575858,-0.59650993,-0.72601336,-0.06780604,200.92148,-125.53485,-35.20052,STU
9463903167000,3.960049,-10.065224,10.424354,-0.75177935,-0.600786,-0.86590147,-0.13408493,201.03816,-125.67239,-35.376225,STU
9463909043000,3.965925,-10.3023786170981,10.5641062227574,-0.88306117371463,-0.59040123,-0.9578367,-0.17531833,201.1604,-125.82903,-35.569397,STU
9463913120000,3.970002,-10.5462989226793,10.7396079906967,-1.03780158787472,-0.55833083,-0.9822713,-0.19639318,201.30093,-125.997116,-35.771523,STU
9463918124000,3.975006,-10.8682908565226,10.9773864426297,-1.24585809022741,-0.50671273,-0.8897252,-0.20433442,201.42537,-126.17139,-35.975037,STU
9463923247000,3.980129,-11.0556765528673,11.1851185675501,-1.26917591430418,-0.4569272,-0.66981375,-0.18448131,201.48724,-126.349045,-36.175434,STU
9463928352000,3.985234,-11.1911172140549,11.3792504647705,-1.22402898009973,-0.3933972,-0.3735441,-0.13683382,201.48453,-126.5189,-36.361214,STU
9463933151000,3.990033,-11.1699926310021,11.4134866456766,-0.941721145331104,-0.3231477,-0.096516706,-0.0888809,201.39247,-126.688614,-36.53937,STU
9463938104000,3.994986,-11.042233568032,11.3429987440327,-0.479144544952169,-0.24831672,0.12370021,-0.07086037,201.2162,-126.850784,-36.703785,STU
9463943090000,3.999972,-10.8607354617821,11.2443706983186,0.0786307782243522,-0.22327125,0.22479841,-0.09010262,200.98453,-127.00324,-36.85573,STU
9463948182000,4.005064,-10.5953417949801,11.1017711223296,0.787667619039883,-0.24037547,0.20555615,-0.13255776,200.72313,-127.15437,-37.00404,STU
9463953851000,4.010733,-10.2885839461994,10.9470634761038,1.59997006042786,-0.30482176,0.055283304,-0.18661933,200.51082,-127.30797,-37.16166,STU
9463958164000,4.015046,-9.95769459098771,10.8643410391443,2.41591317682294,-0.42638394,-0.21502456,-0.22510384,200.35359,-127.46405,-37.325874,STU
9463963083000,4.019965,-9.58031347847064,10.7699956490669,3.3465007468548,-0.61758476,-0.39400807,-0.27152961,200.30827,-127.6221,-37.505486,STU
9463968114000,4.024996,-8.96301942889062,10.5331020684865,4.27272389376336,-0.72265357,-0.82986045,-0.29871312,200.453,-127.7831,-37.693832,STU
9463973725000,4.030607,-8.18522766718477,10.2146775459491,5.29585872900719,-0.9560041,-1.5387696,-0.410196,200.75864,-127.97473,-37.918636,STU
9463978106000,4.034988,-7.8366876570632,10.0454949135688,5.10148302828377,-1.3011429,-1.7531832,-0.44929138,201.15627,-128.13086,-38.107002,STU
9463983184000,4.040066,-7.51529336028501,9.87475424256506,4.5591296084366,-1.3897184,-2.0977113,-0.5222898,201.85504,-128.33383,-38.33083,STU
9463988116000,4.044998,-7.25928599422715,9.76048388216655,3.93118109109813,-1.539075,-2.2864685,-0.59589905,202.67871,-51.482353,-38.51261,STU
9463993115000,4.049997,-7.01751967254184,9.6609330467373,3.26276865714427,-1.6664404,-2.345417,-0.6374379,203.58157,-51.27458,-38.684727,STU
9463998677000,4.055559,-6.83717660434611,9.59441107046418,2.56559145823396,-1.738217,-2.307238,-0.66889745,204.48212,-51.065067,-38.827717,STU
9464003190000,4.060072,-6.7136540998029,9.55181710338031,2.01186939690549,-1.7989981,-2.2208006,-0.68752885,205.38138,-50.83467,-38.958824,STU
9464008127000,4.065009,-6.62480455999603,9.55524325505752,1.48044098301864,-1.8457294,-2.112983,-0.7079928,206.1828,-50.620434,-39.057262,STU
9464013115000,4.069997,-6.55374757169774,9.57892883538278,0.973569198020627,-1.8689423,-1.9801197,-0.7156286,206.93173,-50.395996,-39.145897,STU
9464018109000,4.074991,-6.50168004057971,9.65172812463768,0.632846483478261,-1.8832976,-1.7931949,-0.72204274,207.51573,-50.19353,-39.216663,STU
9464023749000,4.080631,-6.45275508405797,9.75936272246377,0.334404044347826,-1.9398025,-1.5952746,-0.73548174,208.03296,-49.979828,-39.289234,STU
9464028120000,4.085002,-6.435614,9.87341681881028,0.135881621124861,-2.006387,-1.4150693,-0.74464476,208.36688,-49.798985,-39.347843,STU
9464033140000,4.090022,-6.435614,10.0334360131433,-0.061065322154135,-2.0659463,-1.2244794,-0.73945236,208.61311,-49.61336,-39.413334,STU
9464038179000,4.095061,-6.43269911538779,10.1845595557116,-0.251413523175023,-2.127949,-1.0354166,-0.73914695,208.74747,-49.453667,-39.46363,STU
9464043105000,4.099987,-6.41321645378707,10.2780770637648,-0.395585332944578,-2.189341,-0.850019,-0.7254025,208.80667,-49.292873,-39.51919,STU
9464048436000,4.105318,-6.39213198992319,10.3792832828942,-0.551610488827951,-2.2171354,-0.68783426,-0.7098254,208.81323,-49.150883,-39.56559,STU
9464053152000,4.110034,-6.42308705961807,10.3939843216581,-0.690256291314392,-2.2153027,-0.5317582,-0.7086037,208.75252,-49.004105,-39.62428,STU
9464058121000,4.115003,-6.47184898835584,10.3851183481136,-0.836541901633908,-2.1771238,-0.32803464,-0.70646566,208.6138,-48.860252,-39.69279,STU
9464063116000,4.119998,-6.53953089637084,10.3551273498555,-1.04829793948614,-2.1685717,-0.20830505,-0.691194,208.46877,-48.735424,-39.744366,STU
9464068098000,4.12498,-6.62125521689327,10.3091570528851,-1.30879405248046,-2.1670444,0.03940081,-0.6872234,208.20627,-48.608273,-39.820896,STU
9464073228000,4.13011,-6.72737827255639,10.2139927274436,-1.45025348100564,-2.1658227,0.2556471,-0.6985244,207.93652,-48.47563,-39.906593,STU
