timestamp,rel_time,acc_x,acc_y,acc_z,gyro_x,gyro_y,gyro_z,azimuth,pitch,roll,label
8510427178000,0,2.08474072588561,9.37659044065288,1.89106493229388,0.03145956,-0.03604105,0.03176499,280.60754,-39.746468,3.7513947,STD
8510431422000,0.004244,2.07823690878955,9.38695587202464,1.90325958590031,0.03176499,-0.040927973,0.031154128,280.80322,-40.237366,3.8568854,STD
8510436409000,0.009231,2.07059446395967,9.39913598659839,1.91758916590391,0.033292156,-0.03023783,0.027183503,280.99622,-40.722374,3.9610236,STD
8510441415000,0.014237,2.06292290213526,9.41136250626075,1.93197334025683,0.027183503,-0.03359759,0.034513887,281.19025,-41.19833,4.068773,STD
8510446355000,0.019177,2.05535248355503,9.42342782929952,1.94616787108053,0.02321288,-0.011301007,0.026267206,281.3814,-41.669163,4.1625576,STD
8510451363000,0.024185,2.04767785678381,9.43565923370804,1.96055779220706,0.013133603,0.008246681,0.022296581,281.57098,-42.129555,4.257442,STD
8510456366000,0.029188,2.04001089237959,9.44787842625115,1.97493334639957,0.009162978,0.016187929,0.014966198,281.76077,-42.584305,4.3456745,STD
8510461369000,0.034191,2.03234392797536,9.46009761879425,1.98930890059207,0.005192355,0.036651913,0.005497787,281.94534,-43.029827,4.4239383,STD
8510466391000,0.039213,2.02464784657659,9.47236321642597,2.0037390491339,-0.0033597588,0.049480084,-0.0015271631,282.13055,-43.46657,4.499282,STD
8510471379000,0.044201,2.01700386927331,9.4845457733728,2.0180715025243,-0.015271631,0.060170226,-0.0125227375,282.3146,-43.895214,4.566403,STD
8510476368000,0.04919,2.00935835949664,9.49673077269272,2.03240682930152,-0.01863139,0.06352998,-0.0290161,282.49976,-44.3179,4.628223,STD
8510481361000,0.054183,2.00170671982638,9.50892554150498,2.04675364962595,-0.008552114,0.0711658,-0.043066,282.68326,-44.73504,4.6837254,STD
8510486359000,0.059181,1.99404741778913,9.52113252218266,2.06111483688443,-0.016798794,0.08093964,-0.058337633,282.8687,-45.14041,4.733102,STD
8510491367000,0.064189,1.98637279101792,9.53336392659119,2.07550475801096,-0.01863139,0.099571034,-0.06719518,283.05188,-45.544548,4.7762833,STD
8510496398000,0.06922,1.97866291735858,9.54565150558067,2.08996076703404,-0.015271631,0.10842858,-0.07238753,283.23676,-45.94211,4.815916,STD
8510501404000,0.074226,1.97099135553416,9.55787802524303,2.10434494138697,-0.022296581,0.12217305,-0.08827003,283.4201,-46.33083,4.8457675,STD
8510506951000,0.079773,1.96249072560207,9.57142586874425,2.12028361800216,-0.02107485,0.111177474,-0.099571034,283.60626,-46.71687,4.877577,STD
8510511408000,0.08423,1.9556604916725,9.58231152558307,2.13309030299836,-0.03848451,0.0983493,-0.09743301,283.7898,-47.089767,4.905641,STD
8510516444000,0.089266,1.94794295564618,9.59461131643797,2.14756067895547,-0.049785517,0.10170906,-0.10995574,283.97662,-47.459827,4.926339,STD
8510521370000,0.094192,1.9403939916935,9.60664244625355,2.16171498236388,-0.04886922,0.10934488,-0.12034045,284.16373,-47.82258,4.9486365,STD
8510526387000,0.099209,1.93270557266172,9.61889583201984,2.17613076397168,-0.048258353,0.118507855,-0.113926366,284.3483,-48.176296,4.97005,STD
8510531419000,0.104241,1.92499416652898,9.63118585338241,2.19058964638157,-0.044593163,0.1255328,-0.102319926,284.53195,-48.525803,4.9885526,STD
8510536418000,0.10924,1.91733333201834,9.64339527643317,2.20495370702684,-0.03726278,0.12217305,-0.10048734,284.71582,-48.87118,5.0057907,STD
8510541404000,0.114226,1.90969241966186,9.65557294863384,2.21928041364364,-0.043066,0.100792766,-0.096516706,284.8989,-49.20793,5.027264,STD
8510546398000,0.11922,1.9020392475182,9.66777015981918,2.23363010735488,-0.0290161,0.089491755,-0.10445796,285.08173,-49.547394,5.0444756,STD
8510551407000,0.124229,1.89436308827359,9.68000400660079,2.24802290186822,-0.025961773,0.08124508,-0.105068825,285.2659,-49.876392,5.066642,STD
8510556413000,0.129235,1.88669152644917,9.69223052626315,2.26240707622115,-0.036957346,0.05681047,-0.099265605,285.4558,-50.200176,5.092571,STD
8510561405000,0.134227,1.87904141925231,9.70442285270233,2.27675102315878,-0.035430185,0.04642576,-0.101098195,285.64532,-50.523525,5.114631,STD
8510566468000,0.13929,1.87128250644427,9.71678858763052,2.29129898055967,-0.04184427,0.030848695,-0.11362094,285.8417,-50.83666,5.139851,STD
8510571413000,0.144235,1.86370442549706,9.7288661225347,2.3055078783174,-0.042760566,0.016798794,-0.12889257,286.04022,-51.147007,5.164466,STD
8510576728000,0.14955,1.85555932939303,9.74184733548026,2.3207799291935,-0.06536258,-0.0018325958,-0.14080444,286.2443,-51.444923,5.189445,STD
8510581345000,0.154167,1.84848389971997,9.75312377201264,2.33404635607873,-0.06383542,-0.010995574,-0.15057829,286.45102,-51.745186,5.2111025,STD
8510586385000,0.159207,1.84076023380006,9.76543333235989,2.34852822558307,-0.0729984,-0.01740966,-0.16737708,286.66385,-52.032253,5.230111,STD
8510591367000,0.164189,1.83312545133716,9.77760123506821,2.36284343865264,-0.08277224,-0.03268129,-0.20647246,286.8856,-52.316452,5.2437706,STD
8510596354000,0.169176,1.82548300650728,9.78978134964196,2.37717301865624,-0.0852157,-0.057421334,-0.24281894,287.1125,-52.596363,5.2558026,STD
8510601349000,0.174171,1.81782830189023,9.80198100320038,2.39152558575429,-0.08093964,-0.064751714,-0.27397305,287.34372,-52.8726,5.25866,STD
8510606373000,0.179195,1.81012915554467,9.81425148557827,2.40596148106973,-0.09773844,-0.06291912,-0.31337386,287.58502,-53.139946,5.252961,STD
8510611369000,0.184191,1.80247291845421,9.82645358150978,2.42031692155459,-0.09743301,-0.04886922,-0.3436117,287.82767,-53.410152,5.2404633,STD
8510616404000,0.189226,1.79475691490129,9.8387509299916,2.43478442412489,-0.09773844,-0.035124753,-0.37904188,288.07608,-53.67334,5.2167163,STD
8510621388000,0.19421,1.7860698055334,9.84039772210563,2.44079975035677,-0.1142318,-0.024740042,-0.40744713,288.32446,-53.929005,5.1852765,STD
8510627225000,0.200047,1.77461778244641,9.82950435122171,2.43772726240444,-0.13805555,-0.026572637,-0.4373795,288.57706,-54.180115,5.144709,STD
8510631443000,0.204265,1.76634218995353,9.82163245840204,2.43550698586119,-0.15515977,-0.035430185,-0.46700647,288.83234,-54.412384,5.0662103,STD
8510636413000,0.209235,1.75659119547994,9.8123571366112,2.43289087054115,-0.1685988,-0.031154128,-0.4709771,289.08377,-54.63476,4.9854293,STD
8510641410000,0.214232,1.74678722779693,9.80303142574826,2.4302605429246,-0.19150625,-0.034208454,-0.4700608,289.34113,-54.846504,4.902227,STD
8510646481000,0.219303,1.73683807428072,9.79356761150252,2.42759126308799,-0.1908954,-0.034208454,-0.45662177,289.59338,-55.0567,4.820555,STD
8510651396000,0.224218,1.72719498819667,9.78439493411782,2.42500409874232,-0.21380283,-0.035124753,-0.441961,289.84424,-55.249855,4.740783,STD
8510656406000,0.229228,1.71736551489432,9.7750449618498,2.42236692816819,-0.2406809,-0.02687807,-0.42913285,290.08914,-55.437878,4.6629357,STD
8510661405000,0.234227,1.70755762326987,9.765715518463,2.41973554778894,-0.24404067,0.0030543262,-0.39767328,290.3218,-55.621258,4.590261,STD
8510666532000,0.239354,1.69749859939339,9.75614719354919,2.41703679059661,-0.2828306,0.02321288,-0.37415496,290.55225,-55.783573,4.519647,STD
8510671432000,0.244254,1.68788494287013,9.74700251009344,2.41445752197122,-0.33169982,0.056505036,-0.3539964,290.76617,-55.937824,4.4494524,STD
8510676407000,0.249229,1.67812413854295,9.73771785699295,2.41183877474442,-0.39370266,0.07849618,-0.3417791,290.9738,-56.073895,4.382211,STD
8510681430000,0.254252,1.66826915962125,9.72834362331984,2.40919476121271,-0.4456262,0.08735373,-0.32253686,291.17078,-56.195374,4.31897,STD
8510686408000,0.25923,1.6585024693819,9.71905337143357,2.40657443484185,-0.50426924,0.08307768,-0.30115658,291.36188,-56.294674,4.258564,STD
8510691401000,0.264223,1.64870634958177,9.70973512561835,2.40394621275071,-0.5751296,0.12461651,-0.27152961,291.53412,-56.372936,4.1969075,STD
8510696407000,0.269229,1.63888472416229,9.70039261839804,2.40131114770199,-0.59559363,0.13225232,-0.26939157,291.71503,-56.44772,4.1404934,STD
8510701419000,0.274241,1.6290513269185,9.69103891360616,2.39867292436516,-0.6017023,0.089491755,-0.2602286,291.891,-56.504124,4.0949945,STD
8510706403000,0.279225,1.61927286485484,9.68173746414831,2.39604943970619,-0.5992588,0.042455133,-0.26145032,292.06622,-56.55661,4.0477467,STD
8510711355000,0.284177,1.60955718585419,9.6724957350722,2.39344279925049,-0.573297,-0.018325957,-0.24495697,292.24945,-56.612366,4.016326,STD
8510716368000,0.28919,1.59972182663968,9.66314016401839,2.3908040495323,-0.54092115,-0.052839845,-0.22143865,292.4354,-56.669815,3.989863,STD
8510721372000,0.294194,1.58990412516164,9.65380138932194,2.38817003724629,-0.4877759,-0.06383542,-0.19883664,292.62637,-56.739338,3.9729233,STD
8510726367000,0.299189,1.58010408142008,9.64447941098286,2.38554076239244,-0.42485678,-0.06841691,-0.18234327,292.8199,-56.81945,3.9642227,STD
8510731362000,0.304184,1.57030403767851,9.63515743264378,2.3829114875386,-0.35705075,-0.05467244,-0.15332718,293.00473,-56.91379,3.962313,STD
8510736373000,0.309195,1.56047260240544,9.62580559411383,2.38027379058312,-0.29657507,-0.025961773,-0.14294247,293.186,-57.022694,3.957645,STD
8510741375000,0.314197,1.55065882486884,9.61647055194124,2.37764083105981,-0.23365596,0.013744468,-0.10873401,293.3518,-57.14797,3.9611382,STD
8510746344000,0.319166,1.54090979236596,9.60719709641233,2.37502524212112,-0.20250183,0.024129177,-0.080634214,293.51593,-57.27924,3.9650753,STD
8510751373000,0.324195,1.53104304161995,9.59781166516764,2.3723780703013,-0.19853121,0.05467244,-0.076052725,293.66284,-57.417934,3.9616811,STD
8510756393000,0.329215,1.5211939486104,9.58844303028032,2.36973563591366,-0.204029,0.08735373,-0.049785517,293.79816,-57.558502,3.9676614,STD
8510761390000,0.334212,1.5113899809274,9.57911731941738,2.36710530829711,-0.20525073,0.08552113,-0.027794369,293.93353,-57.698925,3.9736927,STD
8510766379000,0.339201,1.50160170901014,9.56980653864988,2.36447919173137,-0.20799962,0.062002823,-0.01038471,294.0622,-57.834126,3.982695,STD
8510771376000,0.344198,1.49179774132714,9.56048082778694,2.36184886411483,-0.21685717,0.01038471,-0.005497787,294.19598,-57.964546,3.9978075,STD
8510776364000,0.349186,1.4820114313806,9.55117191328137,2.35922327393045,-0.2415972,-0.05589417,0.004886922,294.33493,-58.08655,4.0233617,STD
8510781404000,0.354226,1.47212309895668,9.54176595315545,2.35657031191575,-0.2556471,-0.122783914,0.0143553335,294.48523,-58.206802,4.0566235,STU
8510786344000,0.359166,1.46243096360466,9.53254661922251,2.35396998803628,-0.25717425,-0.16187929,0.014049901,294.64395,-58.321682,4.0944185,STU
8510791374000,0.364196,1.45256225088792,9.52315932171589,2.35132228983511,-0.25442538,-0.18936823,0.008246681,294.8145,-58.431946,4.1397767,STU
8510796348000,0.36917,1.44280340853145,9.51387653487733,2.34870406898966,-0.24801129,-0.19211712,-0.0030543262,294.98837,-58.54142,4.184074,STU
8510801373000,0.374195,1.43294450566832,9.50449856868036,2.34605900269525,-0.24220806,-0.1740966,-0.00030543262,295.1614,-58.649582,4.2295794,STU
8510806369000,0.379191,1.42314249995603,9.49517472407935,2.34342920146005,-0.23365596,-0.14996742,-0.011301007,295.33612,-58.759754,4.2667284,STU
8510811373000,0.384195,1.41332479847799,9.4858359493829,2.34079518917404,-0.24801129,-0.116675265,-0.014660766,295.50134,-58.86305,4.3008037,STU
8510816464000,0.389286,1.40333640554739,9.47633480989857,2.33811538171039,-0.25137106,-0.101098195,-0.013133603,295.66473,-58.97047,4.3310056,STU
8510821420000,0.394242,1.39877451413317,9.45037546261188,2.35580861259889,-0.26511553,-0.074830994,-0.008857546,295.81625,-59.06933,4.353403,STU
8510827224000,0.400046,1.40016255900691,9.39818515856041,2.4030019701784,-0.28985557,-0.05955936,-0.006414085,295.96555,-59.162575,4.373939,STU
8510832114000,0.404936,1.40133201790295,9.35421365842057,2.44276343099229,-0.29016098,-0.054061573,0.003970624,296.09863,-59.260887,4.3662376,STU
8510836352000,0.409174,1.40234554894618,9.31610502496604,2.47722336369766,-0.3023783,-0.046731193,0.02321288,296.22525,-59.34725,4.358668,STU
8510841372000,0.414194,1.40354609775152,9.27096454833986,2.51804187766202,-0.3042109,-0.013744468,0.025961773,296.34445,-59.435654,4.344856,STU
8510846336000,0.419158,1.40473325398054,9.22632763081549,2.55840504565387,-0.3109304,-0.004886922,0.04428773,296.46225,-59.516724,4.341806,STU
8510851344000,0.424166,1.4059309329481,9.18129505971112,2.59912598548126,-0.3109304,0.0061086523,0.050396383,296.5722,-59.598568,4.331229,STU
8510856372000,0.429194,1.40713339497862,9.1360826460704,2.64000954887026,-0.30726522,0.018936822,0.061391957,296.67584,-59.67761,4.3247967,STU
8510861359000,0.434181,1.40832605173006,9.09123890962922,2.68055973395797,-0.33292156,0.018020526,0.067500606,296.77966,-59.747345,4.319011,STU
8510866465000,0.439287,1.40954716770617,9.04532511009669,2.72207752923725,-0.34025195,-0.0012217305,0.077579886,296.88242,-59.821693,4.3176484,STU
8510871453000,0.444275,1.41074006361076,9.00047238152869,2.76263584550304,-0.36254853,-0.053450707,0.07086037,296.99484,-59.884182,4.318368,STU
8510876409000,0.449231,1.41192530661459,8.95590740101886,2.80293396407024,-0.3924809,-0.086132,0.086437434,297.1022,-59.94029,4.326872,STU
8510881416000,0.454238,1.413122746429,8.91088382204131,2.84364677271955,-0.42119157,-0.10140363,0.099571034,297.2191,-59.990242,4.337682,STU
8510886409000,0.459231,1.41431683809933,8.86598613283922,2.88424574487574,-0.43982297,-0.103847094,0.105374254,297.33917,-60.033836,4.3528347,STU
8510891404000,0.464226,1.41551140807596,8.82107045938349,2.92486097938809,-0.4605924,-0.11178834,0.11301007,297.46164,-60.06785,4.374022,STU
8510896386000,0.469208,1.41670286906165,8.7762716835764,2.96537050858538,-0.45906523,-0.10781772,0.12156218,297.58017,-60.102486,4.394902,STU
8510901576000,0.474398,1.41794407390223,8.72960254539116,3.00757132282344,-0.464563,-0.09590584,0.13439035,297.69632,-60.128746,4.4180665,STU
8510906413000,0.479235,1.4191008576814,8.68610762797267,3.04690183119906,-0.453262,-0.0729984,0.14385876,297.8073,-60.159958,4.439729,STU
8510911398000,0.48422,1.42029303612654,8.64128187578512,3.0874357539306,-0.4364632,-0.06078109,0.16371189,297.9141,-60.190136,4.466302,STU
8510916414000,0.489236,1.42149262831928,8.59617736766621,3.12822174318264,-0.4089743,-0.047036625,0.17928895,298.0135,-60.22622,4.490079,STU
8510921418000,0.49424,1.42268935067424,8.55118076506912,3.16891015829771,-0.39920044,-0.03481932,0.20189096,298.1059,-60.260647,4.5183625,STU
8510926391000,0.499213,1.4238786592816,8.50646291840339,3.20934650689228,-0.39064834,-0.012217305,0.21655174,298.19077,-60.301796,4.5444436,STU
8510931393000,0.504215,1.42507490333027,8.46148430005993,3.25001865965119,-0.3680463,0.025350908,0.23640485,298.26453,-60.34799,4.572873,STU
8510936420000,0.509242,1.42627712620765,8.41628087854603,3.29089409186211,-0.3549127,0.071776666,0.24220806,298.33005,-60.393425,4.596309,STU
8510941406000,0.514228,1.42746954380594,8.37144613423166,3.33143614577174,-0.3484986,0.11026118,0.25778514,298.3838,-60.441353,4.622316,STU
8510946396000,0.519218,1.42866291801682,8.32657542141002,3.37201072439368,-0.3304781,0.13988814,0.2593123,298.42923,-60.495922,4.6404743,STU
8510951412000,0.524234,1.42986251020957,8.28147091329111,3.41279671364572,-0.32436943,0.1957823,0.26939157,298.45508,-60.54704,4.655193,STU
8510956410000,0.529232,1.43105779764564,8.23652826345493,3.4534363416923,-0.3155119,0.23915374,0.2910773,298.4749,-60.60251,4.6704936,STU
8510961413000,0.534235,1.43225428084745,8.19154065298466,3.4941166256293,-0.3023783,0.27000242,0.2919936,298.48563,-60.660484,4.6769114,STU
8510966487000,0.539309,1.43346774392281,8.14591460151031,3.53537422321,-0.29016098,0.31581733,0.29993483,298.47806,-60.718327,4.6823277,STU
8510971458000,0.54428,1.43465657422387,8.10121473909821,3.57579430944842,-0.2742785,0.3717115,0.31490102,298.45953,-60.779453,4.684085,STU
8510976408000,0.54923,1.43584038230881,8.05670371134929,3.61604364094714,-0.25289822,0.43218717,0.33108896,298.42767,-60.84399,4.681339,STU
8510981368000,0.55419,1.43702658192524,8.01210276233219,3.65637428422667,-0.24465153,0.4709771,0.3368922,298.38727,-60.907837,4.6752977,STU
8510986380000,0.559202,1.43822521750539,7.96703422272055,3.69712774876638,-0.226631,0.49388456,0.34422258,298.3341,-60.978233,4.667994,STU
8510991369000,0.564191,1.43941835256313,7.92217250202573,3.73769419621024,-0.20952678,0.52839845,0.3408628,298.2699,-61.04952,4.653072,STU
8510996367000,0.569189,1.4406136399992,7.87722985218955,3.77833382425683,-0.20250183,0.58276546,0.33475417,298.1953,-61.12131,4.634011,STU
8511001416000,0.574238,1.44182112424584,7.83182860388565,3.81938814238553,-0.19822577,0.63621616,0.33108896,298.11353,-61.195602,4.61084,STU
8511006412000,0.579234,1.44301593337562,7.7869039383031,3.86001150807596,-0.18173242,0.6789767,0.32375857,298.02325,-61.274178,4.5801916,STU
8511011350000,0.584172,1.44419687162278,7.74250081607599,3.90016326543771,-0.18112154,0.7021896,0.30543262,297.9278,-61.348507,4.54233,STU
8511016397000,0.589219,1.44540387756313,7.69711755202573,3.94120132121024,-0.1704314,0.70646566,0.29810223,297.82724,-61.428425,4.5034575,STU
8511021415000,0.594237,1.47236764606918,7.65895251223416,3.93163117717438,-0.15577064,0.6908886,0.28191432,297.731,-61.5092,4.4587007,STU
8511027186000,0.600008,1.54401353669548,7.62603411795408,3.84117478089523,-0.15424347,0.6954701,0.2666427,297.6309,-61.587807,4.4104605,STU
8511031388000,0.60421,1.59618058441887,7.60206546559489,3.77531136430105,-0.13683382,0.6914995,0.25167647,297.52267,-61.447437,4.381776,STU
8511036405000,0.609227,1.65846570541561,7.5734479670499,3.69667339165636,-0.118202426,0.70554936,0.23518312,297.4116,-61.31121,4.3463554,STU
8511041482000,0.614304,1.72149571524228,7.54448822215994,3.61709496089753,-0.10293079,0.69913524,0.21594086,297.30972,-61.182198,4.310429,STU
8511046394000,0.619216,1.78247728078661,7.51646965471863,3.5401027899526,-0.06994407,0.6918049,0.20372356,297.20657,-61.06616,4.2711306,STU
8511051412000,0.624234,1.84477481659718,7.48784645206789,3.46144914300601,-0.067500606,0.6597345,0.19394971,297.11426,-60.9487,4.2327466,STU
8511056402000,0.629224,1.90672473762044,7.45938296437813,3.38323437651269,-0.06872234,0.6365216,0.17470746,297.0253,-60.842407,4.1896257,STU
8511061396000,0.634218,1.96872431789903,7.43089666026537,3.30495691281176,-0.0580322,0.634689,0.14782938,296.94205,-60.74282,4.144424,STU
8511066515000,0.639337,2.03227574990665,7.40169734293394,3.22472016137302,-0.043982297,0.6585127,0.10934488,296.863,-60.647034,4.091967,STU
8511071491000,0.644313,2.09405186353626,7.37331371272467,3.14672483510634,-0.020463986,0.70280045,0.090713486,296.78082,-60.55902,4.0360894,STU
8511076413000,0.649235,2.15515757721892,7.34523810422587,3.06957592114238,-0.006414085,0.7825184,0.087964594,296.68756,-60.474907,3.9674747,STU
8511081420000,0.654242,2.21731855007733,7.31667764673837,2.99109469151672,0.019242255,0.8567385,0.079107046,296.58896,-60.403194,3.8887098,STU
8511086407000,0.659229,2.27923122665909,7.28823127136586,2.91292694792911,0.04795292,0.9392053,0.06658431,296.47046,-60.337822,3.7977266,STU
8511091411000,0.664233,2.341354955076,7.25968792619561,2.83449274120915,0.06352998,0.9978484,0.055588737,296.34186,-60.277287,3.6998558,STU
8511096389000,0.669211,2.40315589833327,7.23129288777485,2.75646606633866,0.073303826,1.0341948,0.040317107,296.20245,-60.22461,3.5916996,STU
8511101408000,0.67423,2.46546584895767,7.20266398101835,2.67779674509017,0.08093964,1.0451905,0.03756821,296.05655,-60.17626,3.4818404,STU
8511106400000,0.679222,2.5274405996086,7.1741890851171,2.59955062999304,0.090713486,1.0296134,0.034208454,295.91254,-60.132343,3.3694298,STU
8511111407000,0.684229,2.589601572467,7.1456286276296,2.52106940036738,0.10873401,1.0326678,0.03023783,295.76373,-60.093468,3.2547526,STU
8511116528000,0.68935,2.6531778341023,7.11641790208666,2.44080130032484,0.11056661,1.0201449,0.027183503,295.62506,-60.053215,3.1465502,STU
8511121473000,0.694295,2.7145690885031,7.08821109915563,2.36329187741713,0.09132435,0.9987647,0.016187929,295.4915,-60.012722,3.038854,STU
8511126388000,0.69921,2.77558789848894,7.06017541939708,2.28625268356649,0.05681047,0.9810496,0.0009162979,295.36304,-59.968864,2.9331393,STU
8511131457000,0.704279,2.83851858980495,7.03126130735311,2.20679964722288,-0.013439035,0.9618073,-0.0070249503,295.24252,-59.909817,2.8322084,STU
8511136422000,0.709244,2.9001581404824,7.00294042230709,2.12897673827712,-0.11453723,0.9773844,-0.014966198,295.12158,-59.833176,2.7274024,STU
8511141416000,0.714238,2.96215772076099,6.97445411819433,2.05069927457619,-0.2602286,0.98899084,-0.013133603,295.00763,-59.724728,2.6285849,STU
8511146413000,0.719235,3.02419454548107,6.94595070176433,1.97237478796955,-0.42913285,0.9990701,-0.009468411,294.89255,-59.58255,2.5284839,STU
8511151389000,0.724211,3.08597065911068,6.91756707155506,1.89437946170286,-0.5112942,0.9969321,-0.0125227375,294.7797,-59.426037,2.4294899,STU
8511157104000,0.729926,3.15692132016237,6.88496810719695,1.80480082633025,-0.68600166,0.95905846,0.021380283,294.66864,-59.19724,2.3463066,STU
8511161384000,0.734206,3.21005672336468,6.8605545345893,1.73771481418768,-0.83169305,0.85918194,0.054367006,294.57507,-58.957127,2.2736874,STU
8511166389000,0.739211,3.27219286659543,6.8320054853133,1.65926493316583,-0.88789266,0.72601336,0.10567969,294.49216,-58.696266,2.226215,STU
8511171382000,0.744204,3.33418003206018,6.80352488530629,1.5810031437668,-0.8213083,0.5858198,0.1563815,294.4309,-58.433796,2.2037897,STU
8511176382000,0.749204,3.39625410122176,6.77500435655904,1.50263163425445,-0.67164636,0.4538729,0.19853121,294.39355,-58.184025,2.2110302,STU
8511181399000,0.754221,3.4585392222185,6.74638685801404,1.42399366160977,-0.45875978,0.3277292,0.23335053,294.3817,-57.975887,2.2488775,STU
8511186385000,0.759207,3.52043948398643,6.71794618674728,1.34584159232406,-0.2098322,0.23579398,0.25381452,294.38837,-57.824738,2.3073835,STU
8511191385000,0.764207,3.58251355314801,6.68942565800003,1.26747008281171,0.060170226,0.25137106,0.2556471,294.3959,-57.743294,2.3710184,STU
8511196406000,0.769228,3.64484833340007,6.66078534303204,1.18876941295941,0.2764165,0.37934732,0.24587326,294.39606,-57.719097,2.431493,STU
8511201396000,0.774218,3.70679825442333,6.63232185534228,1.11055464646609,0.44623706,0.54367006,0.21166481,294.38632,-57.759335,2.476465,STU
8511206395000,0.779217,3.76885990877108,6.60380703070078,1.03219881125565,0.605062,0.6469063,0.17012598,294.36288,-57.85729,2.5056236,STU
8511211389000,0.784211,3.83085948904967,6.57532072658802,0.953921347554719,0.8151997,0.7067711,0.11789699,294.31754,-58.017117,2.5049176,STU
8511216530000,0.789352,3.89468404696161,6.54599591893009,0.873339761474126,1.0726794,0.7816021,0.06841691,294.25024,-58.23348,2.4770238,STU
8511221276000,0.794098,3.87220756502296,6.59192870193651,0.588907675304452,1.3078625,1.0073168,0.067500606,294.13324,-58.499138,2.4173625,STU
8511226651000,0.799473,3.73861214927131,6.74093901462368,-0.0122716150978239,1.4953982,1.4272866,0.09010262,293.95557,-58.8195,2.3130963,STU
8511231302000,0.804124,3.6230117253344,6.86987798472749,-0.532473453174286,1.5995506,2.0372355,0.15027285,293.58746,-59.38974,2.3788886,STU
8511236360000,0.809182,3.49729533224196,7.01010015432222,-1.09819714635656,1.6087136,2.7061331,0.21013765,293.09512,-59.97807,2.3889632,STU
8511241241000,0.814063,3.46855257990385,7.25659714083325,-1.52986523598831,1.6236799,3.003319,0.24587326,292.52887,-60.593765,2.386907,STU
8511246300000,0.819122,3.564455178358,7.66304132089735,-1.82213976952587,1.6459764,3.4489453,0.32803464,291.7411,-61.20395,2.3082347,STU
8511251239000,0.824061,3.69852048691939,8.08448444240783,-2.0611537992085,1.7122552,3.7146716,0.4147775,290.9448,-62.05875,2.1740892,STU
8511256313000,0.829135,3.93131198187877,8.57537111416372,-2.19779236004999,1.7794504,3.8319576,0.50426924,290.05502,-62.910847,2.040151,STU
8511261253000,0.834075,4.07916691977156,9.0486075838913,-2.31176721002363,1.8585575,3.8658607,0.5699373,289.10837,-63.867943,1.9254955,STU
8511266333000,0.839155,4.10311834946829,9.52763667802284,-2.39799240695156,1.9489655,3.8411207,0.6236934,288.12912,-64.83461,1.8455613,STU
8511271253000,0.844075,4.02028005225225,10.0448912744745,-2.53592692432432,2.046704,3.813021,0.6441574,287.1282,-65.8693,1.8249662,STU
8511276314000,0.849136,3.73888313288288,10.675608393994,-2.77851068513514,2.1606305,3.8108828,0.65270954,286.1154,-66.91631,1.8382745,STU
8511281340000,0.854162,3.37423335823491,11.3136461077374,-3.05441009960011,2.3115141,3.8344011,0.65484756,285.09662,-68.03692,1.8748167,STU
8511286372000,0.859194,2.86333252170557,11.972439637729,-3.39052898110295,2.4666739,3.8579195,0.63071835,284.07507,-69.16817,1.9306022,STU
8511291361000,0.864183,2.31987219236842,12.6410537937135,-3.70851205678363,2.6325238,3.8631117,0.6093381,283.0557,-70.42195,1.9454308,STU
8511296951000,0.869773,1.56851293710526,13.4498082922515,-4.00592522812866,2.7889054,3.8224893,0.58001655,282.0407,-71.68688,1.9802285,STU
8511301340000,0.874162,1.00097625701799,14.0594822306533,-4.21108201386402,2.9251282,3.7720928,0.5513059,281.03522,-73.09618,1.9186478,STU
8511306368000,0.87919,0.458885345244216,14.6357210711816,-4.30925588667671,2.9956832,3.6990945,0.5170974,280.04602,-74.49188,1.884292,STU
8511311346000,0.884168,-0.0778148454498715,15.2062296129776,-4.40645348788228,3.037833,3.62182,0.49388456,279.07874,-75.99292,1.7422177,STU
8511316409000,0.889231,-0.670362935179214,15.7340887630461,-4.41973860474997,3.0213394,3.5283577,0.4914411,278.13635,-77.44825,1.6389838,STU
8511321435000,0.894257,-1.24457631342222,16.2165898444444,-4.4280940848,2.9599476,3.4348953,0.51159966,277.21704,-78.854645,1.5740339,STU
8511326369000,0.899191,-1.63659257888395,16.3472616567901,-4.46542889528889,2.8756483,3.338684,0.5739079,276.32813,-80.263695,1.4489194,STU
8511331487000,0.904309,-2.03361698977854,16.4434159556068,-4.49528324611685,2.7864618,3.223536,0.6591236,275.47128,-81.634766,1.2894657,STU
8511336372000,0.909194,-2.30552757410562,16.0964957777332,-4.42496156859405,2.685669,3.1496212,0.75228053,274.63882,-82.92037,1.1888131,STU
8511341425000,0.914247,-2.5713759302426,15.7423395109355,-4.34786314952215,2.5809057,2.9798007,0.8011498,273.87134,-84.153824,1.0687951,STU
8511346344000,0.919166,-2.63631120534828,15.4566243547142,-4.21799273492005,2.5347853,2.7834074,0.8206975,273.1456,-85.32058,1.0002465,STU
8511351331000,0.924153,-2.70214414231759,15.1669594870428,-4.08632699846536,2.4581218,2.6193902,0.8546005,272.46423,-86.40002,0.9304321,STU
8511356364000,0.929186,-2.54305822278831,14.8805872987757,-3.91132360738547,2.3945918,2.5103507,0.8857546,271.8397,-87.41401,0.89243096,STU
8511361334000,0.934156,-2.35507744366114,14.5986165962678,-3.73274195799763,2.307849,2.4199426,0.90010995,271.2726,-88.3147,0.88196236,STU
8511366767000,0.939589,-2.01395699452682,14.3419755961787,-3.37511961531496,2.21683,2.3362541,0.91354895,270.7394,-88.979744,0.8846829,STU
8511371314000,0.944136,-1.71062318113245,14.1339748933725,-3.05445240624938,2.1035144,2.2079725,0.93034774,270.261,-90.977875,0.9077087,STU
8511376366000,0.949188,-1.38767851862372,14.1693571608457,-2.55170307869387,1.9779817,1.9620992,0.94959,269.83145,-91.52119,0.9744946,STU
8511381350000,0.954172,-1.07172100117275,14.2542415032851,-2.02825108628168,1.8228219,1.5503759,0.9602802,269.50076,-92.18152,1.0494915,STU
8511386369000,0.959191,-0.753544680930692,14.3397219436348,-1.50112316695648,1.5995506,1.0494665,0.9049969,269.24518,-92.79835,1.1601973,STU
8511391360000,0.964182,-0.437143402921504,14.4247255056563,-0.976935989161685,1.3066407,0.57635134,0.8023715,269.10938,-93.348114,1.2566506,STU
8511396348000,0.96917,-0.29004070516206,14.5594203374428,-0.712166681177173,1.0341948,0.14569137,0.6747007,269.11148,-93.828316,1.3232415,STU
8511401353000,0.974175,-0.185198574649036,14.7071524317956,-0.512013516591768,0.81489426,-0.23487769,0.5366451,269.2381,-94.226845,1.3497036,STU
8511406363000,0.979185,-0.140587002335165,14.3165503489011,-0.295216901127747,0.66553766,-0.5360342,0.38912117,269.39508,-94.45318,1.4267366,STU
8511411385000,0.984207,-0.112273782311617,13.7785991487441,-0.0734300145567112,0.5882632,-0.9663888,0.28893927,269.69632,-94.62764,1.4648304,STU
8511416362000,0.989184,0.164560917970724,12.7760540629637,-0.00835738200601564,0.5357288,-1.187522,0.2593123,269.9949,-94.743965,1.4961861,STU
8511421399000,0.994221,0.527291842297975,11.6056424207941,0.006151855068077,0.5656612,-1.2247849,0.23426682,270.36008,-94.852135,1.4940751,STU
8511427176000,0.999998,0.829989933333333,10.8356247777778,-0.360726378333333,0.6765333,-1.2501358,0.23487769,270.75778,-94.95298,1.4945227,STU
8511431376000,1.004198,1.02870659244406,10.3836412264845,-0.69971360117553,0.75747293,-1.2647965,0.22113322,271.15955,-95.050026,1.4824921,STU
8511436379000,1.009201,1.24484917190232,9.88803081579741,-1.00383528820018,0.7816021,-1.1960741,0.20066923,271.51392,-95.19694,1.5264256,STU
8511441372000,1.014194,1.45147467504773,9.4123119655311,-1.26331857294744,0.8011498,-0.88117313,0.18936823,271.79968,-95.361984,1.5729202,STU
8511446347000,1.019169,1.56228884854566,9.06144692387702,-1.43291562780744,0.80878556,-0.4642576,0.1554652,272.02893,-95.60472,1.6476498,STU
8511451363000,1.024185,1.63303596415685,8.76077179795655,-1.56556634260862,0.8051204,-0.05681047,0.09743301,272.1689,-95.84353,1.7187487,STU
8511456367000,1.029189,1.69853955209371,8.42875637577653,-1.55030052210325,0.8051204,0.35216382,0.051618114,272.19568,-96.13178,1.8249592,STU
8511461365000,1.034187,1.75942990050885,8.06848852955581,-1.40314892182763,0.8436049,0.7635816,0.04337143,272.10547,-96.424324,1.9366094,STU
8511466381000,1.039203,1.79347871072805,7.87516152550627,-1.31375193598736,0.91874135,1.1071932,0.039095376,271.90097,-96.75804,2.0628555,STU
8511471378000,1.0442,1.812388231463,7.77588659101057,-1.25702332441964,0.9950995,1.3289373,0.04520403,271.61615,-97.098785,2.1992393,STU
8511476366000,1.049188,1.70891361354694,7.66058410680157,-1.14686434794829,1.0454959,1.4996742,0.06841691,271.23685,-97.4431,2.3632288,STU
8511481387000,1.054209,1.52871818368934,7.53444712244707,-1.00270799935825,1.1023064,1.6584991,0.100792766,270.8015,-97.80684,2.539925,STU
8511486371000,1.059193,1.27205947546729,7.3336409567757,-0.952444748247664,1.1175779,1.7617353,0.14294247,270.32733,-98.169426,2.7357755,STU
8511491369000,1.064191,0.931695624695246,7.05162535427672,-1.00106814462109,1.1160508,1.8600847,0.16890424,269.8138,-98.539375,2.9430528,STU
8511496341000,1.069163,0.549772258829876,6.82309729087137,-1.04875966950207,1.078788,1.9770653,0.17623462,269.25958,-98.874695,3.1352417,STU
8511501382000,1.074204,0.12051902477297,6.64185695587829,-1.09645449187908,1.0525209,2.0796907,0.15607607,268.68597,-99.20674,3.3310113,STU
8511506370000,1.079192,-0.25418913039193,6.51150442455195,-1.22839640246793,1.0601566,2.1716259,0.13164146,268.08258,-99.5338,3.4816418,STU
8511511351000,1.084173,-0.576531994647733,6.43208662103614,-1.44796328248947,1.0595458,2.2849414,0.100792766,267.44925,-99.84269,3.630675,STU
8511516381000,1.089203,-0.909589525848433,6.39635096410051,-1.62447722998298,1.0699304,2.424524,0.07544186,266.78452,-100.14307,3.7148304,STU
8511521465000,1.094287,-1.25565845939533,6.41584784198619,-1.74633250046051,1.1218541,2.5427265,0.04886922,266.09973,-100.44545,3.795617,STU
8511526346000,1.099168,-1.61897343370046,6.39195281990963,-1.85412587520474,1.1603385,2.6251934,-0.0012217305,265.39783,-100.761406,3.817092,STU
8511531349000,1.104171,-2.02940937156171,6.31527806546173,-1.95335213606326,1.2104294,2.6166413,-0.1001819,264.69138,-101.08321,3.8210368,STU
8511536341000,1.109163,-2.37592867202473,6.23665500819165,-2.06500076564915,1.2800682,2.5802948,-0.15943582,263.98373,-101.41937,3.7702503,STU
8511541369000,1.114191,-2.58989707712519,6.15292812272025,-2.20454529953632,1.3249667,2.503631,-0.25595254,263.28888,-101.74931,3.6821012,STU
8511546315000,1.119137,-2.75221854190296,6.10677420289855,-2.28351011871456,1.4056009,2.4394903,-0.3200934,262.6043,-102.1131,3.5170393,STU
8511552191000,1.125013,-2.76994805440034,6.18360219323671,-2.16531384183995,1.4553864,2.3845124,-0.3539964,261.94022,-102.4801,3.3345907,STU
8511556299000,1.129121,-2.75465661833517,6.25250503183051,-1.99046326635204,1.4947872,2.3463335,-0.35246924,261.29834,-102.89243,3.1097333,STU
8511561361000,1.134183,-2.68650829334271,6.36446270750075,-1.6107797196104,1.4966198,2.2791383,-0.3408628,260.68338,-103.313095,2.8791614,STU
8511566368000,1.13919,-2.6050100099835,6.47238835371287,-1.20682781320132,1.509448,2.165212,-0.3155119,260.08838,-103.7351,2.6517909,STU
8511571362000,1.144184,-2.49846569828383,6.57498674613861,-0.753027812937294,1.5005904,1.9639318,-0.28405234,259.54227,-104.156204,2.424479,STU
8511576337000,1.149159,-2.39232674139439,6.67719479626238,-0.300954324488449,1.4825699,1.6618589,-0.24648413,259.03906,-104.509186,2.2108812,STU
8511581360000,1.154182,-2.2591910817055,6.81373417699554,0.0933940488349033,1.4706581,1.3295482,-0.19272798,258.6077,-104.86395,1.9979995,STU
8511586375000,1.159197,-2.12425948577095,6.95263405432986,0.482314343538258,1.4477507,1.0015136,-0.14080444,258.2652,-105.211975,1.7770338,STU
8511591369000,1.164191,-1.99175979905301,7.10386612031631,0.708807129829152,1.4156802,0.70249504,-0.06536258,257.98535,-105.44342,1.588967,STU
8511596341000,1.169163,-1.86159829500146,7.26656823094796,0.783185133531192,1.3826935,0.44532076,-0.009773844,257.78973,-105.6675,1.3906296,STU
8511601427000,1.174249,-1.71717452440022,7.44586993760086,0.656578436862829,1.325883,0.27366763,0.043066,257.63278,-105.77453,1.2358253,STU
8511606368000,1.17919,-1.5644504204411,7.63422968176439,0.31040392880043,1.2629639,0.19822577,0.09896017,257.52618,-105.869675,1.0867736,STU
8511611343000,1.184165,-1.37629608221305,7.83659202919615,-0.045377840711478,1.2208142,0.27550024,0.15118915,257.41098,-105.93288,0.98259974,STU
8511616427000,1.189249,-1.16098738323506,8.05190057829206,-0.413795036670597,1.1695015,0.4251622,0.19242255,257.30054,-105.974266,0.8921305,STU
8511621722000,1.194544,-0.832150162424242,8.2790080017058,-0.537287115753562,1.1233811,0.59712076,0.2489276,257.16293,-106.06696,0.8571234,STU
8511626301000,1.199123,-0.488936073939394,8.47701621096729,-0.497685496874373,1.0589349,0.7583892,0.2855795,256.9894,-106.13712,0.8394243,STU
8511631405000,1.204227,-0.0246113848568916,8.76005093572336,-0.317394862137345,1.0012082,0.8753699,0.31703907,256.78342,-106.26213,0.8891623,STU
8511636406000,1.209228,0.490021529936505,9.08286580326267,-0.0413644741711439,0.95722586,0.91446525,0.33017266,256.55737,-106.36944,0.94945514,STU
8511641399000,1.214221,1.05244617342024,9.45952285411484,0.0682994332936611,0.9275989,1.0002918,0.36835176,256.2665,-106.44603,1.1165744,STU
8511646411000,1.219233,1.65906051852921,9.88463062921684,0.0348639987477361,0.90408057,1.0360274,0.43188173,255.98383,-106.51093,1.289541,STU
8511651383000,1.224205,2.29341208354927,10.3771172709069,-0.16288655870691,0.9221011,1.0671816,0.48716503,255.64175,-106.51105,1.5771905,STU
8511656406000,1.229228,2.96388811880644,10.938995138987,-0.512289610868473,0.9630291,1.0552697,0.5354234,255.30786,-106.51593,1.8722026,STU
8511661363000,1.234185,3.20075432840743,11.295839135519,-0.680552374073353,0.9896017,0.9950995,0.54153204,254.95314,-106.52403,2.2767613,STU
8511666459000,1.239281,2.98235218243993,11.4477717227357,-0.661560887430684,0.9993755,0.89827734,0.52503866,254.61578,-106.54824,2.6735768,STU
8511671397000,1.244219,2.6648920805069,11.6180187850814,-0.642682109701216,0.9596693,0.7666359,0.48624873,254.29504,-106.63299,3.1694164,STU
8511676362000,1.249184,2.20929317349062,11.8188736501133,-0.623086442495364,0.8979719,0.65026605,0.45875978,253.99966,-106.72551,3.6425426,STU
8511681340000,1.254162,1.75851001229126,12.019118311068,-0.63970465996699,0.81031275,0.5626069,0.4437936,253.72511,-106.79101,4.0456667,STU
8511686377000,1.259199,1.30890964182524,12.2205024613592,-0.695904698939806,0.7104363,0.50610185,0.45204028,253.4766,-106.84391,4.428814,STU
8511691640000,1.264462,0.882834197190238,12.3863177925532,-0.756615665394243,0.64904433,0.48197266,0.44715336,253.23972,-106.85775,4.705215,STU
8511696375000,1.269197,0.546365998812802,12.487663343465,-0.813369334757733,0.6017023,0.47891834,0.47739118,253.01837,-106.85757,4.9819827,STU
8511701414000,1.274236,0.222798655670968,12.6091287860665,-0.86787512026545,0.5653558,0.4999932,0.47494772,252.79184,-106.82849,5.155381,STU
8511706481000,1.279303,0.0395099758881544,12.7873257289372,-0.898423239764977,0.5329799,0.5384777,0.45142943,252.56384,-106.79273,5.326767,STU
8511711373000,1.284195,-0.0654769117250606,13.0131067960851,-0.94496176374248,0.48991394,0.5684101,0.40744713,252.32635,-106.73773,5.418091,STU
8511716438000,1.28926,0.00856555405656819,13.3833193205531,-1.03642599035198,0.44348818,0.6261369,0.3680463,252.0705,-106.674515,5.506503,STU
8511721511000,1.294333,0.0838114068254095,13.7435555221734,-1.12328521727926,0.42271876,0.68569624,0.35735616,251.79617,-106.600784,5.559542,STU
8511726380000,1.299202,0.167643854928086,13.9764232768678,-1.15588675156812,0.40530908,0.7669413,0.32345316,251.49649,-106.51297,5.600138,STU
8511731572000,1.304394,0.248573891679122,14.2197502822817,-1.17483172651783,0.3830125,0.8362745,0.2950479,251.17197,-106.42571,5.6516566,STU
8511736430000,1.309252,0.244172790002838,14.4001961908996,-1.04279842806735,0.3491095,0.8564331,0.28160888,250.83932,-106.33283,5.698906,STU
8511741766000,1.314588,0.240787933239884,14.5995371869876,-0.896268572139646,0.31337386,0.84391034,0.23396139,250.4871,-106.230644,5.741526,STU
8511746370000,1.319192,0.310756110089042,14.8288771079961,-0.694138246483294,0.18845193,0.8258898,0.22327125,250.1353,-106.10238,5.789914,STU
8511751542000,1.324364,0.389356329607688,15.0865109202151,-0.467070904108261,0.14538592,0.7492262,0.18570304,249.78412,-105.95332,5.8080516,STU
8511756271000,1.329093,0.273634459972959,15.1502156420196,-0.385777286671596,0.037873644,0.6218608,0.15485434,249.45462,-105.75986,5.8186884,STU
8511761327000,1.334149,0.0588194167820851,15.134871400338,-0.360204073919932,-0.0720821,0.54641896,0.094989546,249.12994,-105.55369,5.808222,STU
8511766373000,1.339195,-0.0867363871953428,15.0461540853816,-0.302480905679172,-0.17715092,0.5235115,0.034513887,248.80704,-105.27889,5.7942405,STU
8511771302000,1.344124,-0.208868554468007,14.9381143685939,-0.2367174264285,-0.28099802,0.54336464,-0.004276057,248.49371,-104.98102,5.7667785,STU
8511776290000,1.349112,-0.305652949154711,14.6775307127763,0.0237489291004265,-0.3933972,0.5873469,-0.044593163,248.17458,-104.64493,5.6911125,STU
8511781338000,1.35416,-0.394692368247383,14.3635501040132,0.351788912721985,-0.52503866,0.6188065,-0.089491755,247.85318,-104.28165,5.604679,STU
8511786278000,1.3591,-0.485864986885212,14.0488345707342,0.752173531498449,-0.6743952,0.61361414,-0.13988814,247.52303,-103.87899,5.4913235,STU
8511791295000,1.364117,-0.580269331123061,13.7258720701138,1.19438336188004,-0.82894415,0.57604593,-0.21563543,247.19131,-103.442795,5.359345,STU
8511796282000,1.369104,-0.586586107493953,13.6100939493023,1.55038617391628,-0.9789116,0.5183192,-0.28985557,246.85678,-102.93203,5.204395,STU
8511801293000,1.374115,-0.56426546336,13.56098848,1.8807316176,-1.1065824,0.42852196,-0.37201694,246.53992,-102.38851,5.022894,STU
8511806289000,1.379111,-0.539536235166147,13.6742595915183,2.14909025828897,-1.2525792,0.34391713,-0.43890667,246.22253,-101.75062,4.81633,STU
8511811274000,1.384096,-0.51324264812282,13.8933726262163,2.37696795165229,-1.3997977,0.26389378,-0.5027421,245.9288,-101.0827,4.5843024,STU
8511816354000,1.389176,-0.517169462354219,14.1666582363366,2.51631411243997,-1.570229,0.20647246,-0.56138515,245.64238,-100.3292,4.3381753,STU
8511821287000,1.394109,-0.560382254699291,14.4961556757375,2.53251889899383,-1.7519615,0.1826487,-0.61391956,245.37186,-99.542786,4.0753174,STU
8511826747000,1.399569,-0.647891112906443,14.813485775783,2.32899796247756,-1.9352211,0.1957823,-0.66706485,245.0996,-98.68277,3.8000865,STU
8511831329000,1.404151,-0.735425364871335,15.0629584464393,2.07952533752244,-2.1108449,0.22357668,-0.6957755,244.83588,-97.79372,3.518804,STU
8511836288000,1.40911,-0.775750946315107,15.2689873496308,1.64614434119936,-2.1881194,0.32986724,-0.7486154,244.54315,-96.88566,3.2147987,STU
8511841285000,1.414107,-0.790076046952704,15.4456633598084,1.13044162570345,-2.3499987,0.49327368,-0.8194757,244.23224,-95.9283,2.902095,STU
8511846267000,1.419089,-0.684333410121678,15.5785443791715,0.575036837289076,-2.5057693,0.70280045,-0.874759,243.88477,-94.99937,2.5696938,STU
8511851351000,1.424173,-0.514444265496108,15.6918038180191,-0.0130409734794668,-2.6505444,0.93431836,-0.93523467,243.4888,-94.04759,2.2216845,STU
8511856340000,1.429162,-0.250774242312749,15.8516607527751,-0.662750325638539,-2.7754662,1.1801916,-0.99204516,243.02869,-93.149414,1.8651605,STU
8511861342000,1.434164,0.136416092964759,16.0736500410605,-1.40615574867119,-2.9019153,1.4187346,-1.0247264,242.50879,-92.24526,1.5019184,STU
8511866346000,1.439168,0.616548883446227,16.2935168342246,-2.03113655041592,-2.9996538,1.6417004,-1.0280862,241.92628,-91.462746,1.1620538,STU
8511871349000,1.444171,1.16219825936621,16.5117760534759,-2.57204116199247,-3.0503557,1.8500054,-0.9987647,241.28384,-90.82846,0.8220466,STU
8511876835000,1.449657,1.81718313931558,16.7713236877824,-2.87328404463136,-3.0836477,2.0189097,-0.9776898,240.59967,-89.209854,0.52812797,STU
8511881375000,1.454197,2.38976629840431,16.9970140136499,-2.96523167877535,-3.116329,2.1218405,-0.93737274,239.87968,-88.69971,0.24432,STU
8511886371000,1.459193,3.03528501337806,17.2691248573752,-2.85416970570296,-3.1230485,2.137723,-0.8512407,239.15207,-88.12033,0.05522038,STU
8511891371000,1.464193,3.69729868624581,17.5660573571211,-2.52316299634035,-3.1038063,2.058005,-0.7330383,238.42796,-87.5268,-0.11878218,STU
8511896315000,1.469137,4.32930369805455,17.7962657939193,-2.11841051911233,-3.066849,1.8909334,-0.59528816,237.75943,-86.95582,-0.17554809,STU
8511901337000,1.474159,4.94994154646593,17.970232017597,-1.63412490481963,-3.019507,1.7012597,-0.4474588,237.1253,-86.40443,-0.20233962,STU
8511906363000,1.479185,5.50432122346603,17.8844068164222,-1.18568467762147,-3.003319,1.4627168,-0.28955013,236.60138,-85.81994,-0.10653223,STU
8511911362000,1.484184,5.98196721960491,17.5118434112541,-0.779685628284945,-3.0137036,1.2299771,-0.16523905,236.1334,-85.247086,0.014963237,STU
8511916355000,1.489177,6.35802920448566,16.9953983215671,-0.594848667758115,-3.0534098,1.0781772,-0.06872234,235.74908,-84.60528,0.25164545,STU
8511921376000,1.494198,6.6219581858995,16.3128229026687,-0.658555687848964,-3.1117475,1.0451905,-0.034208454,235.39954,-83.95603,0.4950634,STU
8511926343000,1.499165,6.88985554351579,15.7216066044481,-0.773170328628009,-3.1395419,1.0784826,-0.006414085,235.11137,-83.23989,0.8201442,STU
8511931351000,1.504173,7.17234956606073,15.2783833470092,-0.982605478582309,-3.1398473,1.1191051,0.010079277,234.83209,-82.51807,1.1386111,STU
8511936318000,1.50914,7.40421303516217,14.9572417708397,-1.16971161597454,-3.1202996,1.1212431,0.04428773,234.57327,-81.78418,1.5037006,STU
8511941367000,1.514189,7.56055399120946,14.8253290572901,-1.32605252100637,-3.0573804,1.1267409,0.070554934,234.30394,-81.06755,1.857862,STU
8511946631000,1.519453,7.63625324678641,14.2193020541469,-1.6516020657246,-2.96178,1.208597,0.12767084,234.02618,-80.37238,2.2591271,STU
8511951410000,1.524232,7.60401666596232,13.1272955050185,-2.13514720162,-2.8347201,1.3381003,0.1966986,233.73366,-79.70528,2.657331,STU
8511956327000,1.529149,7.50195350881732,12.0215544390708,-2.5830931294509,-2.6505444,1.4162911,0.19914207,233.43936,-79.09322,3.0645528,STU
8511961388000,1.53421,6.93384663917635,11.0030567807814,-2.71104520318902,-2.5008824,1.4639386,0.1133155,233.12027,-78.51242,3.4500198,STU
8511966517000,1.539339,6.41246957052102,10.1762700600548,-2.67860127054845,-2.3655756,1.5213599,-0.09285152,232.78317,-78.0264,3.8016338,STU
8511971415000,1.544237,6.05659248633455,9.92329731435101,-2.22410743351006,-2.2299635,1.5531249,-0.38637227,232.45383,-77.60087,4.097643,STU
8511976459000,1.549281,5.64536317772016,9.68000301476015,-1.77868534814002,-2.1502457,1.3909402,-0.66156703,232.1441,-77.23616,4.2856574,STU
8511981405000,1.554227,4.69585222573053,9.65165933210332,-1.61807155747482,-2.1126773,0.99082345,-0.84238315,231.90785,-76.922386,4.43031,STU
8511986487000,1.559309,3.69903877925471,9.6457871928544,-1.45210950664618,-1.9905044,0.31703907,-1.0118983,231.79327,-76.634384,4.480076,STU
8511991380000,1.564202,2.48390099918363,9.92031823444103,-1.28109013382635,-1.706452,-0.33292156,-1.248914,231.80136,-76.43057,4.4867563,STU
8511996722000,1.569544,1.15616724506579,10.2325192012218,-1.08306306055545,-1.4532484,-0.6918049,-1.5470163,231.82727,-76.32886,4.3058248,STU
8512001409000,1.574231,-0.0334935703947369,10.7893819355263,-0.652760202381579,-1.4318681,-0.69058317,-1.8903224,231.951,-76.26714,4.0688367,STU
8512006355000,1.579177,-1.28889412368421,11.3770164744361,-0.198679140609023,-1.6820174,-0.4098906,-2.287385,232.01755,-76.2712,3.545443,STU
8512011379000,1.584201,-1.56638089686674,12.3532351087203,0.923382735617214,-2.218968,-0.20341812,-2.6688702,232.12302,-76.20138,2.943703,STU
8512016374000,1.589196,-1.65215734109098,13.3960955079275,2.16488338124292,-2.839607,-0.33505958,-2.8270843,232.25302,-76.01725,2.3079624,STU
8512021397000,1.594219,-1.22765656887161,13.8981118236601,2.95740797827455,-3.3475416,-1.1869112,-2.715296,232.47418,-75.65092,1.4803997,STU
8512027163000,1.599985,-0.517153769782468,14.2354732621494,3.66791085208738,-3.7595701,-2.3426683,-2.332589,232.80731,-75.08167,0.7342277,STU
8512031390000,1.604212,-0.194727399226508,13.5275059442877,3.18070012568203,-4.0973787,-2.7791314,-2.094657,233.13672,-74.23349,0.0020866226,STU
8512036417000,1.609239,0.0719767097439114,12.1235347819588,2.00820841514581,-4.2189407,-3.2849278,-1.6679676,233.75711,-73.32071,-0.45952982,STU
8512041412000,1.614234,0.186974574826559,10.5306085608725,0.811331363279523,-4.367381,-3.4901786,-1.4349225,234.46219,-72.23083,-0.75053465,STU
8512046401000,1.619223,0.223702694451811,8.83652402757759,-0.40069647409436,-4.3655486,-3.5417967,-1.3799446,235.23007,-71.17503,-0.92816424,STU
8512051405000,1.624227,0.430016763204836,7.37911957149936,-1.18348585384997,-4.2711697,-3.412904,-1.4004086,235.98602,-70.21301,-1.0076687,STU
8512056407000,1.629229,0.762315163062135,6.10214431414131,-1.64395648614607,-4.0732493,-3.222925,-1.4019357,236.71866,-69.30497,-1.0581453,STU
8512061383000,1.634205,1.04980244544597,5.10241329681729,-1.85869449009823,-3.8588357,-3.0815098,-1.3435981,237.50768,-68.48448,-1.080998,STU
8512066539000,1.639361,1.31172908904519,4.29238118302554,-1.87809644719057,-3.6884043,-3.0063734,-1.2495248,238.25089,-67.72525,-1.0973061,STU
8512071436000,1.644258,1.445729880554,3.64958687742958,-1.9148093321302,-3.5729508,-2.8872545,-1.1588113,238.96982,-67.01506,-1.0430479,STU
8512076410000,1.649232,1.48127171306659,3.10757276024995,-1.96812219687558,-3.4938438,-2.6957483,-1.1023064,239.63672,-66.35924,-0.9808341,STU
8512081338000,1.65416,1.481608101172,2.71464994206525,-1.91557975562243,-3.4498615,-2.509129,-1.0354166,240.23102,-65.71761,-0.8419893,STU
8512086441000,1.659263,1.41968803731391,2.56500973386126,-1.67305934387076,-3.4223726,-2.4040601,-0.9468411,240.78128,-65.109024,-0.68796176,STU
8512091365000,1.664187,1.29031113177142,2.45576944749906,-1.50227978262552,-3.363424,-2.3417518,-0.85154617,241.20297,-64.539955,-0.5125186,STU
8512096354000,1.669176,1.08289136154209,2.38362354486599,-1.39856993282371,-3.2830954,-2.2763894,-0.7480045,241.57983,-63.998646,-0.31950763,STU
8512101307000,1.674129,0.894545106321442,2.26175872593388,-1.34035769316399,-3.1560352,-2.200642,-0.67347896,241.94055,-63.447334,-0.109597266,STU
8512106367000,1.679189,0.736153964875794,2.04001103056593,-1.36751044325738,-3.0534098,-2.0744984,-0.58459806,242.25177,-62.92462,0.119784534,STU
8512111351000,1.684173,0.614856769486981,1.83059579008808,-1.3750490763624,-2.9324586,-1.9407189,-0.49266282,242.58078,-62.395958,0.3332758,STU
8512116455000,1.689277,0.624319543987029,1.65080283250411,-1.30880957087407,-2.7898216,-1.8445076,-0.39950588,242.87021,-61.91357,0.5607076,STU
8512121375000,1.694197,0.650294527507418,1.46220119673591,-1.25315975499505,-2.6572638,-1.781894,-0.3051272,243.14694,-61.43478,0.77608174,STU
8512126371000,1.699193,0.773339914462908,1.18298283632047,-1.24369473169139,-2.519819,-1.7553213,-0.25411993,243.39725,-61.00719,0.9976866,STU
8512131361000,1.704183,0.906428230344828,0.858213969172414,-1.25231612206897,-2.4492643,-1.7223345,-0.16279559,243.548,-60.60705,1.2604558,STU
8512136401000,1.709223,1.11393575134796,0.201106944219436,-1.39065448445141,-2.3139575,-1.6826283,-0.11636983,243.68726,-60.272434,1.5200559,STU
8512141306000,1.714128,1.31588503518137,-0.438398999708016,-1.52528735498433,-2.1664336,-1.6737708,-0.08002335,244.02197,-59.839172,1.8472799,STU
8512146356000,1.719178,1.51721796021314,-0.59277541268206,-1.40741644174067,-1.9740111,-1.6762142,-0.027488936,244.33691,-59.462578,2.1882927,STU
8512151315000,1.724137,1.71404426198934,-0.677129578365897,-1.25745347291297,-1.781894,-1.6050484,0.076052725,244.61557,-59.13194,2.5407917,STU
8512156336000,1.729158,1.77084030948,-0.713411358216326,-0.972714068440012,-1.6224581,-1.5421293,0.118202426,245.04675,-58.73532,2.9684937,STU
8512161334000,1.734156,1.80328481655854,-0.741220894228721,-0.666808949675608,-1.4563028,-1.4581354,0.10781772,245.44705,-58.39497,3.4009461,STU
8512166346000,1.739168,1.73246950519454,-0.560878185343247,-0.223358686913832,-1.2950343,-1.3921618,0.084910266,245.85956,-58.054222,3.893796,STU
8512171306000,1.744128,1.63570646261968,-0.328646974098594,0.250780070144632,-1.1340714,-1.3203852,0.0711658,246.24985,-57.7597,4.3788605,STU
8512176330000,1.749152,1.30398740006939,0.145123542535686,1.05852199604282,-0.9443977,-1.2379184,0.04795292,246.62445,-57.46019,4.8543396,STU
8512181342000,1.754164,0.923345426040841,0.668506263035289,1.93399864064235,-0.7797695,-1.1426234,-0.00061086525,246.98343,-57.19935,5.312403,STU
8512186358000,1.75918,0.260818503789704,1.38879424698795,3.02351230372399,-0.61361414,-1.0567969,-0.035124753,247.30704,-56.93669,5.7206473,STU
8512191339000,1.764161,-0.461148575951409,2.14875954709748,4.1539606938365,-0.47647488,-1.0005972,-0.10873401,247.62659,-56.715538,6.1005297,STU
8512196348000,1.76917,-1.16686187005094,2.85824919833734,4.5953366235752,-0.36285394,-0.82924956,-0.21868975,247.81345,-56.47263,6.2930527,STU
8512206295000,1.779117,-2.29256525328303,4.25346518384992,4.28280699942904,-0.19425514,-0.15760323,-0.5164866,247.90137,-56.05362,6.2506843,STU
8512211266000,1.784088,-2.61777148932504,4.96212340220228,3.36543429098695,-0.049785517,0.40103304,-0.61941737,247.73796,-55.88392,5.9798026,STU
8512216309000,1.789131,-2.43864297334644,5.23257932704689,2.93697507954663,0.14019357,0.9068295,-0.68111473,247.37097,-55.8409,5.4555807,STU
8512221287000,1.794109,-2.09321970277404,5.35101028044716,2.68037497249767,0.3659083,1.074512,-0.7464773,246.97812,-55.839138,4.8940706,STU
8512226757000,1.799579,-1.23246308324386,5.11383623910984,2.79318591760584,0.464563,1.1136073,-0.8347474,246.66254,-56.03104,4.163487,STU
8512231305000,1.804127,-0.437265848659824,4.85593447769663,2.95222529899339,0.71776664,1.0381655,-0.8872818,246.34433,-56.313705,3.4396005,STU
8512236429000,1.809251,0.552543453748622,4.5892948222612,3.30689812644081,0.7849618,0.8744536,-0.9837985,246.11888,-56.606384,2.8184736,STU
8512241283000,1.814105,1.51235891061742,4.34235203607297,3.6843012726972,0.9117164,0.70952,-1.0677924,245.92099,-56.972923,2.2181492,STU
8512246282000,1.819104,2.3721332134397,4.28325868298452,3.91027887348663,1.0656544,0.5412266,-1.1154399,245.82358,-57.28499,1.9505256,STU
8512251362000,1.824184,3.21226766599718,4.27412679297982,4.09748271393712,1.2562444,0.410196,-1.1239921,245.76608,-57.63529,1.7009362,STU
8512256370000,1.829192,4.04508048793154,4.47367444257893,4.42943834697551,1.4822645,0.32406402,-1.0680978,245.79639,-57.937313,1.7461128,STU
8512261342000,1.834164,4.87403822712698,4.76872706541753,4.82752536344054,1.6759088,0.2779437,-0.92271197,245.83438,-58.2782,1.8208115,STU
8512266450000,1.839272,5.62423646524097,5.2100936421058,5.3905506862069,1.8090774,0.23426682,-0.7464773,245.98483,-58.620293,2.0824573,STU
8512271531000,1.844353,6.31631706809577,5.72293062310447,6.03284164827586,1.8988746,0.17165314,-0.5348125,246.11745,-58.99384,2.3879328,STU
8512276367000,1.849189,6.68024207379913,6.14219076624187,6.52247388427056,1.9459113,0.11789699,-0.33628133,246.28452,-59.343956,2.9118578,STU
8512281395000,1.854217,6.93771739082969,6.54986002940914,6.98163827357633,1.9446895,0.04642576,-0.1695151,246.43257,-59.685738,3.4707108,STU
8512286372000,1.859194,7.09842956139165,6.96132752096194,7.28458895182681,1.9373591,-0.007330383,-0.021380283,246.58781,-59.949608,4.200406,STU
8512291362000,1.864184,7.14533724848948,7.38349441909696,7.40446340236667,1.9636264,-0.062002823,0.11575896,246.71997,-60.195026,4.9443693,STU
8512296345000,1.869167,7.02400822436472,7.86642330463378,7.36873012182362,2.0528126,-0.08979719,0.22204952,246.82974,-60.380226,5.738359,STU
8512301423000,1.874245,6.79230208258595,8.39798439760837,7.23243255042975,2.1981986,-0.015271631,0.31612277,246.8898,-60.560547,6.5157123,STU
8512306987000,1.879809,6.42008277049857,9.66860584248968,8.07399321076532,2.3402247,0.23945917,0.38606682,246.89026,-60.75608,7.2577577,STU
8512311349000,1.884171,6.0486400704033,11.127844675135,9.40057372845348,2.3970351,0.56138515,0.4896085,246.82005,-60.93726,7.973574,STU
8512316490000,1.889312,5.72555427000859,12.9513257030459,11.1269945372864,2.3102922,0.6713409,0.6383542,246.71725,-61.171116,8.629736,STU
8512321453000,1.894275,5.48956226943569,14.7802639444285,12.9014729404182,2.1514673,0.6017023,0.8359691,246.54886,-61.364758,9.273173,STU
8512326370000,1.899192,4.55107342176712,16.1480517267408,12.2206050984786,1.9785925,0.6084218,0.9297369,246.27377,-61.44944,9.719082,STU
8512331342000,1.904164,2.88865035861127,17.0814232633119,9.0629299864053,1.9028453,0.90377516,1.0708468,245.90485,-61.491184,10.167085,STU
8512336370000,1.909192,0.95229116449298,17.7982590435777,5.09648974618825,1.8820758,1.5946637,0.9776898,245.40883,-61.45776,10.356202,STU
8512341367000,1.914189,-1.29738099875195,18.221316549142,0.169110559126365,2.2745566,2.1563544,0.63407815,244.88623,-61.54675,10.474411,STU
8512346341000,1.919163,-2.26569337002815,18.0000011700476,-2.99719104852955,3.0051515,2.175291,0.32070425,244.45358,-62.296265,10.341539,STU
8512351381000,1.924203,-2.03145522424537,17.1614294064835,-4.54316259545763,3.616933,1.9694295,0.16920967,243.96707,-63.10735,10.133629,STU
8512356367000,1.929189,-1.24938803399297,16.1341630568558,-4.20907632500653,3.8246274,1.7886134,0.14263703,243.62395,-64.69216,9.667072,STU
8512361351000,1.934173,0.184214281948769,14.8731675000502,-1.66790841152386,3.7158933,1.6447546,0.22907446,243.33005,-66.29624,9.241041,STU
8512366435000,1.939257,1.43439379584318,13.4992208923365,1.10840599515957,3.2904255,1.3720033,0.38056904,243.1706,-67.9392,8.960993,STU
8512371380000,1.944202,2.41867198329393,12.0671197639874,4.0099276193617,2.5949554,0.96974856,0.52473325,243.0829,-69.4134,8.746251,STU
8512376570000,1.949392,3.05470474041301,10.6174537018386,5.49900679422154,1.8964312,0.64904433,0.63407815,242.95605,-70.28706,8.76823,STU
8512381346000,1.954168,3.20798228701205,9.34152200797029,5.1758812606648,1.5622878,0.57360244,0.7162395,242.87128,-71.0287,8.838488,STU
8512386379000,1.959201,3.22961596370519,8.04681036039405,4.62859059553042,1.6062702,0.7788532,0.743423,242.67764,-71.179474,9.048727,STU
8512391363000,1.964185,2.78117366484539,6.93223557174131,3.3921088853416,1.8668042,1.0763446,0.713796,242.47815,-71.290665,9.257132,STU
8512396599000,1.969421,2.29602258492494,5.81199755911176,2.12790620529608,2.1700988,1.3002267,0.6533204,242.17609,-71.42122,9.492887,STU
8512401365000,1.974187,1.7012161456005,5.34566940210592,1.35703710763136,2.4233024,1.3784174,0.56291234,241.839,-71.599464,9.696904,STU
8512406347000,1.979169,1.12915332996346,4.92794960645554,0.612052386750305,2.6145031,1.3503176,0.4990769,241.52165,-71.96199,9.857973,STU
8512411360000,1.984182,0.949228150548112,5.06289352624379,0.34666279243774,2.7149906,1.303281,0.46731192,241.19904,-72.35247,9.999827,STU
8512416571000,1.989393,0.771810137613113,5.22862441311251,0.0680710331411986,2.7577512,1.2745703,0.48991394,240.94583,-72.8544,10.081284,STU
8512421380000,1.994202,1.0195015128991,6.4710126490951,-0.30543179331313,2.7947085,1.2950343,0.5109888,240.70602,-73.359825,10.156706,STU
8512427180000,2.000002,1.31823513249957,7.96942224957316,-0.755903074959023,2.8130345,1.4914275,0.54092115,240.39633,-73.91938,10.20538,STU
8512431343000,2.004165,1.51438762543284,8.94797938567164,-0.815069183641791,2.8512135,1.6016886,0.56169057,240.11444,-74.46071,10.266167,STU
8512436400000,2.009222,1.74569465447761,10.0996957885572,-0.786155823880597,2.8625145,1.8414533,0.6084218,239.74675,-74.96004,10.32729,STU
8512441363000,2.014185,2.04444703232118,11.122607959799,-0.573296786994547,2.8637362,2.0717494,0.7049385,239.3989,-75.50443,10.417147,STU
8512446371000,2.019193,2.38801200270501,12.0917692060302,-0.250243102504009,2.8420506,2.2180517,0.84482664,239.01372,-75.98154,10.529643,STU
8512451387000,2.024209,2.52882074625386,12.6153736968478,0.0186913921335703,2.756224,2.2565362,1.010982,238.59225,-76.39024,10.680507,STU
8512456370000,2.029192,2.60470343259751,12.9947864294266,0.268657604830231,2.6074784,2.234545,1.178359,238.15265,-76.69793,10.87085,STU
8512461369000,2.034191,2.48538221221263,13.2073223059399,0.552306685486321,2.4333818,2.1303926,1.3093897,237.70981,-76.87443,11.120613,STU
8512466533000,2.039355,2.2384434173307,13.3205027033184,0.866124673748049,2.273335,1.8869628,1.41904,237.32144,-76.947205,11.415351,STU
8512471426000,2.044248,1.83715256596839,13.2970568294745,0.997997583811099,2.101682,1.5903877,1.5063937,236.94669,-76.91811,11.738917,STU
8512476362000,2.049184,1.36808961969864,13.223222722896,1.06748840494304,1.9046779,1.3151928,1.5656476,236.6459,-76.812965,12.086196,STU
8512481342000,2.054164,0.790676509266818,13.0460792297808,1.21587804323507,1.6927075,1.0403035,1.6145169,236.3807,-76.659645,12.4243965,STU
8512486376000,2.059198,0.108734656646151,12.7701789583198,1.43972150381168,1.4972308,0.7272351,1.6276505,236.21513,-76.465454,12.769932,STU
8512491359000,2.064181,-0.47561200320096,12.4562555192558,1.48759982124637,1.3289373,0.3210097,1.6126842,236.1132,-76.29842,13.059149,STU
8512496345000,2.069167,-1.01534848323697,12.1219054913474,1.4493884179854,1.2269229,-0.024740042,1.5460999,236.09152,-76.123,13.336576,STU
8512501400000,2.074222,-1.45962665536008,11.7811682265346,1.42714505335911,1.2012665,-0.34269542,1.4636332,236.12608,-76.00477,13.536205,STU
8512506373000,2.079195,-1.84633891288545,11.4450970206863,1.4133338618173,1.244638,-0.66950834,1.389413,236.26819,-75.89545,13.721546,STU
8512511377000,2.084199,-2.14775208619763,11.1267428513285,1.2214578371838,1.3200798,-0.9783007,1.3100005,236.47495,-75.86379,13.826068,STU
8512516482000,2.089304,-2.39587322218131,10.815374936113,0.905225043408299,1.4052955,-1.1856894,1.2266175,236.74988,-75.850494,13.908714,STU
8512521456000,2.094278,-2.35536094350884,10.6380653529194,0.470313649450356,1.5311338,-1.2299771,1.1203269,237.05203,-75.9055,13.920044,STU
8512526400000,2.099222,-2.13630047869899,10.5416790832794,-0.0422878876126585,1.5839735,-1.1960741,1.0726794,237.39207,-75.95836,13.923702,STU
8512531336000,2.104158,-1.84902806716492,10.5746589464462,-0.567333388709167,1.6917913,-0.9825767,0.9645562,237.70712,-76.079445,13.856886,STU
8512536375000,2.109197,-1.46208888376559,10.7848478972481,-1.12146858735696,1.7986927,-0.8081747,0.8555168,238.0234,-76.200294,13.774322,STU
8512541366000,2.114188,-1.07773324137479,10.9653191839346,-1.64063182106753,1.8796324,-0.6401868,0.7834347,238.31982,-76.2889,13.709006,STU
8512546345000,2.119167,-0.692709641033976,11.1053274526007,-2.11566094955956,1.9483547,-0.41691554,0.71837753,238.54839,-103.617004,13.612281,STU
8512551369000,2.124191,-0.377948543635854,11.2625659327731,-2.30067370168067,2.05098,-0.24556783,0.63132924,238.78308,-103.582054,13.539545,STU
8512556367000,2.129189,-0.138528375635854,11.4349489327731,-2.19054040168067,2.1606305,-0.16554448,0.54092115,238.9772,-103.565216,13.446773,STU
8512561929000,2.134751,0.0806593767518722,11.476863888667,-1.91838796415377,2.2110267,-0.15851954,0.45845437,239.17328,-103.62886,13.382531,STU
8512566411000,2.139233,0.226379840774638,11.4125754948577,-1.6012316642636,2.186592,-0.21074851,0.40194935,239.35992,-103.71822,13.299706,STU
8512571427000,2.144249,0.411440640240829,11.2357481725007,-1.23523650348082,2.098933,-0.28038713,0.36560285,239.51898,-103.85406,13.230939,STU
8512576368000,2.14919,0.61462125708765,10.9618955651078,-0.864210956045925,1.9498819,-0.4034765,0.35338554,239.7052,-104.00682,13.151431,STU
8512581339000,2.154161,0.917055782507837,10.6467307887147,-0.618985942050157,1.7553213,-0.5467244,0.36468655,239.8623,-104.17746,13.099004,STU
8512586377000,2.159199,1.40608938871473,10.2534872507837,-0.608902787774295,1.5427402,-0.63499445,0.36193767,240.03598,-104.340195,13.037955,STU
8512591364000,2.164186,1.86391563431194,9.89298586946543,-0.627593607487807,1.4104879,-0.5867361,0.35338554,240.14969,-104.52196,13.031458,STU
8512596406000,2.169228,2.29335247065124,9.56513677469638,-0.683004816220713,1.3680327,-0.44593164,0.33169982,240.25983,-104.690575,13.021153,STU
8512601317000,2.174139,2.69646659112903,9.30721837752016,-0.672226183396169,1.382388,-0.2666427,0.3036,240.31413,-104.93456,13.10378,STU
8512606366000,2.179188,3.0815383483871,9.16098824193548,-0.535745112032258,1.4309518,-0.034513887,0.28191432,240.31201,-105.17364,13.187502,STU
8512611397000,2.184219,3.40371745794335,9.03993944550493,-0.263344499294951,1.4779885,0.14294247,0.28008172,240.25006,-105.49955,13.363589,STU
8512616429000,2.189251,3.62132635991379,8.96080886997126,0.241112638283046,1.50731,0.17745635,0.30634892,240.16788,-105.826866,13.54065,STU
8512621439000,2.194261,3.76900863337276,8.84665500206978,0.63891160958013,1.5183055,0.15577064,0.32406402,240.04146,-106.18619,13.76251,STU
8512627163000,2.199985,3.83384328576779,8.66295725280899,0.936070141573034,1.5180001,0.13469578,0.344528,239.91087,-106.54937,13.989449,STU
8512632039000,2.204861,3.79712308275556,8.49244856,1.06680524373333,1.5097535,0.14294247,0.33414328,239.72939,-106.88512,14.235977,STU
8512636370000,2.209192,3.69389106065778,8.330226624,1.08892637482667,1.4883732,0.14966199,0.31031954,239.55795,-107.21444,14.47926,STU
8512641324000,2.214146,3.55778054547553,8.14806473545533,1.11450125160112,1.4743233,0.172264,0.27916542,239.35484,-107.52195,14.72477,STU
8512646350000,2.219172,3.29857770541398,7.98606311145302,1.14227300690451,1.4483615,0.16707164,0.24678956,239.15915,-107.81293,14.95861,STU
8512651462000,2.224284,3.03028446152783,7.83142497508293,1.16322115372282,1.396438,0.1600467,0.23335053,238.95525,-108.08231,15.175359,STU
8512656370000,2.229192,2.71843293653704,7.80110609001106,1.09825202382971,1.3393221,0.19975294,0.21838433,238.73976,-108.33387,15.38161,STU
8512661401000,2.234223,2.39876606159233,7.7700273795798,1.03165469447107,1.2666291,0.27947086,0.21746802,238.5146,-108.54381,15.553008,STU
8512666514000,2.239336,2.02493408729434,7.83676376036514,0.707505518685914,1.185384,0.39920044,0.22479841,238.26788,-108.737686,15.724025,STU
8512671487000,2.244309,1.6597552611502,7.90562323364943,0.367574772851331,1.1368202,0.6383542,0.27458394,237.96729,-108.9311,15.914081,STU
8512676370000,2.249192,1.4308728143163,7.73872969258693,0.162534238475783,1.0867293,0.9117164,0.3368922,237.63406,-109.07801,16.064959,STU
8512681524000,2.254346,1.1874277246517,7.55153528729683,-0.0249009945834946,1.0369438,1.1459832,0.34972036,237.26118,-109.20357,16.166748,STU
8512686374000,2.259196,0.935777103521672,7.24146586247097,0.150355682559501,0.9947941,1.2452488,0.31031954,236.85321,-109.31932,16.2742,STU
8512691710000,2.264532,0.654458934914175,6.90134591687312,0.347922291677579,0.9783007,1.2339478,0.25045475,236.42302,-109.431786,16.359512,STU
8512696346000,2.269168,0.320550194018758,6.62636224548752,0.615049276190055,1.0021244,1.1523973,0.20830505,235.99026,-109.53223,16.435253,STU
8512701344000,2.274166,-0.0394316625376039,6.32990659631039,0.903034752590692,1.0415252,1.0381655,0.20097467,235.55017,-109.58941,16.469248,STU
8512706370000,2.279192,-0.512891161127611,6.29929129515731,0.827672816517493,1.0760391,0.89827734,0.2012801,235.14523,-109.63615,16.48441,STU
8512711367000,2.284189,-1.02842275890763,6.37638010094135,0.606042416248679,1.0732902,0.784351,0.18112154,234.7696,-109.67193,16.48416,STU
8512716365000,2.289187,-1.54405752490813,6.45348433374276,0.384367663288195,1.0167851,0.75655663,0.17073683,234.3773,-109.63663,16.433432,STU
8512721309000,2.294131,-2.05412120700227,6.52975550760634,0.165087955677825,0.9981538,0.77213365,0.14844026,234.00665,-109.59551,16.368061,STU
8512726372000,2.299194,-2.61930611209348,6.72726001224927,-0.272359900124635,0.93401295,0.8793405,0.12889257,233.60986,-109.53708,16.30157,STU
8512731346000,2.304168,-3.18981335384615,6.96381187692308,-0.777931368461538,0.8927795,1.056186,0.105374254,233.18922,-109.46974,16.230474,STU
8512736378000,2.3092,-3.65710218222539,7.21395811941362,-1.23468955031559,0.86132,1.2583824,0.09010262,232.7734,-109.28714,15.985346,STU
8512741340000,2.314162,-4.06830160175099,7.46551530438766,-1.66040169590247,0.81183994,1.4559973,0.086437434,232.30731,-109.09235,15.746479,STU
8512746368000,2.31919,-4.34515792940541,7.76175856864865,-1.83578589254054,0.7812967,1.6029104,0.10842858,231.85277,-108.86155,15.40684,STU
8512751392000,2.324214,-4.56740354347912,8.07384846113022,-1.91144407372973,0.71868294,1.6300939,0.122783914,231.375,-108.61857,15.069981,STU
8512756405000,2.329227,-4.58514402366183,8.5525818002001,-1.91450285463732,0.6411031,1.5357152,0.13316862,230.93,-108.35744,14.660512,STU
8512761423000,2.334245,-4.51302338974487,9.10550716228114,-1.88565455086543,0.55741453,1.3051136,0.14630222,230.51657,-108.09616,14.253503,STU
8512766407000,2.339229,-4.26662352781572,9.87115020650188,-1.82886149397903,0.48197266,1.0073168,0.1600467,230.14264,-107.79644,13.794265,STU
8512771424000,2.344246,-3.94313810922381,10.7353186850053,-1.75954317276137,0.41386122,0.6814202,0.17592919,229.84195,-107.496864,13.3308115,STU
8512776404000,2.349226,-3.52395739720197,11.7400840047291,-1.52362183842365,0.3839288,0.3747658,0.18112154,229.59505,-107.179245,12.852452,STU
8512781425000,2.354247,-3.04073719815764,12.8439105383251,-1.18252527389163,0.35918877,0.07086037,0.18387043,229.43839,-106.86539,12.36854,STU
8512786413000,2.359235,-2.38782189203798,13.9140230664719,-0.605052764455807,0.3436117,-0.24740042,0.1695151,229.3286,-106.547104,11.904613,STU
8512791394000,2.364216,-1.61626582367735,14.9643347210686,0.136636618728999,0.32345316,-0.5369505,0.14110987,229.29301,-106.23514,11.434682,STU
8512796406000,2.369228,-0.679012306006517,16.0367644200183,0.779169458368801,0.25686884,-0.7974846,0.1432479,229.25688,-105.887726,11.024731,STU
8512801362000,2.374184,0.326204292453925,17.1048073993483,1.36393493799817,0.14844026,-1.0140363,0.17959438,229.2889,-105.54504,10.619128,STU
8512806282000,2.379104,1.24449853391374,17.7919777509069,2.0686868452237,0.05681047,-1.1673635,0.23793201,229.2276,-105.16995,10.346887,STU
8512811283000,2.384105,2.1421418366314,18.322841157497,2.84085303718259,0.0009162979,-1.2324207,0.28802297,229.2073,-104.80628,10.089979,STU
8512816311000,2.389133,2.7984400008082,18.6658198105657,3.54555172388133,-0.007941248,-1.3744467,0.3032946,229.22914,-104.438736,9.93861,STU
8512821289000,2.394111,3.34349292739996,18.92425091918,4.21277176695249,-0.01160644,-1.5253305,0.3381139,229.2883,-104.102806,9.8138485,STU
8512826754000,2.399576,4.0071625054672,19.1116244353877,4.55750904085487,-0.027794369,-1.7461584,0.32436943,229.37828,-103.76024,9.7794695,STU
8512831292000,2.404114,4.5817272111332,19.2325851411531,4.70439025228628,-0.13103059,-1.9168952,0.30726522,229.51744,-103.44049,9.756188,STU
8512836288000,2.40911,5.03015965488242,19.3189001052212,4.89458813192507,-0.14660765,-1.858863,0.30024028,229.63335,-103.1427,9.799361,STU
8512841289000,2.414111,5.38330106417896,19.3809382178159,5.09979207801913,-0.22449298,-1.6853772,0.3036,229.78526,-102.85055,9.842817,STU
8512846269000,2.419091,5.57989435572375,19.2268574521287,5.19198046901608,-0.3827071,-1.4819591,0.258396,229.91832,-102.6134,9.954993,STU
8512851453000,2.424275,5.69731661494797,18.9450445204352,5.2248586525544,-0.6389651,-1.2614367,0.15210545,230.01245,-102.36989,10.057789,STU
8512856317000,2.429139,5.70771547073892,18.7985869138916,5.09782882593596,-1.0012082,-1.0073168,0.018325957,230.04271,-102.124435,10.18753,STU
8512861335000,2.434157,5.63669618640394,18.7441384003941,4.83742465977832,-1.432479,-0.7119634,-0.1423316,230.01076,-101.84252,10.28522,STU
8512866312000,2.439134,5.56625717123153,18.6901347631527,4.5791481482266,-1.9126191,-0.38545597,-0.29810223,229.9105,-101.54257,10.373535,STU
8512871342000,2.444164,5.4950680520197,18.6355560419704,4.31812125389163,-2.4199426,-0.10934488,-0.3811799,229.75447,-101.229576,10.439052,STU
8512876324000,2.449146,5.31258562160537,18.4336942464175,4.08992252752781,-2.885422,0.115453534,-0.42302418,229.53395,-100.92464,10.473566,STU
8512881367000,2.454189,5.00768146517687,18.0707134687844,3.89149263146608,-3.2629366,0.32498032,-0.464563,229.25462,-100.66749,10.483395,STU
8512886813000,2.459635,4.75132525730055,17.6221513913698,3.73332274787757,-3.5720346,0.5390886,-0.49266282,228.93936,-100.502495,10.471179,STU
8512891327000,2.464149,4.59081348730557,17.2100274947316,3.64222157585549,-3.8359282,0.6927212,-0.4822781,228.59625,-79.53961,10.451789,STU
8512896302000,2.469124,4.55816150641524,16.8678370536547,3.47489525851477,-4.057367,0.8597928,-0.45570546,228.20753,-79.46535,10.397492,STU
8512901332000,2.474154,4.67521876875972,16.6384039296268,3.23609879535381,-4.192979,1.0415252,-0.4092797,227.78258,-79.23282,10.342398,STU
8512906330000,2.479152,4.85485700287186,16.4231019382056,2.89915689996039,-4.2470407,1.1267409,-0.35002577,227.35268,-78.855545,10.2806015,STU
8512911427000,2.484249,5.12072299381066,16.2200774952466,2.42543213974054,-4.237878,1.2980887,-0.30298916,226.8555,-78.34414,10.213938,STU
8512916336000,2.489158,5.41803895856354,16.0327914171271,1.92824511961326,-4.176791,1.525636,-0.28099802,226.32672,-77.7249,10.164438,STU
8512921476000,2.494298,5.78712757142857,15.8482468571429,1.35032975714286,-4.1190643,1.817935,-0.24740042,225.73857,-77.02411,10.111248,STU
8512926300000,2.499122,6.07605608094194,15.719625458099,0.899734995082467,-4.021326,2.149024,-0.2312125,225.08885,-76.29727,10.074762,STU
8512931353000,2.504175,6.28827967222805,15.6550357951187,0.572172422598913,-3.93947,2.4419339,-0.25686884,224.37833,-75.550896,10.010017,STU
8512936321000,2.509143,6.40085333969769,15.6852779972156,0.439314102808274,-3.854865,2.6853635,-0.32406402,223.60641,-74.82553,9.960929,STU
8512941367000,2.514189,6.28071478361177,15.9447771780032,0.766091206185362,-3.7583485,2.7614164,-0.42730024,222.8161,-74.123856,9.873324,STU
8512946318000,2.51914,6.10703479446234,16.1516582085179,0.981128040873943,-3.6688566,2.6554313,-0.5699373,222.03448,-73.46851,9.768891,STU
8512951402000,2.524224,5.78349061105517,16.2398977546315,0.927204041018929,-3.566842,2.4248295,-0.7425067,221.28923,-72.85961,9.619969,STU
8512956999000,2.529821,5.43787737447787,16.1221899549722,0.51584658399885,-3.44528,2.182316,-0.82619524,220.59023,-72.26883,9.434098,STU
8512961385000,2.534207,5.18033303441272,15.7600184631155,-0.248738227043495,-3.2837062,1.8961257,-0.84788096,219.98618,-71.729485,9.231224,STU
8512966400000,2.539222,4.87994838898305,15.2089760079096,-1.20094507995763,-3.0405817,1.4840971,-0.8756753,219.4731,-71.28501,8.989877,STU
8512971374000,2.544196,4.56148452627119,14.1863028734463,-2.41649070817797,-2.6755898,0.9074403,-0.9443977,219.09741,-70.92154,8.765841,STU
8512976335000,2.549157,4.2231107588692,13.1690267929524,-3.63565167644834,-2.2165246,0.26389378,-1.0549643,218.8074,-70.78294,8.524523,STU
8512981354000,2.554176,3.65852906439379,12.1690472481585,-4.94184497760303,-1.7767016,-0.47555858,-1.1667526,218.71309,-70.74244,8.322309,STU
8512986343000,2.559165,3.07255590383431,11.2100818760306,-6.25745648175226,-1.5128077,-1.2189816,-1.2846496,218.8191,-70.877815,8.1371975,STU
8512991371000,2.564193,2.18766920865203,10.6600170777789,-7.78807098188139,-1.3930782,-1.7223345,-1.3826935,219.06955,-71.09945,7.971325,STU
8512996386000,2.569208,1.32793141055258,10.1416972101338,-9.2183903749522,-1.3866642,-2.0647244,-1.4963144,219.57056,-71.40208,7.814988,STU
8513001366000,2.574188,0.762551882005736,10.0094715447419,-9.42356875544933,-1.3738359,-2.6374106,-1.5790867,220.27641,-71.7468,7.7002735,STU
8513006679000,2.579501,0.169456689095216,9.88184944783599,-9.64329766806378,-1.5039502,-2.9938505,-1.5778649,221.01259,-72.2223,7.4897647,STU
8513011350000,2.584172,-0.124009821790433,10.073417904328,-9.85524530387244,-1.6972891,-2.9358184,-1.564426,221.79381,-72.69238,7.2697883,STU
8513016382000,2.589204,-0.440157002860137,10.2797918013667,-10.0835733928018,-1.7721201,-2.6398542,-1.6102408,222.59393,-73.19968,6.9705467,STU
8513021375000,2.594197,-2.006281144625,11.41190271875,-5.2724506775,-1.9190332,-2.3835962,-1.8967366,223.40099,-73.66129,6.606588,STU
8513027890000,2.600712,-4.49712254414844,13.2203216582031,2.80450448859375,-2.2467623,-1.8600847,-2.620001,224.07974,-74.102264,6.068256,STU
8513031352000,2.604174,-4.89188652064945,13.7680377086194,5.80748449537975,-3.331659,-1.6148223,-2.6621506,224.72142,-74.28733,5.5965457,STU
8513036352000,2.609174,-2.56995179252479,13.2723435819985,6.13098994378337,-3.6236527,-1.6151277,-2.3817637,225.2996,-74.61373,4.9983354,STU
8513041354000,2.614176,-0.640690551252847,12.4694441969628,5.62587006192863,-3.9489384,-2.144748,-1.8939877,225.59859,-73.906906,4.1109643,STU
8513046363000,2.619185,0.659641284738041,11.1727548205771,3.79010742743356,-4.076304,-2.6728408,-1.464244,225.87617,-73.087715,3.3240633,STU
8513051355000,2.624177,1.95555993621868,9.88046626659074,1.96057517121488,-3.9290853,-2.95109,-1.2021828,226.39973,-72.0582,2.996745,STU
8513056360000,2.629182,2.91764562376823,8.49371028137564,0.549556526882144,-3.5613444,-3.0246992,-1.1071932,226.9755,-71.056816,2.784006,STU
8513061340000,2.634162,3.76359048975167,7.08380215504533,-0.71466122834056,-3.1917708,-3.0500503,-1.1316279,227.58568,-70.111565,2.6437771,STU
8513066380000,2.639202,4.12102409240924,6.22568309235424,-1.66857162689769,-2.996294,-3.083037,-1.1432343,228.2384,-69.411316,2.860201,STU
8513071335000,2.644157,4.28198527777778,5.59923976759259,-2.48207783055556,-2.9639182,-3.0586023,-1.1044444,228.86737,-68.79136,3.0830793,STU
8513076399000,2.649221,4.23166565072917,4.999300783125,-3.12869990667708,-2.9373455,-2.8961122,-1.065349,229.52509,-68.29329,3.4679391,STU
8513081398000,2.65422,4.00226726875,4.4407656375,-3.612431318125,-2.9266553,-2.6132815,-1.0317514,230.13556,-67.818085,3.8490279,STU
8513086412000,2.659234,3.69834765026498,4.00514733196086,-3.65080912537709,-2.9303205,-2.339614,-1.010982,230.81902,-67.38077,4.2625146,STU
8513091405000,2.664227,3.35234201163881,3.64452154612719,-3.42663660502446,-2.931237,-2.104736,-0.9978484,231.43301,-66.9621,4.661667,STU
8513096473000,2.669295,3.02166568798067,3.41179732767699,-3.07874702313153,-2.8866436,-1.8790215,-0.9764681,232.02216,-66.57094,5.022018,STU
8513101477000,2.674299,2.70508157403865,3.24641759464603,-2.67711025373694,-2.8136454,-1.666135,-0.91996306,232.54669,-66.198685,5.37631,STU
8513106405000,2.679227,2.45242338057827,3.04618538057827,-2.2252789251655,-2.7134633,-1.582141,-0.8341365,233.05238,-65.796906,5.6926227,STU
8513111458000,2.68428,2.22629439935748,2.82005639935748,-1.73062175722352,-2.604424,-1.4746287,-0.8011498,233.49414,-65.43103,5.988247,STU
8513116501000,2.689323,2.09206596488089,2.57837503387275,-1.30867073399236,-2.5506678,-1.4453071,-0.7189884,233.89651,-65.02262,6.275079,STU
8513121436000,2.694258,2.02081019977887,2.33135519368781,-0.942891435766409,-2.4254405,-1.4932601,-0.634689,234.2851,-64.674545,6.570564,STU
8513126366000,2.699188,1.91673054199821,1.98057849272745,-0.767006357110824,-2.3020456,-1.5793921,-0.58062744,234.67494,-64.261475,6.8408413,STU
8513131351000,2.704173,1.78884182357377,1.55428279761881,-0.719640167116777,-2.1627684,-1.6484199,-0.5702427,235.06482,-63.897163,7.1269703,STU
8513136392000,2.709214,1.66158979710704,1.07691517566056,-0.829432759980714,-2.0329595,-1.6612481,-0.5589417,235.51328,-63.476616,7.4053392,STU
8513141474000,2.714296,1.53487118075217,0.560654163128255,-1.05940360040501,-1.8823812,-1.5891659,-0.5467244,235.95193,-63.109856,7.6868625,STU
8513146344000,2.719166,1.41863971776388,0.124057257207824,-1.28542983595472,-1.6975945,-1.4877623,-0.5384777,236.43369,-62.739704,7.935334,STU
8513151343000,2.724165,1.30455108141198,-0.265745682109026,-1.52311449088472,-1.4782939,-1.3744467,-0.5109888,236.88658,-62.424404,8.184847,STU
8513156337000,2.729159,1.1806783885424,-0.561129963569057,-1.66558399926567,-1.235475,-1.2843442,-0.47067168,237.35843,-62.147984,8.409104,STU
8513161383000,2.734205,1.04456653585152,-0.755575464512624,-1.70447312178855,-0.99082345,-1.1893547,-0.4251622,237.79459,-61.93232,8.630576,STU
8513166305000,2.739127,0.957367594647307,-0.865313611096956,-1.55727668523653,-0.7492262,-1.128879,-0.3735441,238.22432,-61.78067,8.847325,STU
8513171345000,2.744167,0.916674025598127,-0.892442672867447,-1.20912051999063,-0.5186246,-1.0781772,-0.31581733,238.62549,-61.689827,9.06941,STU
8513176306000,2.749128,0.861246976481445,-0.916329115235618,-0.836164484631848,-0.34300083,-1.0317514,-0.26847526,239.0048,-61.64016,9.273771,STU
8513181375000,2.754197,0.775461859984292,-0.935392451786766,-0.397707320958178,-0.16920967,-0.9877691,-0.23243423,239.3663,-61.649353,9.485882,STU
8513186319000,2.759141,0.678188227281015,-0.899126625893777,0.0564283758977408,-0.050701816,-0.95233893,-0.21044308,239.69958,-61.63389,9.681232,STU
8513191348000,2.76417,0.549336910462743,-0.741641677025367,0.576605935942331,0.08307768,-0.9437868,-0.18448131,240.02368,-61.665314,9.886282,STU
8513196354000,2.769176,0.353308770855715,-0.489166641362817,1.05266650107557,0.20769419,-0.9636399,-0.18906279,240.32181,-61.66369,10.056042,STU
8513216264000,2.789086,-1.05212266017462,1.39881646398975,2.56064027076018,0.6542367,-0.9654725,-0.29352075,241.33545,-61.713688,10.439447,STU
8513221288000,2.79411,-1.40676291680428,1.87522164336149,2.94115560068963,0.7828238,-0.88789266,-0.3155119,241.51671,-61.717167,10.401289,STU
8513226820000,2.799642,-1.78188324016351,2.39235992983964,3.3229182143486,0.9086621,-0.743423,-0.29932398,241.68689,-61.68084,10.367041,STU
8513231279000,2.804101,-1.90720380670789,2.72356422419034,3.20207333225029,0.98532563,-0.54275376,-0.2742785,241.8107,-61.672184,10.312541,STU
8513236365000,2.809187,-2.02161705496479,3.09955176203694,3.0441081181345,1.069625,-0.3100141,-0.24617869,241.90543,-61.71429,10.181531,STU
8513241309000,2.814131,-1.77519046629248,3.4426162197163,2.63822892703337,1.1511755,-0.047036625,-0.23335053,241.92996,-61.77414,10.030048,STU
8513246285000,2.819107,-1.47563728263269,3.78545982543393,2.23320419678941,1.2443326,0.23823744,-0.21685717,241.86737,-61.96376,9.765229,STU
8513251315000,2.824137,-0.69267783836661,4.10927640845791,1.85622373857731,1.38025,0.53023106,-0.20341812,241.73364,-62.17696,9.478297,STU
8513256332000,2.829154,0.163211111655552,4.4566304766599,1.60353056726587,1.5641204,0.82711154,-0.17867808,241.59021,-62.51077,9.203171,STU
8513261340000,2.834162,1.60476533947038,4.99431635446023,2.31735487637963,1.7886134,1.1746938,-0.1459968,241.3574,-62.8816,8.898613,STU
8513266465000,2.839287,3.11465808604745,5.57089156224367,3.03050385503619,1.9758437,1.5121969,-0.0888809,241.16214,-63.300056,8.777787,STU
8513271359000,2.844181,5.00392489770808,6.46134394077201,3.48750855630277,2.0457878,1.6789632,0.042760566,240.91254,-63.726147,8.669056,STU
8513276424000,2.849246,6.88490645940812,7.41705589654069,3.9498420405119,2.0454822,1.575116,0.21930063,240.72324,-63.976246,8.88134,STU
8513281889000,2.854711,7.87911546535693,8.92406712894421,4.3004314069886,2.1181753,1.2986995,0.38698313,240.52362,-64.2421,9.112664,STU
8513286442000,2.859264,8.56846173793513,10.1802476627769,4.42562109339399,2.3038783,1.040609,0.49235737,240.33333,-64.56342,9.611134,STU
8513291354000,2.864176,7.66596883461234,11.5432909879351,2.58341935747627,2.58396,1.142318,0.50732356,240.10278,-64.89227,10.099406,STU
8513296554000,2.869376,6.70148784545455,12.9913257412587,0.664837088711289,2.9352076,1.8377881,0.41905355,239.84558,-65.266396,10.650753,STU
8513301348000,2.87417,5.70620986363636,14.3856321454545,-0.734056038441558,3.2632422,2.3154848,0.24678956,239.60986,-65.67557,11.163371,STU
8513306576000,2.879398,4.68258717638057,15.8620908463074,-1.99498337671324,3.4782667,3.441004,0.086132,239.28923,-66.41681,11.392759,STU
8513311332000,2.884154,4.44448236022241,16.7106103387511,-0.172398965611634,3.545462,3.5784485,0.04428773,239.11142,-67.15464,11.644064,STU
8513316322000,2.889144,4.19466254680164,17.6008778465925,1.73985843796217,3.5198054,3.4006867,-0.010995574,238.95898,-68.149055,11.622433,STU
8513321373000,2.894195,3.3538366115904,18.0674575990248,2.58251917205551,3.3389895,2.900999,-0.050396383,238.86603,-69.05808,11.616918,STU
8513326325000,2.899147,2.48219614984996,18.4899355472618,3.3207451196174,3.1230485,2.4669793,-0.101098195,238.81467,-69.902504,11.60827,STU
8513331346000,2.904168,1.3396202662483,18.0823529411392,2.95213757948021,2.9788845,2.2678373,-0.17684549,238.67441,-70.533585,11.505902,STU
8513336414000,2.909236,0.117778307823961,17.4494568973105,2.28408008850856,2.8893926,2.2043073,-0.26633725,238.6253,-71.11255,11.415571,STU
8513341401000,2.914223,-0.712087815469495,16.7542885028705,1.76723905816873,2.8136454,2.1154263,-0.3182608,238.3866,-71.754234,11.170644,STU
8513346347000,2.919169,-1.28821516339593,16.0168455337161,1.3478183544225,2.7641652,1.9691241,-0.29138273,238.18948,-72.36033,10.945711,STU
8513351399000,2.924221,-1.44756023637658,15.2956153747458,1.2151814952013,2.7046058,1.7763962,-0.20066923,237.91957,-73.12461,10.597327,STU
8513356368000,2.92919,-1.23952367514233,14.6134493722041,1.33613299721431,2.6203065,1.6410894,-0.079107046,237.6763,-73.83735,10.287249,STU
8513361370000,2.934192,-0.935904678184806,14.0513450736517,1.44920709399768,2.4917192,1.5283848,0.070554934,237.43329,-74.56806,9.976865,STU
8513366376000,2.939198,-0.56056531726851,13.5833290724918,1.55578491141504,2.393981,1.4382823,0.22204952,237.21976,-75.24211,9.719883,STU
8513371373000,2.944195,-0.207682527563935,13.1962714037709,1.56805106682379,2.313652,1.3622295,0.3640757,237.02625,-75.79577,9.550427,STU
8513376369000,2.949191,0.123413160066192,12.8891679702136,1.4864768237589,2.2898283,1.2696834,0.5109888,236.8605,-76.29164,9.437079,STU
8513381340000,2.954162,0.489395577738024,12.7918364096601,1.31771041940966,2.2779164,1.1658363,0.6462954,236.69762,-76.681046,9.418431,STU
8513386378000,2.9592,0.896976186642815,12.9021226457961,1.0587768216458,2.3145685,1.071763,0.77213365,236.55789,-77.02726,9.44489,STU
8513391401000,2.964223,1.27165867855401,12.9924174431652,0.777290224855108,2.3570235,0.9972375,0.86498517,236.45126,-77.300385,9.548782,STU
8513396369000,2.969191,1.61053691830422,13.0620499083813,0.475549333817933,2.4016168,0.9505063,0.9233228,236.36603,-77.5366,9.680654,STU
8513401383000,2.974205,1.9555803273261,13.0968207074336,0.210823172642054,2.4538457,0.9401216,0.9746355,236.32394,-77.721924,9.883521,STU
8513406398000,2.97922,2.30447281433974,13.0872623140611,-0.0042475701831028,2.4831672,0.9184359,0.9975429,236.30432,-77.87177,10.094302,STU
8513411402000,2.984224,2.63004368681319,13.0335076703297,-0.221318953736264,2.4914138,0.89369583,1.0626001,236.32956,-77.957504,10.370129,STU
8513416424000,2.989246,2.92793317416583,12.9230000905095,-0.442333666865135,2.4944682,0.8912524,1.1349876,236.36137,-78.00055,10.650283,STU
8513421473000,2.994295,3.14768703546564,12.7966991812347,-0.620920468004883,2.4743097,0.86315256,1.1982121,236.44551,-77.96204,10.985207,STU
8513427155000,2.999977,3.28434236590164,12.6334721868852,-0.761371838196721,2.4471262,0.7809912,1.2880094,236.55159,-77.85888,11.342923,STU
8513433994000,3.006816,3.43901672174488,12.4168396896894,-0.944366198397224,2.316401,0.75625116,1.3429873,236.668,-77.67336,11.740995,STU
8513436418000,3.00924,3.44413110006609,12.2378361814276,-1.07989734406808,2.1908681,0.7852673,1.3625349,236.79999,-77.44035,12.146207,STU
8513441412000,3.014234,3.45466790094735,11.8690476004627,-1.35912281497577,2.126422,0.8741482,1.38025,236.93616,-77.14414,12.581388,STU
8513446388000,3.01921,3.20833985234626,11.9022109493851,-1.0416802928685,2.057394,0.904386,1.3869696,237.08875,-76.81697,13.009238,STU
8513451413000,3.024235,2.87598297699149,12.0661129479659,-0.527210020257332,1.9740111,0.6921103,1.4043792,237.2937,-76.46346,13.436124,STU
8513456700000,3.029522,2.40018926796126,12.2391692485815,-0.177292717978869,1.8371773,0.2507602,1.4514158,237.53633,-76.07696,13.877237,STU
8513461428000,3.03425,1.9173653251712,12.3942048181374,0.0486157380884367,1.627345,-0.20372356,1.4602734,237.85367,-75.682884,14.302484,STU
8513466394000,3.039216,1.46408365875946,12.7814770493192,0.252919451616742,1.4056009,-0.677755,1.400714,238.16473,-75.32533,14.67295,STU
8513471471000,3.044293,1.03745067546142,13.3307055267776,0.439264881297025,1.1847731,-1.1679744,1.2767084,238.61826,-105.01901,15.018069,STU
8513476400000,3.049222,0.654568372689305,13.827335274395,0.556310793832943,0.97219205,-1.6126842,1.1768318,239.0867,-105.301346,15.292428,STU
8513481376000,3.054198,0.287210749254489,14.3062951822795,0.63536245871975,0.7806858,-1.9477439,1.0742066,239.66617,-105.545586,15.522578,STU
8513486342000,3.059164,0.0952354358400885,14.4705541479433,0.513420115162426,0.605062,-2.1126773,0.9969321,240.2558,-105.7089,15.669119,STU
8513491407000,3.064229,0.0415723767090415,14.3827421364779,0.225590973525093,0.52931476,-2.0683897,0.9138544,240.87656,-105.83965,15.780274,STU
8513496373000,3.069195,0.0380085721663871,14.0793939781901,-0.0104784393526103,0.5311473,-1.8093829,0.81245077,241.42947,-105.892555,15.813509,STU
8513501432000,3.074254,0.0714777768554229,13.6060437229843,-0.216074991143788,0.6227771,-1.642922,0.7101309,241.98927,-105.92376,15.821558,STU
8513506396000,3.079218,0.0837860859908341,12.9505906131989,-0.40988030791934,0.763887,-1.3017539,0.66614854,242.4234,-105.951096,15.8188925,STU
8513511396000,3.084218,0.079397082324473,12.1342358927589,-0.598607475655362,0.84391034,-0.9611965,0.5564982,242.8005,-105.93521,15.770117,STU
8513516422000,3.089244,0.0391628036940582,11.2384053227981,-0.645229782157606,0.9837985,-0.68752885,0.42577308,243.0976,-105.93901,15.72604,STU
8513521408000,3.09423,-0.0614481491213653,10.2222346748841,-0.4490384248504,1.0934488,-0.5644395,0.3051272,243.33292,-105.92173,15.655726,STU
8513526368000,3.09919,-0.0308293960393102,9.39500760634155,-0.484235168555535,1.1468995,-0.5687156,0.21960606,243.53372,-105.92238,15.587065,STU
8513531355000,3.104177,0.150715287991841,8.77509890886334,-0.785333666870017,1.1713341,-0.48349985,0.19700404,243.66779,-105.91808,15.505491,STU
8513536345000,3.109167,0.307286439623537,8.17313983219709,-0.993714129547612,1.205848,-0.3100141,0.19914207,243.7427,-105.926285,15.431713,STU
8513541392000,3.114214,0.406676494906675,7.60738099149003,-0.986068746820626,1.2513574,-0.20830505,0.17562376,243.811,-105.929955,15.345003,STU
8513547639000,3.120461,0.531656865843974,6.90872801258527,-0.971901834156026,1.2803736,-0.11056661,0.08399397,243.86078,-105.98323,15.28671,STU
8513551418000,3.12424,0.655099173290187,6.52574044211999,-0.848459526709813,1.3359623,0.010995574,0.059864793,243.87408,-106.062164,15.244138,STU
8513556375000,3.129197,0.817021247386741,6.02336696056498,-0.686537452613259,1.3536774,0.084910266,0.015271631,243.86188,-106.160355,15.212538,STU
8513561487000,3.134309,0.945425067867133,5.41715787062937,-0.506147640961539,1.4138476,0.109650314,-0.010079277,243.82938,-106.27411,15.1821165,STU
8513566396000,3.139218,1.03194060994111,4.75098814155318,-0.320139221437247,1.4792101,0.13469578,-0.016187929,243.77563,-106.39099,15.147515,STU
8513571413000,3.144235,1.08182848874814,4.19609830357675,-0.153480710514158,1.5671748,0.16157386,-0.0106901415,243.69376,-106.55851,15.163825,STU
8513576565000,3.149387,1.05031491020864,3.89671949940387,-0.032678787414307,1.6581937,0.19486602,0.015577064,243.60706,-106.74294,15.18622,STU
8513581372000,3.154194,1.01203089184961,3.68801454631794,0.057845164052309,1.7629571,0.23732115,0.038789943,243.4443,-107.00287,15.289816,STU
8513586393000,3.159215,0.960939214919493,3.55832024908868,0.124657380636698,1.8451185,0.25045475,0.0888809,243.29364,-107.28519,15.406957,STU
8513591633000,3.164455,0.901633895952584,3.42752504517781,0.20416897779706,1.9269744,0.30634892,0.14569137,243.08328,-107.6036,15.556003,STU
8513596412000,3.169234,0.719344880146041,3.40582403445235,0.486282901265055,1.9807305,0.34055737,0.19058995,242.89247,-107.93594,15.711978,STU
8513601370000,3.174192,0.530228131795164,3.38331020076814,0.7789635525633,2.017077,0.4098906,0.20555615,242.67538,-108.272095,15.866061,STU
8513606549000,3.179371,0.203051861923937,3.64583899479866,0.95646483655481,2.0186043,0.4007276,0.24373524,242.4877,-108.62461,16.034342,STU
8513611287000,3.184109,-0.122340717242389,3.91887740846995,1.08316602905933,1.9730947,0.3484986,0.267559,242.3052,-108.97136,16.200426,STU
8513616333000,3.189155,-0.598607456785714,4.19709261666667,0.969993722619048,1.8875736,0.31337386,0.31123585,242.08408,-109.264496,16.332487,STU
8513621521000,3.194343,-1.07907956155938,4.48735480634633,0.815990813544878,1.765706,0.2996294,0.34574974,241.84184,-109.49371,16.440865,STU
8513626238000,3.19906,-1.40672265715725,4.80134601918001,0.228963532491186,1.6206255,0.29932398,0.3652974,241.616,-109.70622,16.552265,STU
8513631449000,3.204271,-1.76132934078279,5.15429327112837,-0.414078381402251,1.4669929,0.44837508,0.37232238,241.36307,-109.83121,16.569668,STU
8513636291000,3.209113,-2.0014734447565,5.55607289275969,-0.945166233914949,1.3301591,0.784351,0.40469822,241.06046,-109.94278,16.608707,STU
8513641489000,3.214311,-2.2442071461285,5.96938773369028,-1.47579850181219,1.1850786,1.2382239,0.43860126,240.7385,-110.04015,16.586836,STU
8513646275000,3.219097,-2.28615722897675,6.13299284654036,-1.4883835003844,1.0531317,1.6114625,0.4269948,240.34283,-110.11168,16.574001,STU
8513651260000,3.224082,-2.32985157979132,6.30340059571664,-1.50149177825371,0.93431836,1.772731,0.38453966,239.93544,-110.17235,16.521938,STU
8513656316000,3.229138,-2.17670586175521,6.41028678556893,-1.40753757554055,0.85918194,1.7635679,0.32284227,239.46915,-110.207985,16.469975,STU
8513661277000,3.234099,-1.99077276554153,6.50325323660111,-1.2959777857646,0.7965683,1.6184875,0.25228736,238.9946,-110.21028,16.401814,STU
8513666356000,3.239178,-1.61858962857958,6.65956004786081,-1.24393052327439,0.7611381,1.4175128,0.17715092,238.52618,-110.172554,16.293882,STU
8513671364000,3.244186,-1.20820188368511,6.8282750826583,-1.20745163801103,0.8081747,1.1948525,0.106901415,238.10406,-110.120316,16.15532,STU
8513676610000,3.249432,-0.740634509463028,7.01229646153169,-0.899722481426056,0.929126,0.96883225,0.059864793,237.72247,-110.06271,16.012325,STU
8513681311000,3.254133,-0.309099312857981,7.17962645064554,-0.534238574049296,1.0403035,0.7131852,0.03573562,237.41237,-109.999626,15.840028,STU
8513686385000,3.259207,0.139362037346405,7.63994055485168,0.186207043286073,1.1386528,0.41538838,0.055588737,237.16782,-109.99349,15.708193,STU
8513691311000,3.264133,0.566288283385621,8.22340680402212,1.04480318668276,1.1685852,0.07666359,0.119729586,237.01117,-109.999306,15.564466,STU
8513696313000,3.269135,0.923847685816383,8.88371131216786,1.69076533667766,1.1603385,-0.0870483,0.15851954,236.81808,-110.009155,15.489822,STU
8513701374000,3.274196,1.24803492374931,9.58537671761041,2.23255772153198,1.1258247,-0.34513888,0.2321288,236.75742,-110.04046,15.416528,STU
8513706344000,3.279166,1.56708296071166,10.3343580760995,2.48959072932718,1.0125091,-0.47219884,0.30115658,236.54524,-109.961395,15.407754,STU
8513711407000,3.284229,1.89280902233652,11.1588522409993,2.46923286708303,0.88697636,-0.44623706,0.35338554,236.37082,-109.88731,15.405483,STU
8513716340000,3.289162,2.14653189107736,11.8332974717608,2.20423366464167,0.79076505,-0.28619036,0.39614612,236.09766,-109.72905,15.404428,STU
8513721349000,3.294171,2.36054237888942,12.4297944863787,1.76710591336497,0.7058548,-0.038179077,0.41599923,235.80185,-109.5645,15.416478,STU
8513726344000,3.299166,2.59719834973698,12.9636872916968,1.29863977600825,0.6563747,0.21868975,0.4175264,235.43777,-109.40205,15.457021,STU
8513731328000,3.30415,2.85813005341929,13.4313952079422,0.796469311892728,0.61941737,0.41050145,0.40133846,235.03366,-109.238434,15.5047035,STU
8513736345000,3.309167,3.05840236254459,13.8637662346413,0.42823091954023,0.6105598,0.5497787,0.3839288,234.60696,-109.139244,15.57846,STU
8513741340000,3.314162,3.20534252262188,14.2619269302418,0.177010552298851,0.58001655,0.6068946,0.3454443,234.16074,-109.029366,15.641532,STU
8513746417000,3.319239,3.29764659122993,14.7597311470334,0.0947587215270699,0.5323691,0.56138515,0.30451632,233.75673,-108.98502,15.717328,STU
8513751350000,3.324172,3.33853347165112,15.3230599182614,0.162903332480046,0.44348818,0.42852196,0.29840767,233.37555,-108.93209,15.784295,STU
8513756308000,3.32913,3.38203194178753,15.9104854558996,0.176425726891415,0.31031954,0.25809056,0.2968805,233.04004,-108.88787,15.839416,STU
8513761414000,3.334236,3.42995343310466,16.543050502352,0.118919837232458,0.16279559,0.10415252,0.30757064,232.75104,-108.83279,15.88601,STU
8513766318000,3.33914,3.52044677657189,17.0831448520224,0.0153086972967561,0.021380283,-0.016798794,0.31429017,232.47316,-108.73399,15.903673,STU
8513771349000,3.344171,3.67963480947137,17.5365891640969,-0.163174872753304,-0.10323623,-0.10293079,0.3213151,232.24197,-108.62609,15.916883,STU
8513776278000,3.3491,3.85307804399843,17.9332171680441,-0.310842955716253,-0.19028452,-0.1386664,0.3417791,232.01357,-108.50279,15.919258,STU
8513781316000,3.354138,4.05719694616293,18.265503107438,-0.420022695867769,-0.26297748,-0.13805555,0.35277468,231.80994,-108.373184,15.918555,STU
8513786282000,3.359104,4.17153987076953,18.5683353750122,-0.432626388242466,-0.34605515,-0.12064589,0.38148534,231.61441,-108.26726,15.938284,STU
8513791360000,3.364182,4.13359478445333,18.8339494934166,-0.276104019068565,-0.47678033,-0.122783914,0.39370266,231.43335,-108.15275,15.955165,STU
8513796307000,3.369129,3.96786609074038,19.0513971728853,-0.120588439546786,-0.6936375,-0.15424347,0.37873647,231.25543,-108.045334,15.986278,STU
8513801404000,3.374226,3.51492286349873,19.1848959568275,0.0462854087907794,-0.8164214,-0.18417588,0.29138273,231.08363,-107.92662,15.9989605,STU
8513806327000,3.379149,2.94939933177071,19.1519462307028,0.24486470224735,-1.1148291,-0.16157386,0.15974127,230.8874,-107.728165,15.980146,STU
8513811464000,3.384286,2.01067597239105,18.6767896640754,0.553909417646643,-1.3942999,-0.06383542,0.01740966,230.682,-107.506004,15.935368,STU
8513816489000,3.389311,1.09241923093051,18.2119927500589,0.85621615209894,-1.6465873,0.10262536,-0.13683382,230.4143,-107.17243,15.799648,STU
8513821459000,3.394281,0.865338201161301,17.4081538094953,1.10118392988643,-1.9049833,0.2706133,-0.267559,230.12125,-106.79774,15.636081,STU
8513827259000,3.400081,0.855852172641107,16.3409751057126,1.36679290179319,-2.151162,0.441961,-0.4801401,229.77908,-106.360344,15.412996,STU
8513831388000,3.40421,0.959524999990414,15.602014169191,1.62694353480637,-2.4700336,0.57879484,-0.5510005,229.34529,-105.81192,15.094973,STU
8513836392000,3.409214,1.23055822725268,14.7337889901265,2.03579014550422,-2.563496,0.64568454,-0.70066243,228.88232,-105.217384,14.699498,STU
8513841361000,3.414183,1.54560730954379,13.9979664488726,2.41834698337703,-2.7302623,0.6114761,-0.8164214,228.43428,-104.641594,14.321521,STU
8513846393000,3.419215,1.97014857377032,13.5431016190876,2.75191522887257,-2.8774807,0.5299256,-0.9095783,227.98749,-104.07368,13.907941,STU
8513851343000,3.424165,2.37693521159517,13.3005101018767,2.95506752037534,-3.0121765,0.44837508,-0.9728029,227.57387,-103.57915,13.527629,STU
8513856406000,3.429228,2.77619925160858,13.3701491363462,2.96899532726925,-3.159395,0.39950588,-0.99204516,227.18489,-103.13396,13.132575,STU
8513861346000,3.434168,3.10700936826747,13.525171023058,2.93306973530254,-3.2989779,0.39950588,-0.99204516,226.8434,-77.193085,12.778077,STU
8513866521000,3.439343,3.31585713581935,13.8916397775304,2.77938931111553,-3.4507778,0.42424592,-0.9786061,226.52087,-77.428566,12.422422,STU
8513871370000,3.444192,3.51154850294188,14.2350227708516,2.63539001123479,-3.5860844,0.4841107,-0.96883225,226.21947,-77.51534,12.114705,STU
8513876394000,3.449216,3.6941072919286,14.6679569412107,2.49348718424525,-3.6957347,0.5458081,-0.9477574,225.92178,-77.48867,11.814354,STU
8513881325000,3.454147,3.86819378812573,15.1123353317811,2.35605043643772,-3.7723982,0.58276546,-0.9034697,225.6244,-77.34706,11.523391,STU
8513886408000,3.45923,4.02114523280102,15.4625340233173,2.15776602632507,-3.8182132,0.6206391,-0.8353582,225.32219,-77.08901,11.269332,STU
8513891354000,3.464176,4.16036415730381,15.7641746064466,1.94429720904281,-3.853338,0.6417139,-0.72234815,225.02043,-76.72602,11.039901,STU
8513896404000,3.469226,4.33159850442426,16.058427669499,1.55370429589804,-3.8197403,0.69974613,-0.65270954,224.70633,-76.30418,10.830389,STU
8513901477000,3.474299,4.51664984169352,16.3478671171989,1.08395814578084,-3.7818668,0.7684685,-0.5222898,224.38304,-75.7941,10.666628,STU
8513906392000,3.479214,4.51272779862413,16.5485925267198,0.464766348844467,-3.6575556,0.93645644,-0.4578435,224.01897,-75.287445,10.511935,STU
8513911510000,3.484332,4.41010613258225,16.7147428092722,-0.268246056621137,-3.4807103,1.2654073,-0.46089783,223.59196,-74.76815,10.357744,STU
8513916431000,3.489253,4.38296369703567,16.7244480905653,-1.1725043820321,-3.3163874,1.6936239,-0.45142943,223.06879,-74.28966,10.233744,STU
8513921529000,3.494351,4.39294479207809,16.6545789661658,-2.21552952267198,-3.1383202,2.1905627,-0.4569272,222.4411,-73.85346,10.072801,STU
8513926374000,3.499196,4.4465080510442,16.3462501175328,-2.88026064482759,-2.933375,2.6254988,-0.453262,221.65286,-73.57823,9.869129,STU
8513932000000,3.504822,4.53024429836814,15.8700003372511,-3.49258284482759,-2.7980683,2.87687,-0.49754974,220.7969,-73.334885,9.622895,STU
8513936410000,3.509232,4.59436589828554,15.221856063465,-3.73852843996391,-2.7030787,2.8814514,-0.5439755,220.05644,-73.085434,9.424737,STU
8513941393000,3.514215,4.66613453749749,14.3654190505314,-3.91077267447363,-2.5857925,2.6691756,-0.6133087,219.32097,-72.8837,9.200532,STU
8513946384000,3.519206,4.82654162768958,12.8737755631595,-3.92378802891234,-2.479502,2.2165246,-0.68539083,218.71661,-72.705605,9.016371,STU
8513951480000,3.524302,5.04310323565723,10.9728439445814,-3.84197584691845,-2.3808472,1.5445728,-0.7318166,218.24309,-72.561714,8.849057,STU
8513956393000,3.529215,4.80237278771356,9.85604006068528,-3.98702473670992,-2.2934935,0.75686204,-0.7443393,217.95712,-72.41129,8.753656,STU
8513961495000,3.534317,4.25952503684063,9.16265487274764,-4.28353820086827,-2.225382,-0.05131268,-0.8335256,217.87698,-72.301544,8.675823,STU
8513966416000,3.539238,3.83049513772955,8.73831836315428,-4.50421308578022,-2.1154263,-0.84238315,-0.979217,218.00784,-72.160995,8.710899,STU
8513971488000,3.54431,3.49659072904841,8.5809065544535,-4.65685523210252,-1.9898936,-1.4092661,-1.0891727,218.30673,-72.055565,8.777817,STU
8513976346000,3.549168,3.12777111890909,8.43790870918919,-4.58992025371007,-1.8713857,-1.738217,-1.1242975,218.78526,-71.984634,8.826022,STU
8513981386000,3.554208,2.67711997709091,8.30034122810811,-4.2246554792629,-1.7922786,-2.1496348,-1.1249083,219.44666,-71.95221,8.9074335,STU
8513986325000,3.559147,2.21882868525151,8.12442507102616,-3.75831839100604,-1.8683313,-2.350915,-1.07665,220.13782,-71.93285,8.96312,STU
8513991389000,3.564211,1.72117386682093,7.87559773822938,-3.0996577172837,-2.037541,-2.525317,-1.0824533,220.93538,-71.92375,9.036501,STU
8513996313000,3.569135,1.17035470330893,7.80053896367786,-2.26559819474185,-2.1242838,-2.5363126,-1.1142182,221.7346,-71.8679,9.071877,STU
8514001469000,3.574291,0.484874931008843,7.99303665731672,-1.0777463446325,-2.3038783,-2.4147503,-1.1890492,222.54405,-71.76088,9.10216,STU
8514006302000,3.579124,-0.0409461934613389,8.20590522383671,-0.0852420352707144,-2.44621,-2.2928827,-1.2971723,223.32805,-71.602066,9.044581,STU
8514011405000,3.584227,-0.294555151017125,8.51446282814392,0.65022388956063,-2.5705209,-2.2843306,-1.3842206,224.10796,-71.41467,8.97866,STU
8514016727000,3.589549,-0.555675667875648,8.82127032733923,1.39014693754953,-2.7101038,-2.278833,-1.416902,224.7796,-71.1143,8.766477,STU
8514021373000,3.594195,-0.727449120518135,8.83935163608656,1.5845222102103,-2.8386908,-2.2250767,-1.3652838,225.42761,-70.78078,8.558497,STU
8514026681000,3.599503,-0.895679716967559,8.83737056297168,1.76298193432324,-2.9071076,-2.182927,-1.2880094,226.01291,-70.348946,8.314335,STU
8514031347000,3.604169,-0.720494461144761,8.57459240027443,1.41699101451534,-2.9226847,-2.0610592,-1.2357804,226.5486,-69.8897,8.076707,STU
8514036719000,3.609541,-0.503209433401134,8.26911665382359,1.02560049154508,-2.9074132,-1.856114,-1.1908818,227.02925,-69.37773,7.83604,STU
8514041385000,3.614207,0.0167945199178565,7.94138331136319,0.833330145333464,-2.8707612,-1.6508633,-1.1368202,227.46036,-68.85991,7.6097264,STU
8514046341000,3.619163,0.569117621642871,7.59328077273616,0.629109863330726,-2.8225029,-1.5522085,-1.0830641,227.91803,-68.34539,7.439503,STU
8514051481000,3.624303,1.00573484900194,7.13754843437864,0.489332057650485,-2.754086,-1.6432275,-1.0488557,228.35974,-67.84613,7.2850456,STU
8514056302000,3.629124,1.40467763530874,6.70274586120388,0.363821956427185,-2.687807,-1.8570304,-1.0546589,228.79869,-67.3624,7.144496,STU
8514061401000,3.634223,1.67821064383079,6.2681439900803,-0.130297823413631,-2.656653,-2.0366247,-1.0549643,229.29224,-66.856575,7.1662226,STU
8514066345000,3.639167,1.91930762150411,5.85086075576772,-0.668129469101058,-2.6401596,-2.1050417,-1.0525209,229.80508,-66.37754,7.202611,STU
8514071692000,3.644514,2.03996342198198,5.55318488234234,-1.12842389495496,-2.6337454,-2.0830505,-1.0589349,230.35243,-65.87673,7.3802214,STU
8514076303000,3.649125,2.11952860402402,5.32333004021021,-1.50414820672673,-2.6239717,-1.9871446,-1.0598512,230.8881,-65.39895,7.5600295,STU
8514081402000,3.654224,2.10152472595688,5.18966797208662,-1.65595801714313,-2.617252,-1.8567249,-1.0280862,231.4423,-64.942726,7.8461647,STU
8514086339000,3.659161,2.06110997224808,5.08638592270871,-1.74576841943204,-2.6218336,-1.7815884,-0.9947941,231.97867,-64.50569,8.126056,STU
8514091388000,3.66421,1.98027603097986,5.02743373840747,-1.69890860303189,-2.6013696,-1.6041322,-0.96486163,232.465,-64.0945,8.464365,STU
8514096409000,3.669231,1.88442860700797,4.98707689781788,-1.59801658057071,-2.5970936,-1.4453071,-0.8961393,232.92432,-63.69122,8.808863,STU
8514101455000,3.674277,1.78101751308411,4.89347975233645,-1.39597621214953,-2.5638015,-1.3264939,-0.84329945,233.3722,-63.296375,9.1531105,STU
8514106377000,3.679199,1.67867141611442,4.7911337018314,-1.17793458588691,-2.5350907,-1.2425,-0.81061816,233.77927,-62.916367,9.487706,STU
8514111427000,3.684249,1.60685593510814,4.68517185818365,-0.930865279288856,-2.4959953,-1.1921035,-0.77396625,234.2082,-62.51282,9.802925,STU
8514116507000,3.689329,1.54889658943365,4.57816993552969,-0.672277450843109,-2.4431555,-1.1575897,-0.75502944,234.6136,-62.13785,10.107616,STU
8514121448000,3.69427,1.49802483095908,4.40913560987227,-0.481392641320632,-2.3948972,-1.1481212,-0.7293731,235.02945,-61.73039,10.381381,STU
8514126388000,3.69921,1.45193427802555,4.18380385732843,-0.343120886265425,-2.3151793,-1.1151345,-0.7012733,235.42212,-61.360435,10.648732,STU
8514131387000,3.704209,1.42411274169167,3.9254285381593,-0.228635725630504,-2.239432,-1.1154399,-0.66889745,235.83333,-60.948013,10.909516,STU
8514136396000,3.709218,1.40554298792219,3.65152519117391,-0.126502268953837,-2.1594086,-1.1328496,-0.6243043,236.22844,-60.57058,11.17352,STU
8514141409000,3.714231,1.43078596972197,3.35094595612588,-0.0358523102389245,-2.0503693,-1.1392636,-0.5992588,236.634,-60.17978,11.437883,STU
8514146403000,3.719225,1.4843649931052,3.03434273323149,0.0469516143680619,-1.9422461,-1.1475104,-0.56779927,237.03023,-59.821632,11.710998,STU
8514151401000,3.724223,1.55221885343889,2.73236763701138,0.146563529734191,-1.8115209,-1.1203269,-0.51007247,237.42036,-59.446293,12.010424,STU
8514156380000,3.729202,1.62771882285997,2.43980544027709,0.255094675910737,-1.6893479,-1.1172725,-0.45814893,237.80682,-59.112606,12.310534,STU
8514161378000,3.7342,1.63374716325037,2.13132042295754,0.383282611197657,-1.5766432,-1.1258247,-0.40194935,238.2076,-58.755302,12.640319,STU
8514166435000,3.739257,1.5959297375305,1.80987252646169,0.525097881138116,-1.4779885,-1.1227703,-0.35613444,238.59024,-58.438805,12.967108,STU
8514171378000,3.7442,1.5669566223747,1.5649229369927,0.655554114292944,-1.385137,-1.1111639,-0.3203988,239.00194,-58.114365,13.264013,STU
8514176421000,3.749243,1.5434549662871,1.36750929089051,0.782462870660827,-1.2922854,-1.0821478,-0.269697,239.39343,-57.818947,13.568474,STU
8514181378000,3.7542,1.51008891882732,1.21204828479332,0.95869299477019,-1.2040154,-1.0458013,-0.21868975,239.77219,-57.51299,13.825187,STU
8514186384000,3.759206,1.46669430486775,1.09150744991451,1.18530977642563,-1.1136073,-1.0195341,-0.1872302,240.13766,-57.233223,14.086172,STU
8514191389000,3.764211,1.42876148628271,1.01200542891501,1.45508826930454,-1.0064005,-0.94042706,-0.17379116,240.45477,-56.957294,14.314752,STU
8514196415000,3.769237,1.3956185363614,0.969393071793232,1.76521152815758,-0.95172805,-0.8549059,-0.16462818,240.75674,-56.690884,14.545512,STU
8514201666000,3.774488,1.3609918690242,0.924873078310053,2.08921814022231,-0.8454375,-0.7620544,-0.14935656,241.0192,-56.417255,14.7448845,STU
8514206302000,3.779124,1.33042069595711,0.885567290881369,2.37527692017509,-0.7147123,-0.6713409,-0.12858713,241.2554,-56.16357,14.935945,STU
8514211295000,3.784117,1.27023188292327,0.991683746278148,2.76958107052752,-0.5726862,-0.57879484,-0.119729586,241.43097,-55.90078,15.0892515,STU
8514216325000,3.789147,1.17481322341535,1.28798373074437,3.2768063858945,-0.43401974,-0.49449542,-0.105374254,241.57913,-55.666954,15.2373,STU
8514221384000,3.794206,0.927399316586656,1.92853740179289,3.84908346291761,-0.27947086,-0.43890667,-0.09407325,241.67834,-55.41702,15.3446665,STU
8514226737000,3.799559,0.525599402545312,2.92299216990301,4.51205343069462,-0.10842858,-0.39003745,-0.08368854,241.75311,-55.20434,15.44341,STU
8514231303000,3.804125,0.264442636654582,3.52673076658988,4.78114009425138,0.06505715,-0.344528,-0.08827003,241.76666,-54.986374,15.484072,STU
8514236362000,3.809184,0.0557986888500751,3.95372288109164,4.78599227564347,0.2648101,-0.31429017,-0.096516706,241.7678,-54.81789,15.520267,STU
8514241292000,3.814114,-0.0934573364679929,4.31858131855426,4.70865015983849,0.47769663,-0.28160888,-0.1160644,241.77266,-54.59443,15.512152,STU
8514246296000,3.819118,-0.187848402510144,4.63479149042742,4.54346567549734,0.68630713,-0.24770586,-0.13469578,241.76083,-54.431767,15.493772,STU
8514251258000,3.82408,-0.23518199471447,4.93258335860562,4.40447603406495,0.9034697,-0.18753563,-0.16157386,241.73544,-54.392624,15.38236,STU
8514256530000,3.829352,-0.225153398293773,5.22842669907637,4.28914756529943,1.1276573,-0.0870483,-0.16768251,241.68901,-54.408516,15.265157,STU
8514261257000,3.834079,-0.170775234453602,5.50868968938336,4.16696049515067,1.3552046,0.036651913,-0.18203785,241.63582,-54.568558,15.092304,STU
8514266335000,3.839157,-0.0543169859157853,5.82894980610657,4.01168263248853,1.5754215,0.19792034,-0.18845193,241.54924,-54.77883,14.905866,STU
8514271247000,3.844069,0.0984158393401428,6.12782092370091,3.88610940757636,1.7803668,0.3903429,-0.19028452,241.46332,-55.076416,14.702944,STU
8514276295000,3.849117,0.309356307474217,6.42026116511305,3.79022734315748,1.971873,0.59742624,-0.19333886,241.33685,-55.420715,14.47906,STU
8514281347000,3.854169,0.528475831627517,6.74755126342282,3.53609124412752,2.1642957,0.7837401,-0.18142697,241.21373,-55.85675,14.263809,STU
8514286398000,3.85922,0.758434353686614,7.12179749990679,3.06715622521439,2.36863,0.88300574,-0.16890424,241.0635,-56.335445,14.038119,STU
8514291450000,3.864272,1.08283123732784,7.53872111668283,2.80096794667313,2.4767532,1.1273518,-0.15821409,240.88281,-56.85229,13.818624,STU
8514296366000,3.869188,1.61253359889913,8.04102521794374,3.0018895871775,2.6917777,1.4779885,-0.10873401,240.64442,-57.42985,13.590528,STU
8514301445000,3.874267,2.32376953769545,8.66645343800418,3.53752236003386,2.8728993,1.8530598,-0.07727446,240.44193,-58.108795,13.402866,STU
8514306412000,3.879234,3.5365379509511,9.61392909321781,5.09611927366796,2.9825497,2.1230621,-0.018936822,240.16763,-58.79721,13.207857,STU
8514311406000,3.884228,4.7849503172112,10.6743409439907,6.53993663529755,2.9709432,2.1142046,0.06841691,239.95143,-59.41096,13.13355,STU
8514316424000,3.889246,6.14010020381175,12.1136032746013,7.56330869708285,2.9165761,1.7751744,0.23640485,239.73624,-60.00207,13.105732,STU
8514321378000,3.8942,7.22532847935657,13.5078423994638,8.21895480428954,2.912911,1.3127494,0.48166725,239.57242,-60.253498,13.309315,STU
8514326951000,3.899773,6.99214920115182,14.9228160873796,6.91527051207427,2.9608638,0.95325524,0.7370089,239.44398,-60.47629,13.567289,STU
8514331369000,3.904191,6.63787846335931,15.9743422820791,5.75190988739521,3.0204232,0.9642508,0.8179486,239.34914,-60.650867,13.946095,STU
8514336419000,3.909241,5.25458290166683,16.7709298498866,3.67219666321136,3.1667254,1.4202617,0.68386364,239.21538,-60.851757,14.283375,STU
8514341362000,3.914184,3.99930634543315,17.5137032730153,1.86237203232552,3.361897,1.9984456,0.45020768,239.2086,-61.322956,14.553492,STU
8514346372000,3.919194,3.47377403485109,17.9871163000815,1.73641799285779,3.5069773,2.363743,0.2565634,239.14307,-61.80834,14.746891,STU
8514351413000,3.924235,2.94498992753689,18.4634586293111,1.60968459705802,3.5338554,2.4642303,0.14844026,239.10693,-62.714535,14.714419,STU
8514356392000,3.929214,2.72774019250776,18.5703055095109,2.9788507027271,3.3637295,2.307849,0.08460484,239.05563,-63.58468,14.635687,STU
8514362568000,3.93539,2.44811892959217,18.5853725200616,4.67481664874134,3.0637946,2.01219,0.022296581,239.02435,-64.40427,14.539343,STU
8514366371000,3.939193,1.91964598958997,17.976827722326,4.3545299702979,2.7690523,1.6997325,-0.029932396,238.98224,-65.27745,14.3640175,STU
8514371597000,3.944419,1.21214652048358,17.1207810457171,3.88377924071629,2.6337454,1.5231925,-0.058337633,238.80289,-65.97166,14.142165,STU
8514376370000,3.949192,0.789673244386862,16.1023186365737,3.08786979257303,2.6673431,1.5036448,-0.06841691,238.67166,-66.62003,13.936835,STU
8514381386000,3.954208,0.345691272272652,15.0320049042746,2.2514394988612,2.724459,1.5329664,-0.04642576,238.52509,-67.28391,13.700879,STU
8514386357000,3.959179,0.0618155093006919,13.6866728291645,1.68537634989888,2.716823,1.5583172,-0.019547688,238.38773,-67.921326,13.475792,STU
8514391368000,3.96419,-0.122071410916445,12.1440662144758,1.2869547000958,2.6917777,1.5583172,0.03756821,238.24716,-68.53828,13.2740965,STU
8514396638000,3.96946,-0.0690266802939773,10.8345773455188,1.30268705392765,2.6667323,1.5494597,0.116675265,238.12415,-69.20905,13.072833,STU
8514401408000,3.97423,0.0574178837987974,9.7488981195953,1.45529249794789,2.6484063,1.5305228,0.22968534,237.99954,-69.83934,12.90484,STU
8514406369000,3.979191,0.216932722641749,8.92291764285714,1.59921746012037,2.615725,1.5128077,0.35033122,237.86313,-70.41902,12.780818,STU
8514411377000,3.984199,0.394170881839299,8.26460411904762,1.735944056087,2.5891523,1.5247196,0.46486846,237.72067,-70.95773,12.690268,STU
8514416376000,3.989198,0.52574840679397,8.14566083502513,1.61193056464322,2.5607471,1.5693128,0.58276546,237.48767,-71.38788,12.672208,STU
8514421378000,3.9942,0.641293802452261,8.21787639311558,1.39528303575879,2.5806003,1.6230689,0.6939429,237.24774,-71.78279,12.685723,STU
8514427162000,3.999984,0.763506410374133,8.68477015834717,1.08676223488327,2.6224444,1.6749926,0.79473567,236.98529,-72.08029,12.761017,STU
8514431397000,4.004219,0.850667774006056,9.10472975295497,0.849049330956335,2.7052166,1.7125608,0.8784242,236.71298,-72.3518,12.861033,STU
8514436417000,4.009239,0.991210157234279,9.77359198107958,0.674882396396772,2.7889054,1.7171422,0.9456194,236.44138,-72.61271,12.996496,STU
8514441390000,4.014212,1.14580962077537,10.5068350482285,0.546785743498423,2.8808405,1.6789632,1.0164797,236.17523,-72.848694,13.156801,STU
8514446385000,4.019207,1.36715901730214,11.2494280772524,0.480611742714784,2.9452868,1.6120734,1.112691,235.93149,-73.09662,13.342649,STU
8514451462000,4.024284,1.64790003391737,12.0093652642111,0.466090653382778,2.966056,1.5222762,1.2217305,235.7117,-73.30266,13.555041,STU
8514456393000,4.029215,1.86479019574995,12.5599198172065,0.403838154765835,2.9361238,1.4544702,1.2922854,235.53006,-73.49696,13.781626,STU
8514461389000,4.034211,2.03753635279554,12.9597034066433,0.300190501768104,2.8805351,1.3994923,1.3545936,235.3768,-73.63005,14.03865,STU
8514466465000,4.039287,2.14181884240325,13.1638768568742,0.217832296219935,2.7705793,1.3646729,1.3909402,235.23248,-73.70702,14.3213825,STU
8514471420000,4.044242,2.19818195514204,13.2343312382461,0.152075292122142,2.6322184,1.2974777,1.4272866,235.12167,-73.7225,14.621648,STU
8514476402000,4.049224,2.13128309677419,13.2035202349808,0.143703117262504,2.4236078,1.1545353,1.4596626,235.04242,-73.68461,14.9388685,STU
8514481397000,4.054219,1.97555725806452,13.0997023850252,0.176735869733649,2.1853704,1.0836749,1.4767667,234.97076,-73.595604,15.256622,STU
8514486392000,4.059214,1.76546613398288,12.9882247974609,0.256498378665486,1.9398025,0.9388999,1.4581354,234.94153,-73.46842,15.580547,STU
8514491388000,4.06421,1.51119299063084,12.8705058406653,0.374217419047338,1.831374,0.73823065,1.4217888,234.95805,-73.31472,15.901333,STU
8514496370000,4.069192,1.25450674618124,12.7430438798971,0.548015433383459,1.6019942,0.44409904,1.3961325,235.005,-73.13651,16.206085,STU
8514501453000,4.074275,0.989633366165414,12.6033835770677,0.779177661428571,1.3994923,0.10140363,1.382999,235.13266,-72.94981,16.503757,STU
8514506387000,4.079209,0.690670380108513,12.404676146493,0.888297263079807,1.1911873,-0.35460728,1.3405437,235.31389,-72.7732,16.77007,STU
8514511389000,4.084211,0.345703169517609,12.1400438487718,0.883571658490678,1.0024298,-0.7486154,1.2458596,235.58286,-72.59949,17.017235,STU
8514516422000,4.089244,0.0287003876730053,11.9505669856891,0.93247325495001,0.8888089,-1.0497719,1.1459832,235.89577,-72.44583,17.229883,STU
8514521393000,4.094215,-0.251281807622035,11.8479067239757,1.03979978588512,0.8081747,-1.3408492,1.0393872,236.32352,-72.31086,17.415625,STU
8514526367000,4.099189,-0.529100953780076,11.8214071622589,1.11346709500895,0.77366084,-1.593442,0.93492925,236.78699,-72.22578,17.548407,STU
8514531369000,4.104191,-0.805337284028634,11.8976103296878,1.14204324549612,0.75441855,-1.6914859,0.8258898,237.28839,-72.167206,17.64814,STU
8514536309000,4.109131,-0.904845521000382,12.0193751561665,0.712731599923635,0.74464476,-1.6163495,0.7089091,237.76047,-72.16001,17.690142,STU
8514541400000,4.114222,-0.746608775439099,12.2148440914471,-0.418195512819779,0.77457714,-1.4361442,0.56169057,238.22557,-72.1904,17.690672,STU
8514546317000,4.119139,-0.573722400440529,12.2839634052863,-1.20823870704846,0.8237518,-1.0348058,0.41233405,238.57153,-72.28213,17.623184,STU
8514551401000,4.124223,-0.349486309427313,12.0841008185823,-1.33985556720064,0.9266826,-0.48472157,0.29046643,238.81317,-72.40635,17.51934,STU
8514556303000,4.129125,-0.113777460288566,11.8106625266331,-1.33669762445894,1.0546589,0.034513887,0.17867808,239.0766,-72.56909,17.389128,STU
8514561402000,4.134224,0.175769751056429,11.342560822018,-1.0374987957308,1.171945,0.3885103,0.12705997,239.21857,-72.73979,17.240974,STU
8514566422000,4.139244,0.456930313698603,10.8445261922063,-0.748308813849009,1.2052372,0.59559363,0.116980694,239.24486,-72.88537,17.109299,STU
8514571400000,4.144222,0.726981485162614,10.2671759144448,-0.473601586111925,1.1817188,0.6969972,0.112704635,239.19307,-73.03309,16.966822,STU
8514576365000,4.149187,0.989689581248159,9.6963814045959,-0.234276747550427,1.1065824,0.69913524,0.12064589,239.05179,-106.88461,16.882896,STU
8514582047000,4.154869,1.26756468604046,9.06047504301286,-0.0793079636386134,1.0479393,0.68019843,0.13225232,238.88626,-106.808784,16.800772,STU
8514586356000,4.159178,1.44805059085457,8.60729548575712,0.0387236098635682,1.0341948,0.5867361,0.15607607,238.67882,-106.80932,16.793316,STU
8514591364000,4.164186,1.54871754761619,8.18545249973014,0.177739980092854,1.0005972,0.50701815,0.17654006,238.47578,-106.81314,16.787949,STU
8514596381000,4.169203,1.63431083487358,7.79580464341761,0.299811660418483,0.94897914,0.39400807,0.17287487,238.2689,-106.88376,16.849741,STU
8514601386000,4.174208,1.66356311809067,7.52835542127289,0.358316183217088,0.874759,0.23579398,0.16890424,238.10522,-106.957535,16.914125,STU
8514606376000,4.179198,1.69272773212729,7.26170774524847,0.416645367785528,0.806953,0.03023783,0.17959438,237.93396,-107.08157,17.030638,STU
8514611414000,4.184236,1.64951764465331,7.02585340318439,0.248186366791988,0.7415904,-0.1695151,0.18906279,237.81592,-107.1983,17.140057,STU
8514616817000,4.189639,1.59216547278938,6.77697627524261,0.0402291300287245,0.6927212,-0.34208453,0.19883664,237.7573,-107.31322,17.247286,STU
8514621420000,4.194242,1.4826534168077,6.57848566707554,-0.223284361658256,0.65668017,-0.44715336,0.20525073,237.69104,-107.45815,17.385672,STU
8514627163000,4.199985,1.34601910494527,6.33083596846518,-0.552060808053722,0.6835582,-0.45662177,0.21502456,237.67361,-107.60501,17.520346,STU
8514631392000,4.204214,1.22449363653617,6.09567865105737,-0.82291994152478,0.7593055,-0.38759398,0.23182335,237.6691,-107.75318,17.65497,STU
8514636400000,4.209222,1.05285262389112,5.74719527927557,-1.1818056261143,0.84604836,-0.24678956,0.2406809,237.6503,-107.90024,17.787167,STU
8514641399000,4.214221,0.883393927748757,5.33589396072508,-1.45495786418478,0.93676186,-0.07360926,0.23823744,237.66795,-108.03412,17.892588,STU
8514646372000,4.219194,0.716303323216061,4.87639477039275,-1.6591796511646,1.0571023,0.12064589,0.2144137,237.63942,-108.16987,17.994951,STU
