timestamp,rel_time,acc_x,acc_y,acc_z,gyro_x,gyro_y,gyro_z,azimuth,pitch,roll,label
3405235659000,0,0.670624523739863,9.58607397032517,-2.37461415651286,0.007941248,-0.010995574,0.024129177,192.12717,-100.7262,10.306239,STD
3405240758000,0.005099,0.671595109349658,9.58486073831293,-2.37291562409465,0.0106901415,-0.00061086525,0.02107485,192.12267,-100.663475,10.217452,STD
3405245681000,0.010022,0.67253219367149,9.58368938291064,-2.37127571919274,0.0076358155,-0.004886922,0.020158553,192.15019,-100.589195,10.124469,STD
3405250765000,0.015106,0.673499924057879,9.58247971992765,-2.36958218343785,0.008857546,-0.011911872,0.014660766,192.17549,-100.5154,10.031153,STD
3405255727000,0.020068,0.674444431960566,9.58129908504929,-2.3679292872113,0.0061086523,-0.002443461,0.023823744,192.1975,-100.44676,9.943713,STD
3405260697000,0.025038,0.67539046264907,9.58011654668866,-2.36627372609765,0.004276057,-0.0012217305,0.022602014,192.22366,-100.37599,9.853287,STD
3405265734000,0.030075,0.676349246668787,9.57891806666402,-2.3645958465545,0.0027488936,-0.009773844,0.017104227,192.24997,-100.308235,9.765961,STD
3405271578000,0.035919,0.677461641707744,9.57752757286532,-2.36264914652469,0.0009162979,-0.004886922,0.022907447,192.27214,-100.24491,9.683473,STD
3405275682000,0.040023,0.678242830831611,9.57655108646049,-2.36128205944009,-0.0015271631,-0.010995574,0.025350908,192.2997,-100.180885,9.599877,STD
3405280657000,0.044998,0.67918981326125,9.57536735842344,-2.359624832772,-0.003970624,-0.015577064,0.013133603,192.3251,-100.11612,9.51555,STD
3405285728000,0.050069,0.680155069120687,9.57416078859914,-2.35793562745866,-0.009468411,-0.028405234,0.009162978,192.35469,-100.05549,9.435707,STD
3405290744000,0.055085,0.681109855827636,9.57296730521546,-2.35626474324416,-0.01038471,-0.011911872,0.008857546,192.37672,-99.994606,9.3556,STD
3405295686000,0.060027,0.682050556765782,9.57179142904277,-2.35461850923537,-0.005497787,-0.020463986,0.010995574,192.4094,-99.9352,9.276169,STD
3405300976000,0.065317,0.683057498886945,9.57053275139132,-2.35285635263754,-0.008246681,-0.008552114,0.015271631,192.43112,-99.87721,9.199646,STD
3405305569000,0.06991,0.683931768293846,9.56943991463269,-2.35132637432869,-0.007941248,-0.01282817,0.01038471,192.45956,-99.819916,9.12238,STD
3405310588000,0.074929,0.684887126045476,9.56824571744315,-2.34965449078152,-0.00580322,-0.025961773,0.01160644,192.48701,-99.76695,9.049769,STD
3405315556000,0.079897,0.685832776037526,9.56706365495309,-2.34799959588965,0.0009162979,-0.0421497,0.013744468,192.51617,-99.71514,8.977536,STD
3405320563000,0.084904,0.686785849610431,9.56587231298696,-2.34633170967314,-0.00580322,-0.05009095,0.013744468,192.54636,-99.663506,8.906598,STD
3405325579000,0.08992,0.68774063631738,9.56467882960328,-2.34466082545864,-0.00061086525,-0.0571159,0.016493361,192.58061,-99.61684,8.838413,STD
3405330570000,0.094911,0.688690664318652,9.56349129460169,-2.34299826901634,-0.007330383,-0.053450707,0.023518313,192.61368,-99.5708,8.773141,STD
3405335672000,0.100013,0.689661820973128,9.56227734878359,-2.34129873726546,-0.004276057,-0.059253927,0.0125227375,192.6507,-99.52402,8.704794,STD
3405340853000,0.105194,0.690648015137542,9.56104460607807,-2.33957288975443,-0.016798794,-0.047647487,0.016493361,192.68156,-99.48187,8.644665,STD
3405345567000,0.109908,0.691545316679917,9.55992297915011,-2.33800260502812,-0.004581489,-0.04153884,0.022296581,192.71498,-99.442085,8.5832815,STD
3405350569000,0.11491,0.692497438511687,9.55873282686039,-2.33633638436606,0.0009162979,-0.032986723,0.01863139,192.74373,-99.40004,8.522102,STD
3405355680000,0.120021,0.693470308300207,9.55751673962474,-2.33463385461719,-0.0015271631,-0.024740042,0.026267206,192.77068,-99.36426,8.467351,STD
3405360636000,0.124977,0.694413674113532,9.55633753235809,-2.33298295705597,0.01282817,-0.022602014,0.027183503,192.79625,-99.329796,8.411077,STD
3405365629000,0.12997,0.695364082811258,9.55514952148593,-2.33131973439189,0.01985312,-0.014966198,0.02565634,192.81755,-99.296684,8.357869,STD
3405370622000,0.134963,0.696314491508984,9.55396151061377,-2.32965651172782,0.028405234,-0.021380283,0.030543262,192.84203,-99.268585,8.307783,STD
3405375592000,0.139933,0.697260522197488,9.55277897225314,-2.32800095061417,0.040317107,-0.01863139,0.036957346,192.86127,-99.24289,8.259277,STD
3405380699000,0.14504,0.698232630593099,9.55156383675863,-2.32629975330885,0.040927973,-0.014660766,0.029321533,192.88142,-99.21554,8.209242,STD
3405385647000,0.149988,0.699174473620607,9.55038653297424,-2.32465152063474,0.03573562,-0.003970624,0.031154128,192.89879,-99.19395,8.1650715,STD
3405390636000,0.154977,0.700124120925425,9.54919947384322,-2.32298963041422,0.03756821,-0.0030543262,0.031154128,192.91725,-99.171875,8.119216,STD
3405395620000,0.159961,0.701072816489108,9.54801360438862,-2.32132940574813,0.043066,-0.0033597588,0.027794369,192.93262,-99.15012,8.074203,STD
3405400654000,0.164995,0.702031029464144,9.54681583816982,-2.31965252553765,0.043676864,-0.02107485,0.030543262,192.95253,-99.13035,8.031631,STD
3405405753000,0.170094,0.703001615073939,9.54560260615758,-2.31795399311943,0.04795292,-0.021685716,0.03145956,192.96715,-99.11133,7.9889903,STD
3405411459000,0.1758,0.704087742057561,9.54424494742805,-2.31605326239217,0.04337143,-0.04153884,0.030543262,192.99203,-99.09223,7.946854,STD
3405415679000,0.18002,0.704891011575767,9.54324086053029,-2.31464753444457,0.036957346,-0.05222898,0.03023783,193.0141,-99.07461,7.9063635,STD
3405420689000,0.18503,0.705844656193354,9.54204880475831,-2.31297864889539,0.043676864,-0.07544186,0.034513887,193.04514,-99.0599,7.8672476,STD
3405425712000,0.190053,0.706800775337892,9.54085365582764,-2.31130543290467,0.048563786,-0.09682214,0.029626964,193.078,-99.04249,7.8262777,STD
3405430688000,0.195029,0.707747948115758,9.53966968985531,-2.3096478731257,0.03481932,-0.105068825,0.03634648,193.11357,-99.02807,7.7906704,STD
3405435921000,0.200262,0.708396722223936,9.53845468679818,-2.30825196567825,0.02565634,-0.10995574,0.040011674,193.1535,-99.013824,7.753495,STD
3405440729000,0.20507,0.704044075071519,9.53776741274659,-2.31191735552377,0.020158553,-0.116980694,0.032986723,193.19568,-98.99791,7.716008,STD
3405445708000,0.210049,0.699536622872708,9.5370556952959,-2.31571310761213,0.026267206,-0.118202426,0.032070424,193.27017,-98.97456,7.675389,STD
3405450723000,0.215064,0.694996580137814,9.53633883186646,-2.31953630438319,0.015271631,-0.118202426,0.03634648,193.3462,-98.948425,7.6352324,STD
3405455724000,0.220065,0.690469211500286,9.53562396965099,-2.3233488282221,-0.00030543262,-0.13316862,0.03573562,193.42665,-98.92203,7.5941586,STD
3405460711000,0.225052,0.685954516960123,9.53491110864947,-2.32715067912883,0.008857546,-0.14477506,0.030848695,193.50598,-98.89865,7.554244,STD
3405465715000,0.230056,0.681424432444588,9.53419581760243,-2.33096549002463,0.0030543262,-0.15668693,0.033292156,193.58966,-98.87332,7.5170035,STD
3405470704000,0.235045,0.676907927319087,9.5334826707132,-2.33476886563596,0.005192355,-0.16798794,0.03634648,193.67616,-98.85054,7.4794307,STD
3405475752000,0.240093,0.672338009926118,9.53276109013657,-2.33861722003284,0.008552114,-0.1777618,0.03940081,193.76538,-98.82867,7.443456,STD
3405480659000,0.245,0.667895738799473,9.5320596646434,-2.34235808275579,0.028099801,-0.18051068,0.035430185,193.85538,-98.80966,7.407381,STD
3405485677000,0.250018,0.663352980186572,9.5313423723824,-2.34618356658375,0.034513887,-0.1572978,0.035430185,193.94049,-98.79182,7.3748255,STD
3405490656000,0.254997,0.658845527987761,9.53063065493171,-2.34997931867211,0.034513887,-0.14263703,0.039095376,194.02841,-98.77685,7.343046,STD
3405495714000,0.260055,0.654266557668101,9.52990764491654,-2.35383529659196,0.028099801,-0.12950343,0.03970624,194.10962,-98.76198,7.311983,STD
3405500688000,0.265029,0.649763631932635,9.52919664218513,-2.35762723691883,0.044898596,-0.11636983,0.04184427,194.18636,-98.7528,7.283759,STD
3405505830000,0.270171,0.645108617028782,9.52846162488619,-2.36154725243165,0.046731193,-0.12767084,0.047647487,194.2661,-98.74204,7.257432,STD
3405510741000,0.275082,0.640662724731461,9.5277596276176,-2.36529116456379,0.051923547,-0.11728613,0.04642576,194.33536,-98.73398,7.2314563,STD
3405515718000,0.280059,0.636157083117988,9.52704819605463,-2.36908539194756,0.058643065,-0.112704635,0.04795292,194.40938,-98.72912,7.2083697,STD
3405520694000,0.285035,0.631652346797184,9.52633690743551,-2.37287885697903,0.05497787,-0.12095132,0.05497787,194.48384,-98.72502,7.187285,STD
3405525705000,0.290046,0.627115925232966,9.52562061578149,-2.3766990043409,0.063224554,-0.11728613,0.052534413,194.55301,-98.722595,7.165145,STD
3405530700000,0.295041,0.622593988351452,9.52490661122913,-2.38050695406602,0.06719518,-0.09987647,0.047647487,194.62033,-98.72048,7.1452174,STD
3405535660000,0.300001,0.618103736713351,9.52419760971168,-2.38428822146073,0.06841691,-0.09712757,0.047036625,194.69046,-98.72017,7.126298,STD
3405540771000,0.305112,0.613476785882236,9.52346702367223,-2.38818460405234,0.055283304,-0.0870483,0.048258353,194.75304,-98.71787,7.1078653,STD
3405545649000,0.30999,0.609060768242991,9.52276974355084,-2.39190335855867,0.062308256,-0.089491755,0.04734206,194.818,-98.71889,7.089125,STD
3405550675000,0.315016,0.604510767288739,9.522051307739,-2.39573494120501,0.06261369,-0.09010262,0.042455133,194.8791,-98.716415,7.0705833,STD
3405555704000,0.320045,0.599958050456479,9.5213324430956,-2.39956881090823,0.06047566,-0.09285152,0.04550946,194.94138,-98.716736,7.054605,STD
3405560653000,0.324994,0.595477757037737,9.52062501396055,-2.40334169242767,0.05375614,-0.11148291,0.04153884,195.00769,-98.71399,7.0354986,STD
3405565653000,0.329994,0.590951293692878,9.51991029468892,-2.40715345391428,0.05955936,-0.103847094,0.031154128,195.06677,-98.71262,7.0167036,STD
3405570636000,0.334977,0.586440220323391,9.51919800546282,-2.41095225541183,0.052534413,-0.11484267,0.04153884,195.13657,-98.712296,7.0024614,STD
3405575664000,0.340005,0.581888408783801,9.51847928376328,-2.41478536276276,0.05222898,-0.124311075,0.043676864,195.20279,-98.71026,6.9838862,STD
3405580752000,0.345093,0.577282279684072,9.51775198543247,-2.41866421125152,0.039095376,-0.1328632,0.035430185,195.27144,-98.70528,6.965747,STD
3405585688000,0.350029,0.572813755070027,9.51704641456753,-2.4224271821911,0.049785517,-0.160963,0.040011674,195.34833,-98.70819,6.9517984,STD
3405590644000,0.354985,0.568327124602602,9.51633798482549,-2.42620540017662,0.03756821,-0.17745635,0.04184427,195.42351,-98.70291,6.935533,STD
3405596603000,0.360944,0.562932485588199,9.51548618239757,-2.43074825751636,0.029321533,-0.18387043,0.03726278,195.5032,-98.70021,6.9190235,STD
3405600752000,0.365093,0.559176426304634,9.51489310834598,-2.43391125719794,0.040927973,-0.1881465,0.044593163,195.58673,-98.702515,6.9068165,STD
3405605765000,0.370106,0.554638194155078,9.51417653080425,-2.43773292926441,0.032375857,-0.19761491,0.046120327,195.67264,-98.69809,6.8921266,STD
3405610809000,0.37515,0.550071897932784,9.51345552200304,-2.4415782342521,0.025045475,-0.19914207,0.045814894,195.75694,-98.69763,6.879826,STD
3405615668000,0.380009,0.54567308085425,9.51276095781487,-2.44528250406478,0.027488936,-0.19517145,0.04520403,195.84169,-98.69818,6.8684897,STD
3405620763000,0.385104,0.541060614705838,9.51203265887709,-2.44916668901963,0.025961773,-0.18784106,0.049785517,195.92534,-98.69838,6.859308,STD
3405625720000,0.390061,0.536573078945745,9.5113240861912,-2.45294566935745,0.029626964,-0.1957823,0.049480084,196.01137,-98.69917,6.848937,STD
3405630729000,0.39507,0.532038467966865,9.51060808042489,-2.45676429201473,0.029321533,-0.19425514,0.047036625,196.09193,-98.700005,6.840334,STD
3405636015000,0.400356,0.52725309091868,9.50985247921093,-2.46079408625836,0.033292156,-0.19364429,0.0421497,196.17427,-98.70206,6.8313317,STD
3405640712000,0.405053,0.530385463147133,9.51343013960405,-2.4832056788828,0.024740042,-0.19120082,0.04337143,196.25504,-98.70311,6.8240824,STD
3405645665000,0.410006,0.534794227009945,9.51783899553862,-2.50965826205967,0.024129177,-0.18967366,0.049785517,196.33519,-98.706764,6.817539,STD
3405650733000,0.415074,0.521017611126348,9.5346295729147,-2.52175684650085,0.02687807,-0.17348573,0.04886922,196.44002,-98.692215,6.7825775,STD
3405655710000,0.420051,0.498479412067335,9.55716774843957,-2.52626452867411,0.019547688,-0.15760323,0.043676864,196.54445,-98.67704,6.7492943,STD
3405660680000,0.425021,0.513960938733786,9.5718744182476,-2.55614295178682,0.019547688,-0.15241088,0.04062254,196.67207,-98.66066,6.7128186,STD
3405666778000,0.431119,0.570644353471279,9.58218070007941,-2.61797940520604,0.009773844,-0.15027285,0.02565634,196.79607,-98.6382,6.672793,STD
3405670653000,0.434994,0.605132961067579,9.586384,-2.6431987,-0.008552114,-0.13500121,0.025045475,196.93167,-98.60569,6.6280794,STD
3405675728000,0.440069,0.646708915259196,9.586384,-2.6431987,-0.01282817,-0.1020145,0.02076942,197.06215,-98.57085,6.579767,STD
3405681141000,0.445482,0.691488550064276,9.58623334692152,-2.64380130130244,-0.01985312,-0.07513642,0.02443461,197.2211,-98.53913,6.5425315,STD
3405685773000,0.450114,0.740260274245602,9.58248159928958,-2.65880801760825,-0.029932396,-0.049785517,0.030848695,197.37248,-98.50664,6.5067525,STD
3405690660000,0.455001,0.791716970289242,9.57852331114682,-2.67464088086096,-0.029626964,-0.03359759,0.0290161,197.55177,-98.467064,6.4781027,STD
3405695709000,0.46005,0.846176314974883,9.57927995408478,-2.68397887661937,-0.035124753,-0.022602014,0.028099801,197.72733,-98.42715,6.452941,STD
3405700746000,0.465087,0.901441926513616,9.58353124068036,-2.68823003004318,-0.03359759,-0.027794369,0.032070424,197.90482,-98.39023,6.4294934,STD
3405705716000,0.470057,0.942102894657534,9.586384,-2.68869880771037,-0.032375857,-0.03848451,0.04184427,198.13039,-98.34378,6.417738,STD
3405710679000,0.47502,0.95326447769863,9.586384,-2.68125776529941,-0.030848695,-0.04550946,0.040317107,198.35843,-98.29745,6.404687,STD
3405715643000,0.479984,0.96442830969863,9.586384,-2.67381522358513,-0.029321533,-0.07574729,0.047647487,198.67351,-98.22592,6.4062834,STD
3405720667000,0.485008,0.955909658931802,9.58354698418941,-2.68611385319751,-0.032070424,-0.1133155,0.044593163,198.9951,-98.15436,6.405285,STD
3405725669000,0.49001,0.940837460040903,9.57977886069378,-2.70495403787462,-0.03268129,-0.13744467,0.046731193,199.32451,-98.0894,6.4086227,STD
3405730686000,0.495027,0.927283232992612,9.57263945530568,-2.72398054469432,-0.03848451,-0.16584991,0.05467244,199.7612,-97.977684,6.4115963,STD
3405736567000,0.500908,0.918137965249655,9.54977627401153,-2.74684372598847,-0.042455133,-0.1908954,0.050701816,200.20663,-97.87077,6.4134917,STD
3405740684000,0.505025,0.911735811313632,9.53377088081513,-2.76284911918487,-0.03940081,-0.20677789,0.048258353,200.85315,-97.67478,6.408806,STD
3405745698000,0.510039,0.886922230989934,9.49747062502972,-2.78485286803519,-0.04184427,-0.22571471,0.046120327,201.50963,-97.49524,6.407404,STD
3405750661000,0.515002,0.85678530739637,9.45603230886899,-2.80745562170088,-0.040927973,-0.23335053,0.0421497,202.16924,-97.33453,6.4095516,STD
3405755821000,0.520162,0.823366355289855,9.423578,-2.84577126261675,-0.038179077,-0.23304509,0.03756821,202.86119,-97.18306,6.4074454,STD
3405760774000,0.525115,0.785174777246377,9.423578,-2.9259735326409,-0.04184427,-0.22479841,0.032375857,203.55489,-97.04818,6.4086018,STD
3405765611000,0.529952,0.747877651666667,9.423578,-3.00429745351852,-0.04184427,-0.20463985,0.044593163,204.23048,-96.93618,6.407334,STD
3405770706000,0.535047,0.7374141,9.43182341097889,-3.02901931292898,-0.039095376,-0.18417588,0.03481932,204.90535,-96.83174,6.40214,STD
3405775671000,0.540012,0.7374141,9.44277538142035,-3.0326698935048,-0.03176499,-0.15699236,0.029932396,205.57462,-96.74693,6.405652,STD
3405780680000,0.545021,0.736987678222827,9.45529392572428,-3.03414201289131,-0.031154128,-0.13347405,0.028710667,206.22685,-96.671616,6.3962097,STD
3405785646000,0.549987,0.733905275682157,9.47687055039212,-3.02181240272863,-0.040317107,-0.10903945,0.025045475,206.8727,-96.6046,6.3877892,STD
3405790736000,0.555077,0.730745906183162,9.49898593894614,-3.00917492473265,-0.03023783,-0.09315695,0.027794369,207.54663,-96.542984,6.3801737,STD
3405795753000,0.560094,0.728349900388098,9.52088380651682,-2.99497749805951,-0.031154128,-0.08277224,0.01985312,208.21518,-96.48704,6.3710575,STD
3405800749000,0.56509,0.736086914100906,9.54409492844437,-2.95629242949547,-0.019242255,-0.077579886,0.013744468,208.88107,-96.44422,6.365719,STD
3405806250000,0.570591,0.744605991849935,9.56965225064683,-2.91369704075032,-0.009773844,-0.07971791,0.015882496,209.59052,-96.40124,6.3564215,STD
3405810734000,0.575075,0.749680919959927,9.59294717593741,-2.88294238836943,-0.0125227375,-0.07422013,0.028405234,210.29486,-96.3715,6.3507085,STD
3405815683000,0.580024,0.754202967779792,9.62007955729415,-2.85128810084916,0.0027488936,-0.08307768,0.02443461,211.00253,-96.34951,6.3430595,STD
3405820656000,0.584997,0.759954781967821,9.63257443249055,-2.82965435052273,0.028405234,-0.07696902,0.029321533,211.73364,-96.34889,6.348839,STD
3405825700000,0.590041,0.76711806978572,9.62899273248313,-2.81890936269741,0.038179077,-0.06505715,0.026572637,212.46326,-83.64244,6.3534336,STD
3405830846000,0.595187,0.774426213939349,9.62533860317343,-2.80794708923408,0.050701816,-0.049785517,0.030848695,213.20795,-83.61327,6.367355,STD
3405835683000,0.600024,0.765633082546073,9.63141666201467,-2.75220012751834,0.056505036,-0.04428773,0.038789943,213.94904,-83.57174,6.383512,STD
3405840628000,0.604969,0.752923087690106,9.63989013938093,-2.68441372422616,0.05222898,-0.039095376,0.04520403,214.6829,-83.51856,6.4022155,STD
3405845646000,0.609987,0.728161940825749,9.64555657894737,-2.6442168903179,0.058337633,-0.039095376,0.048563786,215.4234,-83.447266,6.4292536,STD
3405850770000,0.615111,0.692560617280042,9.64879278947368,-2.62803448588577,0.06719518,-0.032375857,0.052534413,216.15732,-83.36482,6.4597588,STD
3405855696000,0.620037,0.658334988906477,9.65190394736842,-2.61247739684738,0.073303826,-0.022602014,0.050701816,216.90364,-83.26546,6.492043,STD
3405860958000,0.625299,0.619646282730924,9.653421,-2.59114161927711,0.071776666,-0.01282817,0.058643065,217.64444,-83.15364,6.5296144,STD
3405865882000,0.630223,0.581769846425703,9.653421,-2.56746874771084,0.07544186,-0.0070249503,0.058643065,218.38025,-83.03811,6.5656805,STD
3405870705000,0.635046,0.57316566580138,9.65952167038344,-2.5570073,0.0729984,0.005192355,0.06414085,219.1388,-82.906334,6.5999393,STD
3405875849000,0.64019,0.588972856765602,9.67137729881277,-2.5570073,0.058948494,0.017715093,0.06688975,219.89136,-82.7674,6.6348395,STD
3405880805000,0.645146,0.604034449132345,9.68168825073238,-2.55654356041703,0.057726767,0.010995574,0.06291912,220.64973,-82.62316,6.665566,STD
3405885813000,0.650154,0.616431639647596,9.67342328157849,-2.54827876386352,0.048563786,0.027488936,0.06383542,221.39339,-82.468796,6.699455,STD
3405890617000,0.654958,0.628323832785628,9.66549498449078,-2.54035063234534,0.034513887,0.042455133,0.062002823,222.149,-82.29977,6.739149,STD
3405895662000,0.660003,0.658817041421794,9.65497377415784,-2.52447980406453,0.026267206,0.039095376,0.06841691,222.90042,-82.12448,6.782909,STD
3405900709000,0.66505,0.697037937301123,9.64350767341452,-2.50536937009331,0.011301007,0.03390302,0.06536258,223.644,-81.946365,6.82459,STD
3405905750000,0.670091,0.7324638096619,9.634268,-2.48688536398281,0.0106901415,0.033292156,0.06352998,224.37914,-81.76496,6.8717074,STD
3405910751000,0.675092,0.756218609270894,9.634268,-2.47104885020253,0.009468411,0.020158553,0.059864793,225.11601,-81.58126,6.919217,STD
3405915687000,0.680028,0.7796646582351,9.634268,-2.45541816993469,-0.004276057,0.0030543262,0.06719518,225.83218,-81.39669,6.9755964,STD
3405921648000,0.685989,0.78529817,9.65204210603234,-2.46232700073849,0.0012217305,-0.02076942,0.059864793,226.55197,-81.21985,7.028387,STD
3405925684000,0.690025,0.78529817,9.66706541324627,-2.47134101644123,-0.014049901,-0.06169739,0.06872234,227.27846,-81.03269,7.089905,STD
3405930788000,0.695129,0.78529817,9.68049718257295,-2.48535733996712,-0.013133603,-0.07941248,0.062308256,228.01149,-80.84161,7.154759,STD
3405935741000,0.700082,0.78529817,9.67269859958898,-2.50875255962187,-0.013744468,-0.10445796,0.06811147,228.75507,-80.64501,7.227887,STD
3405940614000,0.704955,0.78529817,9.66502597796958,-2.53176990373202,-0.005497787,-0.11728613,0.07147124,229.49736,-80.45374,7.301865,STD
3405945689000,0.71003,0.788112209540658,9.65455599891372,-2.54066773954066,-0.016187929,-0.13561209,0.06811147,230.24554,-80.262314,7.3771706,STD
3405950769000,0.71511,0.791887050012415,9.64323163516449,-2.54444258001241,-0.014966198,-0.13133603,0.06780604,230.98799,-80.07672,7.4545865,STD
3405955686000,0.720027,0.798423989015634,9.62787978459757,-2.55026973566879,-0.010995574,-0.13072516,0.08002335,231.73196,-79.89731,7.5349917,STD
3405960763000,0.725104,0.818533776451319,9.59168227388535,-2.56635768152866,-0.01863139,-0.13500121,0.08124508,232.47409,-79.722,7.612835,STD
3405965617000,0.729958,0.837760270091819,9.55707468731905,-2.58173898726115,-0.02321288,-0.11789699,0.077579886,233.20511,-79.55484,7.690612,STD
3405970639000,0.73498,0.86913047855806,9.53635610489055,-2.585738,-0.013744468,-0.10842858,0.07941248,233.93698,-79.39144,7.7711234,STD
3405975671000,0.740012,0.904423372202783,9.52067005590365,-2.585738,-0.020463986,-0.07788532,0.07941248,234.65578,-79.22916,7.849059,STD
3405980695000,0.745036,0.939547193538647,9.50623673671498,-2.58456055021739,-0.019242255,-0.04550946,0.06994407,235.36487,-79.07616,7.930114,STD
3405985672000,0.750013,0.974086150966184,9.4947239178744,-2.58072285043478,-0.015577064,-0.019547688,0.06994407,236.06445,-78.92446,8.012987,STD
3405992070000,0.756411,1.01953674478137,9.4850961598916,-2.56770870944847,-0.013744468,-0.0021380284,0.07086037,236.74211,-78.78282,8.097229,STD
3405995658000,0.759999,1.05225487398374,9.51529759078591,-2.50478925447154,-0.018325957,0.012217305,0.070249505,237.41142,-78.644806,8.17997,STD
3406000687000,0.765028,1.09811314370468,9.55762841463415,-2.41660030823995,-0.008857546,0.02107485,0.06566802,238.0544,-78.522255,8.265237,STD
3406005698000,0.770039,1.14291835406575,9.59814653641282,-2.3363767312526,-0.006414085,0.025045475,0.061391957,238.693,-78.40117,8.349472,STD
3406010682000,0.775023,1.1786717822139,9.62198179567208,-2.33240404977112,-0.016798794,0.0070249503,0.071776666,239.33336,-78.280945,8.436531,STD
3406015769000,0.78011,1.21516409541407,9.64630963753641,-2.32834926833125,-0.018936822,-0.011301007,0.06352998,239.99597,-78.13091,8.531913,STD
3406020787000,0.785128,1.23401713413217,9.65069261655773,-2.34353572524812,-0.016493361,-0.02321288,0.06872234,240.65884,-77.97941,8.633645,STD
3406025711000,0.790052,1.24543232735415,9.64688787000726,-2.3663661911563,-0.016493361,-0.043982297,0.063224554,241.32826,-77.83545,8.730309,STD
3406030729000,0.79507,1.25039753863435,9.63968083863435,-2.3929533227313,-0.008552114,-0.044593163,0.06872234,241.99744,-77.68237,8.841882,STD
3406035675000,0.800016,1.23132722186166,9.62061052186166,-2.43109395627667,-0.016493361,-0.04153884,0.065973446,242.66925,-77.53428,8.948798,STD
3406040616000,0.804957,1.21227618361382,9.60155948361382,-2.46919603277236,-0.018020526,-0.035124753,0.062308256,243.33107,-77.4005,9.056189,STD
3406045646000,0.809987,1.18528828050354,9.6209150559717,-2.4982174852268,-0.013439035,-0.005192355,0.06780604,243.98279,-77.26965,9.162863,STD
3406050721000,0.815062,1.15494973831669,9.6563096434665,-2.52349955971702,-0.03176499,0.012217305,0.06963864,244.63455,-77.13992,9.266456,STD
3406055715000,0.820056,1.13971846620238,9.67566237894306,-2.54410758938959,-0.04886922,0.013439035,0.06719518,245.26328,-77.03602,9.3611765,STD
3406061718000,0.826059,1.12558748781647,9.69450358508808,-2.56765926921753,-0.064751714,0.02076942,0.076052725,245.8831,-76.92964,9.457494,STD
3406065657000,0.829998,1.12602855858916,9.69945776812541,-2.56877151663401,-0.099265605,0.022296581,0.08155051,246.5032,-76.82947,9.545238,STD
3406070646000,0.834987,1.14163229967342,9.69425695558459,-2.54796641989985,-0.09682214,0.009773844,0.09040806,247.1224,-76.73482,9.635495,STD
3406075687000,0.840028,1.15363337815778,9.69393709308065,-2.54668685631556,-0.09743301,-0.027183503,0.08124508,247.73727,-76.65348,9.715111,STD
3406080768000,0.845109,1.16221160201851,9.6982258243279,-2.56384330403702,-0.09896017,-0.06505715,0.07086037,248.35352,-76.57441,9.79635,STD
3406085690000,0.850031,1.16358096216535,9.69747339773887,-2.58382434453168,-0.112704635,-0.12003502,0.07238753,248.97818,-76.49551,9.880018,STD
3406090670000,0.855011,1.1448589068933,9.68249586299757,-2.61377957040905,-0.07452556,-0.17531833,0.09987647,249.61115,-76.42637,9.96875,STD
3406095618000,0.859959,1.12625715398445,9.66761456944335,-2.64354231290728,-0.043982297,-0.23732115,0.106595986,250.25595,-76.364525,10.054942,STD
3406100700000,0.865041,1.1204864,9.6233239640271,-2.6977393798178,0.0018325958,-0.28710666,0.13591751,250.90883,-76.30556,10.155672,STD
3406105784000,0.870125,1.1204864,9.5664582186405,-2.7621871850035,0.03023783,-0.3378085,0.1386664,251.57874,-76.25642,10.251881,STD
3406110768000,0.875109,1.1169404577458,9.52052800543565,-2.81971795731415,0.060170226,-0.37843102,0.15149458,252.25562,-76.21557,10.358458,STD
3406115749000,0.88009,1.09406178110312,9.5281543902478,-2.8464099059952,0.08827003,-0.40225476,0.16279559,252.9403,-76.18219,10.464556,STD
3406120703000,0.885044,1.07130712057554,9.53573943549161,-2.87295716834532,0.09285152,-0.4288274,0.18173242,253.62448,-76.162796,10.5755625,STD
3406125686000,0.890027,1.04208583979373,9.54635229050279,-2.91402857198109,0.09315695,-0.44959682,0.19822577,254.31241,-76.147255,10.687385,STD
3406131335000,0.895676,1.00488813369145,9.5603012178771,-2.96982500975505,0.09040806,-0.48258355,0.21685717,255.00941,-76.12888,10.804085,STD
3406135746000,0.900087,0.970903137834692,9.57438754016298,-3.00589092200233,0.09132435,-0.48899764,0.22449298,255.699,-76.12301,10.912826,STD
3406140708000,0.905049,0.922958895925495,9.59651571105937,-3.03170699301513,0.09315695,-0.49541172,0.23060162,256.39615,-76.11422,11.024877,STD
3406145605000,0.909946,0.875642702328289,9.61835401272798,-3.05718488494373,0.07360926,-0.49021935,0.24098633,257.0857,-76.113075,11.132405,STD
3406150700000,0.915041,0.819696864974619,9.64417523756345,-3.08730963309645,0.05009095,-0.4633413,0.26358834,257.76843,-76.10842,11.241325,STD
3406155743000,0.920084,0.761750770327642,9.67091966054453,-3.11851149093678,0.03573562,-0.42088616,0.28252518,258.4433,-76.101616,11.348121,STD
3406160661000,0.925002,0.664213200711709,9.69260920971044,-3.1211586356927,0.026572637,-0.35521814,0.30115658,259.10223,-76.09917,11.446872,STD
3406165654000,0.929995,0.533680311373696,9.71125665545481,-3.10251109259043,0.006414085,-0.29138273,0.3173445,259.747,-76.08993,11.545717,STD
3406170642000,0.934983,0.450889639912162,9.72250058344595,-3.05043630033784,0.0036651916,-0.22449298,0.32986724,260.37787,-76.08465,11.638072,STD
3406175659000,0.94,0.414367549420608,9.7265586754223,-2.96521806376689,-0.00580322,-0.14905111,0.3390302,260.9853,-76.073456,11.728493,STD
3406180677000,0.945018,0.377102195801452,9.73227474173621,-2.87428550117048,0.0009162979,-0.07788532,0.3491095,261.5796,-76.076836,11.79515,STD
3406185727000,0.950068,0.335170590512626,9.74799886658719,-2.74849064151945,0.021380283,-0.008246681,0.35643986,262.15005,-76.080734,11.85872,STD
3406190632000,0.954973,0.300990431035272,9.7576725005129,-2.62845451239643,0.027183503,0.050396383,0.3594942,262.7365,-76.051636,11.927817,STD
3406195646000,0.959987,0.282045380400063,9.75388341521344,-2.51099528154344,0.04642576,0.09560041,0.3594942,263.3035,-76.02948,11.993616,STD
3406201001000,0.965342,0.261811884956995,9.74983663583997,-2.38554769853231,0.08399397,0.11911872,0.35277468,263.886,-75.98367,12.063183,STD
3406205707000,0.970048,0.27735556032406,9.71162545857536,-2.21146072326506,0.11759156,0.13194689,0.34513888,264.45468,-75.944466,12.128488,STD
3406210723000,0.975064,0.301831907496179,9.66267281534699,-2.01075468156527,0.172264,0.13530666,0.33658674,265.0159,-75.91934,12.188449,STD
3406215670000,0.980011,0.341305545077343,9.63018952289961,-1.84891918289354,0.22082779,0.116675265,0.3210097,265.60803,-75.870224,12.250765,STD
3406220685000,0.985026,0.38500680570822,9.60105577504802,-1.693536929633,0.24465153,0.09437868,0.30879238,266.19574,-75.83158,12.30851,STD
3406225705000,0.990046,0.460995178165005,9.5599893931097,-1.59082395040798,0.25320363,0.06566802,0.28802297,266.82565,-75.75244,12.380401,STD
3406230777000,0.995118,0.54466677118767,9.51595174161378,-1.49834479029918,0.24007004,0.06688975,0.2602286,267.4472,-75.68538,12.442404,STD
3406235649000,0.99999,0.654225375932401,9.49166243793706,-1.42544294172494,0.2180789,0.058643065,0.24923302,268.13025,-75.56585,12.527289,STD
3406240732000,1.005073,0.786607805982906,9.47747832051282,-1.35925177606838,0.20891592,0.05589417,0.226631,268.80255,-75.4652,12.595739,STD
3406246683000,1.011024,0.937844103806228,9.44999137674065,-1.2974363151574,0.16371189,0.03756821,0.20280726,269.4713,-75.33824,12.677273,STD
3406250694000,1.015035,1.03834116608997,9.42729871010212,-1.26177605742257,0.11026118,0.018936822,0.18234327,270.13174,-75.22253,12.748479,STD
3406255703000,1.020044,1.19886465605712,9.38544267186474,-1.22962774977019,0.056199603,-0.0067195175,0.15057829,270.78787,-75.08244,12.83775,STD
3406260829000,1.02517,1.51313545,9.2847145,-1.2497733,0.016798794,-0.026572637,0.11942416,271.4389,-74.95072,12.916794,STD
3406265623000,1.029964,1.80705160024622,9.19051027527905,-1.26861406625082,-0.025045475,-0.044593163,0.10567969,272.08295,-74.787415,13.022474,STD
3406270651000,1.034992,1.96095874751934,9.15571307666298,-1.31784744051629,-0.071776666,-0.071776666,0.08368854,272.72766,-74.63645,13.112941,STD
3406275683000,1.040024,2.06123159704142,9.14317904818259,-1.37738441935757,-0.10476339,-0.09590584,0.07391469,273.36774,-74.490486,13.198785,STD
3406280811000,1.045152,2.16341744210287,9.13040589674231,-1.43805723881267,-0.12950343,-0.12186762,0.056199603,273.92242,-74.35058,13.311597,STD
3406285727000,1.050068,2.27827581275307,9.13521557674338,-1.538022047638,-0.15149458,-0.15760323,0.05100725,274.48157,-74.21202,13.422278,STD
3406290703000,1.055044,2.40196725584011,9.14758454023187,-1.6575904454923,-0.16676621,-0.20463985,0.043982297,275.0472,-74.08189,13.52492,STD
3406295617000,1.059958,2.52172800594564,9.15224732030955,-1.77632681258966,-0.17073683,-0.25350907,0.056505036,275.57822,-73.967186,13.640327,STD
3406300746000,1.065087,2.64225514949037,9.14297581540204,-1.90148961177803,-0.17562376,-0.2938262,0.062308256,276.11728,-73.85837,13.749801,STD
3406305734000,1.070075,2.72379642238954,9.14466342969047,-2.05443736635486,-0.17165314,-0.34605515,0.070554934,276.63995,-73.76699,13.875173,STD
3406310728000,1.075069,2.70197272974371,9.1773992155297,-2.29813507133622,-0.15821409,-0.39828414,0.071776666,277.1717,-73.68021,13.998194,STD
3406316445000,1.080786,2.67698953974447,9.2148742831394,-2.57711380168834,-0.14263703,-0.4428773,0.083383106,277.69513,-73.60275,14.137018,STD
3406320678000,1.085019,2.61966416899459,9.23553122592954,-2.69895312964771,-0.11178834,-0.4810564,0.09285152,278.22952,-73.53205,14.273592,STD
3406325685000,1.090026,2.5345615642648,9.25680686600408,-2.80533133002041,-0.06658431,-0.51893,0.09132435,278.77423,-73.467804,14.408077,STD
3406330698000,1.095039,2.43818831316087,9.27430563172185,-2.90997111819896,-0.026267206,-0.5363397,0.0870483,279.3153,-73.46321,14.522103,STD
3406335746000,1.100087,2.32151292479071,9.28524378995399,-3.01206213061317,-0.004581489,-0.54611355,0.081855945,279.86295,-73.46205,14.632974,STD
3406340655000,1.104996,2.20805026997511,9.29588075880534,-3.1113419998567,0.048563786,-0.5329799,0.0720821,280.4184,-73.495346,14.722265,STD
3406345648000,1.109989,2.10408416314908,9.30982552915371,-3.20835716066842,0.09865474,-0.49480084,0.049480084,280.9673,-73.533646,14.802312,STD
3406350742000,1.115083,2.00291237420435,9.32539073231236,-3.30563773008694,0.13958271,-0.4279111,0.029626964,281.50125,-73.57705,14.875344,STD
3406355681000,1.120022,1.88851772080307,9.34213750950788,-3.38298813821921,0.17928895,-0.3399465,0.0106901415,282.0213,-73.6681,14.9083,STD
3406360722000,1.125063,1.70727819895536,9.36577750795724,-3.394808055162,0.22968534,-0.25350907,-0.018936822,282.52017,-73.76891,14.927943,STD
3406365642000,1.129983,1.53038900088142,9.38885007141108,-3.40634425658206,0.26450464,-0.14477506,-0.05100725,282.99777,-73.90014,14.9160385,STD
3406370644000,1.134985,1.45526660144039,9.40577473306773,-3.33649722261722,0.29626966,-0.032375857,-0.081855945,283.44638,-74.03843,14.891838,STD
3406375697000,1.140038,1.41571883675554,9.4206049189907,-3.23762783671468,0.33383787,0.062308256,-0.111177474,283.86584,-74.18316,14.855281,STD
3406380682000,1.145023,1.41103816020661,9.43332098061982,-3.13012197170665,0.3585779,0.14813483,-0.13469578,284.2676,-74.3603,14.775705,STD
3406385680000,1.150021,1.41512471753607,9.44558065260821,-3.01978718534961,0.37568212,0.21746802,-0.16218472,284.64423,-74.54282,14.6850815,STD
3406390725000,1.155066,1.44722742362992,9.45460572348406,-2.90181034411336,0.3943135,0.28619036,-0.18570304,285.00092,-74.72076,14.585226,STD
3406395669000,1.16001,1.51135751156491,9.45953839112315,-2.7784831964576,0.39736784,0.3323107,-0.20677789,285.3419,-74.89995,14.478247,STD
3406400729000,1.16507,1.61184802273677,9.45511264275766,-2.66563336417131,0.3903429,0.37048978,-0.21868975,285.67148,-75.06143,14.374443,STD
3406405722000,1.170063,1.74088060749478,9.44262579648329,-2.56573715970578,0.38545597,0.39095375,-0.22785273,285.99115,-75.22374,14.266268,STD
3406410674000,1.175015,1.86829457959784,9.433155,-2.4604220432565,0.36743546,0.40317106,-0.23273966,286.30685,-75.35639,14.175121,STD
3406415659000,1.18,1.99472821289848,9.433155,-2.3339885077489,0.3463606,0.39767328,-0.23762658,286.62,-75.487946,14.082357,STD
3406420659000,1.185,2.12231372903501,9.43393604483347,-2.21343232766866,0.31978795,0.37598756,-0.2284636,286.92496,-75.57754,14.023578,STD
3406425672000,1.190013,2.25350697851409,9.43803591682323,-2.11913715552519,0.2941316,0.35185838,-0.22999077,287.23074,-75.66842,13.960845,STD
3406430667000,1.195008,2.38422915707942,9.4421210675491,-2.02518056568745,0.2565634,0.30207285,-0.21685717,287.5535,-75.71111,13.93672,STD
3406435747000,1.200088,2.47001652995043,9.442732,-1.96580872449803,0.23854288,0.22266038,-0.20525073,287.8899,-75.75435,13.911896,STD
3406440726000,1.205067,2.54612976632782,9.442732,-1.91373126238763,0.19547687,0.14263703,-0.20189096,288.2387,-75.79269,13.888471,STD
3406445669000,1.21001,2.57969431607191,9.43215557284679,-1.93346913096324,0.1554652,0.04642576,-0.18753563,288.6167,-75.78673,13.904066,STD
3406450684000,1.215025,2.5668078046351,9.40960421988194,-2.03333891339549,0.11301007,-0.03268129,-0.17684549,289.00995,-75.78011,13.918556,STD
3406456504000,1.220845,2.55185277042527,9.38343295881406,-2.1492396379729,0.062308256,-0.067500606,-0.16920967,289.3987,-75.75799,13.94571,STD
3406460720000,1.225061,2.5035657535951,9.37813098266191,-2.28098927078021,0.02687807,-0.09193522,-0.1591304,289.8041,-75.73299,13.975378,STD
3406465781000,1.230122,2.4145880054768,9.38307429699133,-2.47871771463539,0.018325957,-0.102319926,-0.15607607,290.21216,-75.708855,14.003325,STD
3406470667000,1.235008,2.34238246796923,9.385271,-2.68349291490231,0.004581489,-0.093767814,-0.15393804,290.61475,-75.69373,14.027493,STD
3406475698000,1.240039,2.28006115668868,9.385271,-2.90653756824835,0.0030543262,-0.08582657,-0.15363261,291.01782,-75.68003,14.050531,STD
3406480672000,1.245013,2.21844593062836,9.385271,-3.12705518020287,-0.0036651916,-0.07269296,-0.15027285,291.40674,-75.698235,14.049208,STD
3406485733000,1.250074,2.08714357042403,9.40757512402202,-3.26520359833865,0.0012217305,-0.05681047,-0.15271631,291.7899,-75.71884,14.045174,STD
3406490823000,1.255164,1.90822478524099,9.4452420089829,-3.34524629427219,0.0036651916,-0.032986723,-0.15974127,292.16412,-75.739655,14.039538,STD
3406495667000,1.260008,1.78831890915591,9.44758722610339,-3.40103845276568,0.0012217305,-0.025350908,-0.15118915,292.52798,-75.797806,14.008847,STD
3406500709000,1.26505,1.70894638343881,9.41980711975014,-3.44072463274431,0.013439035,-0.009162978,-0.15149458,292.87988,-75.85916,13.973169,STD
3406505718000,1.270059,1.63204827162919,9.39224135968829,-3.477125549931,0.03268129,0.025350908,-0.15027285,293.2249,-75.95407,13.9042015,STD
3406510746000,1.275087,1.57341666526504,9.36487979917201,-3.48494309200422,0.046120327,0.04153884,-0.1600467,293.568,-76.04934,13.832714,STD
3406515627000,1.279968,1.51649922877669,9.33831818881403,-3.49253207825311,0.06994407,0.07452556,-0.14966199,293.9001,-76.152115,13.752692,STD
3406520647000,1.284988,1.45841341346616,9.30748504852284,-3.47775020673308,0.08307768,0.08582657,-0.14782938,294.23145,-76.25655,13.668506,STD
3406526070000,1.290411,1.39597011137066,9.27180288217108,-3.44652855568533,0.10598512,0.11942416,-0.14874569,294.54395,-76.356186,13.587076,STD
3406530743000,1.295084,1.35085961926437,9.24214809011494,-3.39683243827586,0.13164146,0.13897185,-0.14752395,294.85294,-76.46394,13.495546,STD
3406535662000,1.300003,1.32198090528736,9.21326960229885,-3.29575716551724,0.13225232,0.16157386,-0.16371189,295.14914,-76.57288,13.399803,STD
3406540686000,1.305027,1.292485752,9.18377468,-3.19252436,0.1469131,0.20891592,-0.16310102,295.43738,-76.68051,13.302539,STD
3406545651000,1.309992,1.27124259847307,9.15048194530816,-3.12118557990006,0.14782938,0.24404067,-0.16310102,295.72083,-76.78877,13.201963,STD
3406550793000,1.315134,1.25301428936702,9.11402494641866,-3.06194332548584,0.14080444,0.258396,-0.16676621,295.9948,-76.89413,13.101961,STD
3406555674000,1.320015,1.2729940735339,9.08014215692652,-2.9874682643663,0.14446963,0.26419923,-0.16737708,296.25967,-76.99785,13.000955,STD
3406560669000,1.32501,1.32647489226547,9.04610924555341,-2.89509239242809,0.13439035,0.26358834,-0.16462818,296.5206,-77.098724,12.901214,STD
3406565681000,1.330022,1.36287532772445,9.02591067363072,-2.82377911818182,0.11728613,0.25870144,-0.16982053,296.78027,-102.799706,12.799472,STD
3406570708000,1.335049,1.38552847710333,9.01684920572182,-2.76941135151515,0.10354166,0.24587326,-0.1731803,297.0408,-102.70169,12.700229,STD
3406575697000,1.340038,1.40227895053207,9.02397066669921,-2.72880367979108,0.08124508,0.22693644,-0.17654006,297.30563,-102.61818,12.615118,STD
3406580682000,1.345023,1.41160060366104,9.05193543141658,-2.70549979030557,0.07666359,0.19914207,-0.17287487,297.57492,-102.537125,12.531811,STD
3406585657000,1.349998,1.40982723837827,9.08243127084418,-2.69296775556365,0.063224554,0.16157386,-0.16737708,297.8518,-102.46122,12.4538,STD
3406590812000,1.355153,1.38927195087957,9.11840251420839,-2.69810655060893,0.054061573,0.14049901,-0.17012598,298.12982,-102.38491,12.375,STD
3406595699000,1.36004,1.36406600140513,9.15314153950358,-2.70815655908288,0.03970624,0.11636983,-0.17501289,298.4119,-102.30721,12.294699,STU
3406600790000,1.365131,1.33124787761043,9.19006231964661,-2.72456564239798,0.038179077,0.08002335,-0.1740966,298.70154,-102.23138,12.215787,STU
3406605676000,1.370017,1.29939906388614,9.22490237362052,-2.7395760465865,0.032986723,0.058337633,-0.17867808,298.99182,-102.144325,12.125587,STU
3406610731000,1.375072,1.2625539656671,9.25437826752417,-2.74694505853566,0.025350908,0.04153884,-0.17928895,299.28888,-102.05975,12.037497,STU
3406615635000,1.379976,1.22680948264708,9.28297367478499,-2.75409394767486,0.025045475,0.025045475,-0.1863139,299.5904,-101.96298,11.936495,STU
3406620714000,1.385055,1.19011015046458,9.31380580894309,-2.76180199262485,0.032986723,0.01160644,-0.19120082,299.89343,-101.86819,11.836982,STU
3406625662000,1.390003,1.15472981593662,9.34525520499419,-2.76966432111332,0.027794369,0.0033597588,-0.18997909,300.19724,-101.77436,11.738258,STU
3406630754000,1.395095,1.11541981339524,9.37661519214286,-2.7800375932619,0.02443461,-0.02443461,-0.1966986,300.50397,-101.66365,11.621488,STU
3406635743000,1.400084,1.0319967092,9.39178294,-2.825541114,0.025961773,-0.032375857,-0.19211712,300.80493,-101.55853,11.50989,STU
3406641580000,1.405921,0.934393851074603,9.40952880976191,-2.87877904756349,0.007330383,-0.04550946,-0.19914207,301.1195,-101.441826,11.386729,STU
3406645675000,1.410016,0.875338001270683,9.423190157327,-2.91976259627937,0.002443461,-0.0571159,-0.20219639,301.4334,-101.33008,11.267598,STU
3406650722000,1.415063,0.809060238082091,9.44086457692659,-2.97278474777402,-0.0061086523,-0.0720821,-0.2049453,301.74945,-101.217896,11.148083,STU
3406655664000,1.420005,0.748014840783386,9.46384595260615,-3.02854329531202,-0.005497787,-0.073303826,-0.2125811,302.06616,-101.087364,11.008015,STU
3406660651000,1.424992,0.694004918135088,9.49821559576437,-3.09237330643569,-0.015882496,-0.06658431,-0.22052236,302.38223,-100.95806,10.869121,STU
3406665685000,1.430026,0.655092325682489,9.53361440972065,-3.14445745384965,-0.018936822,-0.055283304,-0.22968534,302.698,-100.815285,10.714219,STU
3406670718000,1.435059,0.640496179879628,9.57010470754788,-3.17729868379135,-0.02107485,-0.053145275,-0.24251351,303.01178,-100.67223,10.558517,STU
3406675708000,1.440049,0.626024737885533,9.60628324642289,-3.20985933100159,-0.016187929,-0.03726278,-0.2489276,303.31866,-100.52233,10.393095,STU
3406680683000,1.445024,0.647902084289371,9.6341712896363,-3.22415940776836,-0.02076942,-0.019242255,-0.26206118,303.62152,-100.37031,10.224966,STU
3406685669000,1.45001,0.681623813404838,9.65946265139477,-3.23258983234463,-0.01160644,-0.0030543262,-0.26145032,303.91772,-100.22519,10.0619,STU
3406690643000,1.454984,0.726453294712594,9.68003299956536,-3.21955835873085,-0.024129177,0.00580322,-0.26297748,304.21375,-100.0741,9.892095,STU
3406695699000,1.46004,0.784328293317396,9.69581686134956,-3.18272883514071,-0.0290161,-0.002443461,-0.2648101,304.50735,-99.92812,9.72531,STU
3406700750000,1.465091,0.83875223359467,9.72417214356929,-3.12990578229856,-0.04734206,-0.02321288,-0.26939157,304.79086,-99.78508,9.560792,STU
3406705736000,1.470077,0.890687296255778,9.75879576271186,-3.06931487812018,-0.05222898,-0.059864793,-0.26328292,305.07895,-99.64912,9.401433,STU
3406711888000,1.476229,0.935443573644445,9.80363203674074,-2.98120930310123,-0.06566802,-0.112704635,-0.2565634,305.36963,-99.517654,9.24848,STU
3406715671000,1.480012,0.953334473511111,9.83225729718519,-2.92038026970864,-0.079107046,-0.16646078,-0.25595254,305.66858,-99.38943,9.097676,STU
3406720743000,1.485084,0.979141431481886,9.90058420540856,-2.88641142097821,-0.08277224,-0.19883664,-0.25350907,305.97052,-99.27037,8.959047,STU
3406725724000,1.490065,1.00695809628982,10.0083737134631,-2.91770516434871,-0.08979719,-0.23671028,-0.2556471,306.28662,-99.15192,8.82073,STU
3406730653000,1.494994,1.03448436427582,10.1150379345433,-2.94867221134193,-0.09010262,-0.28160888,-0.25992316,306.61655,-99.03492,8.688727,STU
3406735638000,1.499979,1.05189950457505,10.2156352601269,-2.98063997886681,-0.09896017,-0.31642818,-0.2611449,306.95108,-98.9194,8.558493,STU
3406740905000,1.505246,1.06469637703171,10.3180105961099,-3.01476497208457,-0.098043874,-0.34300083,-0.258396,307.29266,-98.80696,8.429482,STU
3406745605000,1.509946,1.06740172815698,10.4033617840578,-3.04104837184302,-0.108123146,-0.37018433,-0.25686884,307.63882,-98.695816,8.300429,STU
3406750748000,1.515089,1.04890445617313,10.4819749364848,-3.05954564382687,-0.10751228,-0.39706242,-0.2660318,307.98865,-98.585915,8.170492,STU
3406755718000,1.520059,1.0283165926504,10.5494451725335,-3.08790555972499,-0.10262536,-0.44257188,-0.26267207,308.34613,-98.4767,8.039115,STU
3406760681000,1.525022,0.995638914262633,10.5788551700928,-3.1630641807769,-0.11362094,-0.48472157,-0.26908615,308.70624,-98.36366,7.9039683,STU
3406765649000,1.52999,0.962928314578893,10.6082947969062,-3.23829852077002,-0.11301007,-0.52748215,-0.27152961,309.07663,-98.24925,7.763886,STU
3406770680000,1.535021,0.934040359755321,10.6464080507743,-3.30160012463051,-0.118507855,-0.5513059,-0.28069258,309.44937,-98.13264,7.621817,STU
3406775647000,1.539988,0.917221197155081,10.7069569082809,-3.32851086066049,-0.11056661,-0.57604593,-0.2843578,309.83047,-98.02116,7.4819646,STU
3406781515000,1.545856,0.897351085188459,10.778489160314,-3.36030312943922,-0.12217305,-0.6001751,-0.2968805,310.21106,-97.900665,7.3246627,STU
3406785744000,1.550085,0.857525425328684,10.8379634837453,-3.37986735940929,-0.12492194,-0.623388,-0.30207285,310.59436,-97.78663,7.170342,STU
3406790680000,1.555021,0.784808056673162,10.9155286918265,-3.39925863611937,-0.12705997,-0.6627888,-0.30543262,310.9849,-97.672356,7.0146503,STU
3406795694000,1.560035,0.690797156026518,10.9095898102475,-3.40107943645532,-0.1423316,-0.7128797,-0.32253686,311.38324,-97.5501,6.847964,STU
3406800750000,1.565091,0.574689444735172,10.8139717181395,-3.38400481917625,-0.14874569,-0.7874053,-0.3408628,311.79544,-97.431564,6.6813326,STU
3406805674000,1.570015,0.461613026539248,10.7208499844488,-3.36737597908879,-0.1600467,-0.8622363,-0.36346483,312.21664,-97.292656,6.49134,STU
3406810737000,1.575078,0.291524384140667,10.5971201296667,-3.4550757438,-0.17531833,-0.93737274,-0.3933972,312.65414,-97.15098,6.295768,STU
3406815763000,1.580104,0.094408161758,10.459597521,-3.5971827346,-0.19120082,-0.95417154,-0.41874814,313.09116,-97.00841,6.097773,STU
3406820718000,1.585059,0.0352724375706735,10.426108477857,-3.76326397141027,-0.20738874,-0.9447031,-0.44104472,313.54333,-96.8368,5.8683286,STU
3406825717000,1.590058,0.0812797646562024,10.4721155315128,-3.95112712802915,-0.20433442,-0.9034697,-0.45051312,313.98578,-96.66934,5.639271,STU
3406830674000,1.595015,0.130437222309926,10.5236922011616,-4.13486195501584,-0.21380283,-0.80848014,-0.46639562,314.4061,-96.48598,5.371575,STU
3406835675000,1.600016,0.244228794271383,10.6838430211193,-4.27394062756072,-0.20219639,-0.6872234,-0.4841107,314.80212,-96.31363,5.106274,STU
3406840735000,1.605076,0.359362838287575,10.8458832428722,-4.41466010028159,-0.17928895,-0.54183745,-0.514654,315.15326,-96.17864,4.8451138,STU
3406845649000,1.60999,0.502668808507671,11.1119807336123,-4.47596166959554,-0.13622294,-0.41386122,-0.54061574,315.47028,-96.059,4.5866914,STU
3406850858000,1.615199,0.663561995794979,11.425070602772,-4.51944628535565,-0.086132,-0.28985557,-0.5858198,315.74222,-95.94776,4.3215747,STU
3406855728000,1.620069,0.869662252272953,11.8002172418184,-4.55829887909082,-0.017104227,-0.1695151,-0.61727935,315.97128,-95.891914,4.077702,STU
3406860738000,1.625079,1.13693262052124,12.267940336417,-4.59648033179151,0.050396383,-0.03756821,-0.65026605,316.15744,-95.852425,3.8283772,STU
3406865629000,1.62997,1.39780218021577,12.7031345205325,-4.58693785642944,0.112399206,0.1020145,-0.6575964,316.29874,-95.85518,3.6070824,STU
3406870635000,1.634976,1.66474628092918,13.1244054916478,-4.52437287365582,0.15393804,0.24556783,-0.6230826,316.39905,-95.88362,3.3967078,STU
3406875707000,1.640048,1.94184481218646,13.5486344568959,-4.37069430810373,0.18570304,0.36651915,-0.57360244,316.45975,-95.95384,3.2338831,STU
3406880735000,1.645076,2.24658196967662,13.9574282804662,-3.80953202220421,0.21013765,0.45142943,-0.5030475,316.4897,-96.04778,3.0938964,STU
3406885681000,1.650022,2.54634926898974,14.3595552198811,-3.25752154764992,0.2406809,0.46395215,-0.4129449,316.5044,-96.164276,3.0231311,STU
3406890683000,1.655024,2.68655641859253,14.5597083666377,-2.79223408253692,0.26816985,0.4147775,-0.3295618,316.5138,-96.29428,2.9729457,STU
3406895736000,1.660077,2.71178230284101,14.6143641784535,-2.38862041747176,0.29993483,0.3100141,-0.23915374,316.53784,-96.44406,2.950263,STU
3406900735000,1.665076,2.70629001000431,14.6440035675722,-2.02543979867184,0.31306845,0.16982053,-0.15149458,316.59476,-96.5001,3.0053823,STU
3406905697000,1.670038,2.62842170133678,14.6153155473911,-1.75085174827081,0.30024028,0.03145956,-0.06719518,316.6825,-96.56711,3.0789428,STU
3406911048000,1.675389,2.54134442187624,14.5789561885004,-1.46177364042367,0.25411993,-0.10629055,0.013439035,316.8269,-96.55851,3.1714122,STU
3406915697000,1.680038,2.39242769978498,14.4194022271243,-1.37667835479016,0.17867808,-0.1704314,0.0693332,316.98752,-96.55003,3.2740006,STU
3406920916000,1.685257,2.22525274332245,14.2402858312495,-1.28114979042765,0.07452556,-0.30757064,0.12064589,317.21527,-96.472725,3.3687203,STU
3406925676000,1.690017,2.03787548819127,13.9861604330839,-1.22699012165419,-0.054061573,-0.34025195,0.1414153,317.4256,-96.38239,3.4671254,STU
3406930692000,1.695033,1.79976676283409,13.6126568560599,-1.20831494280299,-0.11301007,-0.3585779,0.17715092,317.66547,-96.302704,3.576419,STU
3406935680000,1.700021,1.59394051295216,13.2389018249708,-1.1733209168028,-0.23090707,-0.3659083,0.21685717,317.91766,-96.15466,3.6582632,STU
3406940731000,1.705072,1.43329241746701,12.8568198117763,-1.11253513991563,-0.35430184,-0.35827246,0.2611449,318.16348,-96.01176,3.748532,STU
3406945693000,1.710034,1.31186118642647,12.4377021368947,-1.0398492601088,-0.47311515,-0.36132678,0.30940324,318.40955,-95.84231,3.8125408,STU
3406950761000,1.715102,1.36813144398466,11.7927581201284,-0.901337832551503,-0.5842926,-0.39064834,0.35979962,318.6534,-95.6727,3.8878956,STU
3406956283000,1.720624,1.43465907896569,11.1098857444058,-0.753138909000497,-0.698219,-0.42119157,0.41691554,318.90353,-95.48429,3.9569857,STU
3406960557000,1.724898,1.58120559140726,10.9429859381402,-0.688007119081054,-0.81336707,-0.46486846,0.48991394,319.15714,-95.3109,4.04314,STU
3406966332000,1.730673,1.77947783529883,10.7222446550205,-0.598509689832816,-0.9129381,-0.50762904,0.55863625,319.40363,-95.16008,4.1569977,STU
3406970540000,1.734881,1.92874914734208,10.6496260081089,-0.505719443698068,-0.9966267,-0.54702985,0.636827,319.65198,-95.04657,4.2921834,STU
3406975539000,1.73988,2.10607977683452,10.5633568503354,-0.395486924585044,-1.0818423,-0.6133087,0.7266242,319.9005,-95.00265,4.4769692,STU
3406980582000,1.744923,2.24188298689705,10.5420579906408,-0.290406834514039,-1.1542299,-0.6621779,0.8200866,320.14532,-95.016975,4.682246,STU
3406985544000,1.749885,2.37017703300936,10.5292287735781,-0.187771602089633,-1.2147056,-0.7275405,0.904386,320.4032,-95.09267,4.906609,STU
3406990542000,1.754883,2.45908218138963,10.5575730110678,-0.146696504375897,-1.2669345,-0.79198676,1.0051788,320.66034,-95.26802,5.1894174,STU
3406995535000,1.759876,2.52768609349252,10.6065758419758,-0.136895933077475,-1.3154984,-0.8524625,1.0784826,320.92297,-95.50174,5.483562,STU
3407000749000,1.76509,2.56405964889665,10.6738921236668,-0.193940027660905,-1.3500122,-0.8738427,1.138042,321.17664,-84.17972,5.8202114,STU
3407005628000,1.769969,2.58554061724899,10.7426310250092,-0.271271244567856,-1.3768903,-0.88178396,1.2003502,321.431,-83.80699,6.172612,STU
3407010634000,1.774975,2.59808934276206,10.8016544276206,-0.406345040557404,-1.4086553,-0.87017757,1.2498302,321.67294,-83.38666,6.540616,STU
3407015638000,1.779979,2.6030729437604,10.851490437604,-0.585754822204659,-1.421178,-0.83169305,1.2718215,321.89673,-82.93924,6.911472,STU
3407020715000,1.785056,2.65149952047376,10.9354755414759,-0.664931149735822,-1.4248432,-0.7495316,1.3206906,322.0956,-82.45789,7.3021173,STU
3407025630000,1.789971,2.72196350713279,11.0349540854174,-0.685655864424093,-1.4263704,-0.68783426,1.3710871,322.2782,-81.9653,7.691628,STU
3407030623000,1.794964,2.82211549489442,11.1448678878033,-0.628362881260637,-1.430341,-0.6383542,1.4434745,322.44324,-81.45722,8.097139,STU
3407035648000,1.799989,2.97378101727072,11.2712562190356,-0.431197770797353,-1.4269812,-0.6249151,1.534799,322.59134,-80.93469,8.514109,STU
3407040630000,1.804971,3.13573698303332,11.395672952362,-0.170686227637991,-1.4309518,-0.64996064,1.6380352,322.7345,-80.3824,8.961341,STU
3407045612000,1.809953,3.3113044962904,11.5190442176032,0.166213557603182,-1.4752395,-0.7370089,1.7525724,322.88208,-79.80714,9.42975,STU
3407050818000,1.815159,3.62391793731859,11.7383389599171,0.470653404160332,-1.5378532,-0.8686504,1.8768835,323.03168,-79.17946,9.940852,STU
3407055727000,1.820068,4.05846718876123,12.0429297727194,0.706203474409122,-1.6215417,-1.0564915,2.0723603,323.20944,-78.50706,10.497481,STU
3407060648000,1.824989,4.52032723058976,12.3559926506805,0.935045169086196,-1.690875,-1.2434162,2.3335052,323.3882,-77.75064,11.118326,STU
3407065942000,1.830283,5.1939124484986,12.7448100174984,1.13219208221646,-1.7577647,-1.4413365,2.6429086,323.60434,-76.937035,11.800525,STU
3407070641000,1.834982,5.63262194032258,13.0164636612903,1.22182292048387,-1.8164078,-1.6142114,2.9278772,323.83655,-75.99317,12.611322,STU
3407075689000,1.84003,5.7062639374552,13.1247604498208,1.10486229840502,-1.8521434,-1.7385225,3.1581733,324.08765,-75.001755,13.480163,STU
3407080715000,1.845056,5.74762984346801,13.2292617602615,0.966118239020469,-1.8661933,-1.7589865,3.2855387,324.33798,-73.90196,14.4643955,STU
3407085636000,1.849977,5.33852835449577,13.2848188007716,0.51661181186368,-1.8380935,-1.6493362,3.3206635,324.56445,-72.79713,15.462694,STU
3407090682000,1.855023,4.90607633571001,13.3714371629718,0.0451096870880767,-1.7562376,-1.3848315,3.295618,324.7619,-71.7018,16.468103,STU
3407095692000,1.860033,4.42215786417016,13.5822534002397,-0.467556448621929,-1.6737708,-1.0070114,3.2210925,324.87823,-70.64259,17.434742,STU
3407100729000,1.86507,3.95636531797053,13.7787095386213,-0.920688086737217,-1.5806139,-0.5354234,3.154508,324.9246,-69.69616,18.310156,STU
3407105642000,1.869983,3.58409072398378,13.9090053501137,-1.11613219270102,-1.5314392,-0.0870483,3.0879238,324.8572,-68.7963,19.12727,STU
3407110681000,1.875022,3.20052201070791,13.987860505354,-1.26739713265913,-1.4840971,0.10720685,3.0069842,324.7879,-68.03924,19.83114,STU
3407115682000,1.880023,2.81114313920286,13.7931710696014,-1.17242672456871,-1.4853189,0.41172317,2.9633074,324.5456,-67.306076,20.48426,STU
3407120905000,1.885246,2.37271675735645,13.4985845010736,-1.0583392358438,-1.4923438,0.605062,2.806315,324.31747,-66.69852,21.015873,STU
3407125668000,1.890009,1.84670450739621,12.8673697632416,-0.895094058740258,-1.5118915,0.6789767,2.74981,324.02582,-66.08678,21.541714,STU
3407130738000,1.895079,1.28678804564975,12.1954699688246,-0.721326885128042,-1.536326,0.7150178,2.6435194,323.68335,-65.56147,21.948675,STU
3407135665000,1.900006,0.9140948871599,11.6760086187704,-0.719049229738311,-1.5253305,0.6988298,2.5399778,323.33447,-65.06146,22.329838,STU
3407140651000,1.904992,0.633861319105253,11.2257971395517,-0.810929063738695,-1.5180001,0.6792821,2.4611762,322.9781,-64.58768,22.677687,STU
3407145700000,1.910041,0.40349045096604,10.8170562606447,-0.903219511394587,-1.4761559,0.68477994,2.3991733,322.56396,-64.167984,22.931093,STU
3407150740000,1.915081,0.216279652703672,10.4467948022755,-0.994744816686778,-1.4132367,0.6918049,2.3328943,322.16144,-63.779804,23.15588,STU
3407155702000,1.920043,0.0489041507374122,10.0828188653962,-1.07918994409228,-1.3271047,0.7293731,2.2766948,321.7842,-63.41054,23.368916,STU
3407160667000,1.925008,-0.0655564613247743,9.72036091755266,-1.14595863661986,-1.2287555,0.7632761,2.2275202,321.41156,-63.073124,23.558935,STU
3407165680000,1.930021,-0.147085653676159,9.38744267933959,-1.21026502003938,-1.131017,0.7883216,2.175902,321.0653,-62.75763,23.742277,STU
3407170715000,1.935056,-0.1215225994691,9.15737513427749,-1.26504299061648,-1.0409144,0.80664754,2.1352794,320.7161,-62.47083,23.907383,STU
3407175651000,1.939992,-0.0964621753249015,8.93183126090578,-1.31874389682672,-0.97097033,0.80909103,2.082745,320.39722,-62.19635,24.075788,STU
3407180756000,1.945097,-0.00816850789896219,8.72091402819659,-1.39565786140591,-0.8875872,0.8127562,2.039679,320.07773,-61.950676,24.228552,STU
3407185732000,1.950073,0.117802035402389,8.52962546113178,-1.48430373757588,-0.82924956,0.79717916,2.0076087,319.76993,-61.727818,24.365911,STU
3407190675000,1.955016,0.312023336645466,8.37829238664341,-1.5281883633771,-0.77518797,0.7858781,1.9813415,319.4983,-61.49299,24.534752,STU
3407195709000,1.96005,0.564248622254822,8.25465212053755,-1.53807964663521,-0.7290677,0.77091193,1.9706513,319.23645,-61.275734,24.694841,STU
3407200746000,1.965087,0.82715183917368,8.14807435906657,-1.55098115539403,-0.7079928,0.7632761,1.9767599,319.00943,-61.036785,24.898136,STU
3407205759000,1.9701,1.09529437090283,8.05257164620505,-1.56567384799541,-0.68569624,0.7666359,1.9850066,318.78622,-60.812958,25.093367,STU
3407211049000,1.97539,1.39666537112521,7.943564899533,-1.56049123925897,-0.6606508,0.7855727,2.0094411,318.57312,-60.548904,25.341461,STU
3407215665000,1.980006,1.89135483909596,7.74491001744647,-1.29561815126883,-0.6542367,0.77763146,2.024102,318.3686,-60.292015,25.584528,STU
3407220768000,1.985109,2.43823533195876,7.52529652886598,-1.00280026391753,-0.6563747,0.754724,2.053729,318.17163,-59.9784,25.89934,STU
3407225746000,1.990087,2.68296299102339,7.37688813739766,-0.767024748937622,-0.63346726,0.68539083,2.071444,317.9919,-59.67463,26.212343,STU
3407230723000,1.995064,2.8269762697076,7.25145740502924,-0.54868196411306,-0.636827,0.60994893,2.0928242,317.81903,-59.36479,26.529879,STU
3407235681000,2.000022,2.86729953264452,7.13094064734123,-0.358247817183041,-0.65240407,0.52534413,2.0815234,317.62854,-58.939636,26.946392,STU
3407240708000,2.005049,2.85872336407767,7.01087352621359,-0.178147204446602,-0.6585127,0.43799037,2.0717494,317.4591,-58.516808,27.36696,STU
3407245654000,2.009995,2.84070687504888,6.89610790848152,-0.0333034995220184,-0.66859204,0.35979962,2.0277672,317.28812,-58.054363,27.805355,STU
3407250700000,2.015041,2.80921327679918,6.78363110743878,0.07017522978475,-0.6737844,0.28191432,1.9819523,317.1428,-57.602947,28.238268,STU
3407255798000,2.020139,2.76195913838934,6.6656954763851,0.172936311534968,-0.66767573,0.23365596,1.9327776,316.99088,-57.13189,28.66558,STU
3407260754000,2.025095,2.68053169327884,6.54115913378747,0.268733375803815,-0.6536258,0.16768251,1.87444,316.87048,-56.684174,29.076025,STU
3407265621000,2.029962,2.61052345046932,6.41420283612291,0.331131746552712,-0.6270532,0.09987647,1.824349,316.75058,-56.233757,29.47654,STU
3407270714000,2.035055,2.56233187520008,6.26962841224187,0.316674279004051,-0.57696223,0.044898596,1.7788396,316.64905,-55.811047,29.85759,STU
3407275675000,2.040016,2.5165973113521,6.11425650991941,0.296075878449905,-0.52290064,0.01985312,1.7489072,316.55328,-55.38362,30.231232,STU
3407280748000,2.045089,2.47309433006666,5.91607618893642,0.257406576332703,-0.44776422,0.015882496,1.7119498,316.4696,-54.988106,30.58426,STU
3407285712000,2.050053,2.44437340625554,5.7416428115187,0.22984336,-0.3640757,0.027794369,1.6783522,316.3942,-54.6009,30.937845,STU
3407290829000,2.05517,2.45305752562467,5.61572289930888,0.22984336,-0.28191432,0.03970624,1.6380352,316.3211,-54.242825,31.27114,STU
3407296035000,2.060376,2.46714361735117,5.49291925169555,0.232274548686888,-0.18875736,0.06658431,1.5833627,316.24548,-53.90097,31.600729,STU
3407300657000,2.064998,2.53802609734363,5.44288462140166,0.261461442481161,-0.10170906,0.086437434,1.5146403,316.17133,-53.589966,31.90713,STU
3407305714000,2.070055,2.61557968914846,5.38814097678975,0.293395263752826,-0.011911872,0.08857546,1.4489723,316.09637,-53.29097,32.21244,STU
3407310671000,2.075012,2.67998302860057,5.36495372966136,0.309789781740106,0.076358154,0.10354166,1.4165965,316.0127,-53.01785,32.498096,STU
3407315629000,2.07997,2.74294335777234,5.34558132068543,0.324319098586291,0.11026118,0.12461651,1.3548992,315.93503,-52.77872,32.750637,STU
3407320665000,2.085006,2.80808131543971,5.41390252956626,0.35012699557501,0.18509217,0.1386664,1.287704,315.85574,-52.544617,33.0117,STU
3407325656000,2.089997,2.87275013738957,5.48998332366096,0.376755317201751,0.25259277,0.15057829,1.2311989,315.7745,-52.331345,33.251106,STU
3407330680000,2.095021,2.90738120031405,5.59888367784419,0.394633129842974,0.30176744,0.16310102,1.1695015,315.70013,-52.129307,33.48473,STU
3407335665000,2.100006,2.89770835095735,5.75364946955729,0.399469554521325,0.36132678,0.15577064,1.1194105,315.63214,-51.952045,33.701504,STU
3407340625000,2.104966,2.862489952133,5.88216690555207,0.400104044031786,0.3915646,0.14019357,1.0729848,315.57388,-51.786335,33.905582,STU
3407345644000,2.109985,2.79212980652447,5.97765558462986,0.395078326842325,0.41905355,0.124005646,1.0228939,315.52335,-51.64429,34.09102,STU
3407350736000,2.115077,2.64379213953072,6.03067098533047,0.378929699788644,0.44318274,0.103847094,0.96761054,315.4993,-51.536648,34.246677,STU
3407355680000,2.120021,2.4317747256672,6.04339202219237,0.353487608353932,0.44318274,0.08368854,0.90408057,315.4865,-51.44664,34.38383,STU
3407360996000,2.125337,2.23401094073411,6.02839823428827,0.320098554628469,0.44043383,0.08277224,0.8509353,315.49048,-51.390522,34.487488,STU
3407365747000,2.130088,2.11181020177261,5.96322459474485,0.279364977810206,0.44715336,0.095294975,0.7812967,315.5053,-51.35783,34.56674,STU
3407370736000,2.135077,1.99115627955744,5.89193731601694,0.234229879870343,0.4361578,0.1133155,0.7089091,315.54657,-51.367126,34.5982,STU
3407375692000,2.140033,1.97884857254732,5.78116795292592,0.156281008832224,0.42577308,0.121256754,0.623388,315.5967,-51.399742,34.604828,STU
3407380775000,2.145116,1.96622547433659,5.6675600690293,0.0763346586532976,0.4269948,0.13683382,0.54305923,315.66272,-51.45905,34.585804,STU
3407385732000,2.150073,1.86437278968177,5.5386772861803,0.0510819618827232,0.41874814,0.16584991,0.46517387,315.7317,-51.538002,34.54104,STU
3407390793000,2.155134,1.73118293585675,5.40119089862601,0.042489068044145,0.41722095,0.16615535,0.36682457,315.81696,-51.64414,34.4693,STU
3407396448000,2.160789,1.65811284736369,5.27101960176354,-0.00570093128180673,0.41874814,0.1740966,0.27488935,315.91125,-51.761253,34.395145,STU
3407400673000,2.165014,1.64719091444125,5.18728492208026,-0.0639510781303761,0.41050145,0.18661933,0.19639318,316.0136,-51.898544,34.297134,STU
3407405656000,2.169997,1.65468501113528,5.10427111518987,-0.130754855534019,0.41172317,0.22418754,0.16187929,316.1115,-52.045956,34.183067,STU
3407410717000,2.175058,1.72178895627967,5.06592603227848,-0.193065665314478,0.41386122,0.28619036,0.07666359,316.21194,-52.225277,34.031067,STU
3407415634000,2.179975,1.804414202659,5.02848066510959,-0.229509577398491,0.40744713,0.33750305,0.004581489,316.3133,-52.407032,33.88518,STU
3407420685000,2.185026,1.94781087664391,4.98937253079411,-0.18605605852677,0.4184427,0.37384954,-0.06505715,316.4086,-52.6111,33.713676,STU
3407425945000,2.190286,2.11510791790792,4.94879454324645,-0.130774958469871,0.41508293,0.40622538,-0.13133603,316.50262,-52.821915,33.539944,STU
3407430766000,2.195107,2.51366214218009,4.91362809004739,0.0567800243601896,0.42760566,0.44318274,-0.17806722,316.5888,-53.04661,33.350754,STU
3407435721000,2.200062,2.9232942063304,4.87748418305687,0.249548109803656,0.4343252,0.46914452,-0.21777347,316.66003,-53.242954,33.182663,STU
3407440859000,2.2052,3.27087786988671,4.87516384950566,0.441167298323378,0.43554693,0.46853364,-0.2773328,316.73514,-53.454895,32.997665,STU
3407445670000,2.210011,3.56032338578785,4.88939881071061,0.616732569660144,0.453262,0.44929138,-0.31978795,316.81076,-53.672546,32.80835,STU
3407450708000,2.215049,3.85782135284449,4.92495095035157,0.751503439786321,0.47678033,0.39461896,-0.36774087,316.844,-53.7895,32.701252,STU
3407455690000,2.220031,4.14972906614921,4.96851922502968,0.864781022189754,0.49510628,0.3173445,-0.4175264,316.89587,-53.917496,32.587326,STU
3407460632000,2.224973,4.44407029255603,5.01115857371932,0.92803039790555,0.5207626,0.20463985,-0.46914452,316.94482,-53.988102,32.52386,STU
3407465631000,2.229972,4.74637245787976,5.05373619131981,0.945061520526503,0.56321776,0.07513642,-0.5320636,317.03036,-54.07783,32.452145,STU
3407470649000,2.23499,5.03602531038546,5.10752462775627,0.925908463103855,0.6044512,-0.057726767,-0.6218608,317.12845,-54.132183,32.423363,STU
3407475737000,2.240078,5.29028053233462,5.19364358820064,0.802881719323346,0.65270954,-0.20463985,-0.72265357,317.27866,-54.211365,32.38523,STU
3407480688000,2.245029,5.53768965259216,5.27744370085003,0.683167606025922,0.7021896,-0.34147367,-0.840856,317.44904,-54.283417,32.37336,STU
3407485702000,2.250043,5.7566933030316,5.40102156612938,0.436543130289283,0.7324274,-0.46486846,-0.98624194,317.6716,-54.391468,32.335567,STU
3407490910000,2.255251,5.97265724346754,5.53596286295481,0.17181387133997,0.7507534,-0.56382865,-1.1346822,317.93787,-54.53418,32.272,STU
3407495718000,2.260059,6.06595675667342,5.68605328106775,0.0217235167632808,0.7489208,-0.61819565,-1.2873985,318.23938,-54.70887,32.204174,STU
3407500666000,2.265007,6.16197297783455,5.84051405245353,-0.132737189236191,0.7510588,-0.63224554,-1.4220943,318.5913,-54.93168,32.118626,STU
3407505665000,2.270006,6.15173611811401,5.99748681236015,-0.169211512434736,0.7473936,-0.655153,-1.4828753,318.96332,-55.168926,32.015728,STU
3407510640000,2.274981,6.10519968009235,6.15401775269046,-0.16498095125555,0.7480045,-0.6462954,-1.6120734,319.33896,-55.454838,31.855637,STU
3407515662000,2.280003,5.91391572198582,6.32719097713039,-0.142208008113475,0.7828238,-0.63591075,-1.7403551,319.74524,-55.77978,31.675434,STU
3407520641000,2.284982,5.57573921702128,6.51448862507365,-0.100586251829787,0.82833326,-0.61453044,-1.9022343,320.1482,-56.14167,31.449865,STU
3407525686000,2.290027,5.25476159803728,6.82408808235526,-0.0610813056337903,0.86406887,-0.6246097,-2.0912971,320.57504,-56.57057,31.15367,STU
3407530685000,2.295026,4.94784375530131,7.19238949363843,-0.0233068061223,0.8943067,-0.6646214,-2.264783,321.00403,-57.033146,30.8204,STU
3407535999000,2.30034,4.63576682421181,7.811893101132,-0.24769515423744,0.929126,-0.7089091,-2.43216,321.46704,-57.60835,30.366179,STU
3407540652000,2.304993,4.36896021727945,8.45806547132566,-0.564528059497895,0.93737274,-0.68783426,-2.5977044,321.9204,-58.21774,29.869034,STU
3407545645000,2.309986,4.12165119039294,9.28136973181703,-0.791266268819486,0.9957104,-0.6056729,-2.7565293,322.408,-58.956593,29.237263,STU
3407550670000,2.315011,3.91335980152762,10.2452272511245,-0.901538130399728,1.1129965,-0.5626069,-2.9064968,322.89694,-59.727646,28.57348,STU
3407555717000,2.320058,3.80014507301767,11.4221242908221,-1.01271819497324,1.2281445,-0.63255095,-3.052799,323.48355,-60.703976,27.734646,STU
3407560705000,2.325046,4.23778986361278,13.7807587707962,-1.12503409177882,1.2901474,-0.7819075,-3.1743612,324.06622,-61.694855,26.87863,STU
3407565634000,2.329975,4.67025802176099,16.1114944066807,-1.23602147256365,1.3264939,-0.88422745,-3.1728342,324.71945,-62.843987,25.875813,STU
3407570642000,2.334983,5.51889985792839,17.2552235463555,-1.61821851657609,1.3826935,-0.8206975,-2.9562824,325.33456,-63.93756,24.924492,STU
3407575702000,2.340043,6.58396741675192,17.7896933257673,-2.14106982907609,1.4792101,-0.58062744,-2.4798074,325.89026,-64.930016,24.069265,STU
3407580703000,2.345044,7.56200581481766,18.2695535433913,-2.58870395161563,1.6236799,-0.2678644,-1.8524488,326.46155,-65.97239,23.175402,STU
3407585791000,2.350132,8.20304895523927,18.5282206835667,-2.71616297066472,1.7507398,0.0720821,-1.2116512,326.90146,-66.828415,22.454159,STU
3407590706000,2.355047,8.82229562095707,18.7780927342668,-2.83928818265887,1.8716911,0.3915646,-0.6957755,327.18768,-67.40417,22.03487,STU
3407595706000,2.360047,8.9337918204499,17.8975498743013,-2.48119334834901,1.9465221,0.6597345,-0.43249258,327.3508,-67.83479,21.737597,STU
3407600721000,2.365062,8.6653344605317,16.1820410999318,-1.76748947247307,1.9220876,0.75594574,-0.3222314,327.44315,-68.13124,21.552713,STU
3407605875000,2.370216,8.38943630838446,14.4189838271302,-1.03400397371643,1.7956384,0.8753699,-0.31795537,327.40857,-68.27569,21.499374,STU
3407610867000,2.375208,8.01529513642536,12.8831395252941,-0.578547375614421,1.5763378,0.91782504,-0.33841935,327.35754,-68.371056,21.473007,STU
3407615850000,2.380191,7.59088353885436,11.4319252389787,-0.245406935426987,1.4532484,0.9120218,-0.39522982,327.2788,-68.45815,21.438805,STU
3407620722000,2.385063,7.17589484536314,10.3137161266146,-0.0292363397068605,1.1557571,0.90010995,-0.47739118,327.1082,-68.409836,21.50636,STU
3407625686000,2.390027,6.75304578334751,9.4055099201021,0.106810759326321,0.87017757,0.88361657,-0.55955255,326.94232,-68.37542,21.554964,STU
3407631159000,2.3955,6.28011830144928,8.41560799275362,0.245989760338164,0.59315014,0.8356637,-0.6545421,326.76398,-68.329025,21.604382,STU
3407635849000,2.40019,5.77002076038647,7.74562903140097,0.196502696078481,0.34880406,0.7834347,-0.77396625,326.59467,-68.30821,21.622572,STU
3407640660000,2.405001,5.24676292028986,7.05836489855072,0.145738886664124,0.13988814,0.72356987,-0.9101892,326.42847,-68.32231,21.598711,STU
3407645706000,2.410047,4.52306046131584,6.62153404794104,-0.164218026070728,-0.025350908,0.6792821,-1.0729848,326.277,-68.3707,21.535118,STU
3407651573000,2.415914,3.54665289083778,6.33279088663872,-0.722707904009061,-0.1133155,0.6618725,-1.2305881,326.13965,-68.44941,21.43659,STU
3407655748000,2.420089,2.85183414075326,6.12731914666306,-1.12013337535601,-0.15577064,0.6936375,-1.3600914,326.00055,-68.60871,21.25313,STU
3407660726000,2.425067,2.35490642404453,6.14735395732839,-1.51236781625232,-0.119729586,0.7855727,-1.4511104,325.85352,-68.794525,21.040035,STU
3407665867000,2.430208,2.02150127147495,6.31177296150278,-1.87317626335807,-0.06261369,0.9138544,-1.5143349,325.6913,-69.00077,20.802423,STU
3407670674000,2.435015,1.76420744862548,6.48411522337176,-2.09264217966302,0.046731193,1.0577132,-1.5259414,325.5375,-69.39583,20.393187,STU
3407675746000,2.440087,1.54883545595625,6.68512914316681,-2.20272122146024,0.16371189,1.1753048,-1.5314392,325.35822,-69.802444,19.973177,STU
3407680708000,2.445049,1.37747159502267,6.89930679901439,-2.12453143114528,0.31612277,1.2229522,-1.5048665,325.17078,-70.28254,19.494902,STU
3407685964000,2.450305,1.24352093789671,7.14736368275182,-1.81694094504238,0.46181414,1.1615603,-1.4718798,324.98413,-70.75982,19.024464,STU
3407690629000,2.45497,1.1349022063802,7.39044554533396,-1.56343049576833,0.63285637,0.98746365,-1.4318681,324.82593,-71.27894,18.523573,STU
3407695684000,2.460025,1.03089028083139,7.68439221343298,-1.31470636293321,0.79626286,0.86590147,-1.4056009,324.67258,-71.789566,18.036522,STU
3407700668000,2.465009,0.890159333186621,7.93630300952012,-1.16744292176442,0.9410379,0.60048056,-1.4062119,324.62637,-72.31664,17.533009,STU
3407705712000,2.470053,0.65132498942317,8.09552578148328,-1.26578649636452,0.9990701,0.36377025,-1.4144585,324.61127,-72.830795,17.044697,STU
3407710647000,2.474988,0.400761071872791,8.22111551034831,-1.37342338677436,1.0793989,0.16584991,-1.4654657,324.68423,-73.37582,16.523521,STU
3407715744000,2.480085,0.080433569024735,8.24082785552751,-1.52619491098435,1.0882565,0.008552114,-1.5384641,324.8194,-73.91702,16.005138,STU
3407720665000,2.485006,-0.201783389885273,8.25430782486537,-1.65291957684383,1.0479393,-0.14019357,-1.668273,325.0116,-74.53763,15.408465,STU
3407725658000,2.489999,-0.403306680049169,8.25057583696246,-1.71636212420979,0.9602802,-0.27458394,-1.8139644,325.24854,-75.16863,14.797256,STU
3407730724000,2.495065,-0.607776335160384,8.24678928564739,-1.78073223135097,0.8384125,-0.41050145,-1.9761491,325.52194,-75.8973,14.085266,STU
3407735658000,2.499999,-0.758278952582364,8.44341060436047,-1.86950590688954,0.68691796,-0.5348125,-2.1316142,325.83252,-76.64762,13.34552,STU
3407740930000,2.505271,-0.895264388590116,8.75162796947675,-1.97713731177326,0.5323691,-0.623388,-2.2898283,326.17285,-77.4275,12.571072,STU
3407745712000,2.510053,-0.93852705,9.1524091480305,-2.14072359275731,0.3735441,-0.67103547,-2.418721,326.53137,-101.71888,11.718848,STU
3407750705000,2.515046,-0.93852705,9.63847801524778,-2.34831544531978,0.24740042,-0.6356053,-2.5100453,326.89105,-100.849205,10.84727,STU
3407755944000,2.520285,-0.510474335159458,10.08203050699,-2.5181437839668,0.11178834,-0.552833,-2.5399778,327.24142,-99.93312,9.926764,STU
3407760734000,2.525075,0.0145890461686325,10.4668098049367,-2.65842783805155,-0.018020526,-0.40866885,-2.4917192,327.56363,-99.03406,9.022129,STU
3407765723000,2.530064,0.51354236939127,10.8981052737785,-2.78619682236684,-0.12064589,-0.19608775,-2.3744333,327.82684,-98.14343,8.123256,STU
3407770712000,2.535053,0.953634446976372,11.3668991962355,-2.89143625090108,-0.20555615,0.05009095,-2.2122486,328.03888,-97.30162,7.273362,STU
3407775652000,2.539993,1.32225824931963,11.7057088272909,-2.84436538343325,-0.26145032,0.30543262,-2.0164661,328.14142,-96.6109,6.572267,STU
3407780757000,2.545098,1.61534461091445,11.891795039823,-2.59780063569322,-0.27305678,0.5381723,-1.7996091,328.18048,-95.99197,5.942706,STU
3407785647000,2.549988,1.85945322682626,11.9699731316655,-2.3027482246481,-0.2415972,0.6704246,-1.5974126,328.14072,-95.49854,5.435403,STU
3407791468000,2.555809,2.06564634786808,11.8325109911641,-1.81590342031234,-0.12980886,0.6771441,-1.455081,328.07217,-95.06986,4.987315,STU
3407795602000,2.559943,2.18204530761525,11.6965808017659,-1.5804714697088,0.07086037,0.67256266,-1.3949108,327.94745,-94.72995,4.626487,STU
3407800709000,2.56505,2.28169810019526,11.4723618667119,-1.45175334794125,0.19333886,0.6227771,-1.3213016,327.83752,-94.44915,4.3194957,STU
3407805774000,2.570115,2.38386771086555,11.2525999359664,-1.32868864395798,0.43066,0.58184916,-1.282817,327.7084,-94.21533,4.0484605,STU
3407810713000,2.575054,2.53888395344538,11.0816848033613,-1.28496608420168,0.6640105,0.57543504,-1.2495248,327.58728,-94.02488,3.8040614,STU
3407815655000,2.579996,2.6939943545042,10.9106658551261,-1.24121696690756,0.82986045,0.58368176,-1.2174544,327.45123,-93.88066,3.5858574,STU
3407820673000,2.585014,2.87618529222571,10.751780244269,-1.19452292922641,0.95233893,0.5919284,-1.169807,327.32037,-93.7909,3.3874292,STU
3407825681000,2.590022,3.07107251645327,10.6010184416162,-1.14672039238672,1.0283916,0.5910121,-1.1172725,327.19315,-93.75036,3.204889,STU
3407830711000,2.595052,3.27032246241857,10.4471497775346,-1.09811583466002,1.058324,0.5839872,-1.0726794,327.04025,-93.773056,3.0598845,STU
3407835714000,2.600055,3.52880950561889,10.252065115737,-1.03959046158388,1.0494665,0.5497787,-1.0274754,326.89883,-93.835556,2.9336896,STU
3407840731000,2.605072,3.79403275904446,10.0548247770823,-0.984490355020439,1.0137309,0.5180137,-0.97310835,326.73016,-93.95051,2.8589475,STU
3407845719000,2.61006,4.11542261491228,9.84327720614035,-0.964149217105263,0.9673051,0.45998153,-0.9263771,326.58173,-94.07955,2.7966862,STU
3407850727000,2.615068,4.43810112296883,9.6308814091722,-0.943726518893715,0.8866709,0.3912592,-0.8753699,326.41483,-94.23772,2.787641,STU
3407855697000,2.620038,4.60784261823148,9.51640024684193,-0.983832162175657,0.806953,0.32284227,-0.8347474,326.2671,-94.39383,2.7892325,STU
3407860655000,2.624996,4.72537193205872,9.43534566439058,-1.04462316249146,0.72204274,0.24740042,-0.7996226,326.14365,-94.538345,2.8031912,STU
3407865626000,2.629967,4.85868634001898,9.37486420474608,-1.09085149919317,0.63194007,0.15699236,-0.7699956,326.00992,-94.71004,2.8841178,STU
3407870641000,2.634982,5.01824650285714,9.34751091428571,-1.11364582857143,0.5345071,0.05681047,-0.72234815,325.90317,-94.86662,2.9780257,STU
3407875645000,2.639986,5.1720939545579,9.32537708020805,-1.13857825414728,0.43401974,-0.065973446,-0.66889745,325.81406,-95.02962,3.097934,STU
3407880708000,2.645049,5.31367592864312,9.31652803357971,-1.16954931675335,0.31948254,-0.22602014,-0.6084218,325.76685,-95.17435,3.229307,STU
3407885717000,2.650058,5.44943988798701,9.29736999807224,-1.20642409358766,0.23915374,-0.39736784,-0.5564982,325.74554,-95.33142,3.3936975,STU
3407890854000,2.655195,5.54926947727273,9.18256565767045,-1.30126220340909,0.14935656,-0.57940567,-0.50915617,325.7755,-95.4705,3.5679286,STU
3407895701000,2.660042,5.62611696471371,9.06719988340546,-1.39772674636318,0.0729984,-0.6786713,-0.49480084,325.81982,-95.61918,3.7652657,STU
3407900658000,2.664999,5.58660947669774,8.90126868125832,-1.54390457578229,0.038789943,-0.8915578,-0.46028697,325.9512,-95.77166,3.972057,STU
3407905668000,2.670009,5.54667957656458,8.73356335086551,-1.69164533135819,-0.024740042,-1.0836749,-0.43371433,326.09683,-95.93037,4.191452,STU
3407910646000,2.674987,5.43431984235185,8.58193130481481,-1.89448922837037,-0.07238753,-1.241889,-0.41783184,326.29504,-96.091805,4.409947,STU
3407915667000,2.680008,5.29184557352778,8.43500475722222,-2.12155800255556,-0.11942416,-1.3710871,-0.3943135,326.54114,-96.249695,4.6307507,STU
3407920678000,2.685019,5.09343578887827,8.31644067112555,-2.3598767305752,-0.15332718,-1.4349225,-0.34666604,326.81412,-96.428894,4.8509984,STU
3407925642000,2.689983,4.85269616009937,8.22105275826486,-2.60515861381617,-0.17134771,-1.4605788,-0.29016098,327.11407,-96.610275,5.0749917,STU
3407930740000,2.695081,4.44672851075045,8.15790344486059,-2.83739170055486,-0.15577064,-1.4391985,-0.21502456,327.42633,-96.81511,5.2894397,STU
3407935729000,2.70007,3.87343711582744,8.13470656720766,-3.04284874146206,-0.10720685,-1.38025,-0.13652839,327.73663,-97.03535,5.5177884,STU
3407940643000,2.704984,3.30876405215703,8.11185840990429,-3.24521713172423,-0.05131268,-1.3133603,-0.0693332,328.0498,-97.26575,5.717461,STU
3407945706000,2.710047,2.76376520991666,8.12329550374611,-3.32562301595252,0.05222898,-1.2247849,0.007330383,328.34204,-97.53055,5.940381,STU
3407950715000,2.715056,2.25090909503325,8.15963974345484,-3.31350818504925,0.19792034,-1.1206323,0.06566802,328.61206,-97.82062,6.175136,STU
3407955736000,2.720077,1.72405196111421,8.20269485062674,-3.23944145591922,0.37782016,-1.006095,0.118507855,328.8773,-98.06089,6.2763276,STU
3407960908000,2.725249,1.13384678800371,8.27168026241876,-2.93284138210306,0.5888741,-0.8762862,0.14263703,329.1087,-98.33831,6.385612,STU
3407965671000,2.730012,0.590314839139585,8.33521033132157,-2.65048713779016,0.79534656,-0.83260936,0.109650314,329.3375,-98.55368,6.370718,STU
3407970709000,2.73505,-0.203813367564477,8.49838783528317,-1.9145999196929,0.93462384,-0.8530733,0.019547688,329.54602,-98.793,6.3452363,STU
3407976595000,2.740936,-1.28668135961181,8.75692698138793,-0.745552197931401,0.9645562,-0.8680395,-0.13041973,329.737,-99.03647,6.291878,STU
3407980722000,2.745063,-2.04593997381149,8.9382030697288,0.0741317891072854,0.88086766,-0.79626286,-0.28344148,329.88782,-99.089455,6.0380745,STU
3407985772000,2.750113,-2.34115453728434,9.17165246486012,0.308650623175846,0.6963864,-0.5662721,-0.37598756,329.995,-99.122955,5.765921,STU
3407990709000,2.75505,-2.25819782647432,9.40669630236865,0.0874328221651233,0.48197266,-0.38698313,-0.41141775,330.09335,-99.12704,5.4708705,STU
3407995673000,2.760014,-2.04819512479698,9.54345738950116,-0.0354908476348608,0.27397305,0.023518313,-0.39461896,329.9978,-98.63635,4.834813,STU
3408000705000,2.765046,-1.73605638009474,9.60402186823279,-0.082078719187065,0.1826487,0.3576616,-0.36041048,329.88486,-98.165306,4.2220044,STU
3408005750000,2.770091,-1.44737213955375,9.60967524381339,-0.142234037391481,0.028099801,0.5522222,-0.3286455,329.67084,-97.6529,3.6037679,STU
3408010699000,2.77504,-1.18780185786004,9.5616067010142,-0.214336896763692,-0.0888809,0.61636305,-0.30451632,329.41745,-97.181145,3.030079,STU
3408015691000,2.780032,-1.03550882800788,9.48575956524329,-0.393459937359113,-0.16676621,0.591623,-0.29810223,329.1151,-96.71205,2.5076194,STU
3408020748000,2.785089,-0.982254975744525,9.38368976862458,-0.673042496078988,-0.18387043,0.52626044,-0.30268374,328.82452,-96.27792,2.0192761,STU
3408025654000,2.789995,-0.938748328777169,9.27457421426473,-0.955246616487174,-0.15760323,0.46609017,-0.29993483,328.54047,-95.89877,1.5984367,STU
3408030695000,2.795036,-0.910389229267672,9.14223118396319,-1.26719696279616,-0.11881329,0.39920044,-0.3155119,328.28986,-95.55662,1.1924424,STU
3408035713000,2.800054,-0.816267336190476,9.01019946320346,-1.59974125887446,-0.050701816,0.3717115,-0.34269542,328.08508,-95.3277,0.8364203,STU
3408040647000,2.804988,-0.572918648341543,8.87970845753097,-1.97710803691596,0.0009162979,0.36102137,-0.36560285,327.90247,-95.13511,0.49092752,STU
3408046283000,2.810624,-0.294946778719212,8.73065144334975,-2.4081658320197,0.059253927,0.3848451,-0.37843102,327.74603,-95.06887,0.18503696,STU
3408050663000,2.815004,-0.101792257296313,8.68240235275375,-2.519794217797,0.08827003,0.40194935,-0.3915646,327.59897,-95.029884,-0.11843897,STU
3408055715000,2.820056,0.109617602461538,8.66038050769231,-2.53741169384615,0.116980694,0.38973203,-0.39003745,327.4585,-95.02702,-0.4122857,STU
3408060743000,2.825084,0.346203273141978,8.66266630138391,-2.55166174474628,0.15027285,0.3387248,-0.3921755,327.34546,-95.14779,-0.6144163,STU
3408065663000,2.830004,0.611860244213224,8.69647686417222,-2.56132194156843,0.1685988,0.24190263,-0.40408736,327.2502,-95.277374,-0.8161805,STU
3408070615000,2.834956,0.851038470128517,8.75646118304967,-2.57225230065995,0.19333886,0.12736541,-0.41691554,327.16574,-95.41909,-0.9742538,STU
3408075683000,2.840024,1.06176816335533,8.84918234664814,-2.58489620371657,0.22968534,-0.017104227,-0.42852196,327.11807,-95.57053,-1.1355096,STU
3408080912000,2.845253,1.27049847718961,8.95918122521655,-2.60800695563041,0.2773328,-0.17348573,-0.43676865,327.09653,-95.723694,-1.2497605,STU
3408085651000,2.849992,1.42842183664026,9.11038469178944,-2.66512813267935,0.32711834,-0.26053402,-0.44623706,327.09616,-95.88695,-1.367525,STU
3408090658000,2.854999,1.59527608031391,9.27013901910121,-2.72547962740061,0.37690386,-0.42271876,-0.45112398,327.15167,-96.05009,-1.4470646,STU
3408095692000,2.860033,1.75652679010942,9.48896268294994,-2.80801838064099,0.39584067,-0.56138515,-0.45265114,327.22476,-96.216354,-1.5289348,STU
3408100706000,2.865047,1.90959560937365,9.7744150983889,-2.91558027932282,0.44012842,-0.70921457,-0.45204028,327.3458,-96.40098,-1.6156034,STU
3408105703000,2.870044,2.0679886782505,10.1168328917368,-3.04201795218687,0.48655418,-0.81000733,-0.4529566,327.48196,-96.586914,-1.6641687,STU
3408110680000,2.875021,2.25976597558304,10.79515634677,-3.2799639055212,0.5027421,-0.874759,-0.46211955,327.64847,-96.77436,-1.7182847,STU
3408116506000,2.880847,2.48425754364801,11.5891913978094,-3.55849979543998,0.50946164,-0.93309665,-0.48349985,327.8349,-96.97295,-1.7458436,STU
3408120674000,2.885015,2.58005230474934,12.0635168707124,-3.61803674036939,0.45723262,-0.93401295,-0.4908302,328.0222,-97.156204,-1.7730527,STU
3408125683000,2.890024,2.63068056299033,12.5402657371152,-3.55053242541777,0.42913285,-0.9370673,-0.5018258,328.2242,-97.3466,-1.8101765,STU
3408130729000,2.89507,2.67704667645756,13.0032594303457,-3.44728294192706,0.37751472,-0.94806284,-0.5119051,328.41678,-97.52889,-1.8057255,STU
3408135680000,2.900021,2.70330276043826,13.3858482393007,-3.19972546118187,0.31306845,-0.9935723,-0.52503866,328.6185,-97.697845,-1.8092889,STU
3408140624000,2.904965,2.72952172210268,13.7678961228542,-2.95251799101337,0.27000242,-1.054048,-0.52320606,328.82318,-97.824425,-1.8040107,STU
3408145658000,2.909999,2.76985240847654,14.119148939772,-2.61123226494547,0.21899518,-1.1178834,-0.52870387,329.0402,-97.930725,-1.8096274,STU
3408150724000,2.915065,2.81795170117317,14.4518353864012,-2.21842176522637,0.21197024,-1.1441506,-0.535118,329.2627,-98.036026,-1.8189149,STU
3408155685000,2.920026,2.85145604686825,14.7612096457883,-1.83980183239741,0.21685717,-1.0680978,-0.5476407,329.4627,-98.06518,-1.8317236,STU
3408160670000,2.925011,2.84114501042117,15.0189869028078,-1.47891340340173,0.19181168,-0.9080512,-0.5687156,329.6445,-98.08651,-1.8495624,STU
3408165676000,2.930017,2.82265396938197,15.2292878295218,-1.19760856471839,0.1020145,-0.66645396,-0.5821546,329.76804,-98.008965,-1.8614701,STU
3408170715000,2.935056,2.79073141391041,15.361538008316,-1.04711729639955,-0.031154128,-0.4111123,-0.59437186,329.84073,-97.91857,-1.8750747,STU
3408175617000,2.939958,2.7656188091361,15.4767090030854,-0.904236697847103,-0.1731803,-0.19120082,-0.591623,329.8479,-97.74979,-1.8901781,STU
3408180741000,2.945082,2.75720755322249,15.5566167027768,-0.765450154062393,-0.3100141,-0.055588737,-0.5729916,329.80728,-97.55364,-1.8996075,STU
3408186324000,2.950665,2.75674904375585,15.637682736188,-0.60384345999319,-0.42058071,-0.01038471,-0.5348125,329.7283,-97.30875,-1.9081446,STU
3408190715000,2.955056,2.87488197041798,15.6197838135694,-0.335359436059079,-0.5112942,-0.01740966,-0.50671273,329.6274,-97.04179,-1.9124441,STU
3408195712000,2.960053,3.00931837090321,15.599414668426,-0.0298220487671746,-0.5516113,-0.08582657,-0.42424592,329.5325,-96.73747,-1.8977531,STU
3408200742000,2.965083,3.13162698995127,15.4856791729121,0.158027768299782,-0.6365216,-0.17928895,-0.3042109,329.44962,-96.40317,-1.8662854,STU
3408205707000,2.970048,3.2434879560494,15.3098974402201,0.261898545130566,-0.6988298,-0.2724459,-0.14385876,329.38998,-96.06577,-1.8033012,STU
3408210705000,2.975046,3.3400662687754,15.0623522554027,0.372280227017917,-0.7672467,-0.3378085,0.03023783,329.3433,-95.65085,-1.6866789,STU
3408215635000,2.979976,3.37494884164204,14.5521935515792,0.503090132512929,-0.8402451,-0.39828414,0.21777347,329.32385,-95.217,-1.5263565,STU
3408220901000,2.985242,3.41371986892349,14.0118274069059,0.637321236668923,-0.93370754,-0.46089783,0.408058,329.3208,-94.74051,-1.3022066,STU
3408225640000,2.989981,3.46493229862334,13.5748144595652,0.698776198654179,-1.0094548,-0.5155703,0.59498274,329.33203,-94.252,-1.032315,STU
3408230644000,2.994985,3.51900847465583,13.1133641982246,0.763667658830211,-1.1074986,-0.552833,0.7870999,329.35422,-93.72567,-0.7068067,STU
3408235658000,2.999999,3.57818994387694,12.6397824932636,0.797253261212548,-1.181108,-0.5882632,0.97127575,329.3872,-93.20698,-0.33778554,STU
3408240713000,3.005054,3.64633303124874,12.1433119654132,0.777783806225618,-1.2366967,-0.6041457,1.1429288,329.41965,-92.71146,0.07469496,STU
3408245689000,3.01003,3.74906241957537,11.6971659653667,0.687245807968679,-1.2867876,-0.58551437,1.2965615,329.44843,-92.28312,0.5417931,STU
3408250727000,3.015068,3.90889598509261,11.3121121032977,0.483821237623852,-1.3063353,-0.5381723,1.4398094,329.46536,-92.02178,1.046438,STU
3408255743000,3.020084,4.06803158744165,10.9287396991417,0.281284984180093,-1.3191634,-0.45051312,1.5668694,329.46637,-92.024765,1.5986985,STU
3408260730000,3.025071,4.09832410094922,10.7064825578548,0.152211683560607,-1.3075571,-0.35308012,1.7009543,329.442,-92.314995,2.1846237,STU
3408265645000,3.029986,4.08492017047935,10.5411682707167,0.0494485029251068,-1.2892311,-0.24465153,1.7736472,329.37967,-92.79496,2.7792497,STU
3408270708000,3.035049,4.05809974302575,10.4445972939914,-0.0417700846319743,-1.2644911,-0.13713925,1.8267925,329.30804,-86.5539,3.4437315,STU
3408275745000,3.040086,4.02359444648605,10.392839236588,-0.123720114147264,-1.2501358,-0.03940081,1.8747455,329.20096,-85.84774,4.116474,STU
3408280684000,3.045025,4.01132215078549,10.4072992578182,-0.191555819398033,-1.2324207,0.056505036,1.9220876,329.0689,-85.112595,4.796942,STU
3408285781000,3.050122,4.03282257047423,10.5255513790192,-0.241723328141242,-1.2229522,0.09621128,1.9889772,328.9186,-84.357666,5.485278,STU
3408290647000,3.054988,4.05334857443841,10.6384442222141,-0.289617206411687,-1.2205088,0.16982053,2.0357084,328.73816,-83.603004,6.1682506,STU
3408295706000,3.060047,4.23403203580237,10.9561958084175,-0.263091319040496,-1.2082914,0.21838433,2.1630738,328.547,-82.8169,6.881525,STU
3408300729000,3.06507,4.49428290134458,11.3733625723606,-0.198028614643965,-1.1914927,0.2171626,2.3167064,328.34286,-82.02121,7.603495,STU
3408305699000,3.07004,4.72130265513913,11.7386608499276,-0.140679084414348,-1.1765264,0.1863139,2.488054,328.1311,-81.20015,8.354857,STU
3408310667000,3.075008,4.78252524416921,11.845800081068,-0.121547035930513,-1.162782,0.11056661,2.6459627,327.92563,-80.355774,9.133255,STU
3408315622000,3.079963,4.84358762916198,11.9526589559273,-0.102465051180634,-1.151481,0.030543262,2.783102,327.72333,-79.448586,9.976234,STU
3408320696000,3.085037,4.77879580131866,12.0100594597653,-0.185306389164573,-1.1624765,-0.04153884,2.8799243,327.53308,-78.526245,10.836749,STU
3408325667000,3.090008,4.65027689587789,12.0397177123871,-0.318768162595784,-1.1685852,-0.09743301,2.9275718,327.35397,-77.59966,11.705811,STU
3408330697000,3.095038,4.35206998608364,12.0798120991563,-0.467003787714778,-1.1472049,-0.1441642,2.9239066,327.18927,-76.6713,12.579133,STU
3408335819000,3.10016,3.98716970087998,12.1243121169373,-0.62275396146784,-1.138042,-0.19333886,2.891225,327.03503,-75.75515,13.440489,STU
3408340654000,3.104995,3.56596958310683,12.1720127930351,-0.784936649613062,-1.1016954,-0.22266038,2.8069258,326.901,-74.89665,14.254413,STU
3408345655000,3.109996,3.06425270637977,12.2262521211778,-0.965735495620989,-1.0500773,-0.23426682,2.6914723,326.77255,-74.07545,15.033503,STU
3408350710000,3.115051,2.54861002845293,12.2990274982639,-1.15209412945602,-1.0033462,-0.21533,2.552195,326.65353,-73.366806,15.70637,STU
3408355707000,3.120048,2.02703899614198,12.3959571527778,-1.34133670787037,-0.9462303,-0.16126843,2.3964243,326.52704,-72.714355,16.326393,STU
3408360677000,3.125018,1.51783993971953,12.4795473350175,-1.50046380193854,-0.8881981,-0.044593163,2.2595906,326.3881,-72.19697,16.816292,STU
3408365716000,3.130057,1.02023702702619,12.5392595889359,-1.6049604411425,-0.8445212,0.11178834,2.130698,326.22302,-71.73409,17.250658,STU
3408371393000,3.135734,0.537937272799883,12.5306705040155,-1.64737439053807,-0.8078693,0.3036,2.010663,326.0314,-71.40505,17.553593,STU
3408375680000,3.140021,0.238194483180258,12.4617296786158,-1.61740010093451,-0.8011498,0.52412236,1.926669,325.78708,-71.108604,17.81793,STU
3408380720000,3.145061,-0.114197319871505,12.3806795829744,-1.58216090811857,-0.7874053,0.6432411,1.8509218,325.52582,-70.92313,17.97115,STU
3408385710000,3.150051,-0.591775048609807,12.098143555106,-1.28880663675352,-0.79809546,0.838718,1.8206838,325.17944,-70.748505,18.101545,STU
3408390932000,3.155273,-1.15832399283056,11.6975124588121,-0.847707829357501,-0.80756384,0.9841039,1.7623463,324.81897,-70.604805,18.198353,STU
3408395685000,3.160026,-1.57132173441698,11.3762341737541,-0.479571127748828,-0.82619524,1.067487,1.758681,324.4171,-70.50563,18.234362,STU
3408400731000,3.165072,-1.57516280689134,11.2187501220889,-0.229901230813449,-0.82344633,1.0906999,1.7599027,323.99768,-70.42065,18.253366,STU
3408405764000,3.170105,-1.57899398361815,11.0616717962801,0.0191254420513473,-0.8371908,1.0454959,1.7394388,323.46368,-70.40635,18.137995,STU
3408410707000,3.175048,-1.49411840246819,10.9689126591511,0.215134216732428,-0.83077675,0.9428705,1.7318029,322.9575,-70.38093,18.036728,STU
3408415800000,3.180141,-1.3649856462721,10.9022634750192,0.394253785343582,-0.80909103,0.8026769,1.7525724,322.49225,-70.34506,17.949224,STU
3408420735000,3.185076,-1.1922383487405,10.8348841402528,0.500566614892836,-0.77488256,0.6606508,1.758681,322.02103,-70.291,17.852964,STU
3408425710000,3.190051,-0.927794732268807,10.7616535931176,0.480224803796431,-0.74006325,0.55680364,1.733941,321.60013,-70.23258,17.76887,STU
3408431028000,3.195369,-0.631362280320607,10.6833068504535,0.452297580080152,-0.6969972,0.47586402,1.7363845,321.22964,-70.11188,17.743547,STU
3408435670000,3.200011,-0.168147018789285,10.6139183989454,0.336024922697321,-0.6429357,0.43401974,1.765706,320.8926,-69.99154,17.729223,STU
3408441486000,3.205827,0.412219194279688,10.5269810370386,0.190345953430078,-0.6035349,0.38240165,1.8017471,320.63098,-69.80819,17.805088,STU
3408445635000,3.209976,0.826239039194263,10.4649619320607,0.0864219432014343,-0.54092115,0.31948254,1.8594738,320.3901,-69.62321,17.899475,STU
3408450697000,3.215038,1.33136520331997,10.3892953354356,-0.0403708598299937,-0.47403142,0.24740042,1.917506,320.17203,-69.43672,18.00793,STU
3408455638000,3.219979,1.77433372250068,10.2865869424591,-0.160068622355921,-0.41386122,0.15454891,1.9663752,320.00702,-69.232574,18.153,STU
3408460632000,3.224973,2.064244255641,10.0918706429929,-0.268244165560481,-0.33750305,0.06352998,2.010663,319.8641,-69.030106,18.314837,STU
3408465783000,3.230124,2.35664511584877,9.89349099924887,-0.377171284892338,-0.24801129,-0.008552114,2.0564778,319.79477,-68.6827,18.698652,STU
3408470771000,3.235112,2.53305830575864,9.74099826039059,-0.439962430655984,-0.17470746,-0.07513642,2.0778582,319.74802,-68.3447,19.083183,STU
3408475728000,3.240069,2.70837510254757,9.5894532510641,-0.502363334735854,-0.093767814,-0.10323623,2.0824397,319.72937,-67.96564,19.538168,STU
3408481717000,3.246058,2.92844772399929,9.38613688873215,-0.57840804953271,-0.014049901,-0.11575896,2.0683897,319.72397,-67.60037,19.986145,STU
3408485688000,3.250029,3.20003909080409,8.94354334535355,-0.63876168271028,0.028099801,-0.12583824,2.05434,319.7242,-67.24431,20.426321,STU
3408490691000,3.255032,3.54221275187798,8.38592675066126,-0.714800269158879,0.04520403,-0.12034045,2.021964,319.74167,-66.85403,20.913603,STU
3408495691000,3.260032,3.7132728989625,8.0300802796501,-0.756348863635994,0.05497787,-0.071776666,1.9663752,319.74973,-66.48161,21.378443,STU
3408500750000,3.265091,3.75926784360209,7.81981805784227,-0.772775629088628,0.037873644,0.0021380284,1.9010127,319.74918,-66.12331,21.819862,STU
3408506078000,3.270419,3.8077084573676,7.59837565464162,-0.790075847774463,-0.014966198,0.11728613,1.8255708,319.72226,-65.69076,22.331066,STU
3408510743000,3.275084,3.76772665637805,7.37040434819314,-0.757167221385772,-0.09193522,0.25442538,1.7577647,319.66803,-65.27309,22.812542,STU
3408515565000,3.279906,3.68690203292495,7.11842171028519,-0.700114581342531,-0.16768251,0.37873647,1.675298,319.58615,-64.878525,23.255348,STU
3408520564000,3.284905,3.53091547417685,6.88888211964175,-0.601538110090081,-0.25350907,0.50671273,1.593442,319.46573,-64.46336,23.701908,STU
3408525572000,3.289913,3.33724535978463,6.67534847689998,-0.482356540721681,-0.3323107,0.5852089,1.5161675,319.32562,-64.067276,24.115742,STU
3408530563000,3.294904,3.13103457269061,6.52729352185519,-0.333080500674093,-0.4083634,0.6203337,1.4333953,319.1585,-63.673622,24.506474,STU
3408535560000,3.299901,2.91965154010947,6.40322090046092,-0.172245501130209,-0.46639562,0.6392705,1.3671165,318.97482,-63.29587,24.870716,STU
3408540542000,3.304883,2.66436923921668,6.25351614047161,-0.00323329896164355,-0.50640726,0.63285637,1.319469,318.78183,-62.92954,25.20455,STU
3408545540000,3.309881,2.38340940822791,6.08881547489121,0.171155494674628,-0.52290064,0.6239988,1.2757921,318.58664,-62.5822,25.514208,STU
3408550692000,3.315033,2.14686751763636,5.94275664727273,0.335580013890909,-0.5311473,0.6026186,1.2315043,318.38354,-62.251915,25.787102,STU
3408555612000,3.319953,1.94554567981818,5.81425340363636,0.485500572145455,-0.5122105,0.5879578,1.1756102,318.18384,-61.94316,26.039028,STU
3408560620000,3.324961,1.75731881247448,5.68686357739336,0.646459661759966,-0.4746423,0.58032197,1.1249083,317.9738,-61.65595,26.250671,STU
3408565601000,3.329942,1.58818065402385,5.56385401734179,0.815597766691737,-0.4111123,0.57696223,1.0680978,317.77072,-61.39513,26.44064,STU
3408570601000,3.334942,1.47559843373665,5.46912683373666,0.967441520142349,-0.34330627,0.57726765,1.0134255,317.55984,-61.147205,26.596949,STU
3408575588000,3.339929,1.399115246121,5.392643646121,1.1076608305427,-0.2669481,0.5653558,0.9593639,317.35846,-60.926544,26.734777,STU
3408580573000,3.344914,1.2851675831464,5.29069952160794,1.21596364933995,-0.22724187,0.550695,0.9407325,317.15613,-60.698875,26.865181,STU
3408585622000,3.349963,1.10279284207444,5.14192004976675,1.26875634413896,-0.14813483,0.5345071,0.8915578,316.96555,-60.510674,26.970251,STU
3408590602000,3.354943,0.975655544814736,5.046977,1.3024458,-0.063224554,0.5122105,0.8570439,316.7709,-60.32351,27.082577,STU
3408595605000,3.359946,0.945046874398424,5.046977,1.3024458,0.017104227,0.48472157,0.8219192,316.58813,-60.16122,27.179968,STU
3408600608000,3.364949,0.847721771802955,5.02346353162699,1.2233548895455,0.08155051,0.4578435,0.79412484,316.41776,-60.018757,27.265774,STU
3408605655000,3.369996,0.674888664947775,4.97343297729369,1.05506997172767,0.14263703,0.41874814,0.7641924,316.26428,-59.89747,27.341698,STU
3408610589000,3.37493,0.559968948606432,4.96357043841756,0.899164860096988,0.19425514,0.36560285,0.7293731,316.1401,-59.792812,27.419119,STU
3408615611000,3.379952,0.545238568943338,5.02740203235324,0.756771113113834,0.23304509,0.3036,0.7012733,316.03415,-59.701935,27.491262,STU
3408620640000,3.384981,0.557469255846273,5.09381196657802,0.631297009668011,0.25473082,0.2312125,0.6728681,315.99847,-59.64698,27.545736,STU
3408625623000,3.389964,0.610688439641417,5.16340644168311,0.533046202238998,0.2666427,0.16035213,0.65301496,315.98468,-59.6025,27.596632,STU
3408630716000,3.395057,0.667561384664143,5.2346841183731,0.429376318715556,0.27488935,0.083383106,0.6215554,316.04285,-59.57604,27.649195,STU
3408635634000,3.399975,0.750488978624879,5.30517240654987,0.292545769197112,0.29229903,0.01985312,0.58459806,316.1215,-59.561012,27.695353,STU
3408640580000,3.404921,0.833888710168149,5.37606201072277,0.154936192556563,0.29443705,-0.043066,0.5375614,316.26956,-59.5432,27.755363,STU
3408645606000,3.409947,0.94873238989993,5.45016412023893,0.0310230305135366,0.29901853,-0.10781772,0.4859433,316.44003,-59.54198,27.803225,STU
3408650835000,3.415176,1.07692612555271,5.52785721961058,-0.0932860177201148,0.30726522,-0.15149458,0.4266894,316.62646,-59.55908,27.833874,STU
3408655685000,3.420026,1.20637137782164,5.60825006599858,-0.200416906191922,0.32528573,-0.18600847,0.36560285,316.85406,-59.607708,27.854704,STU
3408660795000,3.425136,1.37975038288288,5.72218511711712,-0.284629597567568,0.3494149,-0.2125811,0.2947425,317.09644,-59.678036,27.854197,STU
3408665794000,3.430135,1.54769219425375,5.8292895614451,-0.371735566834819,0.36010507,-0.24190263,0.22815818,317.36392,-59.775467,27.843975,STU
3408670644000,3.434985,1.70624621805424,5.9217792821923,-0.468629681759909,0.36132678,-0.26175576,0.16279559,317.63998,-59.893013,27.811993,STU
3408675698000,3.440039,1.88887563124955,6.02251986703453,-0.567523826725525,0.3567453,-0.26083946,0.09315695,317.92767,-60.024868,27.77164,STU
3408680734000,3.445075,2.17732128912068,6.14957336023496,-0.653370745637593,0.3585779,-0.28160888,0.06047566,318.2281,-60.164074,27.723196,STU
3408685663000,3.450004,2.45963833591314,6.27392734514062,-0.737393673222499,0.376293,-0.27855456,0.0018325958,318.52924,-60.327366,27.656637,STU
3408690666000,3.455007,2.7290803965804,6.38497581192184,-0.780263395177217,0.36896262,-0.2864958,-0.06566802,318.84003,-60.497475,27.578394,STU
3408696457000,3.460798,3.00000722435298,6.47720613941378,-0.728383793829124,0.3735441,-0.2864958,-0.12767084,319.14746,-60.68254,27.483143,STU
3408700668000,3.465009,3.18212676147666,6.50117158247896,-0.658927538442999,0.39950588,-0.2874121,-0.18875736,319.45306,-60.852215,27.412409,STU
3408705731000,3.470072,3.38152959788638,6.47334793764346,-0.533721054365914,0.4266894,-0.30909783,-0.25228736,319.76483,-61.03621,27.323978,STU
3408710622000,3.474963,3.5649044636321,6.42083773782262,-0.432466314805256,0.46639562,-0.35155296,-0.3136793,320.06793,-61.19875,27.255295,STU
3408715667000,3.480008,3.73268066166119,6.30747571187236,-0.373517944833412,0.49938235,-0.42058071,-0.36957347,320.38498,-61.37482,27.172213,STU
3408720723000,3.485064,3.90205763792434,6.19248268363704,-0.312908506214041,0.53786683,-0.49632803,-0.45142943,320.6868,-61.52076,27.112364,STU
3408725725000,3.490066,4.07486542547405,6.07284637354546,-0.246443992827676,0.59712076,-0.55680364,-0.5348125,321.0039,-61.683266,27.037971,STU
3408731059000,3.4954,4.26037173609174,5.95213380849217,-0.182316252423679,0.63529986,-0.61086524,-0.6197228,321.31595,-61.81514,26.989628,STU
3408735696000,3.500037,4.43241442436076,5.90740274690842,-0.185757103314737,0.6579019,-0.64660084,-0.70921457,321.64047,-61.97098,26.917263,STU
3408740673000,3.505014,4.61707184500232,5.85939185764761,-0.189450248642492,0.6731735,-0.68875057,-0.7965683,321.95142,-62.09634,26.871613,STU
3408745652000,3.509993,4.95301767760905,5.94350165045314,-0.150558028214041,0.6630942,-0.68783426,-0.8729264,322.25836,-62.239483,26.802734,STU
3408750748000,3.515089,5.4975273404761,6.20494490336328,-0.0542368074108833,0.6478226,-0.67256266,-0.9245446,322.5714,-62.3967,26.716896,STU
3408755684000,3.520025,6.02494093857494,6.45817957690418,0.0390601992383293,0.6206391,-0.6420194,-0.95264435,322.8529,-62.516026,26.663149,STU
3408760744000,3.525085,6.56560398686913,6.71777589945624,0.134700971856849,0.6072,-0.5992588,-0.9486737,323.1217,-62.63684,26.603088,STU
3408766663000,3.531004,7.19805153288758,7.02144203249688,0.246577994214363,0.6001751,-0.5476407,-0.9239337,323.37396,-62.754585,26.540129,STU
3408770667000,3.535008,7.57437637894999,7.3530097993199,0.240300250141826,0.605062,-0.5155703,-0.90102625,323.61633,-62.866356,26.480124,STU
3408775692000,3.540033,8.00144886588704,7.87986569133284,0.160473667783031,0.6218608,-0.45540005,-0.895223,323.82928,-62.97304,26.420288,STU
3408780858000,3.545199,8.38142312307414,8.43690029363785,0.090869435303607,0.61727935,-0.33841935,-0.88025683,323.91064,-62.87156,26.555752,STU
3408785637000,3.549978,8.21136019485228,9.08811505546493,0.136495965458583,0.61575216,-0.18845193,-0.9095783,323.96356,-62.786293,26.671595,STU
3408790779000,3.55512,8.02837974352003,9.78879434094617,0.185588164256842,0.605062,-0.07849618,-1.0760391,324.00098,-62.717224,26.771751,STU
3408795669000,3.56001,7.56203376860556,10.4859314669017,0.531671256144732,0.5552765,-0.101098195,-1.3411547,324.03882,-62.688957,26.826622,STU
3408800691000,3.565032,7.03926530503329,11.2065048652566,0.931989653964943,0.53786683,-0.27122417,-1.638646,324.09674,-62.723145,26.819332,STU
3408805662000,3.570003,6.53077097379397,11.8983527929218,1.0749809500948,0.5012149,-0.45204028,-1.8863518,324.22565,-62.913387,26.651335,STU
3408810627000,3.574968,6.02493212989256,12.5844902723826,1.1601221758163,0.50854534,-0.5885687,-2.0735822,324.40057,-63.170364,26.41934,STU
3408815688000,3.580029,5.51713074370082,12.9229918694807,1.55408446556512,0.5537493,-0.7257079,-2.2418754,324.69293,-63.60018,26.003708,STU
3408820647000,3.584988,5.02036816322318,13.2175325076368,1.97171668286587,0.54702985,-0.8558222,-2.3988678,325.02948,-64.0697,25.548729,STU
3408825794000,3.590135,4.62200927617984,13.4737675068507,1.85549190583579,0.4868596,-0.89888823,-2.5283713,325.4559,-64.682556,24.948217,STU
3408830634000,3.594975,4.28329774507257,13.6995753907439,1.57793654767076,0.44990227,-0.7632761,-2.588847,325.86542,-65.306625,24.335945,STU
3408835629000,3.59997,4.17780782712174,13.7699019158045,0.816190869080747,0.48991394,-0.46486846,-2.5778513,326.21732,-66.04131,23.604906,STU
3408840802000,3.605143,4.14245934238713,13.7934673945772,-0.116614838149602,0.6203337,-0.0888809,-2.5179865,326.50342,-66.762054,22.886358,STU
3408845720000,3.610061,4.10885334046855,13.8158712268998,-1.0034384353193,0.79076505,0.3463606,-2.4416285,326.73062,-67.539474,22.116682,STU
3408850773000,3.615114,4.07432484764736,13.8388900485194,-1.91460550252111,0.98837996,0.8402451,-2.3423629,326.82358,-68.27865,21.384926,STU
3408855748000,3.620089,4.04032934956991,13.8615535429897,-2.81170745370436,1.1630874,1.3713925,-2.2510383,326.7741,-68.98407,20.685783,STU
3408860777000,3.625118,4.0203598080076,13.8614781339611,-3.15921255379016,1.3240504,1.8887954,-2.1539109,326.5821,-69.647964,20.029203,STU
3408865724000,3.630065,4.00536489438202,13.8539807162921,-3.32040799269663,1.4434745,2.359467,-2.0372355,326.24933,-70.26682,19.416529,STU
3408870689000,3.63503,3.95769543740401,13.7499933651226,-3.30557584562794,1.5048665,2.545781,-1.8939877,325.90558,-70.97583,18.768322,STU
3408875728000,3.640069,3.7873536463463,13.283794902248,-2.63018558196681,1.5057828,2.846632,-1.8145752,325.3772,-71.64255,18.150902,STU
3408880695000,3.645036,3.61944579237057,12.8242577391008,-1.9644456653951,1.4651603,2.9825497,-1.6633861,324.82697,-72.23731,17.606226,STU
3408885898000,3.650239,3.44266509467734,12.3379657006503,-1.27100264438219,1.3585643,2.9562824,-1.5109752,324.2309,-72.77799,17.105877,STU
3408890711000,3.655052,3.24436530527264,11.6969497025513,-0.782170672576288,1.1911873,2.7571404,-1.3854424,323.64343,-73.254036,16.662178,STU
3408895792000,3.660133,3.03495767875771,11.0204337392129,-0.267769162446657,0.98532563,2.4156666,-1.2773192,323.12375,-73.614296,16.31354,STU
3408900741000,3.665082,2.81472192235183,10.4091677074443,-0.173382439871977,0.76174897,1.9978348,-1.1963795,322.69412,-73.92795,16.008167,STU
3408905596000,3.669937,2.59866926578473,9.80951190137506,-0.0807884737980085,0.5821546,1.566564,-1.1325442,322.3963,-74.17146,15.764345,STU
3408910557000,3.674898,2.3496822318081,9.2170831402943,-0.152979890274138,0.42210788,1.1374311,-1.0894781,322.22803,-74.3851,15.548372,STU
3408915542000,3.679883,2.09466918595041,8.62526034297521,-0.254022830785124,0.33078352,0.70952,-1.0546589,322.19092,-74.57415,15.357441,STU
3408920539000,3.68488,1.84001339899659,8.21194572466386,-0.437565724423038,0.28191432,0.29229903,-1.0210613,322.2769,-74.749405,15.179175,STU
3408925525000,3.689866,1.58607525829821,7.8286425970299,-0.634008471021473,0.2751948,-0.10567969,-1.010982,322.4828,-74.91678,15.010769,STU
3408930574000,3.694915,1.33156040094997,7.67065441990904,-0.939881132208186,0.2938262,-0.4633413,-0.9999864,322.765,-75.111664,14.819172,STU
3408935543000,3.699884,1.08148140255685,7.55042420464881,-1.25728915158161,0.3203988,-0.7703011,-0.98868537,323.14636,-75.3013,14.6354065,STU
3408940543000,3.704884,0.843844081064039,7.59982836315271,-1.55697085656158,0.33933565,-1.01312,-1.0021244,323.5725,-75.55059,14.397197,STU
3408945520000,3.709861,0.609047167684729,7.67026737832512,-1.85281486738916,0.35430184,-1.2073752,-1.024421,324.07068,-75.797295,14.162474,STU
3408950625000,3.714966,0.424646631727418,7.86213162456438,-2.16456031844212,0.37659842,-1.3500122,-1.0629056,324.59195,-76.11882,13.85621,STU
3408955571000,3.719912,0.255112710384289,8.06735684995762,-2.46793678719977,0.38606682,-1.4501941,-1.1264355,325.1537,-76.44949,13.537699,STU
3408960605000,3.724946,0.166051483978752,8.39253272572198,-2.75276654569804,0.3930918,-1.491733,-1.1896601,325.7303,-76.8485,13.148338,STU
3408965589000,3.72993,0.106533795950421,8.75440036001796,-3.02654793996209,0.40469822,-1.5012014,-1.2507466,326.32156,-102.74247,12.742457,STU
3408970583000,3.734924,0.0468966904099955,9.11699405297022,-3.30087865484064,0.41691554,-1.4822645,-1.2770138,326.91275,-102.28036,12.274902,STU
3408975591000,3.739932,-0.012907599647364,9.4806042280413,-3.57597841857948,0.43310347,-1.4361442,-1.3225232,327.49182,-101.80819,11.786652,STU
3408980589000,3.74493,-0.00527777904076579,9.83478600961996,-3.745924342966,0.4746423,-1.3588698,-1.3594806,328.03427,-101.335464,11.285605,STU
3408985782000,3.750123,0.02788028371483,10.1995246420611,-3.88329346271073,0.4978552,-1.2492194,-1.396438,328.547,-100.86583,10.775405,STU
3408990600000,3.754941,0.0982328235003619,10.5255375660221,-3.94856863641816,0.53878313,-1.1114693,-1.4010195,329.03833,-100.37235,10.211879,STU
3408995586000,3.759927,0.192044134065764,10.8563458543067,-3.98313067484231,0.58276546,-0.9502009,-1.4025466,329.4815,-99.90037,9.646583,STU
3409000611000,3.764952,0.305154818073642,11.1013898266727,-3.91773529672205,0.6188065,-0.7858781,-1.3973542,329.86874,-99.45491,9.076487,STU
3409005858000,3.770199,0.431511908167939,11.3180021022901,-3.80491645618321,0.6743952,-0.6243043,-1.3845261,330.20154,-99.05537,8.519033,STU
3409010615000,3.774956,0.603590632321505,11.4449600782386,-3.48455324191962,0.71959925,-0.47708577,-1.3359623,330.4727,-98.71516,7.9867325,STU
3409015606000,3.779947,0.843703769442069,11.506265732578,-2.92258632638948,0.7877107,-0.3885103,-1.2928963,330.70737,-98.43187,7.4683013,STU
3409021192000,3.785533,1.14200408183599,11.4723395558354,-1.98041555387629,0.87872964,-0.44318274,-1.2476922,330.9177,-98.220116,6.98587,STU
3409025631000,3.789972,1.39186149381939,11.4009515404422,-1.09599982030973,1.0381655,-0.66614854,-1.2257011,331.1467,-98.082375,6.51637,STU
3409030626000,3.794967,1.71087652077789,11.280439370522,-0.256701555271238,1.1640037,-1.010982,-1.201572,331.39218,-97.98903,6.094544,STU
3409035601000,3.799942,2.07174662415558,11.1146338741044,0.401642638945752,1.20371,-1.3322971,-1.1948525,331.6923,-97.9489,5.6755805,STU
3409040647000,3.804988,2.38795365057611,10.9250562009299,0.720342539296543,1.1533136,-1.5580118,-1.1829406,332.01553,-97.87489,5.3082333,STU
3409045589000,3.80993,2.65104966682838,10.7193633078634,0.70599185839903,1.0680978,-1.6496416,-1.178359,332.38968,-97.82462,4.940728,STU
3409050658000,3.814999,2.84968171381032,10.5120674292845,0.576918955008319,0.96761054,-1.6398678,-1.180497,332.74387,-97.75595,4.632965,STU
3409055819000,3.82016,2.98819031684035,10.3043045247395,0.343185825244767,0.86590147,-1.5711454,-1.215011,333.10245,-97.677025,4.320754,STU
3409060615000,3.824956,3.09022295200702,10.1064678350515,0.0845947747159465,0.7779369,-1.4419475,-1.2770138,333.4053,-97.60892,4.0420513,STU
3409065799000,3.83014,3.11744713906558,9.87778395876289,-0.323769185310375,0.7134906,-1.3561208,-1.3411547,333.69614,-97.52805,3.758192,STU
3409070617000,3.834958,3.12004566549366,9.72694802877903,-0.773490569425844,0.6826419,-1.1502593,-1.3716979,333.9012,-97.49486,3.507656,STU
3409075686000,3.840027,3.09238079817638,9.65087005891153,-1.34061930226528,0.61819565,-0.89858276,-1.4251486,334.064,-97.43502,3.2412908,STU
3409080632000,3.844973,3.06538722276678,9.57663813171392,-1.8939865764069,0.59742624,-0.6084218,-1.4517213,334.1595,-97.44187,2.994534,STU
3409085664000,3.850005,3.09026482126369,9.5616398710057,-2.27778985964515,0.57360244,-0.30207285,-1.4700472,334.17685,-97.435036,2.7489889,STU
3409091538000,3.855879,3.15646422168009,9.58710113795601,-2.5986019827374,0.54519725,0.16493362,-1.4251486,334.0678,-97.43328,2.5347867,STU
3409095656000,3.859997,3.22649534845361,9.57078487628866,-2.75555334020619,0.47219884,0.33536503,-1.3973542,333.96997,-97.519485,2.310344,STU
3409100678000,3.865019,3.34029049895217,9.5098232112557,-2.86528437970255,0.42485678,0.6603453,-1.3353515,333.69955,-97.61778,2.135803,STU
3409105799000,3.87014,3.45623441364306,9.44213531559331,-2.96722036907342,0.3475823,0.9993755,-1.260215,333.37888,-97.73574,1.9930916,STU
3409110668000,3.875009,3.56536120849441,9.31279936421947,-2.94701171899107,0.25503623,1.2843442,-1.187522,332.986,-97.842926,1.8823398,STU
3409115581000,3.879922,3.67547415634914,9.18229463448037,-2.92662044812343,0.17104226,1.5402967,-1.1368202,332.50198,-97.95884,1.8248608,STU
3409120639000,3.88498,3.79972984375552,8.95191262699892,-2.80317820722064,0.083383106,1.7605137,-1.0827587,331.9543,-98.05192,1.8021201,STU
3409125630000,3.889971,3.92634044277445,8.68931321607966,-2.64374271243991,-0.0061086523,1.920255,-1.0351112,331.35782,-98.122406,1.8026354,STU
3409130640000,3.894981,4.08128909331748,8.476010730619,-2.45041112970196,-0.07849618,1.9926424,-0.9786061,330.7185,-98.180145,1.8483741,STU
3409135621000,3.899962,4.24735724895984,8.28563963437208,-2.24383852419122,-0.16218472,1.9404135,-0.91354895,330.0773,-98.21207,1.9129883,STU
3409140611000,3.904952,4.41713664954109,8.08440073098428,-2.00968879814326,-0.23182335,1.7159204,-0.8472701,329.45996,-98.220665,2.01397,STU
3409145609000,3.90995,4.59387176115624,7.86221988469248,-1.72186321065513,-0.2864958,1.3286319,-0.8014552,328.91132,-98.213486,2.119324,STU
3409150690000,3.915031,4.74943958683726,7.65926711958521,-1.53903082122428,-0.3115413,0.82924956,-0.766025,328.45053,-98.18106,2.2625597,STU
3409156428000,3.920769,4.89189668922897,7.46166504448905,-1.4838861364275,-0.31795537,0.25503623,-0.73914695,328.1272,-98.14445,2.3975403,STU
3409160742000,3.925083,4.99046022472693,7.32153738622173,-1.49140631646168,-0.27947086,-0.32895094,-0.7272351,327.9361,-98.09613,2.547987,STU
3409165659000,3.93,5.00261016682721,7.2607878025888,-2.07460391788079,-0.22602014,-0.6209445,-0.72265357,327.82858,-98.05639,2.6923444,STU
3409170613000,3.934954,5.01485153619162,7.19958108358992,-2.66219003084201,-0.18570304,-1.1447614,-0.7076874,327.94205,-98.03705,2.8373187,STU
3409175676000,3.940017,4.99785099882613,7.37636483384971,-3.37244402655634,-0.112399206,-1.5396858,-0.66675943,328.1042,-98.048706,2.9843502,STU
3409180654000,3.944995,4.97032868913692,7.63782727882228,-4.11096119657462,-0.05131268,-1.7464638,-0.5888741,328.36398,-98.077774,3.1328645,STU
3409185692000,3.950033,4.79019688753306,7.84034461735144,-4.72498135073179,0.018325957,-1.7513506,-0.49449542,328.6818,-98.23655,3.284786,STU
3409190658000,3.954999,4.53441623158173,8.00806949409275,-5.26170121900899,0.100792766,-1.577254,-0.38423425,329.01132,-98.42684,3.460393,STU
3409195632000,3.959973,4.17986804336083,8.15888935953421,-5.58397981724082,0.17531833,-1.3048081,-0.32803464,329.32486,-98.7337,3.631358,STU
3409200725000,3.965066,3.65528195945334,8.28510605749636,-5.56031421211386,0.28313604,-1.0345002,-0.3042109,329.594,-99.07754,3.8269165,STU
3409206328000,3.970669,3.07503457908163,8.43084005229592,-5.52055239923469,0.43066,-0.8585711,-0.30298916,329.8319,-99.51206,3.972453,STU
3409210742000,3.975083,2.56280972519133,8.66673253077168,-5.24759062515944,0.6637051,-0.8020661,-0.2657264,330.0313,-99.998505,4.136408,STU
3409215668000,3.980009,1.99116957334184,8.92998725414541,-4.94296676945153,1.0112875,-0.7519751,-0.20708331,330.2062,-100.49733,4.189656,STU
3409220699000,3.98504,1.46901408497307,9.10522652296569,-4.70635431890417,1.4052955,-0.64476824,-0.14202617,330.3513,-101.06946,4.2576985,STU
3409225717000,3.990058,1.03641098182591,9.14610252211511,-4.57691399875957,1.740966,-0.46211955,-0.12308934,330.46185,-101.71281,4.332658,STU
3409231672000,3.996013,0.523028861610434,9.19461120584066,-4.42330357499291,2.0100522,-0.2125811,-0.13133603,330.53766,-102.31896,4.2794375,STU
3409235926000,4.000267,-0.0356377479094077,8.87551393815331,-4.06500411341463,2.1740694,0.058643065,-0.16920967,330.55573,-102.9793,4.23431,STU
3409240746000,4.005087,-0.7415333257259,8.37959999022454,-3.56462247520325,2.264172,0.32253686,-0.2321288,330.5047,-103.68081,4.194561,STU
3409245708000,4.010049,-1.27329999136368,8.03882635522011,-2.49732135609683,2.298686,0.5403103,-0.2828306,330.40073,-104.32971,4.038421,STU
3409250677000,4.015018,-1.63357283365735,7.84757047873633,-0.940586731834751,2.2821925,0.5671884,-0.37384954,330.2724,-104.97514,3.8620183,STU
3409255733000,4.020074,-1.90493353857763,7.7907325525289,0.46309426475889,2.1313088,0.27152961,-0.53969944,330.17557,-105.45704,3.4862432,STU
3409260670000,4.025011,-2.02328323860708,7.94737171707281,1.55608830225871,1.7455474,0.063224554,-0.69027776,330.04788,-105.86664,3.1038785,STU
3409265664000,4.030005,-2.14299934189796,8.10581935485533,2.66170147286314,1.4999796,-0.24404067,-0.745561,330.01205,-105.99402,2.6000679,STU
3409270704000,4.035045,-1.91231038495575,8.66794209734513,2.75828982389381,1.0201449,-0.2678644,-0.795652,329.9531,-105.95706,2.0736156,STU
3409275657000,4.039998,-1.51133677322018,9.41976772156914,2.34791843274336,0.6075055,-0.026572637,-0.7816021,329.91342,-105.88952,1.5584656,STU
3409280659000,4.045,-1.10639633189143,10.1790311522916,1.93348723982301,0.29657507,0.26053402,-0.7324274,329.86316,-105.56558,1.0886602,STU
3409285724000,4.050065,-0.7911890406809,10.6867989849971,1.62371363006347,0.087659165,0.44348818,-0.6658431,329.7824,-105.1726,0.6464697,STU
3409290721000,4.055062,-0.533457063723793,11.0411803812272,1.3797887130025,-0.045814894,0.49113566,-0.6041457,329.66754,-104.732025,0.23618947,STU
3409295655000,4.059996,-0.356819648433303,11.1866790707252,1.090795719812,-0.12034045,0.45081854,-0.52931476,329.50232,-104.28132,-0.05567288,STU
3409300751000,4.065092,-0.23766100896069,11.1707913461382,0.753179573257101,-0.1731803,0.37568212,-0.44929138,329.34048,-103.81996,-0.31735864,STU
3409305712000,4.070053,-0.123595363013766,11.1368585098508,0.424893340413816,-0.17959438,0.2773328,-0.38606682,329.18274,-103.37475,-0.52836615,STU
3409310668000,4.075009,-0.0257826178089193,10.9490579351249,0.10015503760943,-0.18142697,0.16249016,-0.33628133,329.05527,-102.93624,-0.71692044,STU
3409315618000,4.079959,0.0719117100288517,10.7614847218696,-0.224190119549914,-0.17837265,0.04886922,-0.29138273,328.94815,-102.558846,-0.88546246,STU
3409320652000,4.084993,0.240107773425788,10.5316468242781,-0.790012999448784,-0.2012801,-0.06627888,-0.25228736,328.87555,-102.19121,-1.0392771,STU
3409325682000,4.090023,0.443059076998157,10.2821856674274,-1.47497364017555,-0.24037547,-0.16340645,-0.22449298,328.8304,-101.83622,-1.1807157,STU
3409330684000,4.095025,0.604492479347611,10.1454146983938,-2.01816717757287,-0.26083946,-0.23457226,-0.2125811,328.7952,-101.54,-1.3274832,STU
3409335659000,4.1,0.703693022427127,10.1784817269482,-2.34883568738846,-0.27672195,-0.2950479,-0.20463985,328.7838,-101.249275,-1.4631555,STU
3409340690000,4.105031,0.798555457044763,10.246962327288,-2.67330545228011,-0.27763826,-0.33841935,-0.20647246,328.7944,-101.10804,-1.5380579,STU
3409345657000,4.109998,0.883329139846944,10.3716299137226,-2.97749340508439,-0.27916542,-0.36743546,-0.21502456,328.81714,-100.96707,-1.612506,STU
3409350720000,4.115061,0.966032661369484,10.4910715457924,-3.23498932393977,-0.2657264,-0.41538838,-0.21777347,328.85953,-100.8842,-1.6660043,STU
3409355700000,4.120041,1.04330061476699,10.6001555198704,-3.43043166168874,-0.24098633,-0.44135013,-0.21899518,328.90286,-100.807076,-1.7205336,STU
3409360680000,4.125021,1.12734593093187,10.7103423492561,-3.61179596669277,-0.24281894,-0.45540005,-0.23365596,328.95605,-100.77019,-1.7638117,STU
3409365678000,4.130019,1.22313401644479,10.8227888692247,-3.77005457300966,-0.24404067,-0.48655418,-0.2434298,329.02106,-100.74149,-1.8078223,STU
3409370758000,4.135099,1.31704114015504,10.9394893457364,-3.92888129612403,-0.25350907,-0.52534413,-0.25534168,329.0904,-100.73692,-1.8423094,STU
3409375655000,4.139996,1.3726424775741,11.0763543549476,-4.06146919005928,-0.27366763,-0.56138515,-0.26908615,329.16666,-100.73009,-1.8813951,STU
3409380707000,4.145048,1.4300037102964,11.2175514197902,-4.19825376023712,-0.29016098,-0.6032294,-0.29046643,329.2491,-100.74388,-1.9096712,STU
3409385729000,4.15007,1.49030136703981,11.4128621397189,-4.27116075978453,-0.30451632,-0.6453791,-0.30085114,329.3412,-100.75296,-1.9408559,STU
3409390642000,4.154983,1.5497040071627,11.6108712158068,-4.33452361451056,-0.3118467,-0.7162395,-0.31398472,329.4513,-100.760994,-1.9825904,STU
3409395708000,4.160049,1.60749130917004,11.8427218268551,-4.40905198034991,-0.3032946,-0.79351395,-0.33292156,329.57166,-100.78405,-2.0226102,STU
3409400682000,4.165023,1.66086160469706,12.09725704947,-4.49116006136344,-0.27152961,-0.86162543,-0.34422258,329.70828,-100.8121,-2.067583,STU
3409405686000,4.170027,1.70376239138233,12.3852981877126,-4.58401786977631,-0.21288654,-0.9221011,-0.3463606,329.85535,-100.85532,-2.107212,STU
3409410635000,4.174976,1.69887675245851,12.8103489781466,-4.72081591268941,-0.12583824,-0.9492846,-0.34697145,330.01062,-100.91574,-2.1519043,STU
