timestamp,rel_time,acc_x,acc_y,acc_z,gyro_x,gyro_y,gyro_z,azimuth,pitch,roll,label
131634876174000,0,1.22112224386459,9.84731191052626,-0.559978666307374,0.0012217305,0.017715093,-0.0061086523,150.07585,-79.0127,9.464877,STD
131634881182000,0.005008,1.22351555725321,9.84611525258241,-0.566440623702506,0.0030543262,0.016798794,-0.0027488936,150.05681,-79.130905,9.380336,STD
131634886116000,0.009942,1.22587350618681,9.84493627688454,-0.572807096902901,0.004581489,0.014660766,-0.008857546,150.0386,-79.25061,9.294937,STD
131634891151000,0.014977,1.22827972282254,9.8437331673104,-0.579303893125842,0.0012217305,0.01282817,-0.0067195175,150.01993,-79.36462,9.214391,STD
131634896133000,0.019959,1.2306606108621,9.84254272204756,-0.58573230202012,-0.0070249503,0.02076942,-0.011911872,149.99904,-79.47912,9.131335,STD
131634901878000,0.025704,1.23340613510684,9.84116995849177,-0.593145230381748,-0.008246681,0.019242255,-0.01038471,149.98085,-79.58964,9.052597,STD
131634906109000,0.029935,1.23542812171772,9.84015896413066,-0.598604603732148,-0.0061086523,0.016798794,-0.0009162979,149.96028,-79.69654,8.975954,STD
131634911145000,0.034971,1.23783481625148,9.83895561560725,-0.605102690282044,-0.008552114,0.024129177,-0.00030543262,149.93727,-79.80229,8.898472,STD
131634916164000,0.03999,1.24023338651856,9.83775632922143,-0.611578841273691,-0.021991149,0.013439035,-0.0061086523,149.91985,-79.903984,8.823739,STD
131634921211000,0.045037,1.24264533793078,9.83655035225605,-0.618091121420102,-0.023823744,0.009773844,-0.0012217305,149.89783,-80.0021,8.753206,STD
131634926167000,0.049993,1.24501380062128,9.83536611967424,-0.624485981813527,-0.005192355,0.0036651916,0.00580322,149.87946,-80.1001,8.683311,STD
131634931138000,0.054964,1.24738943178239,9.83417830285338,-0.630900197111291,-0.003970624,0.0033597588,-0.0009162979,149.86047,-80.19579,8.612143,STD
131634936103000,0.059929,1.24976219555526,9.83299191972814,-0.637306670447319,-0.02443461,-0.0027488936,0.00030543262,149.84435,-80.285416,8.546741,STD
131634941144000,0.06497,1.25217127957923,9.83178737645838,-0.643811208631995,-0.016493361,-0.00061086525,-0.003970624,149.82594,-80.38025,8.478896,STD
131634946124000,0.06995,1.25455121182271,9.83059740909408,-0.650237036872361,-0.03176499,0.0106901415,0.007330383,149.80605,-80.46316,8.417013,STD
131634951110000,0.074936,1.25693401145444,9.82940600803417,-0.656670607074463,-0.034208454,0.0076358155,0.0106901415,149.78975,-80.550156,8.353136,STD
131634956173000,0.079999,1.25935360923531,9.82819620788047,-0.663203532452169,-0.040927973,0.0070249503,0.015882496,149.76906,-80.62959,8.293834,STD
131634961134000,0.08496,1.26172446141601,9.82701078055231,-0.669604844480374,-0.042760566,0.0009162979,0.0067195175,149.75099,-80.71059,8.2326765,STD
131634966166000,0.089992,1.26412924435762,9.82580838782598,-0.676097769722447,-0.050396383,-0.0067195175,0.009468411,149.7331,-80.78409,8.177494,STD
131634972139000,0.095965,1.26698372935567,9.82438114383664,-0.683804892630019,-0.055588737,-0.013439035,0.0106901415,149.7168,-80.8589,8.120457,STD
131634976139000,0.099965,1.26889532151911,9.82342534675689,-0.688966200453606,-0.05375614,-0.01160644,0.007330383,149.70015,-80.93265,8.063945,STD
131634981133000,0.104959,1.27128194433516,9.82223203410282,-0.695410093271356,-0.06047566,-0.016187929,0.01863139,149.68681,-80.99916,8.013289,STD
131634986108000,0.109934,1.27365948708844,9.82104326148487,-0.701829469876942,-0.05681047,-0.021991149,0.0143553335,149.67354,-81.0707,7.958244,STD
131634991142000,0.114968,1.27606522582612,9.81984039086001,-0.708324975772927,-0.062308256,-0.02107485,0.011911872,149.65924,-81.135544,7.907866,STD
131634996141000,0.119967,1.27845423813238,9.81864588345958,-0.714775320225456,-0.05955936,-0.017715093,0.016187929,149.6457,-81.2,7.859216,STD
131635001112000,0.124938,1.28082986929349,9.81745806663872,-0.721189535523219,-0.06261369,-0.02565634,0.009468411,149.63528,-81.265175,7.807899,STD
131635006485000,0.130311,1.28417071860832,9.81640274665781,-0.727485814024745,-0.048258353,-0.03390302,0.011911872,149.62361,-81.328255,7.7612715,STD
131635011136000,0.134962,1.30266357040605,9.82010137880927,-0.720088704201611,-0.040317107,-0.039095376,0.013133603,149.61334,-81.39092,7.7134156,STD
131635016511000,0.140337,1.32403512026904,9.82437576019264,-0.711540119961804,-0.044898596,-0.043676864,0.010079277,149.59363,-81.45373,7.6702523,STD
131635021114000,0.14494,1.3508206579288,9.83141653481574,-0.753585414406514,-0.03604105,-0.03940081,0.004886922,149.57283,-81.51823,7.6275253,STD
131635026139000,0.149965,1.38598752686084,9.84146391189059,-0.83396700147197,-0.042760566,-0.036651913,0.015271631,149.55348,-81.57577,7.589261,STD
131635031134000,0.15496,1.39977529678699,9.83871064546413,-0.875966979235905,-0.03940081,-0.032986723,0.013133603,149.52422,-81.63265,7.549201,STD
131635036109000,0.159935,1.40216721304784,9.82914303037301,-0.89749423807169,-0.04153884,-0.035430185,0.0106901415,149.49577,-81.68447,7.5127788,STD
131635041422000,0.165248,1.40472163537828,9.81892539439731,-0.920484052382148,-0.03726278,-0.038789943,0.013439035,149.4622,-81.73605,7.481443,STD
131635046138000,0.169964,1.40698902775742,9.80985587223254,-0.940890595632311,-0.03604105,-0.023518313,0.022602014,149.42383,-81.78495,7.4516172,STD
131635051119000,0.174945,1.40492040457587,9.78081920112136,-0.913662689925845,-0.030543262,-0.039095376,0.019242255,149.3918,-81.83605,7.4193044,STD
131635056170000,0.179996,1.4005459773015,9.74144944700669,-0.861169539794719,-0.03848451,-0.030848695,0.026572637,149.3481,-81.87962,7.3925824,STD
131635061134000,0.18496,1.40045470080371,9.72270004760433,-0.801808165347759,-0.031154128,-0.03604105,0.028405234,149.31349,-81.92945,7.3649125,STD
131635066180000,0.190006,1.40543404472952,9.72767949551777,-0.732097298392581,-0.027488936,-0.03145956,0.029321533,149.27351,-81.97528,7.339293,STD
131635071148000,0.194974,1.41559967509482,9.72743289633375,-0.667870292035398,-0.032070424,-0.034208454,0.027488936,149.22916,-82.01381,7.3151274,STD
131635076141000,0.199967,1.43071254767172,9.72239518447113,-0.607418980575221,-0.04520403,-0.033292156,0.0290161,149.18217,-82.049965,7.2924924,STD
131635081134000,0.20496,1.43382316497434,9.71506316092375,-0.557206582681452,-0.046731193,-0.028710667,0.027488936,149.13385,-82.081154,7.269662,STD
131635086108000,0.209934,1.42945783269795,9.7063322228739,-0.513552763064516,-0.042760566,-0.035430185,0.025045475,149.0883,-82.11086,7.2475395,STD
131635091135000,0.214961,1.42784470069547,9.69635283378249,-0.483915143231983,-0.049480084,-0.032986723,0.024740042,149.03688,-82.13037,7.2298465,STD
131635096132000,0.219958,1.4299248219508,9.68491225375989,-0.473514529353212,-0.05375614,-0.050396383,0.03726278,148.99268,-82.14756,7.215827,STD
131635101083000,0.224909,1.43198579460141,9.67357699026341,-0.463209658567982,-0.04917465,-0.038179077,0.03634648,148.93735,-82.16478,7.1970644,STD
131635106150000,0.229976,1.43409505503782,9.66197614596192,-0.452663348677302,-0.04795292,-0.029932396,0.03573562,148.88765,-82.17758,7.182506,STD
131635111334000,0.23516,1.43625301953403,9.65010743136573,-0.441873518309571,-0.055588737,-0.035430185,0.029321533,148.83821,-82.19149,7.1662464,STD
131635116206000,0.240032,1.43828110653743,9.63895303755542,-0.43173307588064,-0.05589417,-0.046731193,0.021380283,148.78783,-82.20676,7.1495275,STD
131635121155000,0.244981,1.44034124664001,9.62762235303834,-0.421432367838607,-0.07147124,-0.04734206,0.027794369,148.73001,-82.2161,7.1360297,STD
131635126154000,0.24998,1.44242220044336,9.61617719403634,-0.411027591216639,-0.05467244,-0.054061573,0.03145956,148.67697,-82.23168,7.1200166,STD
131635131189000,0.255015,1.44451814011128,9.6046496134052,-0.400547885217117,-0.05681047,-0.052839845,0.035124753,148.61958,-82.241325,7.105578,STD
131635136134000,0.25996,1.42917059596542,9.60442460230548,-0.383127471066282,-0.047647487,-0.054061573,0.03726278,148.56432,-82.25344,7.0921135,STD
131635141212000,0.265038,1.35442550910663,9.64179692622479,-0.341083357878963,-0.03604105,-0.0693332,0.028099801,148.51239,-82.26744,7.076858,STD
131635146121000,0.269947,1.28547155555878,9.67526496319907,-0.303095344934802,-0.03756821,-0.08735373,0.017104227,148.46162,-82.27312,7.0662546,STD
131635151194000,0.27502,1.23385224929972,9.69403550420168,-0.279632021680672,-0.023823744,-0.09162979,0.014660766,148.41078,-82.28198,7.055597,STD
131635156221000,0.280047,1.18279555088542,9.713640334375,-0.259361862067708,-0.008857546,-0.09040806,0.0027488936,148.35342,-82.30675,7.0239396,STD
131635161156000,0.284982,1.13356477054688,9.7423584359375,-0.267566997835938,0.01038471,-0.08246681,-0.003970624,148.29478,-82.332466,6.993454,STD
131635166225000,0.290051,1.08299722737847,9.77185631979167,-0.275994927564236,0.020463986,-0.08093964,-0.01038471,148.23164,-82.369385,6.9488983,STD
131635171103000,0.294929,1.0685988467306,9.80594462205754,-0.285734514899738,0.015882496,-0.06780604,-0.020463986,148.16254,-82.408806,6.901756,STD
131635176085000,0.299911,1.06339923714037,9.84234156342633,-0.296133744938971,0.014966198,-0.054367006,-0.021685716,148.09244,-82.44847,6.855995,STD
131635181144000,0.30497,1.08878105583524,9.8750052110984,-0.314051332854691,0.016798794,-0.049785517,-0.03481932,148.01755,-82.50502,6.792987,STD
131635186086000,0.309912,1.11585688283753,9.90659386441648,-0.332101893613654,0.014049901,-0.051923547,-0.04062254,147.94025,-82.558304,6.7326045,STD
131635191099000,0.314925,1.12869705564126,9.92431081199218,-0.355714887676643,0.003970624,-0.045814894,-0.054061573,147.85863,-82.61786,6.665209,STD
131635196070000,0.319896,1.13848956264527,9.93899936799342,-0.38019616541191,-0.013133603,-0.06627888,-0.057421334,147.78487,-82.67394,6.6006136,STD
131635201131000,0.324957,1.122741651946,9.94494967523894,-0.433767343863435,-0.020158553,-0.07696902,-0.064751714,147.70724,-82.73073,6.536432,STD
131635206117000,0.329943,1.10392209344763,9.94965466311952,-0.490226063573751,-0.03970624,-0.089491755,-0.06841691,147.63568,-82.78264,6.473776,STD
131635211140000,0.334966,1.0952979897421,9.9201279487105,-0.525150624517254,-0.062002823,-0.09132435,-0.06658431,147.56458,-82.83361,6.4130044,STD
131635216110000,0.339936,1.08838237826371,9.88554989131856,-0.556270908665456,-0.08246681,-0.10781772,-0.06780604,147.50102,-82.88297,6.3518195,STD
131635221131000,0.344957,1.08190954566642,9.85426434003501,-0.589847984665666,-0.0888809,-0.106595986,-0.080634214,147.43169,-82.94188,6.284076,STD
131635226920000,0.350746,1.07913684773193,9.85149158419605,-0.648074678927732,-0.10354166,-0.113926366,-0.08093964,147.36896,-82.993065,6.221086,STD
131635231140000,0.354966,1.07711563762941,9.84947033188297,-0.69052011851763,-0.11636983,-0.122783914,-0.08552113,147.30629,-83.05165,6.153134,STD
131635236123000,0.359949,1.07472898124531,9.84708362565642,-0.740639934981245,-0.13255776,-0.13591751,-0.08002335,147.24635,-83.10421,6.0893507,STD
131635241118000,0.364944,1.07383265785047,9.84700742975079,-0.786528427422267,-0.14263703,-0.14202617,-0.08307768,147.18488,-83.15797,6.021801,STD
131635246135000,0.369961,1.0849537454826,9.86554257580434,-0.797649511183551,-0.15241088,-0.1600467,-0.079107046,147.12996,-83.205284,5.9593916,STD
131635251430000,0.375256,1.09669107038037,9.88510478396729,-0.809386831995988,-0.16157386,-0.16920967,-0.07819075,147.07422,-83.26288,5.894518,STD
131635256123000,0.379949,1.10707712040816,9.89530289934391,-0.837005827922587,-0.17928895,-0.18600847,-0.06719518,147.02509,-83.31335,5.8352113,STD
131635261141000,0.384967,1.1181679244898,9.90005619326761,-0.88136901777851,-0.19242255,-0.1994475,-0.074830994,146.97733,-83.36655,5.772028,STD
131635266166000,0.389992,1.1292742,9.90481611793215,-0.925794093311793,-0.18600847,-0.20799962,-0.07544186,146.93306,-83.41416,5.717435,STD
131635271123000,0.394949,1.14023018163265,9.9095116296858,-0.969617993693581,-0.1863139,-0.21563543,-0.07086037,146.89185,-83.45868,5.663346,STD
131635276114000,0.39994,1.15126131020408,9.91423934789489,-1.01374248165112,-0.19028452,-0.2134974,-0.06566802,146.84969,-83.502655,5.610239,STD
131635281141000,0.404967,1.16237200612245,9.91900116705681,-1.0581852388065,-0.18448131,-0.22174409,-0.06383542,146.81209,-83.54684,5.5587306,STD
131635286120000,0.409946,1.19384354067471,9.90073046962742,-1.08912639291128,-0.17134771,-0.22907446,-0.070249505,146.77516,-83.59183,5.506755,STD
131635291146000,0.414972,1.25036782430874,9.8544834357852,-1.10454210662966,-0.1591304,-0.22174409,-0.06780604,146.73563,-83.63411,5.458626,STD
131635296898000,0.420724,1.31210224337827,9.81095279936558,-1.12486848850119,-0.15210545,-0.21685717,-0.07238753,146.70105,-83.68934,5.4126625,STD
131635301126000,0.424952,1.35625349381443,9.7828563814433,-1.14092348865979,-0.14263703,-0.2171626,-0.06872234,146.66498,-83.74324,5.370414,STD
131635306116000,0.429942,1.45434056416151,9.74498017677743,-1.12585392256569,-0.14538592,-0.2012801,-0.060170226,146.62811,-83.78729,5.3395886,STD
131635311138000,0.434964,1.58907274200155,9.70316688446677,-1.08404053323029,-0.13775012,-0.18967366,-0.06536258,146.59204,-83.836,5.306402,STD
131635316154000,0.43998,1.65212909713059,9.68913962053484,-1.02808697440953,-0.12950343,-0.18081611,-0.06536258,146.55717,-83.87292,5.2874594,STD
131635321201000,0.445027,1.64269432025181,9.70329151493266,-0.957326443368144,-0.12980886,-0.18387043,-0.06658431,146.52182,-83.91068,5.2669435,STD
131635326144000,0.44997,1.6501859293474,9.71297404493943,-0.904729430324345,-0.12095132,-0.18173242,-0.065973446,146.49678,-83.920746,5.2763157,STD
131635331135000,0.454961,1.67820345102579,9.71764372127784,-0.872042354205745,-0.11575896,-0.17806722,-0.064751714,146.4716,-83.9302,5.285263,STD
131635336125000,0.459951,1.6870010796843,9.72693392892491,-0.813485994883106,-0.11148291,-0.17440203,-0.06658431,146.44456,-83.93565,5.291585,STD
131635341149000,0.464975,1.66647465319966,9.74335495008532,-0.714959280644198,-0.11636983,-0.16798794,-0.061086524,146.41502,-83.93841,5.300022,STD
131635346235000,0.470061,1.64627602984918,9.76001222036128,-0.616261291431954,-0.12095132,-0.16584991,-0.06566802,146.39185,-83.937004,5.309814,STU
131635351146000,0.474972,1.63390361715188,9.77650868449667,-0.533778484133637,-0.13072516,-0.1563815,-0.06352998,146.36401,-83.931274,5.3226213,STU
131635356093000,0.479919,1.6214405086987,9.7931260756752,-0.450691038052438,-0.14172074,-0.14080444,-0.06872234,146.33183,-83.920685,5.3272595,STU
131635361229000,0.485055,1.6121458748852,9.79073877331552,-0.383448078567254,-0.1518,-0.13927728,-0.06078109,146.30035,-83.905334,5.3361764,STU
131635366762000,0.490588,1.60329750978542,9.78189068539701,-0.317085294122067,-0.16432275,-0.12034045,-0.0711658,146.25943,-83.894325,5.3377438,STU
131635371125000,0.494951,1.60533617396529,9.77391360035603,-0.253250491188251,-0.17989981,-0.1160644,-0.0711658,146.22507,-83.87078,5.3411913,STU
131635376145000,0.499971,1.62138274806409,9.76321566088117,-0.162319843190921,-0.18692477,-0.09468412,-0.0729984,146.1804,-83.84998,5.3405733,STU
131635381135000,0.504961,1.64009866483536,9.75154117677643,-0.0931904641785095,-0.19700404,-0.08307768,-0.07452556,146.1397,-83.82091,5.338068,STU
131635386121000,0.509947,1.66078758360485,9.73912802426343,-0.0393993488284229,-0.20158553,-0.07666359,-0.08124508,146.09444,-83.79349,5.333339,STU
131635391129000,0.514955,1.68585536573236,9.73145233896826,0.0028326208511288,-0.22174409,-0.05589417,-0.076052725,146.04292,-83.74813,5.3347154,STU
131635396136000,0.519962,1.72246320335914,9.73668213927364,0.013292010675319,-0.23182335,-0.050701816,-0.06383542,145.99417,-83.7036,5.336341,STU
131635401083000,0.524909,1.74897410081871,9.75560038538012,0.0151567438660819,-0.23487769,-0.04520403,-0.06780604,145.94666,-83.64896,5.339634,STU
131635406180000,0.530006,1.76324689309942,9.79366096608187,0.00564154205730994,-0.24465153,-0.040317107,-0.06719518,145.89783,-83.58791,5.347484,STU
131635411066000,0.534892,1.78577632253743,9.82853578959811,0.00175838930732861,-0.25625798,-0.03634648,-0.05589417,145.85031,-83.51813,5.3637986,STU
131635416127000,0.539953,1.82397037144405,9.86195573817967,0.00653264267878251,-0.27030787,-0.042760566,-0.049480084,145.80473,-83.44789,5.3787465,STU
131635421094000,0.54492,1.85484311784038,9.89141427230047,0.0112066626514085,-0.2574797,-0.0421497,-0.04062254,145.75473,-83.37694,5.3965116,STU
131635426146000,0.549972,1.87377191032864,9.9150752629108,0.0159388642323944,-0.2669481,-0.035430185,-0.02076942,145.70479,-83.296684,5.4189086,STU
131635431070000,0.554896,1.88797875261768,9.93519250155646,0.0231971743863786,-0.27550024,-0.032070424,-0.014660766,145.6606,-83.21491,5.4462953,STU
131635436473000,0.560299,1.89285974973116,9.94983528902934,0.0378401749008584,-0.27305678,-0.030543262,-0.003970624,145.61482,-83.12901,5.479896,STU
131635441090000,0.564916,1.89500647945752,9.94786679457525,0.0534897319622745,-0.27488935,-0.037873644,0.018936822,145.57352,-83.035095,5.520722,STU
131635446136000,0.569962,1.88835295711139,9.88133157111387,0.0845395256062233,-0.27030787,-0.04062254,0.039095376,145.53061,-82.942406,5.5628934,STU
131635451098000,0.574924,1.88181019494699,9.81590394946992,0.115072438024232,-0.2855795,-0.03848451,0.051618114,145.48865,-82.84179,5.6092463,STU
131635456148000,0.579974,1.87515139830648,9.74931598306485,0.146146845059893,-0.3118467,-0.048258353,0.070249505,145.45064,-82.735825,5.662399,STU
131635461116000,0.584942,1.86860072470054,9.68380924700537,0.176716677565469,-0.3136793,-0.05375614,0.08857546,145.4108,-82.630615,5.7178297,STU
131635466136000,0.589962,1.87283564558797,9.672575,0.199820495015214,-0.3286455,-0.056199603,0.102319926,145.3777,-82.517586,5.7750144,STU
131635471129000,0.594955,1.87925460420619,9.672575,0.221217039382048,-0.33078352,-0.07269296,0.1160644,145.35007,-82.404495,5.836717,STU
131635476137000,0.599963,1.88569284669769,9.672575,0.242677863373456,-0.35308012,-0.084910266,0.13591751,145.32272,-82.27196,5.903462,STU
131635481098000,0.604924,1.89207066638625,9.672575,0.26393727787453,-0.37018433,-0.10598512,0.15668693,145.3026,-82.13885,5.9738326,STU
131635486116000,0.609942,1.90374438597661,9.67822742102962,0.298453244135971,-0.38820487,-0.12003502,0.1826487,145.28358,-81.99822,6.050234,STU
131635491144000,0.61497,1.92479686213794,9.69401651710569,0.356347435422451,-0.4120286,-0.14660765,0.20189096,145.27408,-81.852615,6.130178,STU
131635496130000,0.619956,1.95936377032421,9.7062748578522,0.417860559211372,-0.4089743,-0.1685988,0.22632557,145.2612,-81.694695,6.2202535,STU
131635501119000,0.624945,2.00588178726512,9.715578655535,0.482985821787557,-0.44776422,-0.19333886,0.25350907,145.25626,-81.52234,6.3158917,STU
131635506332000,0.630158,2.03644850536497,9.70401773819955,0.547975101160618,-0.45875978,-0.22999077,0.28588495,145.26183,-81.34253,6.4229193,STU
131635511158000,0.634984,2.04791026533851,9.67345320451352,0.605283964859056,-0.46883908,-0.27458394,0.312763,145.27615,-81.15404,6.535335,STU
131635516224000,0.64005,2.06131530390797,9.64220078782822,0.663101597040485,-0.4801401,-0.31490102,0.3408628,145.29863,-80.94237,6.665129,STU
131635521155000,0.644981,2.09034519692632,9.6214652118205,0.692131403451304,-0.49693888,-0.38698313,0.36682457,145.34213,-80.72619,6.8022084,STU
131635526075000,0.649901,2.11931033049969,9.60077589242118,0.721096450610345,-0.5170974,-0.44012842,0.4025602,145.3927,-80.489334,6.952005,STU
131635531135000,0.654961,2.12241884464251,9.60685791435768,0.789587401763224,-0.5421429,-0.50793445,0.4175264,145.46751,-80.2512,7.103825,STU
131635536100000,0.659926,2.11781229436156,9.62067737279597,0.86789883350126,-0.5571091,-0.5516113,0.45204028,145.54823,-80.003716,7.2699857,STU
131635541138000,0.664964,2.13406823508736,9.68099134576479,0.922311977854297,-0.57726765,-0.5888741,0.4700608,145.64874,-79.74423,7.443037,STU
131635546074000,0.6699,2.15821817112496,9.75827124195361,0.965781882895678,-0.59650993,-0.62949663,0.49205196,145.76054,-79.47846,7.626111,STU
131635551108000,0.674934,2.17134772545384,9.87227567468135,1.00828630103322,-0.61758476,-0.6731735,0.5045747,145.87729,-79.20038,7.8094063,STU
131635556148000,0.679974,2.18066929208188,9.99811653215527,1.05023339952684,-0.6398814,-0.7107417,0.5296202,146.00157,-78.91587,8.001222,STU
131635561110000,0.684936,2.18043704546733,10.1348919945627,1.10300004103309,-0.65240407,-0.73273283,0.5458081,146.13326,-78.62644,8.19437,STU
131635566124000,0.68995,2.17593549159089,10.2789423766757,1.16152028843161,-0.65148777,-0.7669413,0.5500842,146.2774,-78.33767,8.390455,STU
131635571155000,0.694981,2.18209233458597,10.4408375298557,1.2446240704938,-0.6542367,-0.79626286,0.5580254,146.41629,-78.04429,8.589232,STU
131635576143000,0.699969,2.19660813455558,10.6150269779185,1.34623472080527,-0.655153,-0.82772243,0.56505036,146.5641,-77.756035,8.78762,STU
131635581128000,0.704954,2.21111520409218,10.7891116608762,1.4477842580552,-0.66431594,-0.8576548,0.569021,146.71777,-77.468475,8.978145,STU
131635586126000,0.709952,2.22566010550519,10.9636503259559,1.54959861857179,-0.6588182,-0.89644474,0.57971114,146.88083,-77.18609,9.171625,STU
131635591105000,0.714931,2.2685287505018,11.1147037286622,1.65340600415247,-0.68203104,-0.9242391,0.5928447,147.04924,-76.90062,9.36646,STU
131635596152000,0.719978,2.3308322717061,11.2526618774514,1.76021197411841,-0.70432764,-0.93126404,0.61636305,147.22011,-76.617165,9.565341,STU
131635601104000,0.72493,2.49888541481263,11.4203270578342,1.92268594109373,-0.7275405,-0.92149025,0.6533204,147.38538,-76.31309,9.761718,STU
131635606214000,0.73004,2.81656743517262,11.6369283325465,2.16816748628897,-0.7623598,-0.89827734,0.698219,147.54532,-76.00158,9.963994,STU
131635611141000,0.734967,3.03156842929345,11.7703272052771,2.31201361346224,-0.8173377,-0.8720101,0.7483099,147.69588,-75.660614,10.181638,STU
131635616166000,0.739992,3.11638506852937,11.7952732526567,2.32199211055933,-0.8744536,-0.8414669,0.820392,147.8332,-75.30534,10.413526,STU
131635621832000,0.745658,3.21202110393448,11.8234014724483,2.3332434865896,-0.9272934,-0.81183994,0.89736104,147.97609,-74.8713,10.708712,STU
131635626110000,0.749936,3.28422918008398,11.8446391223368,2.34173861307345,-0.9825767,-0.79443026,0.9810496,148.10721,-74.419014,11.019769,STU
131635631132000,0.754958,3.46963996047821,11.9049162307084,2.36173757401443,-1.0348058,-0.7788532,1.0842859,148.2257,-73.94688,11.349205,STU
131635636175000,0.760001,3.74163509475348,11.9955811093765,2.39036861980042,-1.054048,-0.7443393,1.2095132,148.32545,-73.45906,11.700285,STU
131635641136000,0.764962,4.21425011312217,12.0331491628959,2.37194977239819,-1.1291844,-0.7104363,1.366811,148.42238,-72.91151,12.111037,STU
131635646159000,0.769985,4.88144542986425,12.0236852103089,2.31043526641747,-1.1942415,-0.65576386,1.5219707,148.49342,-72.348694,12.544873,STU
131635651186000,0.775012,5.32747934753385,11.9084224292775,2.21816904309578,-1.2651019,-0.6249151,1.6893479,148.56763,-71.71354,13.063755,STU
131635656057000,0.779883,5.53958137807651,11.6917098722942,2.09828524483543,-1.2809844,-0.61453044,1.8072448,148.6224,-71.06843,13.598966,STU
131635661076000,0.784902,5.76857146503018,11.46879862334,2.06940726012072,-1.2687671,-0.6038403,1.8591684,148.71782,-70.32753,14.274978,STU
131635666075000,0.789901,6.00938868430583,11.2472463631791,2.15610148722334,-1.2131784,-0.6200282,1.9321668,148.8053,-69.57829,14.975037,STU
131635671084000,0.79491,6.17222863583827,11.0746566319856,2.22722876673021,-1.1026118,-0.65148777,1.9895881,148.91255,-68.818405,15.723025,STU
131635676056000,0.799882,6.24388883918932,10.9600003265777,2.27977956921842,-0.98990715,-0.7156286,2.0082195,149.02884,-68.075714,16.467775,STU
131635681027000,0.804853,6.20243764745929,10.8162977598587,2.23022343812046,-0.895223,-0.80878556,2.0082195,149.17186,-67.29914,17.265535,STU
131635686080000,0.809906,6.02679613081224,10.6359095261919,2.05932908460859,-0.8381071,-0.8604037,1.9746219,149.31943,-66.55257,18.043793,STU
131635691390000,0.815216,5.71433957360916,10.3801462429203,1.74716713844145,-0.8341365,-0.8582657,1.9150625,149.4812,-65.80881,18.819212,STU
131635696058000,0.819884,5.31030171958225,10.0883409281984,1.33864007284595,-0.8604037,-0.79320854,1.7876972,149.64441,-65.105255,19.549217,STU
131635701094000,0.82492,4.91561627313976,9.79910930655401,0.976889752030623,-0.92271197,-0.6563747,1.6383406,149.78886,-64.45173,20.220358,STU
131635706124000,0.82995,4.57381624419755,9.54275940225002,0.716042245355242,-0.9636399,-0.48838675,1.5244142,149.9107,-63.82934,20.845375,STU
131635711061000,0.834887,4.2559936095689,9.31645369223408,0.546233952663175,-0.97249746,-0.3549127,1.4672983,150.00337,-63.302216,21.38306,STU
131635716115000,0.839941,3.97323076005238,9.1458208679996,0.580360486966156,-0.95111716,-0.2574797,1.4294246,150.06555,-62.803154,21.875433,STU
131635721130000,0.844956,3.74114198373847,9.03955575980255,0.663727038409239,-0.8903361,-0.18936823,1.4202617,150.09387,-62.37269,22.307514,STU
131635726099000,0.849925,3.61261190544845,9.0661478004098,0.849874034622334,-0.7993172,-0.15424347,1.412015,150.10779,-61.96576,22.717505,STU
131635731084000,0.85491,3.49255296052397,9.11743006248146,1.04088479616411,-0.7284568,-0.11942416,1.4349225,150.07906,-61.587482,23.083647,STU
131635736099000,0.859925,3.4165824285912,9.29311272634701,1.25455220540781,-0.6728681,-0.08032878,1.4434745,150.04208,-61.23263,23.43432,STU
131635741096000,0.864922,3.34718268823828,9.47269319493029,1.46589473302915,-0.63071835,-0.005192355,1.4691309,149.95195,-60.888878,23.750269,STU
131635746111000,0.869937,3.31471773509083,9.67965654558513,1.66880006517955,-0.6218608,0.081855945,1.4920384,149.84724,-60.553143,24.057547,STU
131635751142000,0.874968,3.28214920482467,9.88728019805661,1.87235275232784,-0.6441574,0.18234327,1.5305228,149.68672,-60.225025,24.326923,STU
131635756152000,0.879978,3.3393300941684,10.0563617294507,2.04639790803482,-0.6924158,0.2302962,1.5717562,149.515,-59.89415,24.59462,STU
131635761184000,0.88501,3.42100262121562,10.2159944770049,2.21345534619829,-0.75900006,0.3295618,1.600467,149.2971,-59.55693,24.850273,STU
131635766145000,0.889971,3.53678139500868,10.3359760450304,2.37222795919054,-0.80481493,0.37568212,1.6633861,149.0344,-59.21261,25.085169,STU
131635771152000,0.894978,3.80213566154514,10.299554140408,2.5075065484158,-0.893085,0.3753767,1.7186694,148.75655,-58.852673,25.315454,STU
131635776115000,0.899941,4.05559505907235,10.2060921436637,2.61098877647008,-0.9550878,0.37110063,1.7696766,148.44289,-58.471073,25.545568,STU
131635781148000,0.904974,4.29422994752019,10.0009500713107,2.65704109805437,-1.0100657,0.32620203,1.7974709,148.14188,-58.076443,25.782295,STU
131635786348000,0.910174,4.54399605818182,9.77457563917629,2.70482499914616,-1.0558805,0.29535335,1.8072448,147.83545,-57.626434,26.065392,STU
131635791141000,0.914967,4.80681803454545,9.41953542802612,2.7509340924661,-1.0549643,0.24281894,1.7965547,147.55186,-57.182297,26.349928,STU
131635796235000,0.920061,5.10052555716346,9.03246899177199,2.80176464585631,-1.0458013,0.19333886,1.7760907,147.28613,-56.675545,26.698053,STU
131635801113000,0.924939,5.56019295728221,8.54110059139876,2.87309231020443,-1.0323622,0.16768251,1.7602082,147.0326,-56.180927,27.039387,STU
131635806165000,0.929991,6.0362568575282,8.03220490491136,2.94696425778268,-0.98715824,0.14996742,1.7421877,146.80615,-55.62891,27.451065,STU
131635811140000,0.934966,6.27982971047344,7.72255440630595,3.0019677887408,-0.93676186,0.14049901,1.7128662,146.59015,-55.096676,27.848364,STU
131635816094000,0.93992,6.42611447154366,7.49604859787149,3.04915643723891,-0.8735373,0.15363261,1.6948457,146.37553,-54.58558,28.234682,STU
131635821145000,0.944971,6.47036381784825,7.35443291341054,3.04679058924126,-0.79290307,0.19272798,1.6780468,146.19113,-53.95756,28.750248,STU
131635826078000,0.949904,6.46525045553631,7.25727913627016,3.02122377768157,-0.7101309,0.25900686,1.6441438,145.99915,-53.359432,29.241323,STU
131635831127000,0.954953,6.33140900199487,7.25905675710079,3.03188664534055,-0.63194007,0.34208453,1.6355917,145.78468,-52.732864,29.762283,STU
131635836137000,0.959963,6.17188640438872,7.28184566562174,3.05011781974922,-0.5644395,0.45081854,1.6285667,145.54655,-52.13627,30.253237,STU
131635841141000,0.964967,5.92432347371715,7.32086942448894,3.00745094803922,-0.537256,0.5494733,1.6239853,145.27504,-51.547707,30.733547,STU
131635846111000,0.969937,5.64632848310388,7.3655470705048,2.94291647254902,-0.55924714,0.63804877,1.6239853,144.97473,-50.972683,31.191051,STU
131635851113000,0.974939,5.42307072640503,7.36675915046676,2.77548238693084,-0.6044512,0.7339546,1.6340646,144.61261,-50.42869,31.594425,STU
131635856166000,0.979992,5.21102922010859,7.35754004871404,2.58187903600686,-0.6453791,0.7968737,1.6371188,144.23744,-49.893032,31.979656,STU
131635861133000,0.984959,5.05228184766697,7.33623010495883,2.33444874602013,-0.68111473,0.9282097,1.6270396,143.79218,-49.40389,32.286617,STU
131635866159000,0.989985,4.91136163650503,7.30980769182068,2.06141600933211,-0.7339546,1.0815369,1.6114625,143.32643,-48.91487,32.57358,STU
131635871158000,0.994984,4.90010411355074,7.25878423365404,2.01070898847985,-0.768163,1.2296717,1.5922203,142.82256,-48.473267,32.808285,STU
131635876143000,0.999969,5.00163827447843,7.18625975365607,2.15334024367024,-0.79351395,1.3035865,1.5787812,142.30287,-48.035107,33.022846,STU
131635881130000,1.004956,5.1032131712781,7.11370617657484,2.29602872303524,-0.79381937,1.2956452,1.5613716,141.78589,-47.64219,33.213192,STU
131635886122000,1.009948,5.20488990775775,7.0410798567855,2.43886026283674,-0.7837401,1.2296717,1.5509869,141.27234,-47.25609,33.39369,STU
131635891138000,1.014964,5.33756136106293,6.9570990040238,2.71763228615369,-0.77763146,1.1093313,1.5506815,140.76741,-46.876694,33.574738,STU
131635896137000,1.019963,5.49205733144413,6.86536710195643,3.0942163431424,-0.7834347,0.9651671,1.5302174,140.3015,-46.51156,33.7549,STU
131635901127000,1.024953,5.52600104042027,6.78434497119901,3.36072514660074,-0.7834347,0.84116143,1.5131133,139.8329,-46.09029,33.97392,STU
131635906245000,1.030071,5.47677484799135,6.70861248912237,3.55762975815822,-0.80664754,0.70463306,1.4697418,139.42546,-45.682728,34.19722,STU
131635911247000,1.035073,5.42629536754478,6.63491083256059,3.74501579030559,-0.8350528,0.59620446,1.421178,138.99553,-45.22944,34.4292,STU
131635916140000,1.039966,5.29873647307692,6.57318878269231,3.76147496923077,-0.84482664,0.5271767,1.3631458,138.61026,-44.79581,34.655766,STU
131635921157000,1.044983,5.1679449395504,6.50990255252898,3.77835126203021,-0.8246681,0.4896085,1.3197744,138.20251,-44.35579,34.854908,STU
131635926146000,1.049972,5.03257514580153,6.46478319923664,3.68538911145038,-0.8014552,0.47433686,1.2892311,137.82416,-43.932896,35.044483,STU
131635931132000,1.054958,4.89535052992366,6.42618869346206,3.55245254512797,-0.75747293,0.5170974,1.2770138,137.4513,-43.53038,35.219696,STU
131635936112000,1.059938,4.76571022618768,6.34842506630725,3.33854005589837,-0.7174612,0.5558874,1.2660183,137.05676,-43.150124,35.360126,STU
131635941141000,1.064967,4.64231063535817,6.23016743604142,3.04032491941924,-0.6933321,0.5864306,1.2669345,136.66028,-42.7817,35.49108,STU
131635946828000,1.070654,4.59322709469772,6.13565800361744,2.86862381169475,-0.6536258,0.59773165,1.2733486,136.25064,-42.450195,35.601746,STU
131635951119000,1.074945,4.58915438709614,6.0786392891774,2.79938688939544,-0.63591075,0.59681535,1.280679,135.84341,-42.12495,35.706493,STU
131635956190000,1.080016,4.62842520667522,5.96439589216945,2.77944981732991,-0.61941737,0.550695,1.2855659,135.46347,-41.824646,35.829506,STU
131635961138000,1.084964,4.69393390259702,5.82402078526711,2.7981665666535,-0.61453044,0.5045747,1.2910637,135.0889,-41.529522,35.951035,STU
131635966150000,1.089976,4.92316059525424,5.58253184949153,2.84963560847458,-0.6084218,0.46670106,1.2831224,134.72617,-41.23854,36.086914,STU
131635971135000,1.094961,5.26531911815981,5.2727392779661,2.92361590532688,-0.62125,0.44104472,1.2605205,134.38084,-40.95287,36.222378,STU
131635976118000,1.099944,5.50692826314442,5.04671265490859,2.99767270796161,-0.61758476,0.39400807,1.2400564,134.0393,-40.64365,36.389183,STU
131635981135000,1.104961,5.65625124277879,4.89738990457038,3.07233415191956,-0.61086524,0.35033122,1.2140946,133.71524,-40.344814,36.54908,STU
131635986105000,1.109931,5.7796053265267,4.73961601776436,3.11605295743457,-0.5748242,0.31978795,1.1808025,133.40256,-39.960083,36.806274,STU
131635991140000,1.114966,5.85356832288371,4.55933125638002,3.09756232901927,-0.5369505,0.31429017,1.1508701,133.10312,-39.588417,37.05553,STU
131635996091000,1.119917,5.91602441020537,4.40189233479673,3.07778660022003,-0.48930305,0.33292156,1.108415,132.7992,-39.187546,37.331768,STU
131636001114000,1.12494,5.94626588063705,4.3061273977368,3.05258512925398,-0.4596761,0.3576616,1.0714576,132.5029,-38.802326,37.595833,STU
131636006158000,1.129984,6.00179720006068,4.24323453140901,3.05498885544576,-0.42485678,0.39492437,1.028697,132.20007,-38.402313,37.87599,STU
131636011135000,1.134961,6.10508626827027,4.24530031104754,3.11076492725697,-0.3848451,0.45906523,0.9957104,131.89078,-38.020992,38.13439,STU
131636016912000,1.140738,6.22497795945911,4.24769814286829,3.17550641145495,-0.35521814,0.4908302,0.97494096,131.57985,-37.63794,38.39687,STU
131636021135000,1.144961,6.31261905551077,4.2494509633251,3.22283258209162,-0.3399465,0.5018258,0.9651671,131.26419,-37.270405,38.64077,STU
131636026077000,1.149903,6.41518175896502,4.25150221568067,3.27821641711091,-0.32253686,0.48991394,0.95905846,130.93445,-36.916176,38.871544,STU
131636031129000,1.154955,6.48926097838422,4.14023222342201,3.23340138091686,-0.2932153,0.49174652,0.95814216,130.60199,-36.57362,39.091347,STU
131636036094000,1.15992,6.54993969238245,3.9862013230588,3.14938463251202,-0.2666427,0.49938235,0.93431836,130.28136,-36.24589,39.30049,STU
131636041149000,1.164975,6.56639715533787,3.87351678266693,3.10887049010396,-0.22785273,0.5207626,0.9077458,129.94374,-35.89468,39.531685,STU
131636046148000,1.169974,6.56161162722911,3.78259164866054,3.08972847760896,-0.18936823,0.52442783,0.8668178,129.6213,-35.56303,39.750225,STU
131636051223000,1.175049,6.55221612657581,3.65145526303237,3.08768016609881,-0.15363261,0.5271767,0.8231409,129.30281,-35.217876,39.99332,STU
131636056198000,1.180024,6.54102078380426,3.50591569010163,3.09327780825941,-0.12858713,0.5403103,0.7996226,128.98787,-34.888275,40.223015,STU
131636061147000,1.184973,6.52988394935675,3.36113672599424,3.09884619641074,-0.105374254,0.5467244,0.7528914,128.68187,-34.569225,40.44463,STU
131636066177000,1.190003,6.50839755753484,3.25164497325267,3.12225221664686,-0.07788532,0.5534439,0.7199047,128.37712,-34.263096,40.65585,STU
131636071131000,1.194957,6.46227119908178,3.23626959179,3.18887910155558,-0.043066,0.5864306,0.68600166,128.07788,-33.978355,40.84526,STU
131636076211000,1.200037,6.42183355146036,3.18997972848401,3.3080981378025,-0.003970624,0.62888575,0.68019843,127.74259,-33.65736,41.0525,STU
131636081106000,1.204932,6.39140716643486,3.10739361230413,3.48631022352341,0.03970624,0.65301496,0.65026605,127.42104,-33.361572,41.239384,STU
131636086622000,1.210448,6.34980169271831,3.01640887902524,3.67294390639203,0.074830994,0.63316184,0.61269784,127.08108,-33.07627,41.405014,STU
131636091093000,1.214919,6.30425521232956,2.94601884029591,3.80130237762305,0.112704635,0.5876524,0.57360244,126.753914,-32.81109,41.560104,STU
131636096069000,1.219895,6.26523077410096,2.85363369289563,3.92391044588145,0.15577064,0.5497787,0.53878313,126.38773,-32.538723,41.684696,STU
131636101122000,1.224948,6.27587441596833,2.69929991333993,3.96116338691301,0.2049453,0.5390886,0.4877759,126.046844,-32.291367,41.797794,STU
131636106047000,1.229873,6.28326431845753,2.57939967101246,3.96461297364496,0.23090707,0.5314528,0.43004912,125.68302,-32.04096,41.886417,STU
131636111067000,1.234893,6.2856703558931,2.50962378141735,3.91167954708974,0.27366763,0.537256,0.37598756,125.337975,-31.81731,41.961998,STU
131636116016000,1.239842,6.28804236371553,2.44083476197387,3.85949478055152,0.3118467,0.56505036,0.33353242,124.97908,-31.579954,42.03513,STU
131636121081000,1.244907,6.29046996921575,2.37043339129673,3.80608685116861,0.36010507,0.58062744,0.28344148,124.645515,-31.369932,42.09461,STU
131636126017000,1.249843,6.27462485362463,2.27688623930487,3.73338632713009,0.4156938,0.6243043,0.2275473,124.29948,-31.180439,42.129753,STU
131636131052000,1.254878,6.22674085362463,2.13802253930487,3.62325302713009,0.47800204,0.6924158,0.15607607,123.9677,-31.018944,42.141876,STU
131636136043000,1.259869,6.16291830881836,1.99286797884766,3.60623629199219,0.573297,0.7742717,0.09010262,123.6373,-30.863556,42.16279,STU
131636141101000,1.264927,6.06830985125977,1.83203375412109,3.75760978457031,0.66767573,0.8597928,0.020158553,123.31512,-30.738821,42.152687,STU
131636146021000,1.269847,6.03706434215886,1.69846352290757,3.99894243136456,0.75900006,0.90194255,-0.045814894,122.99729,-30.628384,42.142735,STU
131636151159000,1.274985,6.14682395152749,1.61256484334206,4.47138519389002,0.79717916,0.9804387,-0.06963864,122.66116,-30.533358,42.101757,STU
131636156454000,1.28028,6.65194834138963,1.84279295829455,5.1206497720523,0.8011498,1.1117748,-0.13103059,122.28127,-30.43924,41.99968,STU
131636161134000,1.28496,7.87127177623005,2.67471437917221,6.01465475875443,0.71929383,1.1640037,-0.13591751,121.901634,-30.330645,41.905315,STU
131636166165000,1.289991,9.18204446868351,3.56902990661569,6.97571011945922,0.6783658,1.2232577,-0.069027774,121.397255,-30.168701,41.74582,STU
131636171119000,1.294945,10.4727556430851,4.44965783803192,7.92205642375887,0.58062744,1.1365148,0.19853121,120.87877,-29.941195,41.64688,STU
131636176122000,1.299948,11.4866982773804,4.86694650435671,7.77392572097538,0.46609017,0.88086766,0.4859433,120.37988,-29.687387,41.590702,STU
131636181111000,1.304937,12.343297296052,5.03116482692058,7.03716220423595,0.34025195,0.59895337,0.6441574,119.88554,-29.387972,41.585793,STU
131636186107000,1.309933,12.5851385943741,4.74526678344428,6.30860489588433,0.3378085,0.38148534,0.5213735,119.47388,-29.093782,41.667427,STU
131636191102000,1.314928,12.2016551651278,4.00226745157827,5.58957312639754,0.51068336,0.23182335,0.12217305,119.165085,-28.855091,41.76117,STU
131636196111000,1.319937,11.8170969074512,3.25718563910243,4.86852605265192,0.7461719,0.070554934,-0.4184427,119.130516,-28.700972,42.06301,STU
131636201086000,1.324912,10.5365560930659,2.77742503287853,4.82434277242643,0.8597928,-0.06780604,-0.9062186,119.22823,-28.64578,42.306835,STU
131636206088000,1.329914,8.86352995641992,2.40672523908971,5.06822401466246,0.745561,-0.063224554,-1.2391402,119.43904,-28.68481,42.46531,STU
131636211179000,1.335005,7.11743069341301,2.70541067572302,5.60610736862512,0.5198463,0.1301143,-1.4107933,119.721115,-28.705002,42.6584,STU
131636216151000,1.339977,5.39715929135115,3.23104905510446,6.23166058511997,0.38545597,0.42546764,-1.461495,120.028946,-28.771189,42.776287,STU
131636221132000,1.344958,4.06444573230422,4.10731054668675,7.04787344314759,0.50671273,0.5448918,-1.4611896,120.24559,-28.919657,42.632813,STU
131636226125000,1.349951,3.04596853270224,5.26981479518072,8.02005635886403,0.84574294,0.32284227,-1.5146403,120.50174,-29.103275,42.483257,STU
131636231106000,1.354932,2.85736690147116,6.34463333511302,7.77194445396531,1.2415836,0.009468411,-1.5971072,120.632126,-29.53311,41.908504,STU
131636236102000,1.359928,3.0438272688523,7.38415004267342,6.97016506405885,1.6007724,-0.20005837,-1.6975945,120.81093,-30.023096,41.360985,STU
131636241124000,1.36495,3.59494441760349,8.30803655592532,5.9760538683543,1.8533652,-0.34605515,-1.7733418,121.11744,-30.78726,40.617157,STU
131636246138000,1.369964,4.35497122805398,9.16063103465909,4.8749891850142,1.9205604,-0.48624873,-1.7950275,121.47755,-31.574362,39.9215,STU
131636251183000,1.375009,4.9549140720796,9.86541294985075,4.21705778025871,1.8020525,-0.8772025,-1.8069394,122.04515,-32.600483,39.277786,STU
131636256178000,1.380004,5.46897432312438,10.4889484916418,3.78391454115423,1.6988163,-1.3377949,-1.8252654,122.649796,-33.622684,38.679466,STU
131636261139000,1.384965,5.17630054316728,10.7339593330103,3.63613108288428,1.4624114,-1.7400496,-1.8695531,123.32918,-34.728573,38.188877,STU
131636266145000,1.389971,4.47004874568715,10.7897162172902,3.63148469203334,1.1780536,-1.9779817,-1.8854356,124.04447,-35.774124,37.757763,STU
131636271991000,1.395817,3.75819529426534,11.1986056487898,3.5744111139299,1.0296134,-2.064419,-1.7959439,124.920494,-36.863472,37.444126,STU
131636276143000,1.399969,3.29495352264738,11.6179192854273,3.51450914201065,1.0647382,-2.0549507,-1.6481144,125.7864,-37.89211,37.1571,STU
131636281131000,1.404957,3.15119716903654,11.9861314494504,3.12357421644717,1.2180653,-1.9929478,-1.5231925,126.51776,-38.931267,36.751633,STU
131636286108000,1.409934,3.27862783546886,12.2645911250619,2.52417837067036,1.3811663,-1.9532416,-1.4908166,127.204185,-39.937355,36.357635,STU
131636291132000,1.414958,3.49904934956747,12.3218274617679,2.14773477610619,1.5131133,-1.9526308,-1.5173893,127.967995,-41.06865,35.885757,STU
131636296142000,1.419968,3.78529649911504,12.2168695309735,1.93782020973451,1.5720617,-1.9871446,-1.5641204,128.69545,-42.180996,35.412262,STU
131636301087000,1.424913,4.14269585362136,11.9173512620186,1.68575640370704,1.5372424,-2.0005836,-1.5870279,129.39224,-43.337555,34.940426,STU
131636306166000,1.429992,4.56825178161811,11.4566978269144,1.39181574942726,1.4553864,-1.9144517,-1.6227635,130.04483,-44.476,34.439373,STU
131636311069000,1.434895,4.88415275670708,11.0963536323817,1.20029566355104,1.3884968,-1.7672331,-1.6545285,130.58072,-45.547073,33.963238,STU
131636316153000,1.439979,5.02696200852562,10.8869000895581,1.18125442334767,1.3713925,-1.613906,-1.6905695,131.06165,-46.593174,33.46171,STU
131636321103000,1.444929,5.15090342743539,10.7135527067594,1.14105850258449,1.3643675,-1.4929546,-1.7440202,131.69313,-47.56817,33.059547,STU
131636326144000,1.44997,5.24208218922465,10.6079778311133,1.04987984101392,1.3946054,-1.3930782,-1.7828102,132.25742,-48.529068,32.62831,STU
131636331083000,1.454909,5.30954754396887,10.5198339776265,0.951774357782101,1.4358387,-1.3154984,-1.8234328,132.8183,-49.45348,32.203293,STU
131636336113000,1.459939,5.32360531750973,10.4682887101167,0.829940222568093,1.4651603,-1.2626585,-1.8603901,133.33318,-50.36914,31.7565,STU
131636341888000,1.465714,5.31031259631141,10.4351351735478,0.714943322491599,1.4761559,-1.2266175,-1.8768835,133.84851,-51.266666,31.319046,STU
131636346137000,1.469963,5.25821876159385,10.4481585727316,0.666105300172828,1.4862351,-1.2040154,-1.8750509,134.3275,-52.15396,30.870123,STU
131636351082000,1.474908,5.19759178755801,10.4633152469995,0.609267451180989,1.4874569,-1.1759156,-1.8872682,134.80225,-53.037186,30.416128,STU
131636356167000,1.479993,5.06721218237709,10.5115173911526,0.494610678324951,1.4688255,-1.1548407,-1.8945986,135.24559,-53.898735,29.961142,STU
131636361076000,1.484902,4.91762891122857,10.5694207164118,0.364328549186082,1.4630222,-1.1316279,-1.8771889,135.65344,-54.741108,29.506115,STU
131636366169000,1.489995,4.71798023844732,10.6177318114603,0.306900364986137,1.4337007,-1.0781772,-1.8493946,136.04753,-55.578648,29.034935,STU
131636371120000,1.494946,4.51201955360444,10.6615531948244,0.271843226264325,1.4223998,-1.0512991,-1.831374,136.41862,-56.39828,28.567255,STU
131636376138000,1.499964,4.26443064553991,10.687563799687,0.249149835827856,1.3814718,-1.0381655,-1.7919732,136.76727,-57.214546,28.087284,STU
131636381123000,1.504949,3.99547078247261,10.7025057976004,0.23420762468023,1.3390167,-1.0360274,-1.758681,137.08835,-58.00863,27.611258,STU
131636386116000,1.509942,3.74184211435681,10.6841755477125,0.216875072049196,1.2788464,-1.0525209,-1.7318029,137.39845,-58.805847,27.108856,STU
131636391139000,1.514965,3.49321726799387,10.6519464739663,0.198458416584992,1.2168436,-1.0687088,-1.6936239,137.68407,-59.569263,26.621777,STU
131636396134000,1.51996,3.23936139133473,10.5744823675751,0.200447522127383,1.1594223,-1.1071932,-1.6603317,137.95221,-60.33707,26.106754,STU
131636401112000,1.524938,2.98236231404612,10.469779129979,0.214725253060797,1.1133019,-1.1554517,-1.6487253,138.20892,-61.078568,25.602522,STU
131636406157000,1.529983,2.77953247554831,10.3555095705394,0.226157208979451,1.0564915,-1.2238685,-1.6264287,138.46562,-61.817596,25.081057,STU
131636411165000,1.534991,2.61369331253705,10.2370527074689,0.2356337332869,1.0152581,-1.3045027,-1.6178766,138.72406,-62.53873,24.567928,STU
131636416146000,1.539972,2.49315349524534,10.1435865502092,0.19599851952073,0.97158116,-1.3674219,-1.6062702,138.9712,-63.255547,24.037062,STU
131636421136000,1.544962,2.40226683292126,10.0663328943515,0.123289094758463,0.9370673,-1.4114041,-1.5986344,139.22075,-63.953564,23.51682,STU
131636426139000,1.549965,2.33950862574861,10.0146271155554,0.0288404591965529,0.9147707,-1.4132367,-1.5815301,139.47481,-64.6457,22.986385,STU
131636431131000,1.554957,2.30621648758705,9.98965820747737,-0.0876818027533078,0.90469146,-1.4034629,-1.5757269,139.72334,-65.32315,22.462831,STU
131636436090000,1.559916,2.28314092594216,9.96849074583698,-0.208985902304996,0.8915578,-1.361924,-1.5775595,139.97801,-66.001076,21.932463,STU
131636441146000,1.564972,2.30435923198948,9.96318604469763,-0.357514543146363,0.88514376,-1.3295482,-1.5855007,140.21747,-66.66622,21.408072,STU
131636446067000,1.569893,2.34207358504529,9.94355469936404,-0.508877453199075,0.88422745,-1.2455542,-1.5870279,140.44986,-67.33563,20.879866,STU
131636451115000,1.574941,2.41194796407786,9.89697184486414,-0.676575846137984,0.8738427,-1.1505647,-1.5812247,140.65472,-67.99103,20.355856,STU
131636456198000,1.580024,2.49371740368582,9.85057846857302,-0.835472596781172,0.8622363,-1.0409144,-1.5867225,140.8591,-68.65087,19.829376,STU
131636461138000,1.584964,2.59913253654257,9.80665553476929,-0.967241503679324,0.8176431,-0.92179567,-1.5885551,141.01826,-69.29147,19.307755,STU
131636466153000,1.589979,2.70500222170333,9.75515612254849,-1.0865748360169,0.7812967,-0.79534656,-1.5992452,141.17209,-69.92836,18.795544,STU
131636471140000,1.594966,2.80332609526493,9.6620074570376,-1.11762446323545,0.74036866,-0.6731735,-1.6126842,141.27971,-70.54979,18.284266,STU
131636476098000,1.599924,2.90524857143127,9.56375446892442,-1.1228925903888,0.69058317,-0.5494733,-1.606881,141.38269,-71.15091,17.792402,STU
131636481103000,1.604929,3.01860573740422,9.45039744499101,-1.06394689059692,0.63346726,-0.45356745,-1.6084082,141.44783,-71.74185,17.298147,STU
131636486116000,1.609942,3.14458496584521,9.33594946704275,-0.984666141310372,0.5665775,-0.36346483,-1.5989398,141.50291,-72.30279,16.824284,STU
131636491141000,1.614967,3.33033455833333,9.21687875,-0.808442116666667,0.48472157,-0.28863382,-1.5683966,141.52498,-72.841934,16.360455,STU
131636496127000,1.619953,3.50395011997393,9.07905893062669,-0.652495459456188,0.39706242,-0.2171626,-1.5125023,141.53906,-73.33235,15.932758,STU
131636501113000,1.624939,3.61955669805382,8.8345067503492,-0.599138573694012,0.3191771,-0.15332718,-1.461495,141.52625,-73.80117,15.517302,STU
131636506478000,1.630304,3.72403079417547,8.58356862581534,-0.529150920914286,0.23365596,-0.035430185,-1.4138476,141.48825,-74.19814,15.153646,STU
131636511138000,1.634964,3.59283250772623,8.50156975029858,-0.328253527771429,0.15607607,0.13836098,-1.3811663,141.41017,-74.573,14.80364,STU
131636516160000,1.639986,3.45144242305926,8.41320100505283,-0.111749942285714,0.09621128,0.28130344,-1.3707817,141.32382,-74.89785,14.493801,STU
131636521129000,1.644955,3.27851731515551,8.2826255204524,0.129607326502922,0.059253927,0.3753767,-1.3423764,141.19785,-75.19926,14.201001,STU
131636526082000,1.649908,3.09969006709708,8.14403395155514,0.375494779278794,0.05375614,0.40286562,-1.3310753,141.04861,-75.4954,13.909789,STU
131636531129000,1.654955,2.92739032695753,8.00898155763516,0.510915434925703,0.086437434,0.38759398,-1.3261884,140.8856,-75.78874,13.6046915,STU
131636536098000,1.659924,2.76189602508167,7.87859235839393,0.596170105912109,0.16401732,0.35002577,-1.3148874,140.72105,-76.07557,13.309767,STU
131636541144000,1.66497,2.64193381509434,7.74564899622642,0.50558312754717,0.27030787,0.32162055,-1.2959507,140.55954,-76.36949,12.992853,STU
131636546071000,1.669897,2.53606240894442,7.615715890872,0.375650132742478,0.31948254,0.2657264,-1.2840388,140.41786,-76.6584,12.684111,STU
131636551216000,1.675042,2.45734354271997,7.49853791668359,0.216289414716924,0.42455134,0.22296582,-1.2592987,140.28656,-76.96567,12.363476,STU
131636556130000,1.679956,2.38782403096667,7.38991360867879,0.0598702964044871,0.5488624,0.18661933,-1.2253957,140.16951,-77.267975,12.055611,STU
131636561141000,1.684967,2.38747312236465,7.30155484568586,-0.11929051162225,0.6417139,0.15485434,-1.1917981,140.08081,-77.59095,11.743617,STU
131636566172000,1.689998,2.41973504752248,7.22320445601684,-0.308253344612206,0.72082096,0.1469131,-1.1621711,139.99387,-77.91078,11.445652,STU
131636571145000,1.694971,2.51806289906996,7.20988286194068,-0.409623478979022,0.7495316,0.19700404,-1.1255192,139.90779,-78.2427,11.150214,STU
131636576144000,1.69997,2.66153285594709,7.23956639392374,-0.454148652973029,0.7593055,0.2556471,-1.0827587,139.81874,-78.56473,10.869727,STU
131636581132000,1.704958,2.90316343739566,7.34026014474123,-0.47218666482749,0.72265357,0.32070425,-1.0454959,139.72276,-78.879906,10.6058445,STU
131636586118000,1.709944,3.19545596460768,7.47754883622705,-0.476615349151363,0.66950834,0.41386122,-0.990518,139.59854,-79.17194,10.36192,STU
131636591138000,1.714964,3.53508738229115,7.7127977861931,-0.430644910555278,0.6047566,0.5009095,-0.9193522,139.46611,-79.42137,10.157932,STU
131636596931000,1.720757,3.97913679999,8.09579037490746,-0.319632512661331,0.54092115,0.57726765,-0.82344633,139.30762,-79.63937,9.979043,STU
131636601111000,1.724937,4.19022139615641,8.36405160812482,-0.219161361963657,0.5128214,0.65393126,-0.68508536,139.1375,-79.770134,9.885131,STU
131636606140000,1.729966,4.35517460565122,8.68021212567786,-0.0817003381029398,0.49632803,0.7076874,-0.5299256,138.95082,-79.8619,9.824921,STU
131636611136000,1.734962,4.39485481897183,8.88623475133494,0.100621147780337,0.50793445,0.6985244,-0.3903429,138.77351,-79.8547,9.8586235,STU
131636616193000,1.740019,4.24780577290336,8.93187058915297,0.354154353722123,0.5198463,0.64568454,-0.2919936,138.59357,-79.81359,9.9242,STU
131636621107000,1.744933,4.07340245141576,8.96083022624054,0.650430848948696,0.5345071,0.52534413,-0.22693644,138.44751,-79.71997,10.035334,STU
131636626103000,1.749929,3.86325848737501,8.97424393299692,1.00365134039809,0.5342017,0.33383787,-0.19333886,138.33871,-79.608986,10.164213,STU
131636631081000,1.754907,3.66791134936758,9.00858550397098,1.27531536247671,0.50762904,0.09865474,-0.16340645,138.28214,-79.498474,10.280846,STU
131636636115000,1.759941,3.49774304790666,9.0842154433768,1.39348780912835,0.45875978,-0.02107485,-0.13500121,138.24854,-79.37998,10.404825,STU
131636641087000,1.764913,3.35202002695394,9.16200664843982,1.38476068423972,0.37751472,-0.25381452,-0.11575896,138.33466,-79.28751,10.482078,STU
131636646161000,1.769987,3.25574913257058,9.24865066448737,1.08150748253591,0.35460728,-0.42943826,-0.073303826,138.43846,-79.18241,10.573626,STU
131636651142000,1.774968,3.15688221745108,9.31237082258065,0.838056674288736,0.29077184,-0.5320636,-0.0143553335,138.58737,-79.092476,10.636901,STU
131636656165000,1.779991,3.04664848476996,9.32509035483871,0.723583203772254,0.24587326,-0.593761,0.036957346,138.77345,-78.992226,10.71178,STU
131636661376000,1.785202,2.92263622857143,9.32849421428571,0.632411281428571,0.20861048,-0.66523224,0.060170226,138.98506,-78.917015,10.776256,STU
131636666210000,1.790036,2.68511019790744,9.20740202796781,0.897881508655936,0.204029,-0.77488256,0.026572637,139.22385,-78.8431,10.8400955,STU
131636671303000,1.795129,2.44966944123732,9.08938555192698,1.1607866656998,0.20525073,-0.89919364,-0.049785517,139.47853,-78.80332,10.875547,STU
131636676056000,1.799882,2.42197058656187,9.10323529259635,1.18848561678499,0.23487769,-1.0045679,-0.14263703,139.75772,-78.77907,10.898012,STU
131636681186000,1.805012,2.39559222641209,9.1285910396778,1.2030454381961,0.26847526,-1.0943651,-0.23487769,140.08249,-78.807755,10.84967,STU
131636686060000,1.809886,2.41415918074781,9.28176870375895,1.02665922660103,0.3390302,-1.1523973,-0.31978795,140.42535,-78.861626,10.781047,STU
131636691244000,1.81507,2.43979600688871,9.45760173595506,0.831885167157437,0.42332962,-1.1389582,-0.39645153,140.77673,-78.945335,10.68286,STU
131636696054000,1.81988,2.5353014650214,9.77800718539326,0.563853712190877,0.48930305,-1.0732902,-0.45845437,141.1252,-79.047935,10.568989,STU
131636701068000,1.824894,2.63485746649278,10.1120015561798,0.284454603001204,0.5164866,-0.9966267,-0.52534413,141.456,-79.1835,10.437076,STU
131636706176000,1.830002,2.73275123589571,10.4392267271859,0.0296108238608676,0.5009095,-0.9398162,-0.57971114,141.769,-79.33031,10.294247,STU
131636711101000,1.834927,2.78045753787368,10.5823459098674,0.178030877361654,0.4831944,-0.91874135,-0.6203337,142.06592,-79.48929,10.13974,STU
131636716095000,1.839921,2.85638019683638,10.6734691823529,0.277590108413248,0.4813618,-0.95203346,-0.6612616,142.35295,-79.67386,9.986532,STU
131636721134000,1.84496,3.00666320331191,10.6209894794118,0.241808450879881,0.50854534,-1.0002918,-0.72234815,142.63469,-79.87101,9.819134,STU
131636726127000,1.849953,3.15557430696985,10.5689888529412,0.206353436777064,0.5519168,-1.0305296,-0.7867944,142.92587,-80.067795,9.643658,STU
131636731119000,1.854945,3.30445558665348,10.5169986411765,0.170905523618389,0.59498274,-1.0094548,-0.8888089,143.21263,-80.28869,9.444035,STU
131636736081000,1.859907,3.50385631961646,10.4953044053136,0.10172152698362,0.6078109,-0.9673051,-0.95630956,143.49738,-80.51331,9.240334,STU
131636741124000,1.86495,3.8849362660807,10.5773088136736,-0.0864064798861366,0.6047566,-0.86315256,-1.0830641,143.75479,-80.7788,8.994364,STU
131636746110000,1.869936,4.2572344334088,10.7312594631361,-0.216936022970765,0.5748242,-0.7874053,-1.2144,144.02245,-81.00395,8.79155,STU
131636751107000,1.874933,4.6152422578994,11.1316630869672,-0.160408447918102,0.54092115,-0.6817256,-1.3112222,144.24777,-81.24916,8.565104,STU
131636756152000,1.879978,4.99357327384215,11.5568617562269,-0.136502785755727,0.5164866,-0.5833763,-1.3570372,144.4624,-81.454346,8.384857,STU
131636761120000,1.884946,5.43141841490447,12.0565763626088,-0.241204869148745,0.5152648,-0.48197266,-1.3790283,144.64261,-81.6742,8.1862545,STU
131636766092000,1.889918,5.88181023872843,12.555135710621,-0.382011825200701,0.52656585,-0.30268374,-1.3503176,144.77979,-81.833374,8.043437,STU
131636771094000,1.89492,6.38572857514995,13.0502132416721,-0.673754045235766,0.5580254,-0.06261369,-1.2980887,144.86758,-81.98989,7.9019647,STU
131636776326000,1.900152,6.88312478146517,13.5505183402722,-0.949656576461169,0.5729916,0.22693644,-1.2067643,144.90459,-82.06988,7.8383107,STU
131636781128000,1.904954,6.9751738638711,13.7944485984788,-0.843799869775821,0.59040123,0.46578476,-1.0894781,144.88524,-82.128914,7.794568,STU
131636786323000,1.910149,7.06433053645764,14.052672680628,-0.747471518632008,0.5907067,0.51007247,-0.98471475,144.84557,-82.102844,7.8417463,STU
131636791142000,1.914968,7.02054863453183,14.2234230490466,-0.87881759014325,0.54336464,0.43493605,-0.8573494,144.77127,-82.03892,7.921742,STU
131636796119000,1.919945,6.97533126041172,14.3997717902002,-1.01447009022863,0.45753807,0.36071593,-0.677755,144.69449,-81.92307,8.047832,STU
131636801125000,1.924951,6.68649669365771,14.5222249236085,-1.07508629233245,0.3567453,0.30787608,-0.49388456,144.63374,-81.77446,8.20377,STU
131636806156000,1.929982,6.37635835555661,14.6408070318535,-1.12981660970276,0.27214047,0.28313604,-0.29779682,144.58688,-81.57699,8.406217,STU
131636811136000,1.934962,5.65313583553381,14.5619578198138,-0.961624928200988,0.23854288,0.24465153,-0.17195857,144.55038,-81.37012,8.618076,STU
131636816080000,1.939906,4.84361899738792,14.440530681516,-0.745753818322568,0.24556783,0.19853121,-0.12767084,144.5248,-81.13847,8.853199,STU
131636821122000,1.944948,3.99309672208738,14.4070904912938,-0.4012900445916,0.26267207,0.1966986,-0.13805555,144.49806,-80.94981,9.044787,STU
131636826076000,1.949902,3.14696434393204,14.4120970321338,-0.0107673381437316,0.23823744,0.3109304,-0.14721853,144.45255,-80.75455,9.241876,STU
131636831132000,1.954958,2.80609749229711,14.7691593851936,0.419273685350757,0.13041973,0.42363504,-0.07513642,144.40253,-80.666336,9.330122,STU
131636836115000,1.959941,2.59510753933975,15.2052054217921,0.850630815887208,-0.01863139,0.6621779,-0.016798794,144.28369,-80.58649,9.409111,STU
131636841135000,1.964961,2.47189466907029,15.390604093174,1.43153379499696,-0.11148291,0.8570439,0.1459968,144.14433,-80.57628,9.415156,STU
131636846120000,1.969946,2.37519561483695,15.5018078616569,2.05040854481973,-0.27488935,0.95294976,0.3268129,143.96448,-80.53974,9.44245,STU
131636851130000,1.974956,2.19622407928537,15.2417954466441,2.7532048211492,-0.4382958,0.91415983,0.473726,143.79733,-80.50448,9.456149,STU
131636856166000,1.979992,1.99594992179623,14.8878222773539,3.4797806149493,-0.6230826,0.75808376,0.5717699,143.63516,-80.41965,9.506363,STU
131636861137000,1.984963,1.86536624911265,14.435340872408,4.04186331533719,-0.83108217,0.5421429,0.6585127,143.53342,-80.28786,9.568706,STU
131636866106000,1.989932,1.75868851189987,13.9464016689707,4.54858249747805,-1.1065824,0.2837469,0.72234815,143.48486,-80.10358,9.652786,STU
131636871140000,1.994966,1.76968311086037,13.3546748631876,4.95061479971791,-1.4144585,0.00030543262,0.78801614,143.58348,-79.86079,9.716077,STU
131636876153000,1.999979,1.86343959046327,12.6983792340241,5.27355381523272,-1.7449366,-0.32467487,0.8604037,143.75671,-79.53328,9.806878,STU
131636881129000,2.004955,1.92550698395509,12.1213619290112,5.26272401340094,-2.058616,-0.6762278,0.9120218,143.99847,-79.0788,9.947701,STU
131636886138000,2.009964,1.9776296564741,11.5653869671315,5.14110427788845,-2.3472497,-1.0919216,0.93279123,144.33725,-78.5375,10.1116,STU
131636891139000,2.014965,1.84351527480981,10.9969067006322,4.66107868531019,-2.5421157,-1.5393804,0.9126327,144.76414,-77.87123,10.337373,STU
131636896134000,2.01996,1.55136263257259,10.4177264691953,3.87687974124076,-2.6297748,-1.953547,0.82833326,145.28609,-77.15899,10.567045,STU
131636901133000,2.024959,1.07546187002591,9.99928334984163,2.78851083443709,-2.5977044,-2.2727242,0.70921457,145.89934,-76.407616,10.825007,STU
131636906152000,2.029978,0.508025744025338,9.65789934206738,1.54753261589404,-2.436436,-2.44621,0.5696318,146.57703,-75.67207,11.070762,STU
131636911140000,2.034966,0.0978962506666667,9.53871253333333,0.244315031111111,-2.2149973,-2.4672847,0.48258355,147.29335,-75.03866,11.273944,STU
131636916128000,2.039954,-0.206067752340676,9.57144729045521,-1.10715571128732,-1.9052887,-2.3380868,0.47616947,148.0015,-74.45922,11.469283,STU
131636921133000,2.044959,-0.312102962857738,9.79868752416163,-2.55943005046865,-1.5063937,-2.007914,0.569021,148.61293,-74.1171,11.574774,STU
131636926144000,2.04997,-0.252128734730265,10.1885200487398,-4.09377080008332,-1.047023,-1.50731,0.73884153,149.12036,-73.83366,11.68681,STU
131636931129000,2.054955,-0.0472278206648575,10.739187329812,-5.0668186119403,-0.5708536,-1.2400564,0.9963212,149.54742,-73.78062,11.7986555,STU
131636936118000,2.059944,0.244500941981004,11.3874735012599,-5.71047407462687,-0.34208453,-0.7611381,1.1420126,149.76482,-73.75905,11.884757,STU
131636941145000,2.064971,0.412168912441718,11.9116934095092,-5.86248621196319,0.06994407,-0.44104472,1.3888022,149.93085,-73.94524,12.054383,STU
131636946136000,2.069962,0.480591174453988,12.3320014417178,-5.62789543312883,0.3998113,-0.30298916,1.5558738,150.01514,-74.13093,12.22315,STU
131636951115000,2.074941,1.06093849397476,12.894439373817,-3.30928916898878,0.59742624,-0.31581733,1.6554449,150.06319,-74.35887,12.450445,STU
131636956919000,2.080745,2.12760951492114,13.6591301056782,0.981747841701717,0.6062838,-0.47311515,1.6639969,150.122,-74.560905,12.6949215,STU
131636961134000,2.08496,2.75798405414852,14.0177525557208,3.19314219095931,0.43096542,-1.0424415,1.7446312,150.3067,-74.67787,12.995653,STU
131636966134000,2.08996,3.23107600145543,14.0686226290237,4.09354296648252,-0.122478485,-1.9052887,1.9694295,150.62874,-74.670105,13.3498,STU
131636971120000,2.094946,3.29728519277314,13.8228847167555,4.33323774936174,-0.9718866,-2.6508498,2.2180517,151.05664,-74.14043,13.856697,STU
131636976138000,2.099964,2.84323931332797,13.1949492748015,3.72945336793648,-1.6814066,-3.1102204,2.3527474,151.64104,-73.535194,14.4095335,STU
131636981129000,2.104955,2.48374446856121,12.5964777309683,3.0751985290957,-2.1725423,-3.235448,2.322204,152.32922,-72.719604,15.044221,STU
131636986114000,2.10994,2.23666423589912,12.0304393541922,2.35641983675543,-2.4199426,-3.0882292,2.162463,153.05399,-71.85014,15.684752,STU
131636991078000,2.114904,2.03857531127307,11.5126995381711,1.66053251275378,-2.5256224,-2.7159069,1.9764545,153.73433,-71.02172,16.272219,STU
131636996136000,2.119962,1.94206208356753,11.0860092890101,0.995099115492869,-2.5137105,-2.2033908,1.8194622,154.32018,-70.21357,16.808165,STU
131637001111000,2.124937,1.8572591253062,10.774369064599,0.558088324512051,-2.430022,-1.5864171,1.711339,154.7857,-69.49659,17.284075,STU
131637006255000,2.130081,1.78426955572896,10.608926257013,0.421841121193204,-2.2449298,-0.9459248,1.6502525,155.09056,-68.82967,17.696945,STU
131637011120000,2.134946,1.73927830706592,10.5042324825576,0.424325688315051,-1.969735,-0.42485678,1.6520851,155.2805,-68.24344,18.081593,STU
131637016134000,2.13996,1.72978763107026,10.4757603554699,0.628375351052476,-1.6417004,-0.10842858,1.7327193,155.33827,-67.69791,18.440538,STU
131637021163000,2.144989,1.7406553776936,10.4545070734194,0.78854503058829,-1.2843442,0.009162978,1.8521434,155.3021,-67.20861,18.785107,STU
131637026804000,2.15063,1.79118173872054,10.4444021283202,0.88454509543584,-0.9437868,-0.03634648,1.9795089,155.21584,-66.75656,19.138645,STU
131637031131000,2.154957,1.85834414570845,10.4214972820163,0.909463924148501,-0.636827,-0.09285152,2.0302107,155.08588,-66.338806,19.48571,STU
131637036114000,2.15994,2.02552636576489,10.3471935558583,0.784077295474893,-0.48808134,-0.20647246,2.1120665,154.97737,-65.920555,19.876328,STU
131637041131000,2.164957,2.20057736770502,10.2804193174426,0.626349222048016,-0.23548855,-0.310625,2.1682663,154.88165,-65.5548,20.275602,STU
131637046156000,2.169982,2.40763119332243,10.2514316270545,0.319909527271319,-0.024129177,-0.36865717,2.2128594,154.80328,-65.19493,20.690817,STU
131637051120000,2.174946,2.61217152971345,10.2227958270373,0.0171897969486275,0.12889257,-0.3857614,2.2763894,154.7603,-64.83241,21.159178,STU
131637056205000,2.180031,2.79413367321534,10.0879139740413,-0.399948930725664,0.22693644,-0.34574974,2.3194554,154.71866,-64.4904,21.625128,STU
131637061118000,2.184944,2.96531177187807,9.93986842428712,-0.820954596283186,0.21838433,-0.2742785,2.35794,154.67117,-64.14296,22.09702,STU
131637066149000,2.189975,3.05742946387744,9.6794847491489,-1.31239661255689,0.12217305,-0.14049901,2.3845124,154.62988,-63.777836,22.613953,STU
131637071130000,2.194956,3.13008093223437,9.39742591829421,-1.81240937546139,-0.008857546,0.06352998,2.4086416,154.54657,-63.398773,23.121492,STU
131637076180000,2.200006,3.09802221927083,9.0217256796875,-2.25219553645833,-0.16462818,0.3408628,2.422997,154.45192,-62.990803,23.663424,STU
131637081203000,2.205029,2.992794031875,8.585781079375,-2.64304291025,-0.34147367,0.6243043,2.4284947,154.29617,-62.561142,24.186073,STU
131637086155000,2.209981,2.84472182369621,8.1763695056514,-2.64364297263534,-0.54183745,0.86132,2.4150558,154.12486,-62.107098,24.73502,STU
131637091184000,2.21501,2.67281787911957,7.77048492891136,-2.45741380737656,-0.75655663,0.9923506,2.3875668,153.90503,-61.635452,25.261057,STU
131637096677000,2.220503,2.47987028320457,7.44355034180797,-2.07407679221431,-1.0057896,1.0354166,2.3600779,153.67506,-61.143265,25.791183,STU
131637101166000,2.224992,2.32027955489114,7.21926081443764,-1.69450966069028,-1.260215,1.0143417,2.3344216,153.4322,-60.63727,26.301771,STU
131637106198000,2.230024,2.14220077106417,7.05185452220008,-1.33471449298525,-1.4929546,0.97066486,2.3237314,153.16104,-60.094982,26.798836,STU
131637111210000,2.235036,1.96524171351136,6.92750473467517,-1.00949240509366,-1.6963727,0.91507614,2.3267858,152.90567,-59.537064,27.286781,STU
131637116155000,2.239981,1.78195439615385,6.854766481364,-0.74233639211935,-1.8420641,0.90194255,2.3286183,152.60094,-58.95272,27.740614,STU
131637121208000,2.245034,1.59007643846154,6.80679704203014,-0.497692061177637,-1.9437732,0.9437868,2.3356433,152.29866,-58.355865,28.187878,STU
131637126176000,2.250002,1.42921608536778,6.75074799662788,-0.33338655988168,-1.9660698,0.9978484,2.3341162,151.953,-57.76081,28.590527,STU
131637131175000,2.255001,1.28288324972392,6.68938268389864,-0.2106557569789,-1.9184223,1.1578951,2.3307564,151.56303,-57.16942,28.973652,STU
131637136121000,2.259947,1.20852723874598,6.66257371990555,-0.145501646700161,-1.8527542,1.3900238,2.3047945,151.10754,-56.607857,29.283918,STU
131637141136000,2.264962,1.1795716607717,6.65774784063505,-0.116546048569132,-1.6667458,1.6282613,2.283109,150.60403,-56.07695,29.570253,STU
131637146171000,2.269997,1.22441787594546,6.68537960270701,0.0185493437758758,-1.4175128,1.7821994,2.2516494,150.0279,-55.591564,29.791664,STU
131637151117000,2.274943,1.3139850234176,6.73252018073248,0.216539919154061,-1.1844677,1.8335121,2.2180517,149.41972,-55.144882,29.98447,STU
131637156142000,2.279968,1.42139292566876,6.71469616040519,0.328148800043273,-1.0042624,1.8191566,2.1847596,148.78021,-54.744446,30.142382,STU
131637161151000,2.284977,1.53933699342054,6.65336522152832,0.380044197736035,-0.92149025,1.7825048,2.1426098,148.1464,-54.383286,30.27708,STU
131637166325000,2.290151,1.62834984161367,6.47826489164689,0.347083109967727,-0.895223,1.777007,2.0882428,147.49884,-54.04044,30.388737,STU
131637171130000,2.294956,1.68950141413384,6.24239435154248,0.259723726517323,-0.9419542,1.8005253,2.0088303,146.87294,-53.724697,30.475052,STU
131637176147000,2.299973,1.69563502627367,5.98856793509662,0.219363647169627,-1.029308,1.8325957,1.9257526,146.24615,-53.395588,30.569164,STU
131637181138000,2.304964,1.6349896999512,5.72732659309975,0.238023742330666,-1.1096367,1.8573358,1.8408424,145.63618,-53.088993,30.632826,STU
131637186111000,2.309937,1.52863946961771,5.43429049277666,0.347173689571429,-1.1695015,1.8194622,1.7458528,145.03888,-52.758537,30.71853,STU
131637191163000,2.314989,1.35341283179074,5.08870467173038,0.590544046428571,-1.1963795,1.6930131,1.6374242,144.48515,-52.452805,30.778774,STU
131637196119000,2.319945,1.13260551134021,4.81177769871134,0.907772662371134,-1.1496484,1.4837917,1.5076154,143.95654,-52.154564,30.829172,STU
131637201123000,2.324949,0.842829268199841,4.61700994522205,1.33531138663759,-1.0684034,1.2223413,1.3955216,143.5058,-51.886627,30.871181,STU
131637206127000,2.329953,0.551094208954289,4.48955558123946,1.68979313714427,-0.95386606,0.9624182,1.2913691,143.11963,-51.640896,30.878366,STU
131637211142000,2.334968,0.25583226937174,4.4609819163411,1.9374322458701,-0.8249735,0.74220127,1.2205088,142.82227,-51.434868,30.889175,STU
131637216062000,2.339888,0.0292290462844583,4.44012827229657,2.14565949375794,-0.6927212,0.54336464,1.1691961,142.47792,-51.250637,30.846724,STU
131637221137000,2.344963,-0.098959090259451,4.4306328615317,2.30233387052848,-0.56321776,0.38331795,1.1102476,142.20874,-51.109844,30.804743,STU
131637226108000,2.349934,-0.111562297048384,4.36688710313306,2.35578062488598,-0.42119157,0.30848694,1.0809261,141.85077,-51.009674,30.708517,STU
131637231136000,2.354962,0.0985007781330557,4.1950172413841,2.21255580656355,-0.355829,0.2321288,1.0247264,141.56042,-50.94143,30.6083,STU
131637236081000,2.359907,0.383648318571852,4.00834891451852,2.06889397345185,-0.23945917,0.20555615,0.9477574,141.2303,-50.920765,30.46498,STU
131637241142000,2.364968,0.847985856302222,3.77857376622222,1.91571042462222,-0.12767084,0.24770586,0.84513205,140.9205,-50.931534,30.300581,STU
131637246080000,2.369906,1.31908652059958,3.53782424458296,1.80316576203621,-0.038179077,0.33567044,0.72356987,140.64977,-50.93106,30.184103,STU
131637251116000,2.374942,1.84398685236964,3.2515149138221,1.77930662207381,0.04337143,0.44348818,0.5879578,140.38312,-50.97717,30.029554,STU
131637256140000,2.379966,2.35765095957604,2.9935614682765,1.7843594283318,0.13072516,0.5305365,0.45478916,140.16597,-50.96567,29.978212,STU
131637261122000,2.384948,2.84136348724424,2.80887124379724,1.86351243415668,0.16432275,0.5665775,0.28955013,139.96263,-50.998974,29.877218,STU
131637266115000,2.389941,3.3163771806862,2.62095126896685,1.94225324171164,0.21380283,0.56291234,0.12095132,139.78893,-50.945286,29.887852,STU
131637271141000,2.394967,3.71068204200077,2.40756274153817,2.01647538454125,0.2687807,0.5467244,-0.05100725,139.64061,-50.938377,29.85282,STU
131637276357000,2.400183,4.11602228449612,2.18707544883721,2.08254727906977,0.33475417,0.49480084,-0.22907446,139.51183,-50.836567,29.928864,STU
131637281157000,2.404983,4.44495747829457,1.99519666529517,2.01858763685152,0.38637227,0.41691554,-0.4260785,139.4281,-50.786243,29.960344,STU
131637286406000,2.410232,4.8022071581706,1.77632859118689,1.94599688078519,0.45112398,0.32375857,-0.5992588,139.3736,-50.662277,30.079212,STU
131637291181000,2.415007,5.09833895595467,1.47094253128605,1.84882855386016,0.5290093,0.21685717,-0.77182823,139.37653,-50.59464,30.157658,STU
131637296288000,2.420114,5.41462609794393,1.14952477312897,1.73303681801869,0.6417139,0.06352998,-0.93370754,139.44139,-50.48496,30.321928,STU
131637301151000,2.424977,5.71059782214953,0.905783364156075,1.48059044361682,0.7855727,-0.13103059,-1.0903945,139.57234,-50.432262,30.45909,STU
131637306240000,2.430066,6.02032434990654,0.650714470414953,1.21641203536449,0.9419542,-0.34391713,-1.2483032,139.78566,-50.33569,30.691412,STU
131637311169000,2.434995,6.31695160909281,0.522474572058177,0.726757109003871,1.1145236,-0.5494733,-1.3976597,140.06952,-50.300068,30.903292,STU
131637316573000,2.440399,6.63987098489666,0.416450253537361,0.193005392245628,1.2754866,-0.7687739,-1.5406022,140.43436,-50.32255,31.098026,STU
131637321141000,2.444967,6.89198936263911,0.57728425927663,-0.0069504152344992,1.4407257,-0.86284715,-1.67316,140.87619,-50.32714,31.38,STU
131637326501000,2.450327,7.22461449139946,0.788239114228288,-0.101238225805366,1.5457945,-1.0903945,-1.7562376,141.5029,-50.34629,31.769178,STU
131637331135000,2.454961,8.11659017850799,1.33587095577265,2.1224789079929,1.5882497,-1.1429288,-1.7650951,142.10042,-50.39259,32.118725,STU
131637336102000,2.459928,9.07266338478078,1.92285571126484,4.50599271972703,1.539075,-1.3283265,-1.6224581,142.83138,-50.422535,32.557495,STU
131637341916000,2.465742,10.1512223791234,3.6130907652779,6.31877785178491,1.2880094,-1.8417587,-1.1169671,143.62129,-50.337425,33.114677,STU
131637346116000,2.469942,10.9255027225486,4.95444960486218,7.51109674017171,0.8875872,-1.9953914,-0.93370754,144.371,-50.263363,33.58607,STU
131637351717000,2.475543,10.7105647055334,7.27316092481933,6.9026205863553,0.9245446,-1.8915442,-0.6942484,144.65292,-49.73605,34.21296,STU
131637356152000,2.479978,10.041696767339,9.32099765818143,5.54197770295545,1.3347405,-1.5176947,-0.73853606,144.9062,-49.25607,34.77019,STU
131637361127000,2.484953,9.1198951434629,11.490374844523,4.96569286113074,1.8112154,-1.3888022,-1.0815369,145.0386,-48.82022,35.19703,STU
131637366135000,2.489961,8.14217055772402,13.6370231670744,4.6615117417686,2.0027218,-1.4929546,-1.5784758,145.17514,-48.501213,35.52027,STU
131637371116000,2.494942,8.41003184297424,15.3119356900149,4.0050329680115,1.9807305,-1.4987578,-1.9715676,145.58434,-48.885437,35.403584,STU
131637376145000,2.499971,9.64560591077283,16.6449204813711,3.06681691420055,1.7373008,-1.3023647,-1.9663752,145.95839,-49.282207,35.24509,STU
131637381133000,2.504959,10.12452293326,17.4656093356617,1.88622318203043,1.4737124,-0.8390234,-1.6410894,146.21251,-50.192505,34.585056,STU
131637386269000,2.510095,10.2704212572481,18.0774395742991,0.554314858080566,1.3854424,-0.23273966,-1.3545936,146.33484,-51.0563,33.9162,STU
131637391142000,2.514968,9.73809209359331,17.4067445805014,0.16820500729805,1.348485,0.2666427,-1.2473868,146.53156,-51.910988,33.338337,STU
131637396134000,2.51996,8.76152432980501,15.915259664624,0.336884849526462,1.1685852,0.623388,-1.2406673,146.53232,-52.648155,32.78999,STU
131637401126000,2.524952,7.66711938420183,13.8534523589292,0.652266326837061,0.87109387,0.8374963,-1.2724323,146.54527,-53.455364,32.230217,STU
131637406195000,2.530021,6.40496451940068,11.0296482726121,1.1603372172524,0.6188065,0.9224065,-1.3069462,146.45921,-54.20591,31.672781,STU
131637411161000,2.534987,5.41115162093653,8.76259832265867,1.39355511671827,0.49602258,0.93828905,-1.3435981,146.25958,-54.857758,31.122116,STU
131637416123000,2.539949,4.55601035356037,6.78106111609907,1.47631067678019,0.5348125,0.9098838,-1.3478742,146.03972,-55.48158,30.582184,STU
131637421773000,2.545599,3.72950519737366,5.01390619902507,1.70989254297652,0.73975784,0.8078693,-1.3573426,145.78375,-55.97363,30.104137,STU
131637426137000,2.549963,3.1640580879427,3.89132767506964,1.95935453366494,1.0326678,0.7067711,-1.366811,145.53815,-56.47624,29.635872,STU
131637431132000,2.554958,2.58014937955105,3.22285629718421,2.20179063736339,1.1636983,0.39828414,-1.4483615,145.37282,-56.911194,29.217659,STU
131637436108000,2.559934,2.0499807075416,3.05864467186177,2.4082279118342,1.3857478,0.0070249503,-1.6093245,145.27327,-57.412804,28.795223,STU
131637441142000,2.564968,1.69333805997993,3.46851181401907,2.29156787358756,1.5149459,-0.45845437,-1.8329011,145.14519,-57.880295,28.359262,STU
131637446134000,2.56996,1.50623429311591,4.40882832853989,1.87418252053186,1.6013832,-0.8686504,-2.0454822,145.13785,-58.402996,27.91419,STU
131637451116000,2.574942,1.41252339192174,5.62806872717939,1.34896708121465,1.6936239,-1.1523973,-2.2162192,145.39864,-59.04069,27.409449,STU
131637456157000,2.579983,1.40317097950407,7.11976400588919,0.717685375815575,1.7773124,-1.3267993,-2.3270912,145.75383,-59.719513,26.887424,STU
131637461097000,2.584923,1.43485227455844,8.74666367692002,0.197724278606866,1.8674151,-1.3875804,-2.384207,146.11368,-60.570103,26.239185,STU
131637466131000,2.589957,1.51617440168684,10.6027209555864,-0.213669785913872,1.9165897,-1.3674219,-2.3808472,146.48482,-61.42757,25.586452,STU
131637471130000,2.594956,1.63966924432238,12.4251596407739,-0.550228781241493,1.890017,-1.2687671,-2.2968533,146.75098,-62.44396,24.81427,STU
131637476183000,2.600009,1.81844439414738,14.2411383779895,-0.799573035543457,1.7965547,-1.1187997,-2.1374176,146.96101,-63.41927,24.067017,STU
131637481094000,2.60492,1.97222051914894,15.7120608868245,-1.0517612251823,1.6288722,-0.94897914,-1.9123137,147.14565,-64.50377,23.242065,STU
131637486118000,2.609944,2.09717915744681,16.7405666792528,-1.32570896474878,1.4278975,-0.7425067,-1.6554449,147.23622,-65.494995,22.47498,STU
131637491119000,2.614945,2.20675610664148,17.2410444495924,-1.59426786343209,1.2434162,-0.49510628,-1.4065173,147.23415,-66.51138,21.681108,STU
131637496139000,2.619965,2.29279315694969,16.8968964480016,-1.85715874511831,1.1273518,-0.2648101,-1.2183707,147.14844,-67.42467,20.956602,STU
131637501096000,2.624922,2.34973289842504,16.2354196783978,-1.99850804240716,1.0461067,-0.08674286,-1.1114693,147.04369,-68.319115,20.245731,STU
131637506230000,2.630056,2.35929293949057,14.9830531009139,-1.93636772556873,0.9935723,0.035430185,-1.0619892,146.87126,-69.13312,19.588684,STU
131637511119000,2.634945,2.34763302950301,13.7410940820077,-1.78174494423476,0.93187493,0.07513642,-1.069625,146.72469,-69.88627,18.987534,STU
131637516167000,2.639993,2.29031406434147,12.3511109973323,-1.41394864181405,0.8781188,0.04153884,-1.1316279,146.55669,-70.60894,18.40022,STU
131637521131000,2.644957,2.16846730675676,10.9527616621622,-0.993237791222973,0.816116,-0.0033597588,-1.1691961,146.40118,-71.23169,17.892258,STU
131637526173000,2.649999,1.88539006836248,9.45581069952305,-0.42228540555008,0.7706065,-0.13836098,-1.2583824,146.2803,-71.86507,17.365772,STU
131637531109000,2.654935,1.66575948589635,8.37910135694874,-0.0290328646044419,0.69913524,-0.30818152,-1.3567317,146.2166,-72.41514,16.894554,STU
131637536150000,2.659976,1.5933738248524,8.30671522350295,-0.0652256715063256,0.6160576,-0.47616947,-1.4337007,146.18839,-72.9689,16.414051,STU
131637541127000,2.664953,1.52136135207141,8.28114493243243,-0.114891449372657,0.55771995,-0.63041294,-1.496009,146.18323,-73.47342,15.949389,STU
131637546171000,2.669997,1.44512475988361,8.52891439189189,-0.248305496149536,0.5030475,-0.7357872,-1.5393804,146.20908,-73.980675,15.477443,STU
131637551132000,2.674958,1.37315127699346,8.77415393943355,-0.381152739442266,0.46883908,-0.782213,-1.559539,146.27286,-74.50158,14.990934,STU
131637556224000,2.68005,1.32215512996078,9.03763420993464,-0.529891608120261,0.44501534,-0.77091193,-1.5824465,146.34389,-75.023926,14.499662,STU
131637561184000,2.68501,1.27248095688889,9.29428427703704,-0.674774716651852,0.41447207,-0.71837753,-1.5903877,146.4227,-75.56951,13.987155,STU
131637566150000,2.689976,1.32328629648828,9.52961724208462,-0.806312218408518,0.3820962,-0.60903263,-1.5919148,146.47333,-76.10897,13.476905,STU
131637571117000,2.694943,1.39436955445036,9.76063771448585,-0.935150548080695,0.33964106,-0.47128254,-1.5958854,146.4928,-76.6397,12.970686,STU
131637576188000,2.700014,1.59037873165968,9.940544341855,-1.10574465655998,0.30573806,-0.2941316,-1.5897768,146.46985,-77.18902,12.449307,STU
131637581109000,2.704935,1.83616056508845,10.0899406482258,-1.28887625720421,0.2593123,-0.093767814,-1.5806139,146.394,-77.7258,11.934124,STU
131637586166000,2.709992,2.17537031599424,10.1794383991354,-1.48902511740634,0.2302962,0.118507855,-1.5610662,146.30026,-78.26346,11.419731,STU
131637591187000,2.715013,2.54490072276657,10.2441060816523,-1.69226680495677,0.20830505,0.36346483,-1.5305228,146.13454,-78.78405,10.916879,STU
131637596179000,2.720005,2.92861280642514,10.272596704964,-1.85604107866293,0.21746802,0.61941737,-1.4899004,145.93808,-79.27233,10.451879,STU
131637601163000,2.724989,3.32031874421537,10.2821507017614,-1.99934813759007,0.25595254,0.8750645,-1.4364496,145.66838,-79.74092,10.004504,STU
131637606173000,2.729999,3.64303961353651,10.226649508015,-2.04014598579062,0.31398472,1.1221595,-1.3698653,145.36491,-80.14943,9.624401,STU
131637611157000,2.734983,3.9264206016228,10.136912356224,-2.02597694624975,0.3866777,1.3408492,-1.2990049,144.99498,-80.537315,9.265459,STU
131637616138000,2.739964,4.09415046343639,10.0115426045382,-1.821892550109,0.47128254,1.434617,-1.2321151,144.62071,-80.85418,8.983905,STU
131637621149000,2.744975,4.19400968335315,9.86413171561633,-1.50329478880301,0.5174029,1.5952746,-1.2012665,144.16464,-81.154854,8.715525,STU
131637626121000,2.749947,4.22150795762494,9.71512231806037,-1.23890799095299,0.59742624,1.6615535,-1.1667526,143.73123,-81.38706,8.516817,STU
131637631158000,2.754984,4.20241301712024,9.56236389064819,-1.0049960713805,0.68233645,1.6951511,-1.1136073,143.26262,-81.59815,8.335971,STU
131637636148000,2.759974,4.10551443410822,9.40549527717875,-0.817884326158868,0.74281216,1.6969837,-1.0641272,142.79741,-81.76012,8.19463,STU
131637641200000,2.765026,3.95236122251459,9.24276980245326,-0.659945172905332,0.77579886,1.679574,-0.9950995,142.331,-81.89562,8.077414,STU
131637646145000,2.769971,3.73937477678322,9.05553378321678,-0.527474461608392,0.79809546,1.6530013,-0.9263771,141.88655,-82.00645,7.9785423,STU
131637651158000,2.774984,3.4755916683017,8.84450701598402,-0.409971056206294,0.8045095,1.6038266,-0.8378017,141.45724,-82.08612,7.9076424,STU
131637656270000,2.780096,3.20659919861139,8.62931275424575,-0.290147116765734,0.79137594,1.5338826,-0.7507534,141.0528,-82.163734,7.834458,STU
131637661079000,2.784905,2.95355053140859,8.42687355144855,-0.177425417867133,0.7791586,1.4596626,-0.679893,140.6679,-82.21632,7.783659,STU
131637666053000,2.789879,2.65097843936318,8.17912218312438,-0.0416786453114428,0.75900006,1.3686435,-0.6236934,140.30986,-97.72077,7.7200727,STU
131637671108000,2.794934,2.30897202772139,7.89492022461692,0.112465064151244,0.74464476,1.244638,-0.57635134,139.98718,-97.67857,7.6751733,STU
131637676267000,2.800093,1.96728372571429,7.62548766896552,0.279784295674877,0.7290677,1.1166617,-0.54061574,139.69392,-97.6022,7.595218,STU
131637681078000,2.804904,1.65407113085714,7.38944341931034,0.44319954215468,0.7107417,0.97219205,-0.5308419,139.44516,-97.53404,7.5221686,STU
131637686057000,2.809883,1.3673905327791,7.18758690593824,0.550609538123515,0.6948592,0.8213083,-0.5137377,139.24063,-97.421486,7.40525,STU
131637691138000,2.814964,1.11214837851346,7.02384665223674,0.598768421776524,0.679893,0.68416905,-0.48716503,139.07677,-97.316505,7.2951846,STU
131637696052000,2.819878,0.892251871468072,6.93170217485578,0.645458097074796,0.66950834,0.56230146,-0.45265114,138.96472,-97.14614,7.1226807,STU
131637701100000,2.824926,0.695107207167297,6.90766015854386,0.693542164844838,0.66248333,0.42424592,-0.4111123,138.89786,-96.98877,6.9627347,STU
131637706109000,2.829935,0.559104993137824,6.87797246978357,0.651112487819732,0.65087694,0.2932153,-0.37384954,138.87306,-96.78237,6.7552633,STU
131637711120000,2.834946,0.48716362535557,6.84200177180736,0.511726121193666,0.6267477,0.2098322,-0.34330627,138.8722,-96.59102,6.562808,STU
131637716014000,2.83984,0.448512966994027,6.85539386650805,0.319237237472917,0.5815437,0.19486602,-0.3304781,138.88841,-96.36602,6.338229,STU
131637721104000,2.84493,0.473189469423914,6.96890571069151,0.00337811459147516,0.55863625,0.19914207,-0.29993483,138.91862,-96.16173,6.133966,STU
131637726027000,2.849853,0.493438487287171,7.11259934080031,-0.266856267956061,0.5314528,0.20952678,-0.26633725,138.93105,-95.94689,5.918165,STU
131637731097000,2.854923,0.507724783609259,7.32213185923892,-0.481150936551589,0.5271767,0.22724187,-0.22540927,138.93643,-95.749214,5.719251,STU
131637736053000,2.859879,0.518691793107932,7.55144282704812,-0.60704999083225,0.52534413,0.20952678,-0.18417588,138.91699,-95.59576,5.5557256,STU
131637741098000,2.864924,0.523524768870661,7.83658681244373,-0.558720520856257,0.5366451,0.11942416,-0.15760323,138.912,-95.4543,5.4020033,STU
131637746392000,2.870218,0.549789733175311,8.10697995107613,-0.51962737084479,0.5476407,-0.015577064,-0.13744467,138.90858,-95.337204,5.262688,STU
131637751213000,2.875039,0.60669759972504,8.30834663487247,-0.502117249269935,0.5739079,-0.15577064,-0.13775012,138.93132,-95.22911,5.126313,STU
131637756214000,2.88004,0.673430245933962,8.52696805349057,-0.459547595648113,0.59589905,-0.32345316,-0.13988814,138.99216,-95.13038,4.9956403,STU
131637761178000,2.885004,0.76312696295283,8.77363342820755,-0.342941844791509,0.6252206,-0.52442783,-0.13194689,139.10022,-95.04337,4.86885,STU
131637766101000,2.889927,0.87399122261236,9.00823715660112,-0.251999825168539,0.655153,-0.7440339,-0.13897185,139.26126,-94.96786,4.747147,STU
131637771189000,2.895015,1.18195546418539,9.16221972401685,-0.37604097752809,0.6585127,-0.9334021,-0.14935656,139.46681,-94.90121,4.6278343,STU
131637776125000,2.899951,1.48071951615169,9.31160218328652,-0.496376497977528,0.65576386,-1.0601566,-0.16829337,139.71127,-94.84496,4.5225043,STU
131637781175000,2.905001,1.68027221689216,9.38938089216076,-0.669130283203343,0.657291,-1.069625,-0.19761491,139.96976,-94.79007,4.4135766,STU
131637786093000,2.909919,1.8536360712694,9.45029226939912,-0.84717962362117,0.66889745,-0.97494096,-0.21960606,140.22751,-94.739265,4.3043704,STU
131637791163000,2.914989,1.90667676019241,9.50598588405063,-0.776827873521013,0.6951646,-0.82802784,-0.23579398,140.48283,-94.76451,4.2589116,STU
131637796072000,2.919898,1.93048061304304,9.55835435037975,-0.653048012687595,0.70371675,-0.657291,-0.25809056,140.69878,-94.78575,4.2078447,STU
131637801153000,2.924979,1.94600770096027,9.66300250800226,-0.513311244073621,0.67347896,-0.48441613,-0.28771752,140.87257,-94.84627,4.1824803,STU
131637806155000,2.929981,1.95953711734137,9.77574764451139,-0.373507185329505,0.6093381,-0.33078352,-0.34208453,140.99911,-94.894295,4.145762,STU
131637811172000,2.934998,2.00350716166042,9.87710815297396,-0.244599211100605,0.5103779,-0.26816985,-0.3930918,141.10564,-94.91372,4.1058626,STU
131637816490000,2.940316,2.06223235324301,9.97987734044393,-0.11246743499337,0.419359,-0.18142697,-0.45998153,141.15833,-94.90854,4.048892,STU
131637821173000,2.944999,2.18999390199219,10.0698890026029,-0.169803524721794,0.3313944,-0.1966986,-0.48380527,141.22368,-94.87234,3.9945142,STU
131637826151000,2.949977,2.36180696313945,10.1653406201822,-0.312981053750526,0.29749137,-0.2406809,-0.50243664,141.27055,-94.81716,3.9247828,STU
131637831172000,2.954998,2.56099881035387,10.258918921363,-0.555329272712975,0.2434298,-0.3109304,-0.49205196,141.33713,-94.74126,3.869874,STU
131637836140000,2.959966,2.77204970790402,10.3500548503881,-0.847922480084686,0.21044308,-0.40225476,-0.44440445,141.42152,-94.67014,3.8212821,STU
131637841179000,2.965005,2.85659623909117,10.3136937624171,-1.06480677895571,0.18997909,-0.52198434,-0.38912117,141.54008,-94.64349,3.8101456,STU
131637846170000,2.969996,2.87496416437698,10.2126697657796,-1.23930178147757,0.2012801,-0.6591236,-0.33628133,141.68857,-94.62848,3.8111985,STU
131637851153000,2.974979,2.71067552964385,10.0490221326509,-1.24976721089785,0.24770586,-0.8011498,-0.3100141,141.87819,-94.676285,3.8475497,STU
131637856279000,2.980105,2.40706470324163,9.8344013555129,-1.13983916248667,0.31948254,-0.9416488,-0.30726522,142.10439,-94.736084,3.8897834,STU
131637861156000,2.984982,2.14841356086876,9.69952072767774,-1.05759804570262,0.3707952,-1.0812315,-0.3594942,142.36368,-94.81386,3.9216871,STU
131637866154000,2.98998,1.8951837720995,9.58845509188788,-0.982073343781325,0.4025602,-1.1884383,-0.41263947,142.65033,-94.899445,3.9517345,STU
131637871174000,2.995,1.7355085943957,9.59100941522544,-1.06120118990972,0.40622538,-1.2498302,-0.47983465,142.94499,-94.9339,3.918905,STU
131637876182000,3.000008,1.6528052220774,9.68587490997616,-1.26552712002079,0.39064834,-1.2745703,-0.5653558,143.25351,-94.95533,3.865544,STU
131637881150000,3.004976,1.57076241982553,9.77998269310747,-1.46822105388497,0.35460728,-1.2241739,-0.65118235,143.54295,-94.915665,3.7464135,STU
131637886222000,3.010048,1.48700213540092,9.87606052644926,-1.67515817799107,0.31581733,-1.1273518,-0.71593404,143.81873,-94.86306,3.6125512,STU
131637891177000,3.015003,1.73190045249493,10.1882207904665,-1.77928714111562,0.2706133,-0.99265605,-0.77518797,144.07408,-94.79339,3.4608526,STU
131637896170000,3.019996,2.18291277476673,10.6392330114604,-1.82293350631846,0.2519819,-0.84971356,-0.7870999,144.29329,-94.72352,3.3100636,STU
131637901154000,3.02498,2.71616579451645,11.0936661605184,-1.78721069885344,0.24007004,-0.7367035,-0.77671516,144.46649,-94.67214,3.1095693,STU
131637906208000,3.030034,3.30489390925224,11.5569279946162,-1.70517480575274,0.24007004,-0.6404922,-0.7510588,144.59933,-94.63112,2.9166608,STU
131637911174000,3.035,3.91580132003503,11.9786064370925,-1.73492842939574,0.25717425,-0.5983425,-0.700357,144.74815,-94.64777,2.811859,STU
131637916177000,3.040003,4.54985185404301,12.3842121144303,-1.8281711177581,0.26145032,-0.4908302,-0.66645396,144.84807,-94.66657,2.7148411,STU
131637921171000,3.044997,5.15535065311377,12.6625643215778,-1.93995235115127,0.27091873,-0.32986724,-0.6056729,144.96458,-94.73403,2.742287,STU
131637926180000,3.050006,5.74256979191684,12.8489830185563,-2.0657851176042,0.27977628,-0.13561209,-0.5500842,145.03917,-94.80529,2.7793326,STU
131637931146000,3.054972,6.00173456211335,12.9235481405907,-1.93226657192177,0.27275133,0.018936822,-0.48349985,145.11826,-94.93997,2.9388142,STU
131637936158000,3.059984,5.95863031190381,12.8948119071044,-1.55390718122131,0.23365596,0.00580322,-0.3998113,145.19003,-95.07982,3.113359,STU
131637941173000,3.064999,5.80971501018574,12.8660466924306,-1.56626030345516,0.15210545,-0.103847094,-0.31031954,145.27844,-95.284,3.3964303,STU
131637946175000,3.070001,5.56096665907729,12.8373448827641,-1.94895006670661,0.06505715,-0.100792766,-0.2049453,145.33955,-95.49803,3.6995876,STU
131637951133000,3.074959,5.22098126235741,12.8068870275909,-2.37072988189529,-0.04337143,0.03756821,-0.098043874,145.40826,-95.66476,4.0209417,STU
131637956206000,3.080032,4.78047897718631,12.7737312607,-2.84438828016964,-0.116675265,0.23945917,-0.016798794,145.45795,-95.8463,4.355929,STU
131637961123000,3.084949,4.30754024478,12.8339133764,-3.23558745441,-0.14385876,0.42455134,0.04337143,145.44528,-96.054474,4.6602015,STU
131637966247000,3.090073,3.7579388775,13.01057045,-3.55945966125,-0.12217305,0.57910025,0.084910266,145.38562,-96.27424,4.97676,STU
131637971147000,3.094973,3.21272004803695,13.3023388314088,-3.68713690993072,-0.04642576,0.711658,0.13683382,145.25467,-96.506874,5.226514,STU
131637976145000,3.099971,2.63347765757044,13.744508774873,-3.60312461605543,0.055588737,0.7984009,0.18936823,145.09665,-96.75268,5.4842167,STU
131637981098000,3.104924,1.9982007554247,14.2419575066265,-3.35347745927711,0.19425514,0.8390234,0.25961772,144.88089,-96.985954,5.6619368,STU
131637986162000,3.109988,1.18991824055723,14.9041649909639,-2.6669243373494,0.36163223,0.8222246,0.312763,144.6622,-97.243324,5.8464394,STU
131637991073000,3.114899,0.425752573812875,15.5506723415442,-1.90396477743738,0.47678033,0.75747293,0.35033122,144.43367,-97.42766,5.934603,STU
131637996176000,3.120002,-0.317774189268268,16.2335025427448,-0.862015704600497,0.50732356,0.65148777,0.37140608,144.228,-97.63017,6.029955,STU
131638001791000,3.125617,-0.914638951569682,16.7165794349144,0.256683704748166,0.44318274,0.5314528,0.3924809,144.06532,-97.64955,5.9919224,STU
131638006229000,3.130055,-1.16403866591687,16.8288102699267,1.11295604721271,0.310625,0.3484986,0.41416663,143.95486,-97.66812,5.958209,STU
131638011122000,3.134948,-1.32698147977984,16.798818769409,2.01230567578216,0.15027285,0.21013765,0.42149702,143.90475,-97.45137,5.795781,STU
131638016150000,3.139976,-1.252586451854,16.4361424681344,2.83995040393974,0.05375614,-0.17806722,0.4456262,143.97588,-97.24797,5.6453795,STU
131638021125000,3.144951,-1.11585555398717,16.0390027905082,3.53727772500255,-0.20005837,-0.65118235,0.46028697,144.10155,-96.9844,5.5243087,STU
131638026185000,3.150011,-0.780262532905591,15.5158722761992,3.86793540378857,-0.49205196,-1.1414018,0.48288897,144.34024,-96.719734,5.4107046,STU
131638031112000,3.154938,-0.45894427006804,14.9945387225683,4.00938243492094,-0.7855727,-1.559539,0.5015204,144.69691,-96.41904,5.344922,STU
131638036214000,3.16004,-0.140540903152851,14.4232858485865,3.68161440689986,-1.0684034,-1.8826867,0.5235115,145.1589,-96.111206,5.285474,STU
131638041101000,3.164927,0.160512750297168,13.8763241598524,3.31996984451536,-1.3072516,-2.0943515,0.5235115,145.72159,-95.83993,5.283246,STU
131638046128000,3.169954,0.453362680586358,13.314628093937,2.7438716341444,-1.5012014,-2.2085834,0.5207626,146.3376,-95.60851,5.290373,STU
131638051169000,3.174995,0.73395594713,12.7595660835,2.16112615104,-1.670411,-2.2421808,0.50762904,146.98962,-95.480835,5.3421626,STU
131638056256000,3.180082,0.96292685326,12.233420217,1.55216097408,-1.7880026,-2.1981986,0.48655418,147.63939,-95.428154,5.398833,STU
131638061211000,3.185037,1.26294835595646,11.745431972746,1.02728163815307,-1.9004018,-2.0873265,0.48655418,148.27414,-84.50277,5.4967356,STU
131638066152000,3.189978,1.85504416429551,11.3520533345903,0.763677310567364,-2.0109684,-1.9453003,0.50915617,148.87363,-84.34817,5.6044297,STU
131638072113000,3.195939,2.54861190583749,10.892770757602,0.437529954514899,-2.1096232,-1.7983873,0.5665775,149.42447,-84.09511,5.747447,STU
131638076137000,3.199963,2.71321654572358,10.8065494062341,0.0985228649633886,-2.2043073,-1.6349808,0.643852,149.91507,-83.760025,5.9124303,STU
131638081381000,3.205207,2.92772617086342,10.694187386708,-0.343264704024713,-2.2757785,-1.4801265,0.7180721,150.38957,-83.27265,6.198201,STU
131638086130000,3.209956,3.12198746182243,10.5924316218855,-0.743350357175836,-2.3313673,-1.3106114,0.79351395,150.80438,-82.72533,6.50951,STU
131638091119000,3.214945,3.32606612692973,10.48553343054,-1.1636551210358,-2.3145685,-1.1334605,0.8555168,151.1653,-82.14203,6.8394904,STU
131638096172000,3.219998,3.29763109777577,10.463624847911,-1.99677433456567,-2.196366,-0.93218035,0.8921687,151.4648,-81.54132,7.182583,STU
131638101091000,3.224917,3.25043299460976,10.4494656584511,-2.84161832610961,-2.012801,-0.7119634,0.9193522,151.70332,-80.93617,7.5372744,STU
131638106282000,3.230108,3.30533386673904,10.5477982697394,-3.84304632200948,-1.7486018,-0.45906523,0.93554014,151.90022,-80.37447,7.9386544,STU
131638111134000,3.23496,3.36495360688906,10.6486927651994,-4.7877890494473,-1.4312572,-0.31612277,0.93828905,152.06502,-79.85453,8.338324,STU
131638116155000,3.239981,3.62123389259554,10.9782041313694,-5.31554709146099,-1.2437216,0.0076358155,0.958753,152.10495,-79.43629,8.708126,STU
131638121112000,3.244938,3.89525752352707,11.3278206309713,-5.78800153398686,-0.8512407,0.33108896,1.0280862,152.1048,-79.094345,9.084503,STU
131638126181000,3.250007,4.24196786410179,11.5146043697024,-4.94727989347761,-0.44623706,0.63804877,1.1505647,152.0192,-78.844376,9.460591,STU
131638131070000,3.254896,4.584411773159,11.6740986266907,-3.97624014463481,-0.06261369,0.77366084,1.3295482,151.89159,-78.6116,9.8643265,STU
131638136168000,3.259994,4.74481521988247,11.5663721459354,-2.67496820352596,0.20433442,0.63407815,1.5427402,151.77171,-78.37384,10.33129,STU
131638141486000,3.265312,4.8853916798237,11.4167266279939,-1.27827392165257,0.32803464,0.29229903,1.6991217,151.6767,-78.111496,10.828635,STU
131638146171000,3.269997,5.02442428645854,11.2370717354551,0.125587602854247,0.31795537,-0.19792034,1.8029687,151.68208,-77.68695,11.432755,STU
131638151148000,3.274974,5.17902001583215,11.0245024814514,1.69569957001622,0.14049901,-0.8170323,1.8796324,151.82881,-77.2082,12.072919,STU
131638156241000,3.280067,4.95839573320502,10.7461978010535,2.5645140596637,-0.13133603,-1.5039502,1.9874501,152.14989,-76.5706,12.789605,STU
131638161135000,3.284961,4.57858291292545,10.4518429359806,3.07251358966775,-0.5296202,-2.1728477,2.0754147,152.64622,-75.89711,13.520464,STU
131638166152000,3.289978,3.95712066227462,10.0530835852982,2.94333398945908,-0.9101892,-2.6881125,2.0909917,153.32196,-75.11733,14.270108,STU
131638171183000,3.295009,3.23540931472954,9.61203770235784,2.5379282873509,-1.2235631,-2.980717,1.996613,154.11333,-74.32918,15.012831,STU
131638176174000,3.3,2.67450948509052,9.29418781618743,1.96580541265176,-1.4465289,-3.0360003,1.858252,154.94762,-73.55368,15.706838,STU
131638181176000,3.305002,2.24088109776358,9.07482268242812,1.25159380389776,-1.602605,-2.9254336,1.745242,155.79909,-72.7814,16.381618,STU
131638186166000,3.309992,1.92963933145065,8.97688774673008,0.61650265552715,-1.643533,-2.6783388,1.6820174,156.587,-72.14214,16.923286,STU
131638191179000,3.315005,1.67751359604637,8.93883126813317,0.0171095759403487,-1.6056592,-2.2983804,1.6539177,157.28357,-71.5159,17.438644,STU
131638196169000,3.319995,1.49574891144384,8.96945104728776,-0.492339407893729,-1.5137241,-1.7519615,1.6655241,157.85408,-70.985756,17.871668,STU
131638201158000,3.324984,1.35122782302884,9.03689409780198,-0.95480706688042,-1.4065173,-1.0601566,1.6899587,158.2528,-70.46519,18.283926,STU
131638206216000,3.330042,1.31824171474384,9.24289180895581,-1.12670551474384,-1.2971723,-0.6780604,1.7143933,158.58432,-70.02058,18.66138,STU
131638211383000,3.335209,1.34243184262808,9.5234975955221,-1.15089564262808,-1.2327261,0.090713486,1.8545868,158.58342,-69.54962,19.035807,STU
131638216168000,3.339994,1.39801100143694,9.7329147324636,-0.861487080147476,-1.0442741,0.7425067,1.917506,158.51033,-69.17276,19.356377,STU
131638221166000,3.344992,1.4749350313859,9.92296252486292,-0.381842797958026,-0.9831876,1.1487321,2.064419,158.27284,-68.737366,19.71304,STU
131638226174000,3.35,1.57341009305223,10.0335676436991,0.0789006034978438,-0.8622363,1.2886202,2.1902573,157.93452,-68.3432,20.043669,STU
131638231159000,3.354985,1.69236074422616,10.0655925066603,0.518102989458553,-0.7648033,1.1792754,2.282498,157.55061,-67.93271,20.390944,STU
131638236163000,3.359989,1.85745263578032,10.0605470315389,0.70423122995106,-0.70371675,0.9459248,2.3344216,157.1678,-67.49842,20.741385,STU
131638241176000,3.365002,2.08718356941816,10.0031145162045,0.531933046078303,-0.6389651,0.6988298,2.3689353,156.82773,-67.06625,21.108368,STU
131638246168000,3.369994,2.31505913961778,9.84748541761561,0.166446213740964,-0.54305923,0.49632803,2.3909266,156.56833,-66.61212,21.486876,STU
131638251162000,3.374988,2.54237623832063,9.62016841781364,-0.340281515739182,-0.44959682,0.38881573,2.405282,156.36087,-66.16861,21.870663,STU
131638256163000,3.379989,2.68270654521224,9.30336966949655,-0.817881974373149,-0.3943135,0.3585779,2.388483,156.19194,-65.70774,22.29981,STU
131638261175000,3.385001,2.75378096021718,8.91482933622902,-1.27275852726555,-0.37507126,0.3930918,2.3561072,156.04065,-65.26333,22.720682,STU
131638266131000,3.389957,2.75534792260366,8.52322151807136,-1.57164353639344,-0.40744713,0.4804455,2.3231206,155.8799,-64.79168,23.20098,STU
131638271241000,3.395067,2.69399914497589,8.11265622742527,-1.74153260688525,-0.47678033,0.59681535,2.2773056,155.70625,-64.338615,23.655329,STU
131638276154000,3.39998,2.60824214661042,7.76883684561787,-1.80969043845161,-0.5849035,0.71593404,2.2336287,155.51947,-63.865925,24.143166,STU
131638281170000,3.404996,2.48904296812903,7.47799089393548,-1.76677872025806,-0.7452556,0.829555,2.1762075,155.30629,-63.40425,24.599342,STU
131638286149000,3.409975,2.34268223711733,7.25332520911372,-1.63105138577738,-0.9080512,0.9462303,2.1282544,155.06587,-62.92908,25.058102,STU
131638291314000,3.41514,2.15402017895212,7.10438139439928,-1.36791752393857,-1.0671816,1.0656544,2.094657,154.79628,-62.457462,25.49013,STU
131638296167000,3.419993,1.94600390781394,6.99963668174297,-1.04507632237911,-1.244027,1.1313224,2.0595322,154.49661,-61.978123,25.901701,STU
131638301151000,3.424977,1.69589764269167,6.93381929178158,-0.623844715068947,-1.416902,1.1429288,2.0347922,154.18257,-61.497402,26.294792,STU
131638306107000,3.429933,1.43887886568318,6.88700431112015,-0.164960958536982,-1.5650368,1.1242975,2.0189097,153.84444,-61.02343,26.644138,STU
131638311177000,3.435003,1.15236392733747,6.89194432434632,0.417948831126259,-1.629483,1.0552697,1.9996674,153.52533,-60.55566,26.979452,STU
131638316070000,3.439896,0.909305078056414,6.91879768286654,0.950862444214094,-1.7241671,0.9575313,1.9941696,153.21867,-60.10746,27.240252,STU
131638321208000,3.445034,0.73765180074554,7.00217196226453,1.43639593668095,-1.7760907,0.8698721,2.002111,152.93694,-59.664867,27.49608,STU
131638326791000,3.450617,0.630603485582871,7.10880053180016,1.86149273402062,-1.7599027,0.80970186,2.025629,152.73338,-59.273357,27.657515,STU
131638331176000,3.455002,0.647254692853886,7.21287064787867,2.0654698242268,-1.6255124,0.7858781,2.0570886,152.54826,-58.88934,27.825014,STU
131638336126000,3.459952,0.726149881582693,7.3239183773413,2.23013926649587,-1.4068227,0.75533485,2.085494,152.20726,-58.49267,27.987944,STU
131638341177000,3.465003,0.964822164427365,7.42030510687921,2.22554941766771,-1.1145236,0.6963864,2.0818288,151.8903,-58.12908,28.148836,STU
131638346132000,3.469958,1.21314743591909,7.52341858566379,2.16666604357816,-0.82558435,0.6261369,2.0836613,151.51814,-57.77496,28.313389,STU
131638351174000,3.475,1.53556160145326,7.6704016982718,1.83951049689709,-0.6123924,0.5702427,2.067168,151.16948,-57.462147,28.469467,STU
131638356128000,3.479954,1.84846200503417,7.80162344331504,1.49816415798441,-0.4905248,0.5729916,2.05434,150.84645,-57.14993,28.661667,STU
131638361343000,3.485169,2.15132198804505,7.84969631625758,1.00301218123015,-0.47586402,0.6478226,2.028378,150.52824,-56.866627,28.838673,STU
131638366257000,3.490083,2.43085137966805,7.89204949425015,0.550646514439834,-0.53023106,0.7611381,1.988061,150.32262,-56.60525,29.03795,STU
131638371183000,3.495009,2.64524241410788,7.90137083722584,0.257024006307054,-0.6356053,0.86620694,1.947133,150.10304,-56.35189,29.219019,STU
131638376356000,3.500182,2.8584717825255,7.90162839514327,-0.02802529913288,-0.75441855,0.9257663,1.9098701,149.85522,-56.06908,29.451174,STU
131638381172000,3.504998,2.9167121219524,7.78962774239922,-0.0190652408319573,-0.8542951,0.94134337,1.8741345,149.59846,-55.79178,29.660698,STU
131638386477000,3.510303,2.96899837201559,7.65207148435175,0.00920024728046405,-0.90010995,0.890947,1.8124372,149.33105,-55.493618,29.903355,STU
131638391176000,3.515002,2.75379499153383,7.21767952029755,0.439606969543394,-0.8881981,0.7651087,1.7153096,149.09619,-55.2153,30.12546,STU
131638396743000,3.520569,2.49883920963514,6.70304660608395,0.94951848749141,-0.83260936,0.6053675,1.6288722,148.86237,-54.918873,30.369717,STU
131638401165000,3.524991,2.32097051577571,6.46350360250823,1.10821163141584,-0.74036866,0.5299256,1.5302174,148.65875,-54.663868,30.581797,STU
131638406120000,3.529946,2.12795973381755,6.23832438088321,1.22309901191168,-0.70066243,0.39461896,1.4905112,148.53142,-54.42254,30.8006,STU
131638411170000,3.534996,1.95563156476396,5.98019924930577,1.33521349907436,-0.5849035,0.31520647,1.4395039,148.39612,-54.18982,30.987242,STU
131638416117000,3.539943,1.79970780290034,5.71220494970688,1.44241106627584,-0.52290064,0.26297748,1.3713925,148.30391,-53.975075,31.163765,STU
131638421202000,3.545028,1.76612363510313,5.47513010988848,1.54266826925886,-0.46578476,0.22174409,1.2950343,148.17757,-53.781624,31.316254,STU
131638426142000,3.549968,1.78479905817626,5.26036345144577,1.63604523836968,-0.40378192,0.17012598,1.2232577,148.08167,-53.6182,31.453527,STU
131638431187000,3.555013,1.88468379527783,5.07416208853328,1.70842206134891,-0.34483343,0.11881329,1.1267409,147.95279,-53.464954,31.570694,STU
131638436161000,3.559987,2.0203028400648,4.9058072775378,1.7692168325054,-0.27275133,0.100792766,1.022283,147.8431,-53.34641,31.664915,STU
131638441162000,3.564988,2.21360873984916,4.78596534576029,1.78455771746841,-0.20769419,0.06352998,0.9089675,147.72437,-53.21366,31.772228,STU
131638446173000,3.569999,2.43858951482878,4.69303851613331,1.77477590023441,-0.1518,0.06169739,0.7883216,147.6169,-53.12137,31.844906,STU
131638451128000,3.574954,2.66927771087203,4.64722215523525,1.721660944425,-0.084910266,0.0852157,0.6597345,147.50238,-53.013348,31.932775,STU
131638456241000,3.580067,2.91126042446206,4.6220154810975,1.64604134313806,-0.026572637,0.14080444,0.528093,147.39612,-52.945892,31.982098,STU
131638461144000,3.58497,3.15264499269216,4.61936315187429,1.61802974437713,0.05100725,0.24220806,0.40378192,147.30026,-52.87263,32.044315,STU
131638466625000,3.590451,3.42592939598637,4.62433195543355,1.60312333369936,0.112704635,0.33383787,0.27916542,147.20769,-52.84046,32.064766,STU
131638471132000,3.594958,3.62103582151254,4.61684156490008,1.58181492122845,0.20250183,0.4279111,0.14782938,147.06247,-52.799545,32.101654,STU
131638476176000,3.600002,3.8245167505094,4.60264518539381,1.55342231045259,0.28008172,0.5177083,0.030543262,146.907,-52.79544,32.09847,STU
131638481171000,3.604997,4.05944452553987,4.54421451592608,1.40730945157807,0.35613444,0.5726862,-0.10903945,146.74059,-52.790844,32.100044,STU
131638486171000,3.609997,4.31795459613787,4.45473034856728,1.17862735024917,0.43371433,0.61300325,-0.23518312,146.56786,-52.825073,32.064957,STU
131638491163000,3.614989,4.58032018339899,4.27322290444569,0.893718543481523,0.5305365,0.66523224,-0.39064834,146.40965,-52.87882,32.01897,STU
131638496173000,3.619999,4.84582466820484,4.04371908987057,0.578713266329019,0.61117065,0.66431594,-0.54702985,146.27432,-52.97377,31.93932,STU
131638501155000,3.624981,5.14912982,3.78283872,0.155144262666667,0.69027776,0.6426302,-0.63132924,146.133,-53.047832,31.906853,STU
131638506204000,3.63003,5.49206112276596,3.48889775680851,-0.373949573388045,0.73761976,0.6203337,-0.8210029,146.02379,-53.194473,31.803307,STU
131638511153000,3.634979,5.73704494564254,3.24693367754801,-0.868829983042836,0.8304713,0.5696318,-1.0128145,145.98216,-53.319485,31.764141,STU
131638516168000,3.639994,5.91203491354013,3.03883730196947,-1.35123508534712,0.93431836,0.5198463,-1.1905763,145.96548,-53.4952,31.679638,STU
131638521134000,3.64496,6.13592111852739,2.84371534998503,-1.64194508814726,1.0308352,0.45814893,-1.357648,146.04105,-53.663723,31.65206,STU
131638526144000,3.64997,6.40877842472314,2.65702339577971,-1.76161935752769,1.1218541,0.38331795,-1.5244142,146.1518,-53.887245,31.582478,STU
131638531132000,3.654958,7.31813949202976,2.71349012021061,-0.634867104337745,1.1878275,0.26053402,-1.6377298,146.35089,-54.122112,31.549944,STU
131638536255000,3.660081,8.87280394367694,3.00735972342769,1.73504788995266,1.2134838,-0.0125227375,-1.5519031,146.61264,-54.350212,31.54565,STU
131638541275000,3.665101,10.5302319046331,3.67578135313505,3.22735089601725,1.1508701,-0.6383542,-1.2403619,147.02345,-54.467113,31.693623,STU
131638546138000,3.669964,12.2829784308682,4.74104300353698,3.76168339807074,1.0476339,-1.6887369,-0.6966918,147.62386,-54.493683,31.980827,STU
131638551110000,3.674936,14.0750112765273,5.83018158585209,4.30799250771704,1.039998,-2.1948388,-0.15943582,147.99875,-53.964733,32.65028,STU
131638556217000,3.680043,13.6248129836066,6.93784716393443,2.43219489262295,1.3365731,-1.6282613,-0.106595986,148.341,-53.46713,33.29611,STU
131638561073000,3.684899,12.2942958571578,7.98672186791271,-0.311389712368174,1.7369953,-0.7110472,-0.6542367,148.71747,-53.021664,33.8963,STU
131638566133000,3.689959,10.0705889070172,9.28681261763,0.264405419311811,1.7537941,0.00580322,-1.4065173,148.99847,-52.38876,34.620514,STU
131638571093000,3.694919,7.66018826367678,10.618272026097,1.77492315292867,1.5925257,0.31337386,-2.1786509,149.15215,-51.99599,35.078236,STU
131638576145000,3.699971,6.66941167845324,12.4394139202454,3.69618994504555,1.4040737,0.3811799,-2.7003298,149.43137,-52.30588,34.99017,STU
131638581120000,3.704946,6.26639441083845,14.4146415276074,5.7378489706544,1.1111639,0.47342056,-2.6673431,149.604,-52.643826,34.810238,STU
131638586163000,3.709989,6.81589402525845,15.9296021324736,4.9070036510178,0.9645562,0.7244862,-2.1606305,149.3593,-53.428406,34.05913,STU
131638591208000,3.715034,8.08774804209741,17.077874887456,1.889569418363,1.0885619,1.0519099,-1.5784758,149.05092,-54.157085,33.354397,STU
131638596111000,3.719937,7.78712540950966,16.992795682318,0.469992088178306,1.3200798,1.1322387,-1.4162911,148.67146,-55.043736,32.418995,STU
131638601115000,3.724941,6.81396216196137,16.3851618707281,-0.322779680713224,1.387275,1.0781772,-1.3292428,148.2076,-55.754436,31.650265,STU
131638606120000,3.729946,5.76510295438667,14.9886200935223,0.031544471917357,1.3420709,0.8912524,-1.3625349,147.85922,-56.548645,30.97251,STU
131638611115000,3.734941,4.68128168230362,13.2077158855175,0.948256814995509,1.1181889,0.63407815,-1.4031575,147.54453,-57.277737,30.351847,STU
131638616112000,3.739938,3.75580109175155,11.3650341939285,1.63012098324346,0.80756384,0.42302418,-1.4181237,147.28671,-58.074585,29.686495,STU
131638621114000,3.74494,2.90910000429399,9.48985412422608,2.19458839153186,0.55680364,0.27580565,-1.4004086,147.08495,-58.82945,29.052086,STU
131638626115000,3.749941,2.00826142070023,7.32851228475917,2.51972033107507,0.4166101,0.24953845,-1.3472633,146.85637,-59.46291,28.461657,STU
131638631121000,3.754947,1.07892373647513,5.01939296655128,2.72360553679161,0.4083634,0.31642818,-1.2776246,146.64413,-60.060932,27.899204,STU
131638636113000,3.759939,0.777332143191931,4.59514584538713,2.7478815615841,0.5833763,0.29657507,-1.2538009,146.49821,-60.577404,27.389229,STU
131638641117000,3.764943,0.82471902862652,5.2206524758232,2.67206262405814,0.8127562,0.111177474,-1.3402383,146.38791,-61.10172,26.882072,STU
131638646108000,3.769934,1.03284854787481,6.0339478041907,2.36786280347616,1.0348058,-0.20066923,-1.4410311,146.3863,-61.570133,26.42762,STU
131638651866000,3.775692,1.3875263238512,7.10712221006565,1.85412848974179,1.1985176,-0.48624873,-1.5238034,146.43666,-62.070442,25.964775,STU
131638671051000,3.794877,2.56927226551621,10.6828170653471,0.142424285331609,1.4871514,-0.9954049,-1.6853772,147.11386,-64.66983,23.831802,STU
131638676063000,3.799889,2.83442282836634,11.3096736443564,-0.217135587036832,1.4340062,-0.9950995,-1.6560557,147.27298,-65.4094,23.262636,STU
131638681055000,3.804881,3.06635979787129,11.7072800190099,-0.510606848844356,1.3307699,-0.9288206,-1.6022996,147.40675,-66.120285,22.704786,STU
131638686050000,3.809876,3.22740088375579,11.9031055006411,-0.753989085590295,1.210124,-0.8173377,-1.5262468,147.5334,-66.810425,22.169197,STU
131638691062000,3.814888,3.33155097536246,11.9362443166979,-0.957555081605681,1.0888673,-0.7498371,-1.4590516,147.63503,-67.45984,21.653774,STU
131638696056000,3.819882,3.36314354175079,11.7908875977831,-1.05095316994755,1.0348058,-0.6102544,-1.4205672,147.68845,-68.09026,21.150032,STU
131638701084000,3.82491,3.32978390131136,11.4835028281869,-1.04618749280978,0.93554014,-0.5027421,-1.3494014,147.71495,-68.66239,20.682266,STU
131638706047000,3.829873,3.29685552114014,11.180091807601,-1.04148342446556,0.8741482,-0.4474588,-1.2904528,147.72765,-69.21429,20.229546,STU
131638711062000,3.834888,3.26358213275435,10.8735017878068,-1.0367300690865,0.8353582,-0.42546764,-1.2614367,147.70735,-69.73408,19.794102,STU
131638716062000,3.839888,3.21627486521348,10.5511667106289,-1.03895089889011,0.8051204,-0.44898596,-1.2406673,147.68565,-70.22441,19.378242,STU
131638721516000,3.845342,3.14838022731727,10.180356880012,-1.04939628233177,0.79076505,-0.4633413,-1.2226468,147.64699,-70.69251,18.976105,STU
131638726055000,3.849881,3.10827857274165,9.93787704368452,-1.06032898968176,0.79717916,-0.4831944,-1.2400564,147.6277,-71.130325,18.596777,STU
131638731062000,3.854888,3.079843385254,9.73409244060091,-1.07454653393951,0.8054258,-0.47433686,-1.2483032,147.59718,-71.548706,18.230293,STU
131638736033000,3.859859,3.0776401789306,9.59203566633476,-1.071294066046,0.82711154,-0.4465425,-1.2513574,147.57915,-71.959366,17.865679,STU
131638741065000,3.864891,3.10643075465498,9.52005947754655,-1.04730195301205,0.83199847,-0.4007276,-1.2629639,147.54686,-72.36376,17.501215,STU
131638746032000,3.869858,3.14924492598087,9.5061522498536,-1.02173851877806,0.82436264,-0.34666604,-1.273654,147.51598,-72.758675,17.14092,STU
131638751140000,3.874966,3.211311862073,9.56344500566075,-0.99309224058169,0.79809546,-0.29810223,-1.2745703,147.46729,-73.1434,16.784998,STU
131638756300000,3.880126,3.28996781957975,9.65386808213945,-0.933403902015282,0.77366084,-0.2171626,-1.2831224,147.40852,-73.51835,16.433239,STU
131638761139000,3.884965,3.38291775339064,9.7778010191022,-0.840454014422159,0.72143185,-0.14782938,-1.2916746,147.33414,-73.882706,16.086456,STU
131638766048000,3.889874,3.46853733598542,9.91632826207106,-0.757818323139994,0.6765333,-0.07269296,-1.2782356,147.24582,-74.232506,15.749269,STU
131638771165000,3.894991,3.53798402307926,10.0899447208219,-0.69829262834295,0.61666846,0.0106901415,-1.2431108,147.13152,-74.56892,15.421341,STU
131638776049000,3.899875,3.55493823845468,10.2213594493314,-0.626133458497276,0.5635232,0.105068825,-1.2082914,147.00157,-74.883316,15.11199,STU
131638781143000,3.904969,3.47278541575037,10.2890150356612,-0.519818085700842,0.5290093,0.19242255,-1.1603385,146.84827,-75.17651,14.821784,STU
131638786093000,3.909919,3.35474560103062,10.3028156332375,-0.433302351672778,0.51068336,0.2883284,-1.1169671,146.682,-75.45251,14.547162,STU
131638791603000,3.915429,3.13511768902983,10.198230471212,-0.375780763733029,0.4981606,0.38881573,-1.0519099,146.48991,-104.29731,14.297305,STU
131638796092000,3.919918,2.93493179918864,10.0842024259635,-0.335382489979716,0.49266282,0.44012842,-1.0259482,146.2915,-104.03812,14.03775,STU
131638801129000,3.924955,2.66362995104186,9.89295711211507,-0.304249483094228,0.49357912,0.5326745,-0.96883225,146.05484,-103.81118,13.810027,STU
131638806211000,3.930037,2.3843472799056,9.70084710182064,-0.274078784679703,0.5299256,0.63132924,-0.9108001,145.81676,-103.56876,13.566223,STU
131638811158000,3.934984,2.08313864614199,9.51829655909835,-0.251259947777671,0.5335908,0.7174612,-0.8689558,145.55942,-103.34248,13.338303,STU
131638816192000,3.940018,1.78102637847458,9.33464399152542,-0.225736695576271,0.5366451,0.7819075,-0.8368854,145.2935,-103.0955,13.088844,STU
131638821157000,3.944983,1.53451195040877,9.17820194017946,-0.173589409479561,0.514654,0.8371908,-0.8020661,145.01001,-102.86547,12.8560915,STU
131638826207000,3.950033,1.28838853166222,9.02648985144853,-0.117099929424697,0.4978552,0.88422745,-0.7877107,144.71918,-102.59976,12.586732,STU
131638831135000,3.954961,1.10414858919252,8.96830867043353,-0.0201315610334908,0.462425,0.89858276,-0.7834347,144.42706,-102.345146,12.328351,STU
131638836126000,3.959952,0.928164350565492,8.92118835586533,0.0802265401446607,0.4260785,0.8872818,-0.7819075,144.1429,-102.06048,12.039648,STU
131638841148000,3.964974,0.835398795199895,8.96757118858496,0.19829179202788,0.39553526,0.8445212,-0.79381937,143.8687,-101.77759,11.752457,STU
131638846070000,3.969896,0.74448042333421,9.01303042845871,0.314006083101,0.37965274,0.79473567,-0.8185594,143.60306,-101.464516,11.435874,STU
131638851124000,3.97495,0.716435737534639,9.10496321997134,0.36939295120688,0.35888332,0.72021013,-0.8344419,143.36147,-101.15542,11.123096,STU
131638856134000,3.97996,0.702681384548495,9.20582818795987,0.410656038889632,0.36682457,0.65087694,-0.8518516,143.13657,-100.84504,10.80785,STU
131638861335000,3.985161,0.737786588213579,9.29533558668425,0.386216145075807,0.37232238,0.56199604,-0.86742866,142.94736,-100.52069,10.479174,STU
131638866069000,3.989895,0.78474982083812,9.37218518231472,0.343522294803654,0.3662137,0.50426924,-0.8943067,142.77155,-100.19489,10.148193,STU
131638871189000,3.995015,0.883804690990441,9.38611273906854,0.234050386151922,0.36682457,0.46761733,-0.91629785,142.61653,-99.86984,9.816944,STU
131638876150000,3.999976,1.00941729170632,9.35712514287167,0.0891128021888346,0.3481932,0.4373795,-0.93126404,142.47755,-99.54601,9.486486,STU
131638881132000,4.004958,1.17537812418965,9.24691904962754,-0.0867484768334005,0.33292156,0.4437936,-0.9477574,142.34035,-99.2271,9.159331,STU
131638886139000,4.009965,1.36362978198108,9.09245556935776,-0.279827079699215,0.30818152,0.45051312,-0.9627236,142.2124,-98.91142,8.835115,STU
131638891125000,4.014951,1.55396824099217,8.91348129112271,-0.424155027989556,0.29779682,0.47342056,-0.97310835,142.0872,-98.61369,8.525753,STU
131638896138000,4.019964,1.74681227981522,8.7206376046897,-0.544682590010042,0.2855795,0.50823987,-0.97433007,141.957,-98.321335,8.221488,STU
131638901120000,4.024946,1.94840309574275,8.56088495063406,-0.603494970036232,0.28985557,0.51923543,-0.9636399,141.83244,-98.060905,7.9450884,STU
131638906141000,4.029967,2.15650105837359,8.41570068397746,-0.632531853687601,0.3118467,0.5161811,-0.93676186,141.70265,-97.812675,7.678849,STU
131638911176000,4.035002,2.50126247266642,8.26381982660921,-0.638608585051348,0.3472769,0.49968776,-0.9092729,141.58603,-97.60131,7.4456844,STU
131638916172000,4.039998,2.90487582630662,8.11027093205575,-0.634221500609756,0.40500367,0.4560109,-0.86559606,141.47899,-97.41177,7.2292457,STU
131638921154000,4.04498,3.16044816235932,8.02367870332989,-0.633320588021167,0.4605924,0.4089743,-0.81397796,141.38469,-97.274155,7.0621395,STU
131638926160000,4.049986,3.2742998762158,8.00140329553433,-0.635795616963862,0.48288897,0.37568212,-0.75655663,141.29982,-97.1578,6.9121795,STU
131638931172000,4.054998,3.38828804837894,7.97910118928756,-0.638273612381518,0.51159966,0.3381139,-0.6914995,141.24597,-97.128456,6.852447,STU
131638936165000,4.059991,3.50184410257099,7.95688362813629,-0.640742213961797,0.52015173,0.28619036,-0.61636305,141.20694,-97.120865,6.8132315,STU
131638941179000,4.065005,3.61031004950673,8.06124895381166,-0.690294480161435,0.52778757,0.21838433,-0.5366451,141.18434,-97.13701,6.794602,STU
131638946174000,4.07,3.71518255085202,8.2376252161435,-0.766565402448431,0.52931476,0.13622294,-0.44959682,141.18187,-97.17757,6.7996,STU
131638951149000,4.074975,3.78952549414437,8.34145985346104,-0.786020640300188,0.5357288,0.064446285,-0.35002577,141.1976,-97.274055,6.866563,STU
131638956182000,4.080008,3.84664027832527,8.40333439350252,-0.771741934315197,0.5751296,-0.0012217305,-0.2443461,141.23624,-97.39849,6.9587665,STU
131638961159000,4.084985,3.73172273668092,8.47621973292234,-0.734678279536641,0.6102544,-0.08002335,-0.13439035,141.30164,-97.563194,7.0898376,STU
131638966140000,4.089966,3.50405047350104,8.55685378741175,-0.682503431291638,0.6728681,-0.16340645,-0.067500606,141.38756,-97.74913,7.2358317,STU
131638971117000,4.094943,3.25128698455285,8.62037221951219,-0.557245604065041,0.74097955,-0.25686884,-0.022602014,141.50078,-97.96415,7.4105864,STU
131638976115000,4.099941,2.97935412231365,8.67194576344402,-0.379082653468508,0.77213365,-0.3640757,0.008857546,141.64168,-98.19238,7.595902,STU
131638981136000,4.104962,2.68908429351536,8.76166241784495,-0.208140299316919,0.8011498,-0.48197266,0.010079277,141.7999,-98.386314,7.7378325,STU
131638986122000,4.109948,2.38642728668942,8.88272473437348,-0.0451711526039006,0.8017606,-0.5326745,0.0067195175,141.96786,-98.583954,7.883544,STU
131638991105000,4.114931,2.09939928150775,9.04373480960584,0.0524497311111561,0.7901542,-0.64996064,-0.0027488936,142.17757,-98.71979,7.9714127,STU
131638996145000,4.119971,1.82551560048637,9.24914813213092,0.0817944082294052,0.77213365,-0.71929383,-0.013133603,142.38419,-98.85078,8.055843,STU
131639001120000,4.124946,1.56375151369837,9.40226634769202,0.134940619872734,0.7257079,-0.7144069,-0.016187929,142.58453,-98.90527,8.077139,STU
131639006191000,4.130017,1.30509450211175,9.51117438852551,0.21208393281667,0.66339964,-0.6404922,-0.0009162979,142.77913,-98.957214,8.101389,STU
131639011239000,4.135065,1.10614091470646,9.5824255116827,0.200514969094443,0.55833083,-0.539394,-0.0125227375,142.93796,-98.95543,8.075598,STU
131639016140000,4.139966,1.00015953226487,9.59624896838798,0.0576704995973886,0.44806966,-0.43188173,-0.025961773,143.06909,-98.94955,8.056777,STU
131639021088000,4.144914,0.962744738878659,9.57788704748982,-0.128937903440686,0.3475823,-0.30573806,-0.046731193,143.14987,-98.88584,7.9911876,STU
131639026131000,4.149957,1.06572093671254,9.49363405020353,-0.405101348329134,0.2724459,-0.18142697,-0.06780604,143.19736,-98.8112,7.9266677,STU
131639031093000,4.154919,1.20672570706685,9.41251309476009,-0.654943233989159,0.23487769,-0.055588737,-0.093767814,143.20558,-98.70754,7.8287706,STU
131639036126000,4.159952,1.45832210324232,9.33509825938567,-0.848478938122867,0.23976462,0.02565634,-0.12308934,143.18968,-98.59774,7.7287045,STU
