timestamp,rel_time,acc_x,acc_y,acc_z,gyro_x,gyro_y,gyro_z,azimuth,pitch,roll,label
8691918283000,0,3.83604051477786,9.07171452462976,0.994929285268603,-0.025350908,0.009773844,0.01863139,309.66995,-75.813995,12.966576,STD
8691923265000,0.004982,3.83568298958659,9.07111864931098,0.995644336895559,-0.025350908,0.008246681,0.015882496,309.5965,-75.70748,13.071527,STD
8691928292000,0.010009,3.83532223504292,9.07051739173821,0.996365847238534,-0.025350908,0.012217305,0.01740966,309.5226,-75.600746,13.17644,STD
8691933586000,0.015303,3.83494231967508,9.06988419945847,0.997125679296564,-0.021991149,0.01038471,0.01160644,309.45148,-75.498955,13.27661,STD
8691938237000,0.019954,3.83460854816473,9.06932791360788,0.997793223479014,-0.017715093,0.009468411,0.0143553335,309.379,-75.39649,13.377421,STD
8691943223000,0.02494,3.83425073591991,9.06873155986652,0.998508849214061,-0.024129177,0.008552114,0.013133603,309.3077,-75.297585,13.473504,STD
8691948279000,0.029996,3.83388790023804,9.06812683373007,0.999234521840694,-0.023823744,0.0143553335,0.0061086523,309.23517,-75.20252,13.566569,STD
8691953273000,0.03499,3.83352951388613,9.06752952314356,0.999951295791922,-0.015271631,0.005192355,0.013744468,309.1674,-75.10582,13.662057,STD
8691958276000,0.039993,3.83317048166375,9.06693113610625,1.00066936148635,-0.02565634,0.016798794,0.015882496,309.0925,-75.01205,13.7512455,STD
8691963262000,0.044979,3.83281266941893,9.06633478236489,1.0013849872214,-0.028710667,0.0076358155,0.009773844,309.02698,-74.92193,13.839349,STD
8691968252000,0.049969,3.83245457012057,9.06573795020095,1.00210118706454,-0.0143553335,0.004581489,0.005192355,308.95645,-74.83324,13.926185,STD
8691973265000,0.054982,3.83209482026432,9.0651383671072,1.00282068802919,-0.008857546,0.0067195175,0.0125227375,308.88736,-74.74327,14.013057,STD
8691978326000,0.060043,3.83173162576552,9.06453304294253,1.00354707829094,-0.01863139,0.006414085,0.011911872,308.82068,-74.65809,14.0947895,STD
8691983241000,0.064958,3.83137890872114,9.0639451812019,1.00425251360738,-0.021991149,0.003970624,0.010079277,308.7542,-74.57412,14.176665,STD
8691988247000,0.069964,3.8310196612086,9.06334643534766,1.00497100988288,-0.027183503,0.0036651916,0.0125227375,308.68744,-74.489365,14.257865,STD
8691993228000,0.074945,3.83066220778071,9.06275067963452,1.00568591798281,-0.021991149,0.008857546,0.009162978,308.62045,-74.40892,14.335208,STD
8691998251000,0.079968,3.8303017402906,9.06214990048433,1.00640685421769,-0.022296581,0.016493361,0.009468411,308.55304,-74.32716,14.412659,STD
8692003364000,0.085081,3.8299348140957,9.06153835682617,1.00714070788462,-0.028710667,0.011911872,0.0125227375,308.4881,-74.246895,14.488652,STD
8692008227000,0.089944,3.82958582874742,9.06095671457903,1.00783867979588,-0.023823744,0.014660766,0.011301007,308.41934,-74.170296,14.561588,STD
8692013204000,0.094921,3.82922866237308,9.06036143728847,1.00855301378772,-0.023823744,0.01038471,0.014660766,308.35422,-74.09183,14.635611,STD
8692018213000,0.09993,3.82886919957037,9.05976233261729,1.00927194064429,-0.024129177,0.010995574,0.009468411,308.2876,-74.01781,14.7051935,STD
8692023248000,0.104965,3.82850787091962,9.05916011819937,1.00999459920344,-0.026572637,0.009773844,0.011301007,308.2229,-73.94216,14.776522,STD
8692028322000,0.110039,3.8281437434968,9.05855323916133,1.01072285531649,-0.030543262,0.014966198,0.008246681,308.15692,-73.87028,14.843407,STD
8692033284000,0.115001,3.82778765357326,9.05795975595543,1.01143503640299,-0.032375857,0.016187929,0.018936822,308.09238,-73.79554,14.913561,STD
8692038255000,0.119972,3.82743091777924,9.05736519629873,1.01214850923269,-0.02443461,0.021991149,0.016798794,308.02597,-73.72688,14.977608,STD
8692043265000,0.124982,3.82707138321315,9.05676597202191,1.01286757961628,-0.022907447,0.014966198,0.017104227,307.963,-73.655136,15.044456,STD
8692048237000,0.129954,3.82671457565574,9.05617129275957,1.01358119597301,-0.017104227,0.021685716,0.008552114,307.8951,-73.58888,15.1062765,STD
8692053286000,0.135003,3.82635224231758,9.05556740386263,1.01430586391049,-0.023823744,0.013744468,0.013133603,307.83368,-73.51906,15.171381,STD
8692058162000,0.139879,3.82600232404527,9.05498420674212,1.01500570167304,-0.026572637,0.0125227375,0.0125227375,307.76923,-73.45506,15.230978,STD
8692063251000,0.144968,3.82563712017165,9.05437553361942,1.01573611069142,-0.02076942,0.008246681,0.01282817,307.7083,-73.39096,15.291325,STD
8692068282000,0.149999,3.82527607857444,9.05377379762407,1.01645819514249,-0.021685716,0.014049901,0.02076942,307.64502,-73.32509,15.352232,STD
8692073236000,0.154953,3.82492056275799,9.05318127126332,1.01716922801281,-0.027183503,0.013439035,0.018936822,307.61554,-73.24676,15.424918,STD
8692078320000,0.160037,3.82455571770131,9.05257319616884,1.01789891939608,-0.022907447,0.0030543262,0.018936822,307.58682,-73.168465,15.49889,STD
8692083282000,0.164999,3.82419962777776,9.05197971296294,1.01861110048258,-0.0143553335,0.0033597588,0.02321288,307.55493,-73.09099,15.571653,STD
8692088251000,0.169968,3.82384303551052,9.05138539251753,1.01932428625824,-0.024129177,0.0070249503,0.014966198,307.52548,-73.01684,15.639529,STD
8692093262000,0.174979,3.82348342918104,9.05078604863507,1.02004350016885,-0.018936822,0.00030543262,0.0106901415,307.4986,-72.94463,15.70854,STD
8692098272000,0.179989,3.82312389461495,9.05018682435825,1.02076257055244,-0.024740042,-0.0030543262,0.014660766,307.46964,-72.871605,15.775878,STD
8692103269000,0.184986,3.82276529297288,9.0495891549548,1.02147977508474,-0.027794369,-0.0021380284,0.016493361,307.44153,-72.80256,15.84008,STD
8692108262000,0.189979,3.82240697838436,9.04899196397393,1.02219640550894,-0.020463986,-0.0018325958,0.019242255,307.41437,-72.734146,15.904415,STD
8692113240000,0.194957,3.82204974024663,9.04839656707772,1.02291088302781,-0.022907447,-0.0021380284,0.015577064,307.38724,-72.66692,15.966075,STD
8692119014000,0.200731,3.8216353784533,9.04770596408883,1.02373960805672,-0.013744468,-0.0012217305,0.009773844,307.3596,-72.603,16.026503,STD
8692123269000,0.204986,3.82133002524397,9.04719704207329,1.02435031553819,-0.018325957,0.0015271631,0.018020526,307.3311,-72.53586,16.088533,STD
8692128323000,0.21004,3.82096733308888,9.04659255514813,1.02507570111078,-0.02687807,-0.0018325958,0.012217305,307.30484,-72.475784,16.14387,STD
8692133316000,0.215033,3.82060901850036,9.04599536416726,1.02579233153499,-0.015577064,0.00030543262,0.014049901,307.2756,-72.41444,16.2022,STD
8692138332000,0.220049,3.82024905335395,9.04539542225658,1.02651226308071,-0.027183503,0.0027488936,0.0067195175,307.24783,-72.35483,16.255188,STD
8692143288000,0.225005,3.81989339401073,9.04480265668454,1.02722358300508,-0.021380283,-0.0018325958,0.0076358155,307.2212,-72.29687,16.310059,STD
8692148248000,0.229965,3.81953744761396,9.04420941268993,1.02793547703753,-0.021685716,0.0067195175,0.009162978,307.19022,-72.239876,16.361391,STD
8692153270000,0.234987,3.81917705188723,9.04360875314538,1.0286562697454,-0.021685716,0.00580322,0.01038471,307.16342,-72.184494,16.412323,STD
8692158269000,0.239986,3.81881830671839,9.04301084453065,1.02937376133174,-0.020463986,0.005192355,0.009773844,307.13412,-72.13036,16.461824,STD
8692163237000,0.244954,3.81846178621453,9.04241664369088,1.03008680358038,-0.017715093,0.005192355,0.009162978,307.10492,-72.077126,16.510653,STD
8692168263000,0.24998,3.81810110343425,9.04181550572376,1.03080817039633,-0.018020526,0.010079277,0.012217305,307.07443,-72.02389,16.559206,STD
8692173273000,0.25499,3.81774156886816,9.04121628144694,1.03152724077992,-0.01863139,0.0036651916,0.010995574,307.04764,-71.97322,16.605776,STD
8692178350000,0.260067,3.81737722615518,9.04060904359197,1.03225592747403,-0.022296581,0.009773844,0.010995574,307.01556,-71.922,16.65199,STD
8692183308000,0.265025,3.81702142328518,9.04001603880864,1.03296753445244,-0.011301007,0.008246681,0.01160644,306.98785,-71.87347,16.697569,STD
8692189120000,0.270837,3.81660433448316,9.03932089080527,1.03380171350821,-0.022602014,0.01282817,0.009468411,306.95673,-71.82371,16.741007,STD
8692193250000,0.274967,3.81630795169714,9.03882691949524,1.03439448011185,-0.018936822,0.008552114,0.008857546,306.9288,-71.77717,16.784544,STD
8692198260000,0.279977,3.81594841713105,9.03822769521842,1.03511355049544,-0.029932396,0.014966198,0.01740966,306.89624,-71.72676,16.828669,STD
8692203269000,0.284986,3.81558895432835,9.03762859054725,1.03583247735201,-0.025350908,0.018325957,0.013744468,306.86655,-71.682816,16.86853,STD
8692208264000,0.289981,3.81523049621305,9.03703116035509,1.03654939483026,-0.023823744,0.01160644,0.0033597588,306.838,-71.63767,16.908245,STD
8692213250000,0.294967,3.81487268396824,9.03643480661373,1.03726502056531,-0.028099801,0.015271631,0.013439035,306.805,-71.58887,16.95139,STD
8692218309000,0.300026,3.81450963299621,9.03582972166035,1.03799112377301,-0.022602014,0.0143553335,0.013133603,306.77628,-71.54759,16.988316,STD
8692223276000,0.304993,3.81415318425574,9.03523564042623,1.03870402249462,-0.037873644,0.011911872,0.0076358155,306.74695,-71.50309,17.025791,STD
8692228235000,0.309952,3.81379730962235,9.03464251603726,1.03941577300006,-0.029626964,0.0143553335,0.010995574,306.7163,-71.460335,17.064785,STD
8692233236000,0.314953,3.81343842092674,9.03404436821124,1.04013355164044,-0.0290161,0.025350908,0.013439035,306.68427,-71.417534,17.101042,STD
8692238243000,0.31996,3.81307910165081,9.03344550275135,1.04085219144297,-0.029932396,0.022907447,0.010995574,306.65573,-71.37665,17.136562,STD
8692243244000,0.324961,3.8127202129552,9.03284735492533,1.04156997008335,-0.032375857,0.020463986,0.012217305,306.62393,-71.33479,17.172731,STD
8692248210000,0.329927,3.81236383597811,9.03225339329685,1.04228272527794,-0.0290161,0.023823744,0.015577064,306.59137,-71.29429,17.208036,STD
8692253272000,0.334989,3.81200056971592,9.03164794952654,1.04300925906671,-0.02321288,0.019547688,0.008552114,306.5624,-71.25693,17.240461,STD
8692258551000,0.340268,3.81162173079888,9.03101655133147,1.0437669382194,-0.028405234,0.022296581,0.012217305,306.53,-71.21573,17.275831,STD
8692263226000,0.344943,3.82311706883827,9.03263277909851,1.05674503541102,-0.024129177,0.01863139,0.0106901415,306.5015,-71.18011,17.30753,STD
8692268247000,0.349964,3.83782207757195,9.03480236440249,1.07313750581394,-0.02321288,0.023518313,0.014660766,306.4695,-71.14179,17.340796,STD
8692273226000,0.354943,3.85240408085517,9.03695380141275,1.08939285537302,-0.027488936,0.015882496,0.0125227375,306.45718,-71.0961,17.378414,STD
8692278237000,0.359954,3.86707980257684,9.03911906569442,1.10575267795597,-0.027183503,0.015271631,0.01038471,306.44104,-71.0509,17.415915,STD
8692283243000,0.36496,3.8817408807925,9.04128216946493,1.12209617662895,-0.022296581,0.02107485,0.007941248,306.42523,-71.00732,17.451988,STD
8692288245000,0.369962,3.89639024420336,9.04344354482651,1.13842661617394,-0.024129177,0.015882496,0.015577064,306.41248,-70.961815,17.490013,STD
8692293226000,0.374943,3.91097810488898,9.04559584604124,1.15468849529701,-0.019242255,0.01985312,0.016187929,306.39557,-70.920944,17.52408,STD
8692298225000,0.379942,3.92561868219623,9.04775592509613,1.17100914049602,-0.019547688,0.0143553335,0.010079277,306.383,-70.879944,17.558195,STD
8692303239000,0.384956,3.94030319002151,9.04992248568449,1.18737875742496,-0.01863139,0.0076358155,0.012217305,306.36914,-70.8381,17.594027,STD
8692308226000,0.389943,3.95490862291434,9.05207737951261,1.20366022524001,-0.016798794,0.014049901,0.015577064,306.3532,-70.79844,17.627468,STD
8692313206000,0.394923,3.96949355489876,9.0542292486251,1.21991883958109,-0.0290161,0.016798794,0.013439035,306.34045,-70.75898,17.659666,STD
8692318207000,0.399924,3.98413998960841,9.05639019188445,1.23624601434408,-0.028405234,0.005497787,0.01282817,306.3297,-70.720665,17.692862,STD
8692323232000,0.404949,3.99885671314691,9.05856150559736,1.25265154387499,-0.02687807,0.010079277,0.015882496,306.31332,-70.68146,17.725136,STD
8692328579000,0.410296,4.01451647847234,9.06087195622879,1.27010833320867,-0.022602014,0.00030543262,0.009162978,306.30493,-70.646126,17.75482,STD
8692333235000,0.414952,4.02815251126741,9.0628838242183,1.28530915818298,-0.023823744,0.010079277,0.0076358155,306.28897,-70.60894,17.785263,STD
8692338239000,0.419956,4.04280773208067,9.06504606378435,1.30164612729196,-0.029321533,0.008857546,-0.00030543262,306.27966,-70.57593,17.812191,STD
8692343225000,0.424942,4.0574102362723,9.06720052551023,1.31792433032501,-0.018325957,0.009773844,0.005192355,306.26627,-70.54216,17.841478,STD
8692348228000,0.429945,4.07206252838436,9.06936233297405,1.334258034652,-0.02687807,0.0015271631,0.013133603,306.2562,-70.50765,17.869133,STD
8692353250000,0.434967,4.08677046581925,9.07153235038026,1.35065376983692,-0.029321533,0.0070249503,0.008857546,306.242,-70.47744,17.893793,STD
8692358226000,0.439943,4.10134368299886,9.07368249108383,1.36689932505001,-0.028710667,0.013439035,0.004581489,306.2296,-70.4452,17.920416,STD
8692363204000,0.444921,4.11592275758088,9.07583349599186,1.38315140982709,-0.022602014,0.0036651916,-0.0009162979,306.22064,-70.41539,17.945395,STD
8692368208000,0.449925,4.13057797839414,9.07799573555791,1.39948837893608,-0.032986723,-0.01160644,0.0015271631,306.21124,-70.3834,17.970919,STD
8692373233000,0.45495,4.14529470193263,9.08016704927081,1.41589390846698,-0.032986723,-0.02107485,0.0015271631,306.207994342618,-70.3698555256065,17.9821087424379,STD
8692378225000,0.459942,4.15991477833147,9.08232410361008,1.43219170019201,-0.03573562,-0.025350908,-0.0015271631,306.20477,-70.3564,17.993225,STD
8692383248000,0.464965,4.17462564446756,9.08449455311853,1.44859070015892,-0.028099801,-0.032070424,-0.010079277,306.2008,-70.33079,18.014526,STD
8692388256000,0.469973,4.18929258008563,9.0866585210935,1.46494072839589,-0.040317107,-0.04520403,-0.007941248,306.2024,-70.3012,18.03834,STD
8692393227000,0.474944,4.20385115375923,9.08880650128591,1.481169959699,-0.038179077,-0.054367006,-0.011911872,306.20526,-70.278465,18.057701,STD
8692398212000,0.479929,4.21845072924966,9.09096053090956,1.49744489795006,-0.050701816,-0.0729984,0.007941248,306.2136,-70.24643,18.084902,STD
8692403245000,0.484962,4.23319088239777,9.09313530144032,1.51387654573693,-0.055588737,-0.07086037,0.021991149,306.2186,-70.218605,18.10844,STD
8692408260000,0.489977,4.24787831892424,9.09530229413092,1.53024942744787,-0.07391469,-0.081855945,0.043982297,306.23154,-70.18123,18.140566,STD
8692413261000,0.494978,4.2625247536339,9.09746323739027,1.54657660221087,-0.08368854,-0.0888809,0.061391957,306.24194,-70.14256,18.174475,STD
8692418289000,0.500006,4.277250263276,9.09963584740987,1.56299192608776,-0.10415252,-0.090713486,0.07971791,306.25266,-70.095535,18.2143,STD
8692423256000,0.504973,4.29179712214479,9.10178209919336,1.57920809826289,-0.13713925,-0.087659165,0.10170906,306.26263,-70.0415,18.259268,STD
8692428326000,0.510043,4.30664563723736,9.10397285750668,1.59576054298362,-0.17959438,-0.083383106,0.129198,306.27127,-69.97899,18.31,STD
8692433292000,0.515009,4.32118956740496,9.10611867718793,1.61197345037675,-0.226631,-0.07696902,0.1459968,306.27734,-69.91059,18.3626,STD
8692438251000,0.519968,4.33571299666414,9.10826147215357,1.62816350429591,-0.26175576,-0.07391469,0.1563815,306.28168,-69.83474,18.419886,STD
8692443218000,0.524935,4.35025985553294,9.11040772393705,1.64437967647103,-0.29046643,-0.064446285,0.16798794,306.2808,-69.751205,18.48045,STD
8692448230000,0.529947,4.36493850595581,9.11257342032095,1.66074276383598,-0.3408628,-0.051618114,0.19272798,306.27637,-69.65674,18.546095,STD
8692453219000,0.534936,4.37954979625105,9.11472917835353,1.67703076121503,-0.39920044,-0.029932396,0.21288654,306.2656,-69.55799,18.611614,STD
8692458207000,0.539924,4.39415815784508,9.11688450428387,1.69331549381207,-0.45478916,-0.04062254,0.22113322,306.25952,-69.45231,18.680183,STD
8692463224000,0.544941,4.38444618070224,9.10325156000159,1.69168103015424,-0.50946164,-0.030848695,0.22266038,306.2397,-69.33844,18.749304,STD
8692468247000,0.549964,4.371744775686,9.08767437437727,1.68784664600056,-0.5684101,-0.042760566,0.22357668,306.22858,-69.21764,18.820526,STD
8692473188000,0.554905,4.35925071990554,9.0723514848352,1.68407485780559,-0.6227771,-0.06841691,0.22571471,306.19632,-69.0129,18.94957,STD
8692478249000,0.559966,4.34645322621906,9.05665645468495,1.6802114657686,-0.66950834,-0.08735373,0.21288654,306.16516,-68.80952,19.071878,STD
8692483234000,0.564951,4.33384790987306,9.04119711358655,1.67640608949823,-0.7107417,-0.11209377,0.20433442,306.1419,-68.60242,19.19451,STD
8692488201000,0.569918,4.32128810921296,9.02579359357937,1.67261445380415,-0.75625116,-0.12461651,0.17959438,306.1209,-68.40028,19.306477,STD
8692493206000,0.574923,4.30863221988263,9.01027222904627,1.66879381022677,-0.7883216,-0.1386664,0.15088372,306.10718,-68.2016,19.413525,STD
8692498228000,0.579945,4.2959333435156,8.99469814459368,1.66496018943844,-0.8060367,-0.14263703,0.11209377,306.09476,-68.011444,19.508461,STD
8692503129000,0.584846,4.28354043370382,8.97949930192101,1.66121893585748,-0.8188649,-0.15485434,0.0711658,306.08948,-67.828995,19.593723,STD
8692508154000,0.589871,4.27083397138914,8.96391591395321,1.6573830249731,-0.8344419,-0.15699236,0.03268129,306.0833,-67.65616,19.666645,STD
8692513438000,0.595155,4.25747258892731,8.94752932250608,1.65334940246303,-0.8426886,-0.16035213,0.0027488936,306.082,-67.49355,19.72971,STD
8692518171000,0.599888,4.24550449218395,8.93285147668487,1.64973639426089,-0.8356637,-0.17256944,-0.03176499,306.0855,-67.34433,19.780151,STD
8692523167000,0.604884,4.23287136069657,8.91735802269738,1.64592262097166,-0.82436264,-0.16798794,-0.06291912,306.08572,-67.203575,19.821491,STD
8692528163000,0.60988,4.22023822920918,8.9018645687099,1.64210884768244,-0.80481493,-0.17715092,-0.08552113,306.09445,-67.0736,19.856352,STD
8692533201000,0.614918,4.20749889445468,8.88624086550955,1.6382630130485,-0.7623598,-0.16432275,-0.093767814,306.09555,-66.954605,19.88456,STD
8692538174000,0.619891,4.19492392189929,8.87081873847196,1.63446679716233,-0.7431176,-0.13500121,-0.13683382,306.0974,-66.85119,19.895924,STD
8692543166000,0.624883,4.18230090500877,8.85533768917142,1.6306560773345,-0.69058317,-0.08460484,-0.17654006,306.08893,-66.76151,19.903645,STD
8692548208000,0.629925,4.16955145565741,8.83970158128412,1.62680718923917,-0.6395759,-0.023823744,-0.20555615,306.07043,-66.683784,19.9,STD
8692553164000,0.634881,4.1570194701387,8.82433217416604,1.62302395056395,-0.5842926,0.043982297,-0.2144137,306.0361,-66.6201,19.887823,STD
8692558169000,0.639886,4.14436358080836,8.80881080963294,1.61920330698657,-0.5235115,0.10323623,-0.23243423,305.98914,-66.57471,19.86253,STD
8692563159000,0.644876,4.13174562121627,8.79333596267586,1.61539411388944,-0.46609017,0.122478485,-0.23273966,305.934,-66.53515,19.838959,STD
8692568261000,0.649978,4.1188444529119,8.77751378448448,1.6114994238731,-0.42852196,0.106595986,-0.24373524,305.87466,-66.50869,19.807095,STD
8692573271000,0.654988,4.10617592033548,8.7619769140927,1.60767496346897,-0.4196644,0.036957346,-0.25320363,305.8266,-66.48606,19.779032,STD
8692578276000,0.659993,4.09352003100514,8.7464555495596,1.60385431989159,-0.398895,-0.021685716,-0.25289822,305.78107,-66.47097,19.752174,STD
8692583898000,0.665615,4.07930396510801,8.72902076206608,1.59956267989319,-0.38362336,-0.06169739,-0.25045475,305.75183,-66.45805,19.727604,STD
8692588254000,0.669971,4.06828916911941,8.71551205798892,1.59623746042804,-0.39461896,-0.09254608,-0.25442538,305.73804,-66.445724,19.705376,STD
8692593257000,0.674974,4.0556383370875,8.69999689579929,1.59241834358136,-0.419359,-0.12736541,-0.25320363,305.73697,-66.431786,19.688808,STD
8692598255000,0.679972,4.04300014830168,8.68449723946834,1.58860304356144,-0.44623706,-0.160963,-0.26083946,305.74554,-66.41901,19.671202,STD
8692603268000,0.684985,4.03032402977761,8.66895106556136,1.58477629306126,-0.46700647,-0.21319197,-0.25381452,305.76865,-66.39978,19.662014,STD
8692608269000,0.689986,4.01767825504414,8.6534421057152,1.58095870294528,-0.4908302,-0.2950479,-0.2574797,305.81146,-66.380684,19.652344,STD
8692613251000,0.694968,4.00508052464579,8.637992068132,1.57715561677095,-0.50762904,-0.37110063,-0.2501493,305.86612,-66.35569,19.651018,STD
8692618265000,0.699982,3.9924018774725,8.62244279305329,1.57332810290542,-0.52748215,-0.45204028,-0.25320363,305.94647,-66.33069,19.651562,STD
8692623249000,0.704966,3.97979908977572,8.60698655312662,1.5695234900004,-0.5155703,-0.50579643,-0.25992316,306.03967,-66.30819,19.65613,STD
8692628253000,0.70997,3.9671457290946,8.59146828976525,1.56570360978837,-0.5045747,-0.5174029,-0.2519819,306.14185,-66.28091,19.666056,STD
8692633249000,0.714966,3.95451259760721,8.57597483577777,1.56188983649914,-0.46670106,-0.50946164,-0.24740042,306.25293,-66.2634,19.674858,STD
8692638243000,0.71996,3.94188452341826,8.56048758413375,1.55807758994062,-0.45845437,-0.49877146,-0.24007004,306.36395,-66.24167,19.686554,STD
8692643226000,0.724943,3.92928426437069,8.54503444537882,1.55427374040094,-0.40683624,-0.46761733,-0.23732115,306.46472,-66.233826,19.69562,STD
8692648204000,0.729921,3.91669664856921,8.52959681248256,1.55047370768802,-0.36041048,-0.41447207,-0.23090707,306.5533,-66.22487,19.704855,STD
8692653248000,0.734965,3.90394214191941,8.5139545022518,1.54662329286198,-0.31337386,-0.35613444,-0.22021692,306.62906,-66.22323,19.71295,STD
8692658173000,0.73989,3.89148854452642,8.4986812314575,1.54286371851261,-0.2742785,-0.2782491,-0.20158553,306.68106,-66.224724,19.719608,STD
8692663240000,0.744957,3.90023581644736,8.49768602176063,1.56183310867328,-0.2415972,-0.20738874,-0.18203785,306.7161,-66.23007,19.725632,STD
8692668243000,0.74996,3.91627231615113,8.50175497997033,1.58840104609148,-0.21410827,-0.14294247,-0.16615535,306.7284,-66.23718,19.730692,STD
8692673243000,0.75496,3.93229919972475,8.50582149826904,1.61495305230595,-0.19456059,-0.09285152,-0.16065755,306.75186,-66.25096,19.728218,STD
8692678251000,0.759968,3.94835172631208,8.50989452299703,1.64154754173036,-0.17898351,-0.057421334,-0.14080444,306.75827,-66.26091,19.730717,STD
8692683252000,0.764969,3.96438181526242,8.51396185459941,1.66810485834607,-0.17562376,-0.040927973,-0.12522738,306.75555,-66.271355,19.73147,STD
8692688229000,0.769946,3.9803349751716,8.51800966691395,1.69453472533195,-0.16920967,-0.0421497,-0.13622294,306.74838,-66.28591,19.729147,STD
8692693274000,0.774991,3.99650610069738,8.52211278387735,1.72132569960235,-0.14569137,-0.05375614,-0.13958271,306.73813,-66.29773,19.732807,STD
8692698281000,0.779998,4.012555421908,8.52618499530168,1.74791487862552,-0.12980886,-0.055588737,-0.14935656,306.72693,-66.31312,19.731033,STD
8692703225000,0.784942,4.0284028043856,8.53020596859545,1.77416950237039,-0.12736541,-0.06780604,-0.16065755,306.72293,-66.33078,19.729311,STD
8692708135000,0.789852,4.04414120405489,8.53419928956479,1.800243572473,-0.12186762,-0.06414085,-0.17654006,306.7161,-66.35426,19.722673,STD
8692713127000,0.794844,4.06014244461479,8.53825930143422,1.82675309547752,-0.124311075,-0.0580322,-0.17837265,306.7122,-66.37565,19.71749,STD
8692718150000,0.799867,4.07624305185285,8.54234452571711,1.85342724092058,-0.121256754,-0.058948494,-0.1826487,306.71085,-66.402466,19.707588,STD
8692723151000,0.804868,4.09227314080318,8.54641185731949,1.87998455753629,-0.108123146,-0.051618114,-0.2003638,306.70657,-66.43347,19.692692,STD
8692728155000,0.809872,4.10831284588366,8.55048162883284,1.90655780535573,-0.103847094,-0.049785517,-0.19822577,306.70337,-66.45914,19.68278,STD
8692733181000,0.814898,4.12442306925187,8.55456929302671,1.93324788200252,-0.1001819,-0.034208454,-0.20005837,306.69574,-66.49114,19.665806,STD
8692738148000,0.819865,4.1403441753939,8.55860897230465,1.95962464497597,-0.1001819,-0.020463986,-0.20891592,306.68875,-66.52361,19.647812,STD
8692743165000,0.824882,4.15642555037167,8.56268931676558,1.98626692801157,-0.089186326,0.009468411,-0.21685717,306.67276,-66.55772,19.627901,STD
8692748189000,0.829906,4.17252936298644,8.56677535435213,2.01294638385587,-0.08002335,0.01160644,-0.22632557,306.6621,-66.593155,19.606506,STD
8692753171000,0.834888,4.1884985497792,8.57082723318496,2.03940280284797,-0.07269296,0.020158553,-0.226631,306.64114,-66.62868,19.583742,STD
8692758170000,0.839887,4.2045222279761,8.57489293818002,2.06594949866119,-0.07391469,0.02565634,-0.21838433,306.6211,-66.663445,19.561478,STD
8692763156000,0.844873,4.22050423627571,8.5789480702275,2.09242715925826,-0.07788532,0.043982297,-0.2098322,306.5953,-66.697815,19.538538,STD
8692768259000,0.849976,4.23686127365095,8.58309835880316,2.11952613680075,-0.06719518,0.06811147,-0.2003638,306.56613,-66.730995,19.518076,STD
8692773278000,0.854995,4.25294905938215,8.58718032987142,2.14617904063883,-0.087964594,0.09254608,-0.18692477,306.53128,-66.754745,19.500551,STD
8692778287000,0.860004,4.2690047913462,8.59125416790307,2.17277884046449,-0.1001819,0.105374254,-0.16493362,306.49228,-66.776085,19.487879,STD
8692783296000,0.865013,4.28506052331025,8.59532800593472,2.19937864029014,-0.11789699,0.118507855,-0.13897185,306.44562,-66.78833,19.479088,STD
8692788246000,0.869963,4.30092713804814,8.59935385905045,2.22566512644247,-0.13316862,0.12492194,-0.12767084,306.39752,-66.79659,19.472425,STD
8692793266000,0.874983,4.31701812915605,8.60343664342235,2.25232334068179,-0.15210545,0.11575896,-0.11759156,306.34937,-66.795105,19.473143,STD
8692798277000,0.879994,4.33308027187353,8.60751210806133,2.27893376130993,-0.17440203,0.112704635,-0.10567969,306.29745,-66.7872,19.47698,STD
8692803272000,0.884989,4.34909112856358,8.61157455984174,2.30545921551819,-0.18600847,0.10598512,-0.09193522,306.24936,-66.774925,19.485113,STD
8692808263000,0.88998,4.36508916374676,8.61563375840752,2.33196342812147,-0.20708331,0.11301007,-0.08124508,306.1982,-66.75559,19.49509,STD
8692813243000,0.89496,4.38105193978609,8.61968401063304,2.35840922631108,-0.22571471,0.1133155,-0.069027774,306.1507,-66.73124,19.510122,STD
8692818224000,0.899941,4.39701792120213,8.62373507616222,2.38486033490194,-0.2321288,0.111177474,-0.05009095,306.10126,-66.701515,19.52961,STD
8692823288000,0.905005,4.41324994888549,8.62785364589515,2.41175220679595,-0.25686884,0.10629055,-0.03604105,306.05267,-66.66468,19.551113,STD
8692828240000,0.909957,4.4291229743768,8.6318811256182,2.43804931375076,-0.28038713,0.10598512,-0.025350908,306.00293,-66.62374,19.576466,STD
8692833242000,0.914959,4.44515626870385,8.63594927052423,2.46461194076772,-0.29352075,0.09407325,-0.01985312,305.95795,-66.57909,19.604929,STD
8692838895000,0.920612,4.46327626327219,8.64054687611276,2.4946316389938,-0.29657507,0.086437434,-0.01863139,305.91187,-66.53157,19.634436,STD
8692843264000,0.924981,4.47728055413882,8.64410019980217,2.517832782024,-0.31031954,0.08032878,0.004581489,305.86737,-66.474594,19.671724,STD
8692848246000,0.929963,4.49324974093157,8.64815207863501,2.5442892010161,-0.32589662,0.08155051,0.005192355,305.8248,-66.422905,19.702496,STD
8692853270000,0.934987,4.50935355354634,8.65223811622156,2.57096865686039,-0.33169982,0.086437434,0.014049901,305.78107,-66.36404,19.741447,STD
8692858238000,0.939955,4.52527786506509,8.65627860880316,2.59735073023509,-0.3313944,0.08979719,0.01985312,305.7379,-66.30537,19.77902,STD
8692863267000,0.944984,4.52758156456656,8.64619382283281,2.5974560218142,-0.31795537,0.08827003,0.01863139,305.69495,-66.2485,19.81635,STD
8692868407000,0.950124,4.52438001617979,8.63018608089894,2.58686628563381,-0.31764993,0.086132,0.03970624,305.64954,-66.18398,19.860565,STD
8692873279000,0.954996,4.52134539677505,8.61501298387524,2.57682869912197,-0.31123585,0.07452556,0.046731193,305.57672,-66.01978,19.96078,STD
8692878268000,0.959985,4.518237901658,8.59947550829001,2.56655006219513,-0.30207285,0.05955936,0.05681047,305.50333,-65.85403,20.065508,STD
8692883299000,0.965016,4.51510424602885,8.58380723014424,2.55618489435008,-0.3023783,0.02321288,0.052534413,305.43982,-65.69326,20.167852,STU
8692888244000,0.969961,4.51202415716258,8.56840678581292,2.54599690886136,-0.30573806,-0.02076942,0.052839845,305.38144,-65.53357,20.27324,STU
8692893264000,0.974981,4.50889735309612,8.55277276548061,2.53565440387584,-0.31306845,-0.03940081,0.05467244,305.32593,-65.37747,20.376015,STU
8692898267000,0.979984,4.50578113780837,8.53719168904187,2.5253469233096,-0.33475417,-0.042760566,0.06536258,305.27747,-65.22002,20.480682,STU
8692903276000,0.984993,4.50266118530461,8.52159192652305,2.51502708118362,-0.35002577,-0.062308256,0.06352998,305.23932,-65.06855,20.5822,STU
8692908925000,0.990642,4.49914259642584,8.50399898212919,2.50338867268497,-0.36926803,-0.106595986,0.07727446,305.20673,-64.91037,20.690424,STU
8692913251000,0.994968,4.49644806367853,8.49052631839263,2.49447598810981,-0.38515055,-0.113926366,0.09010262,305.16833,-64.754555,20.794088,STU
8692918259000,0.999976,4.4933287340441,8.47492967022048,2.48415820624378,-0.40194935,-0.122783914,0.0983493,305.14172,-64.59712,20.900848,STU
8692923269000,1.004986,4.490208158671,8.45932679335498,2.47383630385783,-0.40011674,-0.12950343,0.10293079,305.11487,-64.441734,21.007784,STU
8692928273000,1.00999,4.48709132051391,8.44374260256956,2.46352676303163,-0.4025602,-0.16707164,0.098043874,305.09885,-64.28709,21.11457,STU
8692933278000,1.014995,4.48397385948749,8.42815529743745,2.45321516194548,-0.39858958,-0.18784106,0.106595986,305.07736,-64.1332,21.22291,STU
8692938271000,1.019988,4.4808638728931,8.4126053644655,2.44292828397881,-0.38728857,-0.20250183,0.10903945,305.06494,-63.98642,21.327837,STU
8692943263000,1.02498,4.47775450916805,8.39705854584023,2.43264346627209,-0.3643811,-0.2003638,0.116675265,305.05133,-63.842552,21.434076,STU
8692948266000,1.029983,4.4746382938803,8.38147746940149,2.42233598570585,-0.3631594,-0.18203785,0.10995574,305.03708,-63.703423,21.534134,STU
8692953268000,1.034985,4.47152270146188,8.36589950730942,2.41203056539957,-0.36285394,-0.19792034,0.116675265,305.02954,-63.566246,21.639717,STU
8692958274000,1.039991,4.46840461756613,8.35030908783064,2.40171690405345,-0.36713,-0.2406809,0.129198,305.02362,-63.431984,21.74318,STU
8692963244000,1.044961,4.46530895696647,8.33483078483232,2.3914774120658,-0.3707952,-0.29352075,0.1441642,305.02374,-63.298916,21.848633,STU
8692968316000,1.050033,4.46214976369454,8.31903481847268,2.38102777356251,-0.36774087,-0.36560285,0.16432275,305.03964,-63.165363,21.961058,STU
8692973266000,1.054983,4.45906656048159,8.30361880240796,2.370829486774,-0.36835176,-0.42302418,0.1826487,305.0644,-63.030956,22.077152,STU
8692978308000,1.060025,4.45592605328974,8.2879162664487,2.36044165606942,-0.36957347,-0.44226643,0.19486602,305.0963,-62.897224,22.19648,STU
8692983314000,1.065031,4.45280796939398,8.27232584696992,2.35012799472331,-0.38728857,-0.45814893,0.21319197,305.14032,-62.758694,22.323246,STU
8692988250000,1.069967,4.44973348635174,8.25695343175871,2.3399585515742,-0.42241332,-0.4654793,0.22937989,305.18466,-62.618534,22.450048,STU
8692993259000,1.074976,4.44661353384798,8.24135366923989,2.32963870944822,-0.44135013,-0.46609017,0.24495697,305.22815,-62.477753,22.578794,STU
8692998247000,1.079964,4.44350666160027,8.22581930800134,2.31936213278133,-0.47036624,-0.46853364,0.25992316,305.271,-62.33001,22.708899,STU
8693003282000,1.084999,4.44037051449377,8.21013857246884,2.30898872389646,-0.48258355,-0.44135013,0.27885997,305.30142,-62.181274,22.838402,STU
8693008262000,1.089979,4.43726862520075,8.19462912600373,2.29872862930923,-0.4804455,-0.40866885,0.2941316,305.32794,-62.031593,22.967112,STU
8693013249000,1.094966,4.43416237582237,8.17909787911186,2.28845411290231,-0.46517387,-0.35521814,0.30970868,305.33667,-61.881516,23.09365,STU
8693018325000,1.100042,4.4310006910731,8.1632894553655,2.27799623335918,-0.4456262,-0.27366763,0.31978795,305.3247,-61.734035,23.214447,STU
8693023250000,1.104967,4.42793305959355,8.14795129796777,2.26784945306961,-0.41599923,-0.2275473,0.32345316,305.30533,-61.592113,23.332962,STU
8693028273000,1.10999,4.42480438691909,8.13230793459543,2.25750076730422,-0.40011674,-0.124311075,0.3277292,305.2428,-61.451954,23.44003,STU
8693033285000,1.115002,4.42168256580731,8.11669882903657,2.24717474439836,-0.38423425,-0.030543262,0.3323107,305.1685,-61.318645,23.54231,STU
8693038270000,1.119987,4.41857756216761,8.10117381083806,2.23690434851135,-0.37507126,0.040011674,0.34300083,305.0695,-61.18707,23.638393,STU
8693043262000,1.124979,4.41546819844256,8.08562699221279,2.22661953080464,-0.37140608,0.050396383,0.3463606,304.96136,-61.060234,23.72889,STU
8693048339000,1.130056,4.41230589082395,8.06981545411974,2.21615959100156,-0.36926803,0.0018325958,0.3659083,304.84842,-60.93046,23.824001,STU
8693053256000,1.134973,4.40924324229909,8.05450221149546,2.20602929279164,-0.36651915,-0.06627888,0.3726278,304.74017,-60.805817,23.91557,STU
8693058246000,1.139963,4.40613512431271,8.03896162156355,2.19574859560484,-0.3549127,-0.13316862,0.37201694,304.6459,-60.68237,24.012486,STU
8693063243000,1.14496,4.41562144486325,7.98691901948391,2.1690778455591,-0.33169982,-0.10048734,0.37812558,304.54147,-60.560482,24.108088,STU
8693068303000,1.15002,4.42967153957669,7.92135204122934,2.13629440533488,-0.29779682,-0.03176499,0.37507126,304.44742,-60.446995,24.201126,STU
8693073268000,1.154985,4.42928249823044,7.87697067432167,2.15950409594967,-0.25778514,0.07391469,0.36835176,304.378,-60.32274,24.314789,STU
8693078275000,1.159992,4.42221143976111,7.84161550503343,2.2090013329532,-0.20525073,0.16890424,0.3753767,304.29,-60.20584,24.423578,STU
8693083265000,1.164982,4.4151643892794,7.80638037526543,2.25833051462839,-0.15668693,0.23518312,0.3735441,304.21036,-60.081287,24.538193,STU
8693088247000,1.169964,4.4081286366742,7.77120173468345,2.30758061144318,-0.101098195,0.2947425,0.39187005,304.1019,-59.961887,24.650017,STU
8693093259000,1.174976,4.40822337614587,7.71382886385014,2.30981007533878,-0.055588737,0.33505958,0.398895,304.01443,-59.836563,24.76727,STU
8693098269000,1.179986,4.4130042420287,7.64211737321642,2.28112542916501,-0.03359759,0.35338554,0.39095375,303.9155,-59.717655,24.879406,STU
8693103268000,1.184985,4.46365876973684,7.56194304633174,2.23815849485646,-0.006414085,0.35369098,0.408058,303.83655,-59.561832,25.021456,STU
8693108260000,1.189977,4.54467203289474,7.47616414489633,2.18573816566986,0.013744468,0.35277468,0.4083634,303.754,-59.417274,25.151783,STU
8693113247000,1.194964,4.61896274856476,7.36968049391846,2.14235887733774,0.029626964,0.3484986,0.40775254,303.7124,-59.24837,25.30829,STU
8693118349000,1.200066,4.69027879945509,7.24606633667413,2.10432378258247,0.0421497,0.364992,0.40561453,303.66263,-59.086155,25.458302,STU
8693123263000,1.20498,4.7419484894637,7.15873524977529,2.07487987356437,0.06658431,0.3848451,0.39706242,303.63837,-58.90576,25.632328,STU
8693128284000,1.210001,4.78036658596824,7.09630546060122,2.0508684316189,0.08460484,0.4456262,0.39920044,303.59314,-58.728195,25.798782,STU
8693133273000,1.21499,4.7227654072342,7.07238402283522,2.11742515509682,0.118202426,0.49021935,0.39370266,303.56332,-58.534668,25.987024,STU
8693138270000,1.219987,4.58288866024845,7.08112649068323,2.2616730447205,0.15271631,0.54825157,0.3933972,303.50787,-58.345997,26.165997,STU
8693143270000,1.224987,4.45708709676885,7.08167168086164,2.34728574076222,0.18203785,0.6429357,0.39187005,303.45508,-58.14046,26.359543,STU
8693148222000,1.229939,4.35885948939519,7.06693742949462,2.32272867224524,0.21319197,0.70371675,0.38545597,303.39273,-57.945553,26.54464,STU
8693153183000,1.2349,4.25989247120136,7.06192485801741,2.35765029409823,0.24373524,0.7706065,0.37140608,303.35297,-57.727425,26.723993,STU
8693158229000,1.239946,4.15838019587876,7.07159266491947,2.48333188477543,0.28802297,0.87872964,0.35827246,303.2779,-57.523335,26.886618,STU
8693163182000,1.244899,4.07806277354194,7.06969267006634,2.60051973355778,0.30543262,0.9257663,0.3549127,303.21844,-57.33313,27.027609,STU
8693168206000,1.249923,4.02565646891772,7.05063589533617,2.71009690959501,0.34147367,0.9459248,0.35460728,303.13226,-57.159565,27.15431,STU
8693173161000,1.254878,3.98107837028526,7.04251011420364,2.78972404828645,0.35185838,0.95569867,0.34147367,303.04105,-56.985977,27.256018,STU
8693178220000,1.259937,3.94748653011093,7.05210768260697,2.82331593856973,0.37659842,0.96761054,0.34788775,302.9389,-56.819836,27.357662,STU
8693183182000,1.264899,3.90656027875518,7.07803700795838,2.87919011217844,0.3885103,0.9718866,0.3390302,302.83594,-56.652294,27.44438,STU
8693188216000,1.269933,3.8508212543405,7.13377627488197,2.97673340490413,0.39461896,0.99112886,0.3304781,302.7226,-56.490234,27.52758,STU
8693193183000,1.2749,3.79836683641299,7.18887128943287,3.08899226399418,0.38606682,1.0189233,0.31978795,302.61032,-56.334736,27.593327,STU
8693198215000,1.279932,3.75164792391663,7.2449338185652,3.24316454839554,0.3735441,1.047023,0.30848694,302.4923,-56.185497,27.65262,STU
8693203194000,1.284911,3.70493108893401,7.30534188040609,3.39624302676142,0.36896262,1.0748174,0.2996294,302.3747,-56.04104,27.686153,STU
8693208225000,1.289942,3.65601648913706,7.3836053422335,3.55276979718782,0.3622431,1.102001,0.28955013,302.25034,-55.90086,27.712416,STU
8693213204000,1.294921,3.6065793265714,7.46686326241631,3.71072406145698,0.35338554,1.1154399,0.28252518,302.1081,-55.764122,27.71496,STU
8693218217000,1.299934,3.55380681882682,7.56761068611972,3.87863626731288,0.35124752,1.1181889,0.28008172,301.96298,-55.631874,27.714193,STU
8693223302000,1.305019,3.49781291984158,7.6695517719802,4.042047574,0.34055737,1.1246029,0.26939157,301.78735,-55.510704,27.69284,STU
8693228272000,1.309989,3.43654984578218,7.76851529772277,4.183424194,0.34055737,1.1114693,0.26450464,301.61942,-55.392582,27.674587,STU
8693233795000,1.315512,3.37828743137013,7.85977045662141,4.31421395279492,0.3295618,1.0897835,0.25595254,301.4102,-55.29602,27.627232,STU
8693238276000,1.319993,3.34801863589314,7.90138998620173,4.37475158325692,0.28344148,1.0677924,0.25809056,301.20895,-55.19353,27.583952,STU
8693243607000,1.325324,3.30944958229383,7.94753605764063,4.4443663669361,0.27763826,1.0467176,0.2501493,300.98953,-55.118484,27.514635,STU
8693248251000,1.329968,3.2268640951065,7.92324628903332,4.45894025853632,0.23518312,1.0091494,0.2443461,300.78625,-55.029392,27.452023,STU
8693253238000,1.334955,3.13748505352665,7.8922307049373,4.46838337715517,0.20005837,0.9728029,0.2321288,300.57297,-54.957188,27.373531,STU
8693258271000,1.339988,3.04304915084248,7.83084733367947,4.44005268523707,0.16126843,0.945314,0.22937989,300.37274,-54.87681,27.300808,STU
8693263229000,1.344946,2.94821141697431,7.76488587684344,4.41215252085165,0.12492194,0.9120218,0.21166481,300.17844,-54.811127,27.212284,STU
8693268315000,1.350032,2.83404176917668,7.64595921213009,4.3836100219748,0.10629055,0.89461213,0.20433442,299.9912,-54.740368,27.128925,STU
8693273343000,1.35506,2.72136435418616,7.53241076430065,4.35988958817322,0.086132,0.8958339,0.18295415,299.8077,-54.684395,27.027548,STU
8693278284000,1.360001,2.61301813569935,7.47117158235938,4.3928645285117,0.057421334,0.9101892,0.16737708,299.62994,-54.623974,26.928305,STU
8693283332000,1.365049,2.50466384786701,7.41155650895253,4.42864686132586,0.04734206,0.9431759,0.14905111,299.43964,-54.5779,26.81269,STU
8693288231000,1.369948,2.43419011883637,7.39746175333467,4.49442243660124,0.05375614,0.9828822,0.13591751,299.24878,-54.53163,26.69421,STU
8693293386000,1.375103,2.36815762802152,7.38304644606252,4.56242146056024,0.06352998,1.0082331,0.112704635,299.04492,-54.498672,26.552034,STU
8693298269000,1.379986,2.40285829317781,7.37437131940451,4.61230376721547,0.09193522,1.0180069,0.106595986,298.83813,-54.468555,26.41093,STU
8693303361000,1.385078,2.43904420081161,7.36532488382339,4.66432111423337,0.10170906,0.99204516,0.095294975,298.62836,-54.447216,26.249584,STU
8693308262000,1.389979,2.47387278158798,7.35661777840646,4.7143872999629,0.12156218,0.9645562,0.07696902,298.42273,-54.434525,26.087252,STU
8693313243000,1.39496,2.50926987623133,7.34776854517206,4.76527072602263,0.12370021,0.947452,0.062002823,298.2273,-54.42077,25.928125,STU
8693318245000,1.399962,2.61104681586437,7.31699656312443,4.84631084850136,0.1337795,0.93584555,0.054367006,298.03784,-54.41699,25.767084,STU
8693323166000,1.404883,2.73470346586941,7.27894827907962,4.93667533687557,0.14355333,0.9279043,0.05131268,297.85788,-54.414368,25.60864,STU
8693328256000,1.409973,2.89357216076365,7.21285200174964,5.04819928884485,0.15943582,0.9114109,0.047647487,297.65775,-54.395443,25.46576,STU
8693333240000,1.414957,3.05967271709038,7.13902968751087,5.16354687465442,0.17562376,0.91965765,0.036651913,297.45837,-54.379517,25.321474,STU
8693338268000,1.419985,3.25539103615353,7.01347562884853,5.40098727139909,0.23396139,0.92057395,0.024740042,297.24146,-54.34848,25.19991,STU
8693343203000,1.42492,3.46019745686133,6.86718516104003,5.6886917121234,0.30451632,0.92057395,0.021685716,297.02682,-54.32279,25.079943,STU
8693348262000,1.429979,3.75507824775325,6.77877117605439,5.94906582566023,0.3866777,0.95417154,0.0290161,296.77008,-54.270336,24.98417,STU
8693353193000,1.43491,4.07151292785771,6.71362284098345,6.19104527262515,0.47647488,0.9999864,0.034513887,296.51474,-54.23396,24.888187,STU
8693358226000,1.439943,4.57168275994307,6.76355067100447,6.48866055319235,0.56596667,1.0616838,0.051618114,296.18454,-54.137383,24.83144,STU
8693363232000,1.444949,5.14195084867832,6.86103229117527,6.8054759205368,0.6713409,1.1120802,0.086132,295.84622,-54.05752,24.777765,STU
8693368208000,1.449925,5.86183474709629,6.99548962195579,7.21502051854627,0.73914695,1.0852021,0.118202426,295.46216,-53.90893,24.787703,STU
8693373458000,1.455175,6.67657194970026,7.15090211258898,7.68125749868865,0.76174897,0.95539325,0.1469131,295.09384,-53.76743,24.81265,STU
8693378233000,1.45995,7.65034177798335,7.19273143925378,8.03845218655566,0.70738196,0.691194,0.16707164,294.72968,-53.523502,24.952303,STU
8693383278000,1.464995,8.81737021924144,7.17783315859801,8.37614568383184,0.5656612,0.31337386,0.18692477,294.43372,-53.266075,25.126505,STU
8693388227000,1.469944,9.88411343998323,7.19637461332425,8.36164979190691,0.36926803,-0.12736541,0.183565,294.14462,-52.873745,25.431013,STU
8693393246000,1.474963,10.9271641351295,7.23164678152846,8.17521069996855,0.113926366,-0.5497787,0.21868975,293.9495,-52.44388,25.784239,STU
8693398218000,1.479935,11.6295634502969,7.46505032461214,7.67381772447807,-0.12522738,-0.84329945,0.28893927,293.70233,-51.860256,26.2906,STU
8693403240000,1.484957,12.2329359254932,7.7644332812105,7.06583998582647,-0.34697145,-0.9575313,0.3359759,293.52734,-51.252323,26.809114,STU
8693408226000,1.489943,12.3861063514886,8.07276575477447,6.43023124380165,-0.548557,-0.79717916,0.36468655,293.3025,-50.563713,27.422306,STU
8693413207000,1.494924,12.3196090343523,8.386251633257,5.7795109338843,-0.7675522,-0.6579019,0.34391713,293.12994,-49.858723,28.026691,STU
8693418287000,1.500004,11.9966809002883,8.65823098999491,5.41275862811599,-0.9465357,-0.30207285,0.28160888,292.9331,-49.20059,28.603247,STU
8693423331000,1.505048,11.5461470054265,8.9039765175513,5.19977899983042,-1.0064005,0.041233405,0.23793201,292.71783,-48.551,29.136763,STU
8693428279000,1.509996,10.4998154657232,9.07521870520927,4.8860458863796,-1.0436633,0.26725355,0.13561209,292.56335,-48.024765,29.564093,STU
8693433280000,1.514997,8.11066313479876,9.0944471812707,4.33803105590686,-0.97005403,0.34880406,0.0421497,292.3727,-47.535076,29.938269,STU
8693438247000,1.519964,5.99685571334336,8.89714652971637,3.70300692958745,-0.75502944,0.24648413,-0.02687807,292.25812,-47.196434,30.19818,STU
8693443272000,1.524989,4.43031023579716,8.21986128745165,2.86027782720241,-0.42149702,0.02107485,-0.084910266,292.1777,-46.92333,30.436972,STU
8693448251000,1.529968,2.89537339967081,7.48986549850456,1.82866985038357,-0.02565634,-0.32162055,-0.12156218,292.27545,-46.968376,30.419205,STU
8693453272000,1.534989,1.36849019096329,6.68206490231113,0.549263101679938,0.3817908,-0.61636305,-0.20861048,292.44138,-47.102158,30.402815,STU
8693458245000,1.539962,0.338810602761506,6.05011359497908,-0.354173554644352,0.73639804,-0.6612616,-0.34025195,292.68903,-47.446373,30.25318,STU
8693463216000,1.544933,0.0555187667642957,5.67829296345886,-0.695009048800558,1.0296134,-0.2910773,-0.5421429,292.9302,-47.886124,30.046125,STU
8693468249000,1.549966,-0.124156203478826,5.34561194004116,-0.936485802625366,1.2638801,0.29626966,-0.68661255,293.24823,-48.54796,29.694965,STU
8693473343000,1.55506,0.0396380038080797,5.15011566264486,-0.846663167661649,1.3658947,1.0479393,-0.75716746,293.44055,-49.262974,29.236034,STU
8693478184000,1.559901,0.225939985915243,5.11305345725575,-0.776862285491455,1.4205672,1.8414533,-0.77732605,293.49826,-50.035122,28.685293,STU
8693483296000,1.565013,0.47258508801541,5.31617291686259,-0.728500498092463,1.4737124,2.4920247,-0.7464773,293.39,-50.825195,28.052124,STU
8693488163000,1.56988,0.792645667846397,5.61144744576405,-0.875932814489311,1.5476271,2.9639182,-0.70066243,293.08267,-51.58778,27.365189,STU
8693493264000,1.574981,1.2858000236728,6.10943676101544,-1.38842655869953,1.6581937,3.244,-0.6411031,292.64777,-52.35043,26.641607,STU
8693498190000,1.579907,1.76736598853171,6.60496798192876,-1.89629096663771,1.7889189,3.4376442,-0.5925393,292.10193,-53.113678,25.904102,STU
8693503283000,1.585,2.27587703814075,7.14643795403997,-2.44717794933874,1.9599612,3.602883,-0.5635232,291.4894,-53.888863,25.16091,STU
8693508199000,1.589916,2.75279293646409,7.68180588445418,-2.78122966500286,2.11451,3.737579,-0.5390886,290.87,-54.735016,24.46462,STU
8693513258000,1.594975,3.20507033149171,8.26792076776529,-2.57816628184416,2.2406538,3.7818668,-0.5235115,290.225,-55.59689,23.780804,STU
8693518252000,1.599969,3.61626724405803,8.87843080497646,-2.31776582144298,2.302351,3.7977493,-0.5222898,289.5974,-56.534332,23.142284,STU
8693523263000,1.60498,3.86522729020079,9.63914239139206,-1.77835210731098,2.3167064,3.7018435,-0.5360342,288.97766,-57.47422,22.53138,STU
8693528227000,1.609944,4.07985561375839,10.4023274088038,-1.27784970586261,2.2809708,3.5494325,-0.5494733,288.35406,-58.38948,21.968199,STU
8693533294000,1.615011,3.9744900692953,11.2787778810699,-1.11022247371694,2.2220223,3.4089334,-0.5561928,287.74402,-59.28531,21.433624,STU
8693538286000,1.620003,3.85021594687285,12.1205565051709,-0.977805857007781,2.2073615,3.3084462,-0.5537493,287.15744,-60.13936,20.916601,STU
8693543260000,1.624977,3.47957000604747,12.6976384860632,-1.24054215873141,2.2427917,3.2797356,-0.5476407,286.58365,-60.968334,20.428099,STU
8693548438000,1.630155,3.10733983529306,13.2735732179338,-1.50574113381205,2.3472497,3.3072245,-0.54336464,286.06683,-61.846653,19.895718,STU
8693553285000,1.635002,2.91984812125482,13.5193954293151,-1.65573453114622,2.4981334,3.3722816,-0.550695,285.54224,-62.71242,19.386196,STU
8693559399000,1.641116,2.68298277893995,13.8157320375905,-1.84234686428907,2.651766,3.4348953,-0.5155703,285.0597,-63.67737,18.822716,STU
8693563260000,1.644977,2.52661380287567,13.7462347632741,-1.91184417488958,2.7864618,3.488346,-0.505491,284.55798,-64.637924,18.275223,STU
8693568272000,1.649989,2.3236297811108,13.6560197052909,-2.00205927997369,2.8820622,3.5253034,-0.47067168,284.04565,-65.6465,17.711456,STU
8693573265000,1.654982,2.13150966085864,13.413434595918,-2.17538905142771,2.976441,3.5573738,-0.43127087,283.51294,-66.63674,17.179283,STU
8693578243000,1.65996,1.94457414919566,13.1018751595616,-2.38629063507943,3.0543263,3.6215146,-0.36987892,282.95242,-67.58916,16.687542,STU
8693583296000,1.665013,1.6782490948857,12.7057542146455,-2.56887725687718,3.1383202,3.7274997,-0.31795537,282.3689,-68.54736,16.196651,STU
8693588244000,1.669961,1.38449605451375,12.2834843029833,-2.73411333010461,3.2073479,3.8347065,-0.26542094,281.76312,-69.46187,15.747705,STU
8693593258000,1.674975,0.972003082471823,11.9045437936261,-2.84622468795181,3.2840116,3.8906007,-0.22021692,281.11536,-70.386894,15.308366,STU
8693598273000,1.67999,0.491352901117373,11.5545560458609,-2.92555534156627,3.3334916,3.8631117,-0.20311269,280.46265,-71.27036,14.90145,STU
8693603266000,1.684983,0.0973318730653794,11.3282609819498,-2.91317937450939,3.3609805,3.7794232,-0.17959438,279.79932,-72.15083,14.498922,STU
8693608264000,1.689981,-0.23419106339385,11.1926378470983,-2.83281012883828,3.3527339,3.626096,-0.14782938,279.1695,-72.98121,14.133539,STU
8693613259000,1.694976,-0.360420613742018,11.1881073269476,-2.66510422132822,3.3319645,3.5198054,-0.08582657,278.57843,-73.80726,13.745859,STU
8693618349000,1.700066,-0.384364985841438,11.2503624423814,-2.44960500244621,3.3093624,3.2571335,-0.050396383,278.08746,-74.58119,13.395877,STU
8693623225000,1.704942,-0.266861141092477,11.3748186895065,-2.32358947465261,3.2262847,2.9724703,0.03268129,277.7006,-75.280014,13.064971,STU
8693628372000,1.710089,-0.0590182770292285,11.5448724127456,-2.23856281033062,3.1242702,2.7079656,0.1432479,277.39365,-75.90916,12.778264,STU
8693633230000,1.714947,0.174891536194709,11.7495406461348,-2.20798054584539,3.0017917,2.4825563,0.25289822,277.1631,-76.4706,12.507704,STU
8693638216000,1.719933,0.446310279340637,11.9962847800744,-2.21785031120298,2.8777862,2.3160956,0.3643811,277.001,-76.944176,12.28932,STU
8693643230000,1.724947,0.515703831658291,12.3425308090452,-2.10256629497487,2.7684412,2.1197023,0.48747048,276.86575,-77.31971,12.135678,STU
8693648220000,1.729937,0.449782485023155,12.7521847828357,-1.90480225506947,2.6355782,1.7941113,0.5476407,276.82645,-77.62446,12.01066,STU
8693653201000,1.734918,0.232653302431582,13.1691209951368,-1.78856981066082,2.4596488,1.3732251,0.4615087,276.79156,-77.87073,11.9117,STU
8693658181000,1.739898,-0.0993341450748546,13.5920638901497,-1.73399652316201,2.2504275,0.94225967,0.22082779,276.86346,-78.09395,11.793574,STU
8693663203000,1.74492,-0.457571495701156,13.8615175730803,-1.56257257859472,2.0412061,0.41355577,-0.0888809,277.08136,-78.34885,11.605195,STU
8693668188000,1.749905,-0.839721034094278,13.9511574203973,-1.26062730080047,1.831374,0.4156938,-0.48075095,277.27252,-78.65713,11.331373,STU
8693673203000,1.75492,-1.18638988119125,13.916884020283,-0.768899069019491,1.9990565,0.10323623,-0.56107974,277.5749,-101.01162,11.010392,STU
8693678200000,1.759917,-1.48468650566934,13.7274894636391,-0.0444643657821311,2.0091357,-0.45265114,-0.63132924,277.94678,-100.618576,10.593064,STU
8693683191000,1.764908,-1.623157553317,13.4520470435081,0.347778378479177,1.9058995,-0.80481493,-0.6020077,278.24106,-100.233536,10.147958,STU
8693688197000,1.769914,-1.54329416921117,13.0574280614405,0.286706409744243,1.815186,-0.97158116,-0.5170974,278.6395,-99.89679,9.709334,STU
8693693171000,1.774888,-1.37300258522079,12.6386180213277,0.144268686274156,1.6713274,-1.0268645,-0.38148534,279.0078,-99.587456,9.283484,STU
8693698569000,1.780286,-1.02619121964554,12.1365180814058,-0.15595610159207,1.5210545,-0.93828905,-0.2602286,279.38086,-99.327965,8.886599,STU
8693703167000,1.784884,-0.6498257692,11.7338226011765,-0.434358889741176,1.3652838,-0.63438356,-0.22327125,279.68082,-99.12596,8.532621,STU
8693708269000,1.789986,-0.1037337094,11.3266484876471,-0.779259131717647,1.2021828,-0.22235495,-0.22693644,279.92267,-98.956856,8.2115135,STU
8693713184000,1.794901,0.355467323290757,10.9909541696671,-0.976235191028865,1.1081096,-0.0012217305,-0.22907446,280.12097,-98.873505,7.9575067,STU
8693718173000,1.79989,0.694238065173489,10.7578991787187,-0.918572075138288,1.0919216,0.41080686,-0.226631,280.14484,-98.799255,7.7207046,STU
8693723102000,1.804819,1.02893459488686,10.5276470138791,-0.861602442301116,1.1136073,0.7309003,-0.21074851,280.1267,-98.82149,7.5641284,STU
8693728142000,1.809859,1.37116841711355,10.2922096207382,-0.803349865815146,1.1450669,0.97249746,-0.19333886,280.0152,-98.85792,7.421036,STU
8693733140000,1.814857,1.6049782566094,10.043699886384,-0.72891965380872,1.1786644,1.1914927,-0.20066923,279.7847,-98.912415,7.2822556,STU
8693738168000,1.819885,1.64801826618333,9.76633145734433,-0.623710813645844,1.2406673,1.4001031,-0.20586158,279.49365,-98.99326,7.1601176,STU
8693743120000,1.824837,1.59458648888232,9.50981480721467,-0.633619132249162,1.2907583,1.6288722,-0.24678956,279.0906,-99.144875,7.132556,STU
8693748215000,1.829932,1.34931888347132,9.27897454849202,-0.869268406100926,1.3307699,1.8689423,-0.27855456,278.63422,-99.3092,7.114781,STU
8693753134000,1.834851,1.10225474464873,9.09582360813873,-1.02765863546162,1.3665055,2.1612413,-0.3145956,278.06555,-99.48368,7.1074634,STU
8693758166000,1.839883,0.826853335067494,8.99610928988078,-1.03715527733767,1.4285084,2.5008824,-0.355829,277.425,-99.66357,7.1014786,STU
8693763150000,1.844867,0.545644038579614,8.85836448100121,-0.987627029402895,1.4987578,2.8328876,-0.3839288,276.7066,-99.85816,7.062214,STU
8693768171000,1.849888,0.24112411849417,8.62151591616405,-0.789447382127061,1.5451837,3.1138856,-0.4129449,275.9218,-100.05403,7.0258102,STU
8693773158000,1.854875,-0.0407493642465754,8.38411641359326,-0.57901841317176,1.5958854,3.289204,-0.453262,275.06323,-100.24876,6.9529123,STU
8693778153000,1.85987,-0.274454093075965,8.14124644113421,-0.336148775658588,1.6450601,3.3420436,-0.4746423,274.17975,-100.453674,6.8893547,STU
8693783220000,1.864937,-0.504153873393431,7.88359999624793,-0.170539211766884,1.6679676,3.3044755,-0.50946164,273.27438,-100.624504,6.7917747,STU
8693788243000,1.86996,-0.705740932297047,7.58825165929247,-0.292429069533184,1.6502525,3.2400293,-0.5635232,272.37613,-100.79283,6.6897707,STU
8693793219000,1.874936,-0.872226747360757,7.3572085423735,-0.446475477371678,1.6084082,3.2097914,-0.6270532,271.4701,-100.92136,6.5585785,STU
8693798206000,1.879923,-0.876573261885693,7.42675268400073,-0.76377127369858,1.5827519,3.2302554,-0.6844745,270.57858,-101.04489,6.4189725,STU
8693803570000,1.885287,-0.870351691717109,7.51615369672637,-1.11174267817583,1.53205,3.2846224,-0.7281514,269.64706,-101.183685,6.248208,STU
8693808230000,1.889947,-0.631454042921556,7.90665939407041,-1.55737866046943,1.462106,3.3304374,-0.6771441,268.7245,-101.32352,6.0948343,STU
8693813487000,1.895204,-0.378486241158073,8.3218400498732,-2.04071792459848,1.4043792,3.5521815,-0.57757306,267.74963,-101.511086,5.950522,STU
8693818230000,1.899947,-0.325691368907439,8.42742993469992,-2.2710956182164,1.1771374,3.6407568,-0.52320606,266.81085,-101.64493,5.8101187,STU
8693823238000,1.904955,-0.287041514561717,8.49874211270125,-2.48771124239714,1.1044444,3.7610974,-0.4184427,265.83304,-101.89514,5.7561493,STU
8693828332000,1.910049,-0.35491862411449,8.31935251341682,-2.54104332647585,0.98929626,3.7745364,-0.35155296,264.87524,-102.07738,5.710355,STU
8693833275000,1.914992,-0.380827886886691,8.09948077776907,-2.57435949912839,0.89675015,3.6468656,-0.31795537,263.9324,-102.29404,5.69212,STU
8693838270000,1.919987,-0.151274338517285,7.58415669016747,-2.49003366551758,0.8885035,3.347847,-0.3032946,263.05148,-102.503265,5.68138,STU
8693843212000,1.924929,0.0483500141155485,7.10987341796651,-2.31655287022099,0.98715824,2.876259,-0.27091873,262.25037,-102.740036,5.665423,STU
8693848939000,1.930656,-0.0820942354850857,7.02834553495194,-0.930582650109999,1.1527027,2.4260514,-0.20586158,261.54236,-102.99321,5.649284,STU
8693853278000,1.934995,-0.17876958106116,6.95310885551823,0.0957945618832131,1.4489723,1.5842791,-0.1432479,261.07315,-103.32867,5.6361165,STU
8693858263000,1.93998,-0.263674912767513,6.70310984954056,0.987300554650726,1.5164729,0.8155051,-0.12461651,260.7223,-103.645226,5.607161,STU
8693863410000,1.945127,-0.341113210995959,6.44774526937584,1.82779140882802,1.63437,0.04337143,-0.13103059,260.50925,-103.86623,5.5431376,STU
8693868338000,1.950055,-0.294490896664571,6.23582555819488,1.68792441272564,1.679574,-0.6017023,-0.12064589,260.48282,-104.086395,5.450252,STU
8693873163000,1.95488,-0.248843034114055,6.0283351753929,1.55098077307589,1.63437,-0.9810496,-0.110872045,260.5232,-104.175514,5.328291,STU
8693878332000,1.960049,-0.066212710538149,5.94941913643341,1.3134198782754,1.5592335,-1.0616838,-0.090713486,260.6598,-104.26927,5.193411,STU
8693883257000,1.964974,0.138207799190971,5.90683156081264,1.06641180626637,1.4712689,-0.8222246,-0.05375614,260.81067,-104.34955,5.066416,STU
8693888231000,1.969948,0.274952058393827,5.92254731131752,0.464150801649043,1.4199562,-0.4392121,0.008857546,260.9242,-104.4772,4.9763327,STU
8693893247000,1.974964,0.366477754124035,5.97746273926836,-0.377885634429837,1.323745,0.021380283,0.054367006,260.94794,-104.56858,4.915515,STU
8693898254000,1.979971,0.453008879654658,6.21326413751865,-0.967425911557237,1.2501358,0.49357912,0.105068825,260.85132,-104.72878,4.9416275,STU
8693903272000,1.984989,0.534963976708591,6.62816191931358,-1.31061284169367,1.2278391,0.9101892,0.18600847,260.64838,-104.87913,5.015772,STU
8693908261000,1.989978,0.615881123127294,7.23204271498165,-1.23312289812085,1.2284501,1.072374,0.27122417,260.4195,-105.191,5.12839,STU
8693913245000,1.994962,0.696387483758309,7.94712862993353,-0.91109744076198,1.2269229,1.2895365,0.3118467,260.0703,-105.49166,5.2811003,STU
8693918999000,2.000716,0.904297841801659,8.89630669201896,-0.270321545951205,1.210124,1.3301591,0.4156938,259.72253,-105.85464,5.4758954,STU
8693923263000,2.00498,1.10194106487554,9.64654409857764,0.306473916340379,1.1435398,1.2819008,0.44776422,259.3483,-106.1909,5.6666965,STU
8693928340000,2.010057,1.24435799702438,10.3858198923018,0.767653990454982,1.1166617,1.0827587,0.4810564,258.9578,-106.45035,5.8896627,STU
8693933304000,2.015021,1.32193214703398,11.0064132829718,1.06882425409868,1.031446,0.87995136,0.47769663,258.59006,-106.66811,6.100244,STU
8693938262000,2.019979,1.36473315980861,11.445353430622,1.00629789087719,0.93218035,0.7883216,0.453262,258.1715,-106.71106,6.3331966,STU
8693943260000,2.024977,1.37427554348086,11.7125416680622,0.591201715087719,0.81489426,0.8481864,0.40683624,257.76944,-106.723816,6.547778,STU
8693948245000,2.029962,1.28138006882837,11.9069786092281,0.110963552472571,0.68936145,1.0375546,0.35643986,257.30664,-106.62591,6.760456,STU
8693953307000,2.035024,1.08192209472962,12.0304526309757,-0.444669475967868,0.58184916,1.2406673,0.32284227,256.82587,-106.50448,6.9619184,STU
8693958262000,2.039979,0.858791284550265,12.1503126888889,-0.817514723915344,0.46303585,1.3695599,0.2938262,256.32022,-106.4171,7.146632,STU
8693963239000,2.044956,0.602016770610871,12.2695294343434,-0.991754586339586,0.38026363,1.4318681,0.25686884,255.77962,-106.31027,7.321111,STU
8693968201000,2.049918,0.29943684355838,12.4420519976172,-1.01249441267673,0.3042109,1.432479,0.22357668,255.23764,-106.26475,7.4442787,STU
8693973269000,2.054986,-0.090888389872915,12.711906392772,-0.76673407045274,0.23060162,1.2443326,0.17531833,254.73483,-106.19178,7.5372033,STU
8693978203000,2.05992,-0.454045487184544,13.0692786296035,-0.687625904491849,0.11484267,1.0555751,0.13530666,254.21994,-106.106606,7.576015,STU
8693983304000,2.065021,-0.798137892342524,13.6149108569632,-0.903912544204065,0.021991149,0.9016371,0.1133155,253.75327,-106.00379,7.5920014,STU
8693988702000,2.070419,-1.15747988429423,14.3745773280318,-1.15928862385686,-0.07696902,0.79504114,0.09101892,253.28516,-105.79852,7.522878,STU
8693993257000,2.074974,-1.4553592060593,15.2191971307373,-1.40437923994295,-0.13622294,0.75136423,0.06352998,252.84634,-105.57929,7.439939,STU
8693998330000,2.080047,-1.74334463913866,16.1206776029372,-1.62679309939094,-0.18081611,0.73456544,0.019547688,252.4397,-105.32502,7.292213,STU
8694003271000,2.084988,-1.50033331344265,16.5299605901433,-1.23882758235066,-0.19975294,0.70738196,-0.029932396,252.04932,-105.06379,7.1351686,STU
8694008235000,2.089952,-1.25619078748536,16.9411487602487,-0.849056113703036,-0.22968534,0.6389651,-0.038179077,251.69345,-104.768394,6.909538,STU
8694013257000,2.094974,-0.929109104721951,17.5276311482927,-0.529620783219512,-0.2443461,0.50915617,-0.06261369,251.36038,-104.473724,6.6689706,STU
8694018234000,2.099951,-0.58965004716878,18.1414467433171,-0.227362741887805,-0.30726522,0.3539964,-0.064446285,251.05661,-104.17122,6.435091,STU
8694023251000,2.104968,-0.237234082684802,18.518871145476,-0.188930974145476,-0.4129449,0.24495697,-0.06872234,250.68803,-103.81406,6.232343,STU
8694028160000,2.109877,0.110286190952099,18.8246893625074,-0.221366197362507,-0.55833083,0.20066923,-0.08460484,250.34842,-103.4409,6.027418,STU
8694033270000,2.114987,0.391104459808294,19.0229137473592,-0.272860307316119,-0.68783426,0.21166481,-0.08674286,250.00735,-103.01096,5.8648233,STU
8694038169000,2.119886,0.634315448974961,19.1743471848592,-0.327926945649452,-0.79290307,0.25534168,-0.1020145,249.67398,-102.56316,5.698342,STU
8694043262000,2.124979,0.838076215725448,19.2785378644051,-0.188132015681931,-0.8854492,0.30024028,-0.101098195,249.3486,-102.11608,5.5816503,STU
8694048231000,2.129948,1.01692222702997,19.3585475612699,0.0283657584033231,-0.9957104,0.30482176,-0.10781772,249.0277,-101.65199,5.461045,STU
8694053271000,2.134988,1.2894803681336,19.4097454277996,0.424371090605894,-1.1450669,0.2764165,-0.13072516,248.71036,-101.18595,5.363659,STU
8694058428000,2.140145,1.60967495206287,19.4485571719057,0.909514465414538,-1.3371841,0.22204952,-0.18417588,248.40384,-100.69306,5.2554865,STU
8694063259000,2.144976,1.93795428834683,19.3304706192477,1.37097238583581,-1.5656476,0.1518,-0.20647246,248.1164,-100.152596,5.1679482,STU
8694068336000,2.150053,2.29674744458338,19.1311412614533,1.85932962463872,-1.8402315,0.100792766,-0.18661933,247.84497,-99.57298,5.076015,STU
8694073265000,2.154982,2.53762297667738,18.5340478957413,2.20027811167135,-2.1426098,0.070554934,-0.14905111,247.58084,-98.92115,5.019542,STU
8694078326000,2.160043,2.74208905418843,17.7599970225994,2.49724092839494,-2.445599,0.062308256,-0.11362094,247.33347,-98.24195,4.965763,STU
8694083232000,2.164949,2.81676934521324,16.9643749048613,2.56599014199225,-2.7464502,0.09743301,-0.12064589,247.08539,-97.51861,4.9509053,STU
8694088238000,2.169955,2.84536560388707,16.1350853939755,2.55169196288896,-3.0607402,0.18234327,-0.15668693,246.83475,-96.796394,4.9354787,STU
8694093227000,2.174944,2.86023128309659,15.5644382407197,2.34128887375947,-3.350596,0.28191432,-0.21655174,246.58444,-96.11092,4.9391565,STU
8694098211000,2.179928,2.8692711546875,15.10340219375,2.0474913715625,-3.6276233,0.40683624,-0.2678644,246.31116,-95.51176,4.932301,STU
8694103235000,2.184952,2.91990172071651,14.7880813439772,1.59399139376947,-3.8640282,0.47555858,-0.30726522,246.03592,-95.08597,4.9228077,STU
8694108229000,2.189946,2.99936435068536,14.579492128297,1.03278652099688,-3.9635992,0.59681535,-0.31703907,245.71783,-94.90388,4.9033012,STU
8694113204000,2.194921,3.234078177357,14.6019103001972,0.473668484646943,-4.1318927,0.75319684,-0.3313944,245.3801,-84.98991,4.875224,STU
8694118261000,2.199978,3.55407860415187,14.7451937123767,-0.0946904484043392,-4.281249,0.895223,-0.33322698,245.01877,-84.602646,4.84074,STU
8694123228000,2.204945,3.91736074669216,15.0688138929254,-0.523120735548757,-4.3832636,1.0586295,-0.28038713,244.6174,-84.00331,4.821609,STU
8694128229000,2.209946,4.31113226727533,15.4992154435946,-0.880262407726577,-4.416556,1.2333369,-0.21991149,244.17767,-83.253334,4.7932467,STU
8694133225000,2.214942,4.78802513754382,16.0756960056713,-1.11332311208497,-4.3838744,1.4019357,-0.14049901,243.70053,-82.42683,4.815927,STU
8694138232000,2.219949,5.33685682241699,16.7778051363168,-1.24187827593318,-4.2864413,1.5500705,-0.014049901,243.18195,-81.55147,4.854401,STU
8694143211000,2.224928,5.88562662535002,17.3823550504025,-1.39068766750088,-4.1657953,1.6600263,0.14874569,242.63406,-80.676575,4.95937,STU
8694148213000,2.22993,6.43893610881169,17.9272806688834,-1.55416544058453,-4.0274343,1.8020525,0.36346483,242.0335,-79.80651,5.095192,STU
8694153235000,2.234952,7.0589460163872,18.4089796760671,-1.71607328216463,-3.8389826,1.9694295,0.61544675,241.41092,-78.95403,5.3287015,STU
8694158226000,2.239943,7.81359374847561,18.7472704603659,-1.87220734817073,-3.5931094,2.144137,0.90010995,240.73917,-78.13343,5.608027,STU
8694163195000,2.244912,8.26492578113001,18.4844083598464,-1.94124448946791,-3.3579264,2.2992969,1.162782,240.05447,-77.33576,5.997826,STU
8694168234000,2.249951,8.38765745728819,17.5482801126016,-1.91477299138284,-3.1606169,2.3759604,1.3579534,239.33508,-76.57599,6.4221673,STU
8694173215000,2.254932,8.50897646481823,16.6229269076946,-1.88860618607191,-2.9914072,2.262034,1.3988814,238.66763,-75.83649,6.9435954,STU
8694178220000,2.259937,8.63088002488406,15.6931150645789,-1.86231330099237,-2.8619037,2.037541,1.258077,238.01277,-75.144356,7.4470625,STU
8694183245000,2.264962,8.56347035851227,14.6671419277224,-2.01311970640337,-2.8365529,1.8542814,1.0430524,237.37476,-74.4838,7.924657,STU
8694188233000,2.26995,8.2841452273773,13.5452641290261,-2.36113091721626,-2.8325822,1.7150042,0.8381071,236.79901,-73.8783,8.35661,STU
8694193222000,2.274939,8.04275803631797,12.5539543328504,-2.64495813736115,-2.7608054,1.557401,0.655153,236.33716,-73.23052,8.82088,STU
8694198210000,2.279927,7.86281086544963,11.774181974307,-2.82490550094659,-2.6505444,1.4544702,0.4633413,235.91612,-72.63674,9.218451,STU
8694203199000,2.284916,7.62559464148366,11.0625849839235,-2.90805972708837,-2.5192082,1.149343,0.3576616,235.59445,-72.10051,9.601596,STU
8694208212000,2.289929,7.25734588756961,10.5026449463066,-2.77185814471997,-2.4758368,0.75961095,0.1441642,235.35083,-71.62629,9.909619,STU
8694213181000,2.294898,6.64570107243079,10.1198259256731,-2.54066835604854,-2.413834,0.34574974,-0.032070424,235.19571,-71.20405,10.222707,STU
8694218277000,2.299994,5.6416871331058,9.99027602047782,-2.15664456006826,-2.44621,-0.08155051,-0.1863139,235.17114,-70.809044,10.511262,STU
8694223164000,2.304881,4.54961295409446,10.0014795028221,-1.88263764276661,-2.5476136,-0.6411031,-0.33505958,235.29002,-70.44053,10.7636,STU
8694228233000,2.30995,3.09312366709575,10.3523828975146,-1.83456872584414,-2.6569583,-1.241889,-0.5390886,235.55789,-70.105545,10.995691,STU
8694233214000,2.314931,1.69459634983359,10.694965204942,-1.85383414463944,-2.6569583,-1.7403551,-0.8173377,235.8331,-69.90037,11.038518,STU
8694238232000,2.319949,0.371409115582451,11.0342437493696,-2.04770775042864,-2.5427265,-2.0378466,-1.1044444,236.23537,-69.73898,11.057062,STU
8694243900000,2.325617,-0.872317834913039,11.3117462601454,-2.06777159778228,-2.50638,-2.186592,-1.3814718,236.67075,-69.70781,10.837559,STU
8694248207000,2.329924,-1.5061910775375,11.3914552872918,-1.8362370356124,-2.5983152,-2.4565945,-1.6780468,237.24213,-69.718254,10.574327,STU
8694253209000,2.334926,-2.21047386934156,11.4976367978395,-1.6620538037037,-2.8322768,-2.918714,-1.9459113,237.97078,-69.76774,10.136825,STU
8694258228000,2.339945,-2.68025454131687,11.705328904321,-2.19117537259259,-3.2262847,-3.0454686,-2.1245892,238.69118,-69.76715,9.6454,STU
8694263219000,2.344936,-3.10933527297654,11.876961467452,-2.69032026675129,-3.667635,-2.7974575,-2.1966715,239.41284,-69.69643,9.020368,STU
8694268267000,2.349984,-3.36462873510714,11.8867806399919,-3.06835082241292,-4.07386,-2.3970351,-2.149024,240.12463,-69.5094,8.388599,STU
8694273305000,2.355022,-3.61589262647117,11.8122805329899,-3.18656824059838,-4.3667703,-2.0980167,-2.0222695,240.80017,-69.27027,7.703418,STU
8694278397000,2.360114,-3.85744744105409,11.4402860721221,-2.39426817434119,-4.5109344,-2.008525,-1.8719965,241.40952,-68.917366,7.034663,STU
8694283249000,2.364966,-4.03681107640095,11.0088172647987,-1.57460053421271,-4.504215,-2.0549507,-1.6872098,241.95395,-68.52214,6.379164,STU
8694288238000,2.369955,-4.01324228437253,10.2499015708366,-0.466866506581492,-4.4128904,-2.1578815,-1.4862351,242.46648,-68.06743,5.7789726,STU
8694293232000,2.374949,-3.69781935276346,9.26386565463918,0.389136855961245,-4.222606,-2.3701572,-1.2767084,242.97159,-67.49564,5.2259507,STU
8694298208000,2.379925,-1.90555599216781,7.13498408762887,-0.0384589701250477,-4.024991,-2.5228734,-1.0693196,243.46129,-66.922066,4.7428894,STU
8694303263000,2.38498,-0.173152240728972,5.04432389121495,-0.514906398990654,-3.8756344,-2.830444,-0.97524637,243.9895,-66.20514,4.3372474,STU
8694308227000,2.389944,0.448856884859813,3.87139262523364,-1.49679218672897,-3.8319576,-3.0998356,-0.8323039,244.51178,-65.497025,4.0227437,STU
8694313967000,2.395684,1.1555431251486,2.51911440063538,-2.58833459657717,-3.8136318,-3.2803464,-0.73548174,245.20946,-64.712204,4.142504,STU
8694318286000,2.400003,1.55399048282435,1.54418994759377,-2.94439405425292,-3.808745,-3.2809572,-0.7247916,245.91284,-63.949436,4.2942057,STU
8694323466000,2.405183,2.02407315361743,0.386737887851816,-3.36044921075061,-3.8008037,-3.2485814,-0.70066243,246.3264,-63.38632,4.737784,STU
8694328225000,2.409942,2.1564973872155,-0.222413803331719,-3.32072181622276,-3.7778962,-3.1835241,-0.66248333,246.72572,-62.846092,5.1820226,STU
8694333259000,2.414976,2.29657378812591,-0.866765476670218,-3.27869876430993,-3.7143662,-3.1337388,-0.6356053,247.64972,-62.0971,5.6702447,STU
8694338230000,2.419947,2.36949298543846,-1.1784788269107,-3.24452654899437,-3.617544,-3.0524936,-0.6032294,248.53915,-61.3724,6.171441,STU
8694343168000,2.424885,2.43607226190668,-1.45906267585479,-3.21123701007643,-3.4962873,-2.8872545,-0.56321776,249.3862,-60.680946,6.676694,STU
8694348256000,2.429973,2.47325442387821,-1.78718716806891,-2.84311068417468,-3.3554828,-2.6584857,-0.5122105,250.25659,-59.937275,7.223112,STU
8694353175000,2.434892,2.50628306514423,-2.10803712169471,-2.45620344801683,-3.1517591,-2.4174993,-0.48502702,251.07852,-59.2492,7.763839,STU
8694358247000,2.439964,2.51350544007874,-2.04360296683071,-2.0460677786811,-2.9248228,-2.2516494,-0.48930305,251.87616,-58.5706,8.32286,STU
8694363183000,2.4449,2.51815810590551,-1.94589688730315,-1.64593822608268,-2.6929994,-2.1557434,-0.49205196,252.62625,-57.950645,8.878566,STU
8694368357000,2.450074,2.50130531792062,-1.83449465112559,-1.4079835068128,-2.47095,-2.065641,-0.44837508,253.3273,-57.2966,9.436715,STU
8694373204000,2.454921,2.48297252628357,-1.72908072831754,-1.20632217665877,-2.238821,-1.9843957,-0.39920044,254.00522,-56.708885,9.995464,STU
8694378261000,2.459978,2.40332435196737,-1.68744190307901,-1.08747540350688,-2.0024164,-1.9022343,-0.39675698,254.65025,-56.130806,10.536373,STU
8694383657000,2.465374,2.3082700834453,-1.65437953567658,-0.975889951283589,-1.7733418,-1.8371773,-0.41172317,255.2735,-55.61067,11.086201,STU
8694388354000,2.470071,2.15133136504386,-1.60318214397956,-0.937505952670394,-1.5125023,-1.7922786,-0.42852196,255.87431,-55.141647,11.622378,STU
8694393244000,2.474961,1.88045167006652,-1.5174035864745,-0.982652560643016,-1.2617421,-1.6285667,-0.4202753,256.42752,-54.729706,12.14098,STU
8694398334000,2.480051,1.64513834963221,-1.437728095666,-0.968779665904573,-0.9593639,-1.4920384,-0.43585235,256.97113,-54.393345,12.622891,STU
8694403215000,2.484932,1.51968126914513,-1.38196941479125,-0.824736309940358,-0.6621779,-1.4410311,-0.44226643,257.49222,-54.119446,13.103116,STU
8694408215000,2.489932,1.39247967555326,-1.33386008086867,-0.63278824375181,-0.5112942,-1.3439035,-0.45356745,257.96008,-53.919727,13.484785,STU
8694413260000,2.494977,1.2675701710031,-1.3088782008273,-0.323012717335057,-0.23915374,-1.2119566,-0.4633413,258.40796,-53.830387,13.855289,STU
8694418277000,2.499994,1.1890060161419,-1.24396572089513,0.0118378863518085,0.03390302,-1.0543534,-0.49327368,258.81323,-53.776318,14.159306,STU
8694423209000,2.504926,1.1931028829647,-1.10876898740567,0.388749886445485,0.30390546,-0.8921687,-0.56413406,259.19324,-53.797836,14.43203,STU
8694428488000,2.510205,1.19335631746937,-0.950247773025676,0.814983169491525,0.57940567,-0.7312057,-0.6178902,259.51288,-53.853283,14.632434,STU
8694433217000,2.514934,1.15535603680987,-0.680445871605974,1.40778736525424,0.8454375,-0.5983425,-0.6554584,259.80762,-53.98148,14.799953,STU
8694438243000,2.51996,1.11496918745595,-0.393699338187615,2.03782202118644,1.0989466,-0.5002986,-0.6774496,260.0477,-54.129665,14.908976,STU
8694443231000,2.524948,1.03417271014307,0.06770233495586,2.81661322118721,1.3329079,-0.45937067,-0.70341134,260.27423,-54.344074,14.996882,STU
8694448201000,2.529918,0.932748934212075,0.61828856228209,3.67147077126332,1.4990633,-0.45265114,-0.73761976,260.48828,-54.607357,15.068126,STU
8694453190000,2.534907,0.813329010282094,1.26794724445808,4.40262578246065,1.6331482,-0.45356745,-0.7611381,260.6152,-54.856224,15.073415,STU
8694458235000,2.539952,0.684208439788182,1.97093682461744,5.08170415492428,1.7150042,-0.4783075,-0.7339546,260.74155,-55.12802,15.085608,STU
8694463211000,2.544928,0.678575316008595,2.91000391418211,4.93057641124541,1.7507398,-0.54305923,-0.6872234,260.74466,-55.385265,15.041457,STU
8694468243000,2.54996,0.734665964410422,3.98435537719581,4.36104060363506,1.7482964,-0.5888741,-0.6432411,260.7442,-55.64424,15.005516,STU
8694473231000,2.554948,0.977911743067656,4.79014108098311,3.3815903185974,1.7815884,-0.59864795,-0.59528816,260.61526,-55.885494,15.066051,STU
8694478229000,2.559946,1.46701187285146,5.2586476444552,1.85765743373131,1.8463402,-0.52564955,-0.5580254,260.47522,-56.120163,15.122408,STU
8694483233000,2.56495,2.07996254394748,5.70648355877462,1.09605277651641,2.0146337,-0.21777347,-0.49418998,260.4098,-56.591827,15.189748,STU
8694488246000,2.569963,2.78590851718162,6.13929566757112,0.902757990380744,2.149024,0.2941316,-0.4025602,260.27118,-57.044376,15.226592,STU
8694493182000,2.574899,3.60062755638917,6.63251987953862,0.985586919709127,2.159714,0.6200282,-0.27397305,260.31427,-57.69568,15.48426,STU
8694498207000,2.579924,4.73975846511535,7.30827552898696,1.77718645957874,2.0845776,1.1630874,-0.22632557,260.1867,-58.32738,15.625351,STU
8694503257000,2.584974,5.88945414329977,8.13459421727343,2.72150643371418,2.0317378,1.4953982,-0.14263703,260.11185,-58.934265,15.961993,STU
8694508323000,2.59004,7.05444186289698,9.31367432455461,4.02272251328428,1.9746219,1.5100589,-0.0852157,259.99472,-59.48489,16.244825,STU
8694513245000,2.594962,8.10002647640562,10.5720057811245,5.31148832715864,2.064419,1.1490375,-0.018325957,259.89706,-59.911976,16.586023,STU
8694518247000,2.599964,8.87757172423025,12.2232868460509,6.70225178125837,2.2672265,0.66339964,0.03848451,259.82257,-60.318596,16.92856,STU
8694523165000,2.604882,9.64205943490629,13.8468374812584,8.06965975152276,2.4611762,0.51251596,0.050396383,259.69244,-60.561325,17.33406,STU
8694528225000,2.609942,8.79493531215723,15.1933881755732,5.50253274422087,2.5677722,0.9947941,-0.049480084,259.51434,-60.821354,17.672165,STU
8694533324000,2.615041,7.5975538206832,16.4821734295742,2.07948456715021,2.706744,2.0448713,-0.31612277,259.22562,-61.141567,17.891714,STU
8694538228000,2.619945,6.27646113289077,17.3119425920338,-0.183473607242004,3.1810808,3.0561588,-0.5839872,258.77875,-61.44403,18.035608,STU
8694543201000,2.624918,4.8681040314826,17.9873787333535,-2.06128295907262,3.8359282,3.424205,-0.79443026,258.23926,-61.850613,18.050879,STU
8694548251000,2.629968,4.13362286977601,18.4227212758654,-1.45594674972365,4.163963,3.125492,-0.9462303,258.0337,-62.87554,17.848013,STU
8694553274000,2.634991,3.68583729931155,18.7538963890236,0.16727605279744,4.0952406,2.4761422,-0.9981538,257.83746,-63.901703,17.621618,STU
8694558267000,2.639984,3.25837626618401,18.3502080633484,1.37051182162896,3.758043,1.7559321,-0.9492846,257.91486,-65.210236,17.269846,STU
8694563256000,2.644973,2.84040286277526,17.5671081357466,2.36019608063348,3.3875532,1.2064588,-0.8741482,258.12558,-66.41112,16.974686,STU
8694568820000,2.650537,2.3555973353222,15.9398826372315,2.59832403858393,3.0955596,0.8741482,-0.7965683,258.23737,-67.44032,16.618513,STU
8694573266000,2.654983,1.96182259606205,14.3817201282816,2.49247059693715,2.8774807,0.72356987,-0.7171558,258.44446,-68.34278,16.328045,STU
8694578261000,2.659978,1.52863884018863,12.7243623371439,2.21219216519005,2.7711902,0.6826419,-0.6435465,258.52112,-69.11791,16.017357,STU
8694583291000,2.665008,1.09726742024007,11.1044253684862,1.84506757387825,2.7241535,0.6765333,-0.5833763,258.6275,-69.81764,15.745165,STU
8694588230000,2.669947,0.81706822458365,10.0194742140684,1.31711044089354,2.7143798,0.6728681,-0.5635232,258.7017,-70.44853,15.493363,STU
8694593263000,2.67498,0.647543264376426,9.32304671330798,0.643592371520913,2.7931814,0.6768387,-0.4804455,258.7704,-71.03486,15.283418,STU
8694598208000,2.679925,0.80703992375243,9.00877695042126,-0.0378976025275437,2.9208522,0.68661255,-0.4071417,258.78162,-71.627945,15.070487,STU
8694603270000,2.684987,1.38303444950313,9.15539396943184,-0.760508983257723,2.9880474,0.73731434,-0.2125811,258.7732,-72.15068,14.918667,STU
8694608228000,2.689945,1.99910937834059,9.43962914871747,-1.21788271688119,3.10289,0.8356637,0.005192355,258.79626,-72.69091,14.800851,STU
8694613225000,2.694942,2.65496500365775,9.82073426817298,-1.51035885285675,3.2015448,0.9370673,0.22724187,258.80142,-73.154625,14.740855,STU
8694618239000,2.699956,3.24860482628829,10.2551212676642,-1.60924104726403,3.2473598,0.9954049,0.41691554,258.91165,-73.495125,14.822074,STU
8694623231000,2.704948,3.75656407573048,10.7546143167168,-1.45685332989198,3.244,0.95905846,0.58062744,259.02597,-73.74229,14.956967,STU
8694628163000,2.70988,4.24777295315529,11.2472462659918,-1.29839579589705,3.2348368,0.8695667,0.75777835,259.14612,-73.8537,15.207791,STU
8694633257000,2.714974,4.69957608367435,11.751585180056,-1.09350821491493,3.1957414,0.75594574,0.91415983,259.29584,-73.8663,15.493075,STU
8694638287000,2.720004,5.05988947728213,12.1280198889217,-0.987299481181684,3.157257,0.6747007,1.0598512,259.40826,-73.74282,15.854223,STU
8694643232000,2.724949,5.24176399643525,12.2539330774988,-1.07590496995569,3.12763,0.64843345,1.1560625,259.55008,-73.5398,16.234411,STU
8694648204000,2.729921,5.35513614363979,12.3552440658807,-1.21213493302952,3.107166,0.6951646,1.2040154,259.6363,-73.245285,16.650017,STU
8694653204000,2.734921,5.29346668653656,12.3931948287101,-1.46830077412324,3.0964758,0.7828238,1.2345587,259.73,-72.89468,17.073053,STU
8694658187000,2.739904,5.05684003802462,12.4501696224678,-1.64589359445575,3.0686815,0.8524625,1.2373075,259.77838,-72.502785,17.495768,STU
8694663214000,2.744931,4.31955854496462,12.5621615543278,-1.60389653473878,3.0332513,0.8762862,1.2104294,259.82813,-107.91309,17.903982,STU
8694668263000,2.74998,3.5618716570825,12.6939766051308,-1.50607425327968,2.9538388,0.7837401,1.1841623,259.93295,-108.34024,18.288746,STU
8694673194000,2.754911,2.75898173090543,12.8935109587525,-1.20677207794769,2.8362474,0.51007247,1.162782,260.0971,-108.77603,18.652428,STU
8694678185000,2.759902,1.99000319119277,13.1300426002722,-0.955583233790221,2.6062565,0.13439035,1.1297953,260.33725,-109.12545,18.907928,STU
8694683213000,2.76493,1.38148908795567,13.4998320339263,-0.899412697423933,2.2391264,-0.2919936,1.0387764,260.6812,-109.45215,19.126194,STU
8694688197000,2.769914,0.822697433695437,13.8716552893541,-0.847966370896702,1.8451185,-0.6383542,0.893085,260.94482,-109.67448,19.225142,STU
8694693204000,2.774921,0.505422920335769,14.2741679501284,-0.81955373255876,1.4749341,-0.7858781,0.8063421,261.2787,-109.876755,19.306223,STU
8694698274000,2.779991,0.233893141587488,14.6453828482893,-0.759776862673509,1.303281,-0.9990701,0.67164636,261.665667622869,-109.914810003009,19.2219592948847,STU
8694708159000,2.789876,0.315169031613702,14.8986618406934,-0.306540828551383,0.8136725,-1.070236,0.44409904,262.42014,-109.989006,19.05767,STU
8694713128000,2.794845,0.683414638763929,14.4813165970904,-0.434199309114734,0.7819075,-1.0216721,0.267559,262.7975,-109.90799,18.863369,STU
8694718151000,2.799868,1.0191179238062,13.9910070309042,-0.48133885737414,0.86742866,-0.86926126,0.03970624,263.07312,-109.77437,18.630959,STU
8694723145000,2.804862,1.11924336713189,13.0660386734124,-0.00455116762037688,1.0005972,-0.48349985,-0.106595986,263.2549,-109.62487,18.386805,STU
8694728131000,2.809848,1.20901532936926,12.1285734845733,0.399530117878344,1.1129965,-0.03145956,-0.22968534,263.34857,-109.493614,18.14995,STU
8694733180000,2.814897,1.22789963446592,11.0804938615505,0.300387452034759,1.1991285,0.25259277,-0.36774087,263.36737,-109.33955,17.882114,STU
8694738112000,2.819829,1.2534118703062,10.0641429903304,0.207529635310234,1.2082914,0.44440445,-0.5006041,263.22696,-109.18632,17.648136,STU
8694743146000,2.824863,1.36995409151894,9.12209337308622,0.163826290946817,1.1997393,0.56382865,-0.56077427,263.02258,-109.02967,17.40991,STU
8694748146000,2.829863,1.48833193270105,8.21424760882609,0.141051453340753,1.2266175,0.6273586,-0.5381723,262.799,-108.91785,17.204826,STU
8694753220000,2.834937,1.6341147831801,7.56527878581245,0.319753019279009,1.2709051,0.63804877,-0.44806966,262.5595,-108.81495,17.010437,STU
8694758373000,2.84009,1.77422115081967,6.91979236557377,0.499092933934426,1.3139712,0.57451874,-0.3381139,262.2431,-108.80038,16.882616,STU
8694763188000,2.844905,1.80744929147001,6.48367328518285,0.64031243845163,1.3371841,0.42546764,-0.23640485,261.96146,-108.81325,16.778688,STU
8694768184000,2.849901,1.84192650656638,6.03116011267339,0.786840505859305,1.3347405,0.2049453,-0.16523905,261.6837,-108.88518,16.73574,STU
8694773194000,2.854911,1.86343415286446,5.61854433463433,0.780030017387692,1.2757921,-0.032986723,-0.13744467,261.4673,-108.967125,16.70253,STU
8694778138000,2.859855,1.88173101276205,5.22058724975365,0.738862053960004,1.2250903,-0.21166481,-0.13500121,261.30844,-109.06076,16.675346,STU
8694783213000,2.86493,1.81740183677858,4.86260377744193,0.396266477462217,1.1606439,-0.28496864,-0.15515977,261.1581,-109.165695,16.671755,STU
8694788145000,2.869862,1.72637604637387,4.53203641491023,-0.0396992108225986,1.1163563,-0.2666427,-0.17287487,261.03925,-109.26622,16.665377,STU
8694793203000,2.87492,1.60557167864547,4.20730039879554,-0.356533483512686,1.1096367,-0.14446963,-0.17440203,260.91852,-109.3824,16.67077,STU
8694798159000,2.879876,1.47905462294402,3.89335069153914,-0.628310953035838,1.1450669,0.06963864,-0.19364429,260.76657,-109.489,16.672274,STU
8694803240000,2.884957,1.43268960243812,3.64731830740672,-0.632065706206132,1.2211196,0.3036,-0.21105394,260.58807,-109.66064,16.689913,STU
8694808231000,2.889948,1.41503239580717,3.43101851718692,-0.543780060236424,1.2916746,0.51923543,-0.22999077,260.3593,-109.83107,16.71198,STU
8694813230000,2.894947,1.41909884448,3.33382448592,-0.323810977616,1.3313808,0.68203104,-0.2284636,260.1059,-110.04557,16.745235,STU
8694818347000,2.900064,1.43870074106,3.31912314024,-0.00528160630200004,1.3500122,0.75716746,-0.20738874,259.82718,-110.26704,16.785776,STU
8694823254000,2.904971,1.47973018258433,3.36962907504179,0.235437452909824,1.3518448,0.7828238,-0.1731803,259.50842,-110.50036,16.847763,STU
8694828227000,2.909944,1.53593090210444,3.46329689200511,0.436823521014849,1.3286319,0.80878556,-0.1160644,259.18347,-110.739944,16.925627,STU
8694833223000,2.91494,1.51698706617303,3.61907746749805,0.588887786671863,1.3060299,0.8151997,-0.020158553,258.85132,-110.9516,17.015179,STU
8694838240000,2.919957,1.43740827636399,3.82504604243959,0.701234224327748,1.2696834,0.79290307,0.07391469,258.5311,-111.1664,17.119173,STU
8694843228000,2.924945,1.24431222463986,4.08279695197526,0.79504308830008,1.2260065,0.7110472,0.15241088,258.1935,-111.3686,17.236609,STU
8694848209000,2.929926,0.939749948609337,4.39211794640862,0.871183695818037,1.1728612,0.58062744,0.19058995,257.88492,-111.57141,17.363075,STU
8694853272000,2.934989,0.748714596893194,4.72946195081309,0.670784092045774,1.0711522,0.42730024,0.21197024,257.5886,-111.73966,17.484917,STU
8694858339000,2.940056,0.67564839077093,5.08992188134913,0.193418431098173,0.9947941,0.38087448,0.24831672,257.30746,-111.90992,17.617119,STU
8694863211000,2.944928,0.501370990722094,5.57161579894571,-0.0131443065663553,0.95081174,0.36071593,0.3549127,257.00537,-112.042046,17.709179,STU
8694868290000,2.950007,0.217975297753722,6.20588228655322,0.018344106372977,0.8445212,0.30787608,0.43066,256.73386,-112.14526,17.793589,STU
8694873219000,2.954936,-0.0532333393384339,6.83771154743563,0.114303171557514,0.732122,0.24495697,0.45570546,256.53604,-112.27279,17.860447,STU
8694878219000,2.959936,-0.32105243336545,7.50978599868088,0.336643559379379,0.6389651,0.20799962,0.47494772,256.35645,-112.39585,17.94153,STU
8694883201000,2.964918,-0.630076004857734,8.10726712700601,0.413740307001083,0.62888575,0.067500606,0.4972443,256.21594,-112.43342,17.94988,STU
8694888196000,2.969913,-0.99272086348725,8.61591175878704,0.310127493059959,0.5726862,-0.00580322,0.48808134,256.0666,-112.441124,17.954952,STU
8694893198000,2.974915,-1.27026208393382,9.13951581363814,0.252850573842765,0.55771995,-0.105374254,0.49357912,255.91763,-112.36649,17.90056,STU
8694898210000,2.979927,-1.42533990985902,9.6846380394067,0.262249241706481,0.57543504,-0.24648413,0.52290064,255.80283,-112.29008,17.84233,STU
8694903179000,2.984896,-1.48390544189244,10.2403537985241,0.289317933655479,0.5830709,-0.42485678,0.56413406,255.73001,-112.15292,17.710545,STU
8694908229000,2.989946,-1.3763455470279,10.8319335776385,0.347986997848767,0.6026186,-0.54458636,0.5992588,255.6818,-112.02684,17.581385,STU
8694913200000,2.994917,-1.22700971442136,11.3076851305638,0.386768472919881,0.6640105,-0.59864795,0.6087272,255.61021,-111.87257,17.405584,STU
8694918277000,2.999994,-1.0057844862908,11.6250955548961,0.396386962409496,0.68783426,-0.5653558,0.5314528,255.54291,-111.70603,17.217121,STU
8694923160000,3.004877,-0.739490711920133,11.953163177394,0.427610246966248,0.7312057,-0.45356745,0.45723262,255.43462,-111.52951,17.030247,STU
8694928314000,3.010031,-0.361744327487245,12.3405951020408,0.500253793520408,0.7993172,-0.310625,0.4034765,255.30325,-111.35354,16.837723,STU
8694933201000,3.014918,-0.0201117510339875,12.7155421857348,0.550416550502633,0.87995136,-0.13347405,0.38759398,255.1087,-111.18982,16.668827,STU
8694938239000,3.019956,0.298615758608904,13.1174163795117,0.564274258037338,0.9618073,0.07880162,0.376293,254.86075,-111.03256,16.504044,STU
8694943176000,3.024893,0.58557243670187,13.4926561541517,0.534096493886251,1.0225884,0.30818152,0.3662137,254.46399,-110.91832,16.389608,STU
8694948211000,3.029928,0.795810298391629,13.8150205534347,0.361234250426315,1.0690142,0.5519168,0.34147367,254.00755,-110.81295,16.287003,STU
8694953189000,3.034906,1.08720996144225,14.1790903783467,0.166410348264608,1.0986412,0.77182823,0.29229903,253.46255,-110.722984,16.214916,STU
8694958230000,3.039947,1.78065073911472,14.7640335563807,-0.144930377593316,1.1096367,0.93615097,0.22235495,252.8736,-110.6289,16.143679,STU
8694963851000,3.045568,2.53866064209133,15.3548871334027,-0.383553048251867,1.10139,1.0024298,0.1441642,252.26541,-110.5499,16.075165,STU
8694968302000,3.050019,3.09884447266711,15.6611745955375,-0.286830655243453,1.0821478,0.9935723,0.064446285,251.64273,-110.455635,15.993311,STU
8694973551000,3.055268,3.77050821671626,16.025043792805,-0.160044321666216,1.044885,0.8790351,0.0021380284,251.0584,-110.41919,15.954189,STU
8694978226000,3.059943,4.48097577735101,16.3762412073754,0.0821605576728879,0.95142263,0.68416905,-0.030543262,250.514,-110.35902,15.895467,STU
8694983235000,3.064952,5.24220187600757,16.7525295174466,0.341669486145523,0.8213083,0.41080686,-0.025961773,250.0065,-110.31478,15.8796215,STU
8694988238000,3.069955,5.95603075478518,17.1477809572389,0.839377551032376,0.64812803,0.26816985,0.02321288,249.53629,-110.25196,15.861925,STU
8694993160000,3.074877,6.64710546268581,17.541309439829,1.38647820652413,0.5488624,-0.048258353,0.050396383,249.21,-110.17915,15.811156,STU
8694998205000,3.079922,7.14312229177592,17.9880283480334,1.77750783504172,0.30818152,-0.41050145,0.11056661,248.94301,-110.093925,15.846968,STU
8695003174000,3.084891,7.58742033340286,18.4370526154152,2.1272744026023,0.039095376,-0.7593055,0.18020524,248.78015,-110.00328,15.873099,STU
8695008231000,3.089948,7.80018888582427,18.7228924538543,2.10571136518141,-0.27366763,-1.028697,0.24251351,248.67291,-109.87459,15.953365,STU
8695013223000,3.09494,7.95661758481378,18.9667380340679,1.99989182257723,-0.6239988,-1.1734722,0.2919936,248.64987,-109.72407,16.035078,STU
8695018263000,3.09998,7.77561112605067,18.9312863235472,1.78440962992158,-0.9767735,-1.1640037,0.3213151,248.6453,-109.540504,16.150318,STU
8695023167000,3.104884,7.48757133815604,18.803793170923,1.53886744452041,-1.3005321,-1.0100657,0.3203988,248.65836,-109.33647,16.269344,STU
8695028229000,3.109946,7.21658207355187,18.5093867682142,1.50280912232901,-1.6065756,-0.7519751,0.24923302,248.6417,-109.116585,16.392088,STU
8695033686000,3.115403,6.93404373270402,18.1326687931005,1.54317176920965,-1.8976529,-0.47494772,0.15821409,248.58736,-108.87832,16.514273,STU
8695038228000,3.119945,6.81131606372687,17.8072317195109,1.74856057805432,-2.1664336,-0.23671028,0.09560041,248.48941,-108.62093,16.607553,STU
8695043225000,3.124942,6.81649464500595,17.43437365112,2.18874036529596,-2.4486532,-0.082161374,0.0729984,248.34232,-108.34837,16.691437,STU
8695048198000,3.129915,6.90654455637476,17.0761336117966,2.75668136360718,-2.731484,-0.017104227,0.06536258,248.14859,-108.06311,16.751701,STU
8695053215000,3.134932,7.06077264204033,16.7243004453807,3.42660913891062,-2.977968,-0.007941248,0.08093964,247.93378,-107.79759,16.811619,STU
8695058228000,3.139945,7.20519638159376,16.5664104148316,4.06783829047102,-3.2653801,-0.07391469,0.11178834,247.72388,-107.55427,16.882814,STU
8695063218000,3.144935,7.34204423673349,16.5475349403575,4.68601379970376,-3.5598173,-0.19730948,0.15943582,247.53687,-107.36449,16.958109,STU
8695068317000,3.150034,7.40832965592483,16.6182881502473,4.99626361998022,-3.854865,-0.33414328,0.2275473,247.36493,-107.25782,17.071644,STU
8695073294000,3.155011,7.41775858488625,16.7550099339268,5.05755210128586,-4.1441097,-0.4184427,0.30879238,247.2226,-107.245094,17.197937,STU
8695078223000,3.15994,7.25595878025321,16.8521001041319,4.79844233337913,-4.370435,-0.38606682,0.39370266,247.07462,-72.64696,17.352797,STU
8695083220000,3.164937,6.94597263902248,16.9178546212582,4.26301169904799,-4.5237627,-0.32467487,0.45540005,246.95029,-72.41757,17.519533,STU
8695088226000,3.169943,6.6846167650574,17.0211751077421,3.52301313592385,-4.5845437,-0.07574729,0.4709771,246.75693,-72.07467,17.687601,STU
8695093229000,3.174946,6.47305024863115,17.1622193538416,2.5780159997645,-4.5906525,0.37782016,0.5112942,246.4873,-71.60967,17.867512,STU
8695098208000,3.179925,6.271116821886,17.2096909493315,1.53250469627023,-4.5738535,1.0088439,0.5919284,246.09009,-71.09431,18.011557,STU
8695103297000,3.185014,6.07513261210415,17.1459958240676,0.33700113427164,-4.499328,1.781283,0.68600166,245.5148,-70.50414,18.13831,STU
8695108225000,3.189942,5.95380538703595,16.9920826977018,-0.774745043370654,-4.3854017,2.6325238,0.75900006,244.70795,-69.93492,18.209023,STU
8695113210000,3.194927,5.90691838251817,16.7342036832646,-1.84845818121194,-4.1465535,3.451694,0.8579602,243.68127,-69.327194,18.257917,STU
8695118277000,3.199994,5.71568642024292,16.095568111336,-3.07997075890688,-3.8359282,4.1755695,0.9410379,242.36934,-68.837296,18.224016,STU
8695123264000,3.204981,5.34654746882591,14.9925458558152,-4.46863582891976,-3.4547484,4.755586,0.89949906,240.88391,-68.39271,18.116833,STU
8695128186000,3.209903,5.00650236013986,13.8180011859504,-5.81174856973935,-2.9767463,5.075374,0.7293731,239.31375,-68.08949,17.950764,STU
8695133293000,3.21501,4.72666852121212,12.341100399449,-7.12282250137741,-2.436436,5.10439,0.45020768,237.70828,-67.89624,17.70209,STU
8695138159000,3.219876,4.57199402685781,11.0743488601521,-8.12538714534816,-1.956296,4.9079967,0.08735373,236.22043,-67.84815,17.421194,STU
8695143264000,3.224981,4.61013680055588,9.99681300146284,-8.73567242065535,-1.6136005,4.522541,-0.23976462,234.8352,-67.924835,17.076588,STU
8695148179000,3.229896,4.69549285342304,9.19681752578332,-9.18335107445241,-1.4230106,4.01369,-0.47952923,233.64761,-68.12101,16.74147,STU
8695153272000,3.234989,4.89191382054808,8.89500037285139,-9.33665582712896,-1.3552046,3.412904,-0.56321776,232.64008,-68.38842,16.398497,STU
8695158163000,3.23988,5.0643699882652,8.66136460289133,-9.12294962185443,-1.3775011,2.43216,-0.5357288,231.96457,-68.65637,16.160349,STU
8695163250000,3.244967,5.20037035000997,8.56907891665005,-7.9329474582652,-1.5021176,0.8943067,-0.4538729,231.6454,-68.91706,16.001598,STU
8695168229000,3.249946,5.2649311597991,8.35843731662481,-7.02352981468609,-1.8072448,-0.61850107,-0.3894266,231.63705,-69.08706,15.970948,STU
8695173267000,3.254984,5.15345907118031,7.83500353982923,-6.76181312871924,-2.2311852,-1.8399261,-0.40011674,231.99748,-69.20661,16.028744,STU
8695178214000,3.259931,4.83283486203337,7.40792591840723,-5.75198140533321,-2.607173,-2.3958135,-0.43890667,232.5676,-69.16557,16.16916,STU
8695183474000,3.265191,3.94134180571481,7.18040951283989,-2.71533313740068,-1.9324722,-2.7907379,-0.44257188,233.43996,-69.23536,16.383287,STU
8695188205000,3.269922,3.05032138145146,7.03130391705411,-0.208461582394999,-2.4486532,-4.3780713,-0.49235737,234.81415,-68.99923,16.711918,STU
8695193248000,3.274965,1.41341428729439,7.30019068732174,0.735000728286775,-2.7580566,-5.3243012,-0.64812803,236.12042,-68.95037,16.987032,STU
8695198257000,3.279974,-0.2102714503929,7.6393979861787,1.70334604091544,-3.3029485,-5.63737,-0.8604037,237.50934,-68.68217,17.149956,STU
8695203270000,3.284987,-1.80927914818109,8.83625993454328,3.04383178901077,-4.2158866,-5.0820932,-1.0650436,238.90518,-68.344765,17.280468,STU
8695208256000,3.289973,-3.21896980172581,9.9392071484547,4.23317241709959,-5.28429,-3.6435058,-1.0968086,240.06015,-67.94205,17.155111,STU
8695213232000,3.294949,-2.30843370113586,9.91822706709518,3.57439724900942,-5.6434784,-2.245846,-0.9120218,241.04236,-67.47807,17.00761,STU
8695218268000,3.299985,-1.38691846750022,9.89699401047812,2.90767865043585,-5.211597,-1.6484199,-0.6032294,241.68085,-66.98029,16.588793,STU
8695223252000,3.304969,-0.97140471288005,9.04346597494794,2.25488826091212,-4.4947467,-1.4804319,-0.3191771,242.01208,-66.372086,16.159567,STU
8695228158000,3.309875,-0.682770235558101,8.00144700197834,1.61402193533944,-3.9736784,-1.5384641,-0.13805555,242.20807,-65.72166,15.768193,STU
8695233269000,3.314986,-0.40295289260337,7.27090530311199,0.777319653879088,-3.6767979,-1.7373008,-0.040317107,242.50294,-65.060265,15.615977,STU
8695238169000,3.319886,-0.137858553019623,6.62444704047572,-0.0505188492923686,-3.5592062,-1.9156734,0.0106901415,242.78665,-64.44105,15.50833,STU
8695243264000,3.324981,0.210906710475541,6.04521615947273,-0.90305946886227,-3.5592062,-1.9544634,0.032375857,243.15187,-63.80388,15.52728,STU
8695248183000,3.3299,0.560346880882117,5.50216728704892,-1.72471607832799,-3.6138787,-1.8716911,0.08582657,243.5161,-63.171085,15.574976,STU
8695253405000,3.335122,0.920171709299863,4.9701110172779,-2.20187860955089,-3.7073412,-1.7647897,0.10323623,243.96982,-62.5379,15.716898,STU
8695258194000,3.339911,1.24847365393999,4.48890137433811,-2.57965068939008,-3.758043,-1.7104226,0.13255776,244.40201,-61.900055,15.874211,STU
8695263233000,3.34495,1.4106808436693,3.9631756641164,-2.61103541135093,-3.7675114,-1.7116444,0.17837265,244.87463,-61.267868,16.150827,STU
8695268345000,3.350062,1.53333185087686,3.42539794363076,-2.55914452293313,-3.748269,-1.7424932,0.23518312,245.33133,-60.63703,16.43703,STU
8695273289000,3.355006,1.55363928802359,2.9755768597194,-2.56588120333469,-3.6887097,-1.7595973,0.25686884,245.76607,-60.015007,16.848314,STU
8695278201000,3.359918,1.54407422173648,2.54992893796259,-2.58979409377796,-3.6053267,-1.6927075,0.29993483,246.17395,-59.40825,17.272005,STU
8695283272000,3.364989,1.49314389888315,2.21501267873362,-2.52919196009784,-3.4935384,-1.6349808,0.3371976,246.48209,-58.79866,17.807379,STU
8695288641000,3.370358,1.426700169928,1.89228651912498,-2.43901848015507,-3.419929,-1.4807373,0.37201694,246.74222,-58.21545,18.322063,STU
8695293264000,3.374981,1.36401805864979,1.5190452219673,-2.33206365791139,-3.1893275,-1.4483615,0.37415496,247.1262,-57.627243,18.842112,STU
8695298262000,3.379979,1.29333157662447,1.06463178054325,-2.20078865727848,-3.11694,-1.352761,0.37384954,247.4458,-57.0323,19.338232,STU
8695303279000,3.384996,1.29449050587649,0.793100771563745,-2.05009485806773,-2.9477303,-1.3005321,0.35002577,247.83636,-56.459743,19.810732,STU
8695308260000,3.389977,1.32299775118526,0.593550277654383,-1.89330513289841,-2.7748554,-1.2690725,0.30909783,248.20807,-55.92067,20.268387,STU
8695313240000,3.394957,1.38653249430277,0.48709556010671,-1.69148076980467,-2.6047294,-1.1930199,0.24953845,248.58392,-55.375675,20.683306,STU
8695318392000,3.400109,1.46684666728161,0.415705118898535,-1.46392380659251,-2.43216,-1.0714576,0.19761491,248.94357,-54.88428,21.081419,STU
8695323304000,3.405021,1.48521954541564,0.401411333733818,-1.19223510701829,-2.2650883,-0.95447695,0.14019357,249.31416,-54.386772,21.461338,STU
8695328262000,3.409979,1.44966028353482,0.436970632745266,-0.867121590317749,-2.069917,-0.8552113,0.060170226,249.66824,-53.952488,21.811344,STU
8695333246000,3.414963,1.43052340095371,0.435115838444268,-0.612044129231075,-1.8891008,-0.77304995,0.0061086523,249.98451,-53.52324,22.14251,STU
8695338274000,3.419991,1.42095616491158,0.411197598487979,-0.396780054540036,-1.6505579,-0.6969972,-0.0720821,250.29199,-53.172405,22.437542,STU
8695343257000,3.424974,1.46679974933333,0.410949224190196,-0.150291080386274,-1.4052955,-0.6310238,-0.1518,250.5547,-52.852238,22.681555,STU
8695348215000,3.429932,1.54593604,0.424914461676471,0.115048431852941,-1.1255192,-0.5571091,-0.21838433,250.80496,-52.606834,22.899443,STU
8695353219000,3.434936,1.59656017503242,0.42276275678005,0.552122741861347,-0.840856,-0.46944994,-0.27366763,251.03773,-52.388336,23.083225,STU
8695358752000,3.440469,1.62827395123192,0.406905857641895,1.17582747073117,-0.56688297,-0.4465425,-0.33444872,251.27934,-52.243484,23.249578,STU
8695363223000,3.44494,1.60121490101455,0.423036740055513,1.74230602143951,-0.31215215,-0.5045747,-0.40011674,251.50195,-52.135204,23.39665,STU
8695368318000,3.450035,1.53583266005934,0.460398026871172,2.4288194295559,-0.0888809,-0.6017023,-0.473726,251.73944,-52.092888,23.530392,STU
8695373257000,3.454974,1.45175178417529,0.540066623767498,3.08560270663421,0.100792766,-0.7305948,-0.5564982,251.95502,-52.03471,23.631802,STU
8695378223000,3.45994,1.3456162035707,0.665499658226821,3.73688972773382,0.25350907,-0.8008443,-0.65576386,252.19363,-52.032833,23.717258,STU
8695383223000,3.46494,1.23533430016807,0.859687639179436,4.30029388259021,0.3885103,-0.9654725,-0.7067711,252.41037,-51.994244,23.76889,STU
8695388247000,3.469964,1.12117382151261,1.1213053737914,4.77596247742956,0.44043383,-1.094976,-0.7984009,252.65596,-51.99493,23.791876,STU
8695393228000,3.474945,1.02415380363959,1.43520118830836,5.2286117018336,0.56230146,-1.1621711,-0.8686504,252.8558,-51.976948,23.75962,STU
8695398221000,3.479938,0.944018841117902,1.80759299884661,5.66228323534109,0.71593404,-1.1346822,-0.9114109,253.07162,-51.986984,23.718153,STU
8695403203000,3.48492,0.91721595426152,2.22995415465735,5.98004449432848,0.86651236,-1.0479393,-0.91232723,253.23344,-51.9986,23.617035,STU
8695408232000,3.489949,0.955153529956676,2.7184005333399,6.16024808286727,0.9963212,-0.91415983,-0.88086766,253.37343,-52.0385,23.50594,STU
8695413258000,3.494975,1.07648864933978,3.14318917673424,5.78795713695369,1.1166617,-0.75655663,-0.7984009,253.45303,-52.039734,23.387033,STU
8695418236000,3.499953,1.30700879386275,3.48010326259996,4.68855319985122,1.2938126,-0.5671884,-0.70829827,253.47818,-52.073395,23.258863,STU
8695423234000,3.504951,1.64080102284194,3.73445443208514,3.38507848727631,1.5784758,-0.30695978,-0.6203337,253.45341,-52.09101,23.195648,STU
8695428367000,3.510084,2.26084359900473,3.76836298557351,1.50557445262515,1.9749273,0.07422013,-0.5558874,253.32935,-52.16319,23.103432,STU
8695433235000,3.514952,2.99294333901496,3.79125092337727,0.123474467799029,2.3741279,0.6582073,-0.5155703,253.25714,-52.504482,22.985588,STU
8695438233000,3.51995,4.18351760747201,3.78650760295313,-0.0757451286968586,2.6038132,1.2977833,-0.45051312,253.0523,-52.87024,22.829294,STU
8695443225000,3.524942,5.5246796897465,3.82975882402573,0.0282177081195611,2.6108382,1.7510452,-0.3631594,253.01315,-53.413593,22.901375,STU
8695448211000,3.529928,7.3855367635263,4.03752457623912,1.17092861899357,2.5363126,1.863139,-0.23579398,252.88138,-53.949543,22.954142,STU
8695453225000,3.534942,9.19675184698562,4.2948126255228,2.363030970254,2.4810293,1.5885551,-0.10293079,252.76892,-54.478947,23.135782,STU
8695458261000,3.539978,10.5300178206671,4.94422596511272,3.90784824353769,2.5302038,1.074512,-0.06811147,252.68333,-54.986435,23.33858,STU
8695463229000,3.544946,11.6774786190101,5.7306175806054,5.514606382183,2.7000244,0.4700608,-0.15118915,252.59851,-55.195362,23.834099,STU
8695468343000,3.55006,11.8947837840663,7.37730919281207,7.64419846202919,2.8478537,0.13439035,-0.24678956,252.56494,-55.378952,24.34961,STU
8695473217000,3.554934,11.6832001167586,9.14781950241833,8.80820822514213,2.905886,0.50426924,-0.45753807,252.39365,-55.36132,24.889124,STU
8695478265000,3.559982,8.38097756334323,12.4623480817989,3.63951168024608,2.9565878,0.98471475,-0.6786713,252.27841,-55.380733,25.39798,STU
8695483213000,3.56493,5.14417146304625,15.711216427832,-1.42679388713619,3.2696562,2.2693644,-0.7458665,251.67157,-55.365818,25.576578,STU
8695488237000,3.569954,4.19589060767263,17.0247937109974,-2.01570965319693,3.5225544,3.4498615,-0.82436264,250.98596,-55.419167,25.623133,STU
8695493241000,3.574958,3.97264986335404,17.7207798136646,-1.19716033354037,3.9871175,4.0234637,-0.9129381,250.12038,-55.602684,25.55156,STU
8695498201000,3.579918,3.66190443236246,18.2420811941748,0.419364955987055,4.120286,4.082107,-1.0167851,249.87045,-56.96642,24.885185,STU
8695503235000,3.584952,3.27940803731078,18.644709752897,2.66401488783798,3.9736784,3.7730093,-1.1010846,249.53995,-58.300694,24.21288,STU
8695508228000,3.589945,2.45643178832263,18.4820923848315,3.59012656902087,3.7717874,3.2366695,-1.099252,249.11317,-59.642017,23.457094,STU
8695513204000,3.594921,1.40945468126003,18.0327043735955,3.84828532279294,3.565315,2.6960537,-1.0393872,248.75793,-60.895905,22.763771,STU
8695518342000,3.600059,0.52547348172471,17.1523223812311,3.38877607177836,3.402214,2.2727242,-0.9431759,248.26402,-61.99204,22.010649,STU
8695523327000,3.605044,-0.238298126401327,16.099808028485,2.59706154241537,3.252552,1.954158,-0.8744536,247.88876,-63.005554,21.34073,STU
8695528225000,3.609942,-0.464331161839538,15.1639021023293,2.08500782124229,3.1853569,1.7672331,-0.8188649,247.50568,-64.02279,20.620235,STU
8695533236000,3.614953,-0.378345823645232,14.2658327374079,1.72195862661756,3.162144,1.6313156,-0.72021013,247.18997,-64.96441,19.981562,STU
8695538235000,3.619952,-0.162475667408548,13.4804102649211,1.52127959345399,3.1419854,1.5198327,-0.6206391,246.93784,-65.935295,19.353167,STU
8695543947000,3.625664,0.179811280731613,12.6641881193685,1.41069454763188,3.0989194,1.3888022,-0.5170974,246.72144,-66.84761,18.784592,STU
8695548214000,3.629931,0.4017137840504,12.1982214119033,1.32998218834255,3.0396655,1.2730432,-0.4260785,246.53513,-67.68435,18.310947,STU
8695553224000,3.634941,0.637631666349109,11.7558751580619,1.23659808754354,3.003319,1.1814134,-0.36102137,246.37427,-68.47494,17.87882,STU
8695558227000,3.639944,0.851163805393214,11.5227413737988,1.12668439752893,3.0042353,1.1010846,-0.30176744,246.24477,-69.153786,17.556238,STU
8695563213000,3.64493,1.04781984946068,11.4431423626201,1.00494491024711,2.9999592,1.0152581,-0.22327125,246.13974,-69.78211,17.271044,STU
8695568246000,3.649963,1.20080654424821,11.4475703349074,0.840450713217794,2.9825497,0.93034774,-0.1414153,246.04489,-70.33323,17.060253,STU
8695573267000,3.654984,1.31434340882131,11.5247755602569,0.640625796477144,2.9565878,0.8399397,-0.061391957,245.9748,-70.83754,16.881432,STU
8695578208000,3.659925,1.46093085132172,11.675994591541,0.493586243209321,2.941927,0.79901177,-0.022907447,245.92256,-71.28414,16.751762,STU
8695583346000,3.665063,1.66326462731545,11.9409552251811,0.411689249659291,2.9422324,0.70096785,0.03726278,245.91156,-71.67473,16.661097,STU
8695588179000,3.669896,1.87378234035732,12.1565895810422,0.374389935656576,2.9856038,0.5513059,0.13530666,245.93756,-72.02206,16.611536,STU
8695593265000,3.674982,2.13001103232754,12.3257976459553,0.403396966151861,3.0106494,0.37812558,0.24831672,245.99988,-72.31444,16.589691,STU
8695598178000,3.679895,2.3994996989901,12.4034607909513,0.373717912603514,3.0112603,0.21105394,0.38240165,246.1239,-72.526855,16.627392,STU
8695603276000,3.684993,2.71998720401939,12.3245715320137,0.235661791838013,2.9684997,0.11301007,0.4822781,246.27994,-72.68153,16.68996,STU
8695608160000,3.689877,2.98457281836104,12.2280835906455,0.0493536890490916,2.8591547,0.08368854,0.56413406,246.43822,-72.74264,16.81203,STU
8695613753000,3.69547,3.20714843694434,12.0779741294936,-0.266393110287012,2.7165177,0.17165314,0.63163465,246.59242,-72.74422,16.955553,STU
8695618272000,3.699989,3.3482606163799,11.9548078193393,-0.485138087013076,2.5589144,0.3023783,0.6826419,246.75131,-72.64648,17.164976,STU
8695623294000,3.705011,3.42687375320028,11.8141317661734,-0.654777073534067,2.3915374,0.44990227,0.72265357,246.88232,-72.50537,17.384247,STU
8695628518000,3.710235,3.50247442014213,11.6688544219289,-0.815035820184772,2.1927009,0.57879484,0.75747293,247.01126,-72.29747,17.646381,STU
8695633310000,3.715027,3.44656535342132,11.5570358992893,-0.633331241447716,1.960572,0.6059783,0.8011498,247.13152,-72.06043,17.915623,STU
8695638508000,3.720225,3.37049599082974,11.4446356787398,-0.407909332048761,1.6887369,0.48930305,0.829555,247.26413,-71.78988,18.203653,STU
8695643263000,3.72498,3.11464049464232,11.4492046197452,0.140352534776763,1.41904,0.14569137,0.8622363,247.46275,-71.50191,18.497835,STU
8695648489000,3.730206,2.83251099050023,11.4491846805874,0.723490615832951,1.1136073,-0.33567044,0.86926126,247.69876,-108.78125,18.780128,STU
8695653236000,3.734953,2.56546089156494,11.3907676062414,1.0280945607251,0.84238315,-0.82650065,0.8390234,248.04416,-109.05853,19.052649,STU
8695658205000,3.739922,2.28592182655347,11.3296185768701,1.34694372907756,0.6386596,-1.359786,0.7626653,248.43622,-109.28484,19.273739,STU
8695663244000,3.744961,2.02785967085286,11.2550908322399,1.4591031995314,0.49174652,-1.8985692,0.61208695,248.97536,-109.474945,19.457462,STU
8695668228000,3.749945,1.77735121904405,11.1790434935333,1.53067708294283,0.45937067,-2.3585508,0.41447207,249.64616,-109.62552,19.599083,STU
8695673228000,3.754945,1.53177731713908,11.0947378805242,1.45462185393681,0.5018258,-2.5476136,0.22876903,250.31549,-109.697876,19.66256,STU
8695678174000,3.759891,1.29116529602763,11.0081173056995,1.31987905578584,0.59986967,-2.8041768,0.14172074,251.13382,-109.74354,19.693844,STU
8695683805000,3.765522,1.37313623423675,10.6818033579115,0.526308257951375,0.6591236,-2.4630086,-0.038179077,251.77286,-109.681885,19.618212,STU
8695688209000,3.769926,1.52442609673177,10.3708184699083,-0.251153589059386,0.88178396,-2.1704042,-0.07941248,252.49304,-109.645134,19.556356,STU
8695693258000,3.774975,1.62613220351409,9.85491511829749,-0.687271520531657,0.99173975,-1.4987578,-0.17501289,252.97574,-109.51592,19.403181,STU
8695698232000,3.779949,1.70068971608603,9.2897212009997,-0.954235525666465,1.2113458,-0.8341365,-0.25137106,253.36252,-109.3969,19.2499,STU
8695703143000,3.78486,1.77430289345653,8.73168595213572,-1.21781820142381,1.412015,-0.25411993,-0.28313604,253.65521,-109.32024,19.117516,STU
8695708169000,3.789886,1.84963985730587,8.1605832926386,-1.4875731450924,1.5396858,0.23762658,-0.2660318,253.76898,-109.25214,18.98835,STU
8695713151000,3.794868,1.81607047112235,7.61410940732053,-1.47066056224469,1.6145169,0.6795876,-0.23640485,253.77817,-109.24132,18.892258,STU
8695718161000,3.799878,1.74815163866532,7.07075879832154,-1.36393099733064,1.6578883,1.0451905,-0.2284636,253.66267,-109.24749,18.806046,STU
8695723161000,3.804878,1.6329129543826,6.65488356738193,-1.21873056605039,1.6853772,1.3041973,-0.23671028,253.43263,-109.30866,18.770937,STU
8695728150000,3.809867,1.5047585963598,6.27499757463359,-1.06311453257017,1.6743816,1.4459181,-0.2507602,253.13422,-109.37956,18.744596,STU
8695733198000,3.814915,1.30493297791602,6.01150926438569,-0.994230415707621,1.6542231,1.5106697,-0.2764165,252.75963,-109.47219,18.741041,STU
8695738169000,3.819886,1.07788372544323,5.80420336018662,-0.964615315987558,1.6169603,1.5183055,-0.28252518,252.36896,-109.569435,18.74305,STU
8695743166000,3.824883,0.984707716364447,5.70837555935394,-1.03042721915379,1.5674802,1.4569136,-0.28680122,251.96106,-109.65445,18.736938,STU
8695748156000,3.829873,0.932619844634364,5.64681689803805,-1.12513244497622,1.5479325,1.3683381,-0.2706133,251.56857,-109.746025,18.735748,STU
8695753169000,3.834886,0.94828631168733,5.64561872331418,-1.23956950928334,1.5066991,1.2562444,-0.24587326,251.19696,-109.81222,18.706404,STU
8695758171000,3.839888,0.986914018460841,5.6649329674428,-1.36028111500857,1.462106,1.1407908,-0.22937989,250.8599,-109.88191,18.678108,STU
8695763150000,3.844867,1.06468317169512,5.788782558158,-1.39948364767765,1.4251486,1.024421,-0.2144137,250.5689,-109.957855,18.644339,STU
8695768177000,3.849894,1.15546422606193,5.94645454287416,-1.41381753250298,1.3735305,0.9660834,-0.21563543,250.30042,-110.0316,18.610422,STU
8695773257000,3.854974,1.20927633522989,5.93224470553612,-1.43929779194745,1.3203852,0.85062987,-0.22815818,250.09143,-110.1201,18.577524,STU
8695778264000,3.859981,1.25017971968779,5.86270903737951,-1.46793011835708,1.2959507,0.75747293,-0.23945917,249.89774,-110.209656,18.544828,STU
8695783302000,3.865019,1.28677844937816,5.8270529300801,-1.38425431692664,1.2932017,0.6582073,-0.26236662,249.73358,-110.30141,18.512459,STU
8695788235000,3.869952,1.31665351469224,5.83701116387015,-1.15521244413997,1.3414601,0.5687156,-0.2678644,249.59833,-110.40098,18.480019,STU
8695793257000,3.874974,1.3872798008542,5.8442913368278,-0.870682564535042,1.4086553,0.46486846,-0.269697,249.49445,-110.51654,18.450542,STU
8695798237000,3.879954,1.49375690918268,5.84892087089885,-0.541992248751699,1.4905112,0.3555236,-0.26328292,249.42227,-110.64426,18.419369,STU
8695803264000,3.884981,1.59373221299272,5.83139718291588,-0.23705010010478,1.5522085,0.25870144,-0.26083946,249.33804,-110.770355,18.396564,STU
8695808263000,3.88998,1.68450304830855,5.78840059485081,0.0352624507394471,1.600467,0.18142697,-0.24831672,249.28433,-110.912025,18.375628,STU
8695813244000,3.894961,1.71609758270484,5.80417284856861,0.253340101032577,1.6126842,0.14630222,-0.2452624,249.19852,-111.05083,18.391283,STU
8695818413000,3.90013,1.67700381828233,5.89213361441264,0.414601991534057,1.5833627,0.14966199,-0.2452624,249.12817,-111.19173,18.407452,STU
8695823227000,3.904944,1.65289023526896,6.02531035036115,0.453174459071469,1.5522085,0.17287487,-0.23273966,249.03049,-111.33717,18.473375,STU
8695828263000,3.90998,1.64372296353355,6.2315731268295,0.34775131273047,1.502423,0.27550024,-0.19761491,248.91364,-111.47624,18.545893,STU
8695833200000,3.914917,1.59617753027282,6.40865102007614,0.221070340690655,1.4679092,0.4633413,-0.13652839,248.72134,-111.59436,18.616446,STU
8695838276000,3.919993,1.46399629111756,6.53642631147467,0.0404225812344784,1.4251486,0.700357,-0.050396383,248.4921,-111.71316,18.707666,STU
8695843192000,3.924909,1.32120195542238,6.66919013395761,-0.137807842200099,1.3726143,0.94897914,0.004886922,248.19312,-111.82651,18.793495,STU
8695848257000,3.929974,1.05344781243568,6.87956811670774,-0.348186084565796,1.323745,1.180497,0.055283304,247.84114,-111.94661,18.908234,STU
8695853232000,3.934949,0.787604906391938,7.08686147172221,-0.552922530588705,1.2809844,1.350623,0.09101892,247.45544,-112.05079,18.988564,STU
8695858262000,3.939979,0.48959823004989,7.303156791818,-0.740378344178807,1.2428054,1.4459181,0.10323623,247.0316,-112.148674,19.080873,STU
8695863213000,3.94493,0.206774363674033,7.51887787762431,-0.921701531823204,1.2223413,1.4856243,0.10903945,246.5613,-112.226974,19.121128,STU
8695869062000,3.950779,0.011920541894823,7.81115858336403,-1.09363139674647,1.210735,1.4474452,0.089186326,246.09134,-112.292564,19.155798,STU
8695873294000,3.955011,-0.120241711666336,8.01346478,-1.20454931795432,1.2373075,1.4089607,0.07513642,245.61563,-112.33482,19.138042,STU
8695878259000,3.959976,-0.224122005519364,8.19761663,-1.25648947967229,1.2476922,1.3002267,0.06811147,245.17581,-112.36677,19.109262,STU
8695883326000,3.965043,-0.299672009608217,8.39497083356643,-1.3035742551049,1.2712106,1.1343768,0.04886922,244.76541,-112.38074,19.03233,STU
8695888239000,3.969956,-0.180399747212325,8.64585335034965,-1.31179992265734,1.2724323,0.9306532,0.022602014,244.40091,-112.38812,18.942894,STU
8695893165000,3.974882,-0.0608118855062063,8.89739971258741,-1.32004735566434,1.2867876,0.7302894,0.013744468,244.08264,-112.382065,18.817617,STU
8695898258000,3.979975,0.168248211556551,9.42934806989247,-1.18654389332935,1.2861768,0.528093,0.03176499,243.82701,-112.374794,18.681763,STU
8695903267000,3.984984,0.416600633959279,10.0120213413978,-1.02415958394066,1.2483032,0.32375857,0.08032878,243.63373,-112.37031,18.541613,STU
8695908265000,3.989982,0.650829375204431,10.8577679523666,-0.844666632282981,1.1985176,0.14660765,0.14813483,243.48784,-112.37176,18.410734,STU
8695913216000,3.994933,0.880024637109768,11.7506745699899,-0.663220374964753,1.1142182,0.017715093,0.226631,243.39197,-112.376915,18.289272,STU
8695918365000,4.000082,1.08505030069051,12.5478514249131,-0.522873147721785,1.0128145,-0.03634648,0.28771752,243.25717,-112.36067,18.190287,STU
8695923329000,4.005046,1.27635522900585,13.2913318690324,-0.396785836154198,0.9282097,-0.028099801,0.31795537,243.1456,-112.34535,18.103102,STU
8695928263000,4.00998,1.43084653797117,14.0521350601175,-0.170817924928991,0.86437434,0.0143553335,0.32925636,242.98087,-112.272026,18.02713,STU
8695933260000,4.014977,1.56881693614522,14.8339673342232,0.110232980234917,0.83016586,0.035430185,0.3222314,242.82358,-112.195595,17.956018,STU
8695938226000,4.019943,1.60300993785238,15.4120125483614,0.419159625333201,0.8078693,0.032986723,0.30451632,242.56946,-112.08057,17.887848,STU
8695943241000,4.024958,1.60779404503437,15.9382648379321,0.739695026329316,0.7883216,0.0076358155,0.26816985,242.3217,-111.95999,17.814026,STU
8695948208000,4.029925,1.52591116078785,16.291992250878,1.00767734186616,0.73792523,-0.05222898,0.23060162,242.00871,-111.775566,17.722942,STU
8695953269000,4.034986,1.41549469686758,16.600238616991,1.26531574486948,0.6420194,-0.13958271,0.18081611,241.72038,-111.57922,17.617384,STU
8695958228000,4.039945,1.28618312087443,16.8460713984748,1.38876163959329,0.5332854,-0.24648413,0.12064589,241.37553,-111.313095,17.474524,STU
8695963204000,4.044921,1.14566750879512,17.0641127869853,1.44690600986274,0.41141775,-0.26053402,0.04886922,241.04094,-111.02968,17.319206,STU
8695968302000,4.050019,1.0298295799738,17.3303928041923,1.52313495432833,0.3145956,-0.27366763,0.01160644,240.67883,-110.6922,17.130106,STU
8695973402000,4.055119,0.926466081636602,17.6158725381437,1.6068101604152,0.20189096,-0.41447207,0.016798794,240.37358,-110.34432,16.931236,STU
8695978224000,4.059941,0.888350431376614,17.786284508829,1.52419973123078,0.045814894,-0.5467244,-0.002443461,240.04733,-109.95183,16.69664,STU
8695983297000,4.065014,0.871278242148818,17.9271296710885,1.37481826489502,-0.031154128,-0.6844745,-0.052534413,239.77777,-109.56656,16.454802,STU
8695988232000,4.069949,0.935991884068083,18.0741177058886,1.33208740837298,-0.16401732,-0.70952,-0.12980886,239.48187,-109.13309,16.189096,STU
8695993229000,4.074946,1.10800590938788,18.2360133212813,1.42315357316841,-0.24678956,-0.84238315,-0.13072516,239.27275,-108.721954,15.927787,STU
8695998197000,4.079914,1.41355505785693,18.3337109967076,1.56175902292727,-0.38423425,-0.97127575,-0.10293079,239.07771,-108.29994,15.657844,STU
8696003232000,4.084949,1.84172130044897,18.3770085807642,1.74457161940537,-0.5198463,-1.0290025,-0.044898596,238.91164,-107.89221,15.403455,STU
8696008856000,4.090573,2.47936470253313,18.2249312535074,1.87219855266952,-0.64599,-1.1414018,0.029932396,238.78899,-107.49989,15.172227,STU
8696013202000,4.094919,3.05923364801247,17.9978497895557,1.92896893982853,-0.84299403,-1.2125676,0.12370021,238.68301,-107.11722,14.970911,STU
8696018268000,4.099985,3.84480778712165,17.7245416553195,1.78867587208596,-1.0711522,-1.2021828,0.24037547,238.57872,-106.78458,14.843093,STU
8696023233000,4.10495,4.73018111843163,17.4476191977688,1.43374642651136,-1.3267993,-1.0494665,0.38545597,238.46649,-106.4756,14.757555,STU
8696028397000,4.110114,5.58032147713055,17.1467919252579,1.08229511971728,-1.5778649,-0.7641924,0.47250426,238.36707,-106.236946,14.76096,STU
8696033232000,4.114949,5.54270361377854,16.7141857111057,0.961917866646356,-1.8289305,-0.41080686,0.49266282,238.21327,-106.015236,14.793023,STU
8696038231000,4.119948,5.50380977739865,16.2669057804858,0.837457496821838,-2.053729,-0.06047566,0.42730024,238.08075,-105.92837,14.942192,STU
8696043227000,4.124944,5.34332584237305,15.8165338783963,0.887075248663885,-2.28036,0.2171626,0.34055737,237.87366,-105.8457,15.092606,STU
8696048211000,4.129928,5.09561338404396,15.3648228056375,1.06193114665106,-2.4953845,0.4025602,0.29749137,237.59854,-105.77236,15.236093,STU
8696053202000,4.134919,4.81590056299496,14.8884996323151,1.24718625611437,-2.6703975,0.51159966,0.28099802,237.28943,-105.72488,15.373296,STU
8696058229000,4.139946,4.51386436069114,14.3933584865782,1.44029140635606,-2.853657,0.5513059,0.27916542,236.95328,-105.69382,15.495921,STU
8696063199000,4.144916,4.34675638500925,14.0638535044291,1.53763443984231,-3.035084,0.5488624,0.27580565,236.59013,-105.678696,15.596122,STU
8696068312000,4.150029,4.24189354798014,13.8064625062786,1.5900659081281,-3.2015448,0.5357288,0.28221974,236.2254,-105.705574,15.689893,STU
8696073257000,4.154974,4.21608748360084,13.7644307292394,1.59406714549895,-3.3976326,0.5122105,0.2910773,235.85843,-74.23811,15.759597,STU
8696078523000,4.16024,4.23619771340843,13.8498994159107,1.56892935823946,-3.4938438,0.5027421,0.32895094,235.4963,-74.12143,15.830434,STU
8696083209000,4.164926,4.2508445352452,14.0154422103049,1.52774375901921,-3.681074,0.49693888,0.35246924,235.14629,-73.95076,15.887875,STU
8696088218000,4.169935,4.26460140108976,14.2447237865405,1.47271629564095,-3.8771617,0.50243664,0.39461896,234.7988,-73.707756,15.952166,STU
8696093213000,4.17493,4.32136591679382,14.4784032438206,1.47616385007629,-4.0613375,0.5235115,0.45142943,234.44409,-73.392975,16.02063,STU
8696098235000,4.179952,4.41920884142,14.7181183069881,1.534869604852,-4.23238,0.52778757,0.5131268,234.09433,-73.00596,16.092255,STU
8696103184000,4.184901,4.50353468856695,14.9471251908277,1.5154834759343,-4.372879,0.50854534,0.56016344,233.74493,-72.56041,16.160204,STU
8696108256000,4.189973,4.57973192913168,15.175717146535,1.43032170821261,-4.460538,0.48288897,0.5891795,233.39677,-72.05533,16.229185,STU
8696113201000,4.194918,4.66975655498148,15.4387254911289,1.25011585496198,-4.4816127,0.5222898,0.61727935,233.0364,-71.49248,16.302979,STU
