timestamp,rel_time,acc_x,acc_y,acc_z,gyro_x,gyro_y,gyro_z,azimuth,pitch,roll,label
6984960646000,0,-0.436501554673484,9.86189285589279,-0.185084155503275,-0.040317107,0.042455133,0.0070249503,308.0931,-79.63181,-6.581915,STD
6984965626000,0.00498,-0.438886299351718,9.86093893899695,-0.184368732274114,-0.039095376,0.038789943,0.004886922,308.09897,-79.699486,-6.580756,STD
6984970694000,0.010048,-0.441313184096555,9.85996816573829,-0.183640667028051,-0.042455133,0.03634648,0.009162978,308.1053,-79.7662,-6.578571,STD
6984975649000,0.015003,-0.443685957164958,9.85901903758188,-0.182928835280964,-0.054367006,0.030543262,0.008246681,308.11432,-79.828125,-6.578398,STD
6984980723000,0.020077,-0.446115715096155,9.85804711502575,-0.182199908079204,-0.05222898,0.030543262,0.008857546,308.12253,-79.89168,-6.5769396,STD
6984985672000,0.025026,-0.448485614978199,9.85709913616681,-0.181488938287814,-0.047647487,0.03176499,0.010995574,308.13232,-79.951645,-6.5753436,STD
6984990647000,0.030001,-0.450867965334467,9.85614617701885,-0.180774233355068,-0.055283304,0.02565634,0.0106901415,308.1446,-80.007484,-6.574205,STD
6984995645000,0.034999,-0.453261329571779,9.85518881223061,-0.180056224258813,-0.062002823,0.027183503,0.014049901,308.15442,-80.06402,-6.5719657,STD
6985000687000,0.040041,-0.455675763842392,9.85422301926096,-0.179331894154108,-0.058948494,0.03145956,0.0061086523,308.16586,-80.1173,-6.573112,STD
6985005660000,0.045014,-0.458057156469873,9.85327044321216,-0.178617476539927,-0.06352998,0.029321533,0.016493361,308.17813,-80.17024,-6.5681257,STD
6985010645000,0.049999,-0.460444295470073,9.85231556856843,-0.177901335014351,-0.05589417,0.0290161,0.01038471,308.18976,-80.22037,-6.570456,STD
6985015628000,0.054982,-0.462830476741487,9.85136107702385,-0.17718548080734,-0.055588737,0.029932396,0.0125227375,308.2012,-80.27022,-6.567657,STD
6985020712000,0.060066,-0.465265023316616,9.85038723897195,-0.176455117012751,-0.05009095,0.036957346,0.01282817,308.21146,-80.31989,-6.567489,STD
6985025609000,0.064963,-0.467610022250213,9.84944922069104,-0.175751617504075,-0.055588737,0.03726278,0.007941248,308.2237,-80.36541,-6.5681624,STD
6985030728000,0.070082,-0.470061329079104,9.84846867840392,-0.175016225634582,-0.054061573,0.03481932,0.009162978,308.23468,-80.41349,-6.5673137,STD
6985035710000,0.075064,-0.472447031486124,9.84751437840892,-0.174300515086854,-0.045814894,0.02443461,0.004886922,308.24844,-80.45855,-6.569259,STD
6985040647000,0.080001,-0.47481118499545,9.84656869814491,-0.17359126920686,-0.050396383,0.03390302,0.010079277,308.25702,-80.502174,-6.568877,STD
6985045647000,0.085001,-0.477205506961548,9.84561095025751,-0.17287297279204,-0.0571159,0.023518313,0.0106901415,308.27472,-80.54412,-6.5700946,STD
6985050662000,0.090016,-0.479262536487327,9.84518728414334,-0.172267378248946,-0.047036625,0.027488936,0.011301007,308.28555,-80.58845,-6.5707603,STD
6985055637000,0.094991,-0.48057445264876,9.8459028766562,-0.171909582988798,-0.049785517,0.026267206,0.01160644,308.30093,-80.62775,-6.570937,STD
6985060644000,0.099998,-0.481894807265905,9.84662307197517,-0.171549486332002,-0.05681047,0.017104227,0.00580322,308.26913,-80.664604,-6.5938854,STD
6985065654000,0.105008,-0.483215952988272,9.84734369880722,-0.171189173919271,-0.051923547,0.018936822,0.013133603,308.2354,-80.70467,-6.612704,STD
6985071368000,0.110722,-0.484722744736298,9.84816558737374,-0.17077823078028,-0.055588737,0.01740966,0.0009162979,308.20737,-80.73522,-6.6376677,STD
6985075674000,0.115028,-0.485858244433008,9.84878495247131,-0.170468549093808,-0.043676864,0.021991149,0.010079277,308.17734,-80.774506,-6.6541433,STD
6985080719000,0.120073,-0.48718861971631,9.84951061362254,-0.170105719528493,-0.04917465,0.018325957,0.008857546,308.15198,-80.80383,-6.6760955,STD
6985085735000,0.125089,-0.488511347649123,9.85023210348073,-0.16974497560389,-0.04795292,0.020158553,0.008552114,308.12457,-80.83773,-6.69494,STD
6985090771000,0.130125,-0.489839349616757,9.85095647009275,-0.169382793306382,-0.054061573,0.025961773,0.0033597588,308.09836,-80.86674,-6.7149878,STD
6985095698000,0.135052,-0.491138608094622,9.85166515839644,-0.169028450141207,-0.047647487,0.015882496,0.0070249503,308.07693,-80.89913,-6.731638,STD
6985100678000,0.140032,-0.49245184276476,9.85238147009775,-0.168670295287833,-0.04428773,0.025045475,0.0021380284,308.04984,-80.925896,-6.752381,STD
6985105689000,0.145043,-0.493773252188868,9.85310224076749,-0.168309910956456,-0.052839845,0.030848695,0.0070249503,308.0271,-80.9535,-6.7683825,STD
6985110689000,0.150043,-0.495091760893826,9.85382142922262,-0.167950317730178,-0.06078109,0.027183503,0.013439035,308.00555,-80.98024,-6.7847867,STD
6985115658000,0.155012,-0.496402094844813,9.85453615870934,-0.167592953981902,-0.05131268,0.036957346,0.007941248,307.97964,-81.00625,-6.803244,STD
6985120762000,0.160116,-0.497748028530833,9.85527030628434,-0.167225881216516,-0.045814894,0.032070424,0.009162978,307.9595,-81.03205,-6.8169646,STD
6985125783000,0.165137,-0.499072074972352,9.85599251533099,-0.166864777698687,-0.05681047,0.028099801,0.016187929,307.93726,-81.05584,-6.8304152,STD
6985130710000,0.170064,-0.500371333450217,9.85670120363468,-0.166510434533512,-0.06261369,0.028099801,0.017715093,307.91623,-81.07987,-6.844608,STD
6985135697000,0.175051,-0.501686414032542,9.85741852219983,-0.166151776249621,-0.056505036,0.03023783,0.008857546,307.89667,-81.10257,-6.8593116,STD
6985141517000,0.180871,-0.503221158165113,9.85825565756161,-0.165733209734233,-0.05131268,0.03359759,0.014049901,307.87708,-81.126785,-6.8692317,STD
6985145640000,0.184994,-0.504308400443221,9.85884870036172,-0.165436689159843,-0.054367006,0.025350908,0.016493361,307.86127,-81.147415,-6.8817625,STD
6985150653000,0.190007,-0.505630337270811,9.85956975870684,-0.165076160991176,-0.06047566,0.030543262,0.013133603,307.84146,-81.1676,-6.8945637,STD
6985155642000,0.194996,-0.506945945256618,9.86028736494737,-0.164717358869995,-0.057421334,0.029932396,0.01863139,307.82605,-81.19078,-6.903404,STD
6985160647000,0.200001,-0.508265772470281,9.86100727259096,-0.16435740605049,-0.057726767,0.025961773,0.0143553335,307.81116,-81.20875,-6.9156775,STD
6985165624000,0.204978,-0.509578216035195,9.8617231527792,-0.163999466953052,-0.06169739,0.028405234,0.0143553335,307.795,-81.22823,-6.9250007,STD
6985170783000,0.210137,-0.510938653316971,9.86246521142721,-0.163628438662178,-0.05681047,0.022907447,0.014966198,307.783,-81.24785,-6.934717,STD
6985175755000,0.215109,-0.512249778373181,9.863180372427,-0.163270859157966,-0.049785517,0.028710667,0.015271631,307.76764,-81.26657,-6.944553,STD
6985180670000,0.220024,-0.513545872430154,9.8638873346784,-0.162917379016534,-0.058643065,0.030543262,0.015577064,307.75555,-81.28303,-6.9536576,STD
6985185654000,0.225008,-0.514860161907256,9.86460422173048,-0.162558936488579,-0.055283304,0.028710667,0.0125227375,307.7435,-81.301575,-6.963397,STD
6985190658000,0.230012,-0.516179725419177,9.86532398553638,-0.162199055587719,-0.05467244,0.019242255,0.016187929,307.73352,-81.31927,-6.970682,STD
6985195643000,0.234997,-0.51749427859802,9.86604101642615,-0.161840541141119,-0.053450707,0.029321533,0.02107485,307.71918,-81.33701,-6.978629,STD
6985200623000,0.239977,-0.518807513268158,9.86675732812746,-0.161482386287745,-0.055588737,0.03268129,0.015271631,307.71024,-81.35214,-6.98796,STD
6985205651000,0.245005,-0.520133405621863,9.86748054403795,-0.161120779339399,-0.0421497,0.019547688,0.014660766,307.70358,-81.3722,-6.993956,STD
6985210748000,0.250102,-0.521477493395697,9.86821368474912,-0.160754210004531,-0.043676864,0.020158553,0.009468411,307.69287,-81.3866,-7.003133,STD
6985215675000,0.255029,-0.522776751873562,9.86892237305281,-0.160399866839356,-0.053450707,0.0290161,0.014049901,307.68393,-81.40361,-7.0093365,STD
6985220749000,0.260103,-0.524114774507353,9.86965220549708,-0.160034951633328,-0.05100725,0.02565634,0.009468411,307.67923,-81.41871,-7.019066,STD
6985225678000,0.265032,-0.5254145603887,9.87036118147615,-0.159680464630862,-0.06078109,0.023518313,0.0067195175,307.6719,-81.43129,-7.026967,STD
6985230680000,0.270034,-0.52673359649714,9.87108065760667,-0.159320727567293,-0.054061573,0.028405234,0.0030543262,307.66406,-81.44532,-7.0362606,STD
6985235692000,0.275046,-0.52805526962299,9.8718015721141,-0.158960271317271,-0.05100725,0.02107485,0.00061086525,307.66077,-81.45653,-7.045346,STD
6985240677000,0.280031,-0.529369822801832,9.87251860300387,-0.158601756870671,-0.053145275,0.018020526,0.0033597588,307.65515,-81.46808,-7.053905,STD
6985245680000,0.285034,-0.530689122612013,9.87323822297208,-0.158241947888456,-0.052534413,0.022907447,0.007941248,307.64975,-81.48016,-7.062339,STD
6985250664000,0.290018,-0.532003412089115,9.87395511002416,-0.157883505360502,-0.0571159,0.018936822,0.010995574,307.648,-81.491104,-7.0698647,STD
6985255683000,0.295037,-0.533326931127151,9.87467703139542,-0.157522545679963,-0.04520403,0.0290161,0.008246681,307.6412,-81.50419,-7.0779443,STD
6985260677000,0.300031,-0.534643857621663,9.87539535682441,-0.157163383965556,-0.057726767,0.029321533,0.0061086523,307.59537,-81.51811,-7.0921807,STD
6985265662000,0.305016,-0.535958410800506,9.87611238771418,-0.156804869518956,-0.064751714,0.020463986,0.0009162979,307.55075,-81.53281,-7.107507,STD
6985270691000,0.310045,-0.537284566855952,9.87683574746236,-0.156443190651964,-0.056199603,0.022907447,0.0036651916,307.5039,-81.54888,-7.120839,STD
6985275683000,0.315037,-0.538600965946982,9.87755378521597,-0.156084172774848,-0.06169739,0.029932396,0.00030543262,307.45978,-81.55861,-7.136679,STD
6985280925000,0.320279,-0.539983290473259,9.87830778239233,-0.155707175236417,-0.05681047,0.025961773,0.0030543262,307.41907,-81.57297,-7.149225,STD
6985285724000,0.325078,-0.541248795128278,9.87899805947157,-0.155362037657834,-0.05589417,0.025350908,0.0061086523,307.37665,-81.5848,-7.1622734,STD
6985290690000,0.330044,-0.542558337974042,9.87971235744521,-0.155004889665494,-0.054061573,0.028099801,-0.0018325958,307.3357,-81.59512,-7.1771135,STD
6985295690000,0.335044,-0.543876846678999,9.88043154590035,-0.154645296439215,-0.052534413,0.031154128,-0.00030543262,307.29565,-81.60822,-7.187865,STD
6985300667000,0.340021,-0.545189290243914,9.88114742608859,-0.154287357341778,-0.06047566,0.023823744,0.0030543262,307.25906,-81.61839,-7.199646,STD
6985305702000,0.345056,-0.546517028509806,9.88187164886291,-0.153925246962915,-0.064446285,0.020463986,0.0030543262,307.240132259932,-81.622068997804,-7.20705928109403,STD
6985310685000,0.350039,-0.547831054285167,9.8825883920773,-0.153566876353605,-0.06780604,0.021685716,-0.0067195175,307.2214,-81.62571,-7.214396,STD
6985315663000,0.355017,-0.549143761551823,9.88330441610323,-0.153208865337522,-0.06872234,0.02443461,-0.007330383,307.18518,-81.63562,-7.225031,STD
6985320721000,0.360075,-0.550477564957758,9.88403194714445,-0.152845100829818,-0.07147124,0.02687807,-0.007330383,307.15082,-81.6418,-7.2376842,STD
6985325682000,0.365036,-0.551785789294817,9.88474552592963,-0.152488312430705,-0.07666359,0.016493361,-0.007941248,307.12027,-81.64709,-7.249935,STD
6985330695000,0.370049,-0.553107726122408,9.88546658427476,-0.152127784262037,-0.07941248,0.019242255,-0.01282817,307.08627,-81.65117,-7.2631993,STD
6985335711000,0.375065,-0.554430454055221,9.88618807413295,-0.151767040337434,-0.0729984,0.01160644,-0.010995574,307.05893,-81.65728,-7.2737775,STD
6985340684000,0.380038,-0.555741842813172,9.88690337897043,-0.151409388914578,-0.076358154,0.016493361,-0.014660766,307.02823,-81.65905,-7.2870975,STD
6985345684000,0.385038,-0.55706035151813,9.88762256742556,-0.151049795688299,-0.08155051,0.021991149,-0.020463986,307.0003,-81.66134,-7.299878,STD
6985350654000,0.390008,-0.558370949170858,9.88833744074997,-0.150692360021378,-0.09285152,0.017104227,-0.011301007,306.9745,-81.665184,-7.3088,STD
6985355688000,0.395042,-0.559698423735009,9.8890615196866,-0.15033032156116,-0.106595986,0.014966198,-0.015577064,306.94745,-81.66325,-7.322821,STD
6985360681000,0.400035,-0.56101508652778,9.8897797012779,-0.149971231765398,-0.101098195,0.015577064,-0.0067195175,306.92123,-81.66811,-7.329954,STD
6985365673000,0.405027,-0.562331485618809,9.8904977390315,-0.149612213888281,-0.111177474,-0.003970624,-0.019547688,306.90262,-81.662636,-7.343553,STD
6985370711000,0.410065,-0.563660014989925,9.8912223933189,-0.149249887753483,-0.10293079,0.0125227375,-0.020463986,306.87366,-81.66572,-7.3515253,STD
6985375676000,0.41503,-0.564969294133947,9.89193654745485,-0.148892811679788,-0.10934488,0.008246681,-0.02565634,306.85712,-81.66139,-7.363099,STD
6985380728000,0.420082,-0.566301515329437,9.89266321546992,-0.148529478683956,-0.12095132,0.00580322,-0.021380283,306.83572,-81.65985,-7.3720994,STD
6985385717000,0.425071,-0.567617123315243,9.89338082171045,-0.148170676562775,-0.12492194,0.013744468,-0.025961773,306.81335,-81.6552,-7.3847036,STD
6985390687000,0.430041,-0.568927720967971,9.89409569503486,-0.147813240895853,-0.12736541,-0.017104227,-0.029626964,306.80325,-81.65081,-7.3945427,STD
6985396382000,0.435736,-0.570429502382918,9.89491485068526,-0.147403664211122,-0.12614368,-0.007941248,-0.03634648,306.78,-81.64478,-7.406966,STD
6985400622000,0.439976,-0.571547597764722,9.89552472249521,-0.147098729155237,-0.12186762,-0.009773844,-0.042455133,306.76913,-81.63843,-7.418964,STD
6985405654000,0.445008,-0.572874544925391,9.89624851375646,-0.14673683453231,-0.12461651,-0.0012217305,-0.03268129,306.75287,-81.63403,-7.428187,STD
6985410644000,0.449998,-0.574190416612939,9.89696626383469,-0.146377960492484,-0.12950343,-0.0009162979,-0.035430185,306.74017,-81.6256,-7.4419684,STD
6985415630000,0.454984,-0.575505233493523,9.89768343856215,-0.146019374127239,-0.13805555,-0.01160644,-0.03573562,306.72833,-81.619774,-7.451733,STD
6985420700000,0.460054,-0.57684220132035,9.89841269565566,-0.145654746595792,-0.14294247,-0.019242255,-0.039095376,306.71603,-81.61269,-7.4627175,STU
6985425688000,0.465042,-0.578157545604416,9.8991301580585,-0.145296016393256,-0.14202617,-0.002443461,-0.035124753,306.6999,-81.60746,-7.4714684,STU
6985430662000,0.470016,-0.579469198064108,9.89984560673367,-0.144938293051754,-0.14294247,-0.004886922,-0.036957346,306.6919,-81.59946,-7.4818444,STU
6985435702000,0.475056,-0.580798254838705,9.90057054869645,-0.144575823079665,-0.14935656,0.014966198,-0.03726278,306.67282,-81.59267,-7.4909263,STU
6985440613000,0.479967,-0.582093294088714,9.90127693559708,-0.144222630612814,-0.16493362,0.009162978,-0.03940081,306.66223,-81.584045,-7.50005,STU
6985445612000,0.484966,-0.583411539091931,9.90199598021453,-0.14386310930518,-0.17104226,0.013439035,-0.040317107,306.64337,-81.576485,-7.508986,STU
6985450659000,0.490013,-0.583477347724561,9.9094969227544,-0.139000240035782,-0.172264,0.014966198,-0.043982297,306.62738,-81.566795,-7.5186496,STU
6985455615000,0.494969,-0.581817000295749,9.92610039704251,-0.128089393853735,-0.16768251,0.027488936,-0.04917465,306.60736,-81.55698,-7.528781,STU
6985460609000,0.499963,-0.58014392219658,9.9428311780342,-0.117094889044787,-0.17592919,0.03634648,-0.041233405,306.5885,-81.54044,-7.543789,STU
6985466417000,0.505771,-0.578198139737634,9.96228900262366,-0.104308328385923,-0.17654006,0.036651913,-0.043676864,306.56934,-81.52229,-7.5625057,STU
6985470685000,0.510039,-0.576768284445833,9.97658755554167,-0.0949121436593337,-0.18906279,0.031154128,-0.053145275,306.5497,-81.50252,-7.580264,STU
6985475711000,0.515065,-0.575084485782151,9.99342554217849,-0.083847189480365,-0.17715092,0.025961773,-0.0580322,306.5304,-81.4871,-7.596671,STU
6985480689000,0.520043,-0.573416767965238,10.0101027203476,-0.0728879093564282,-0.17623462,0.03268129,-0.062308256,306.5098,-81.46723,-7.61492,STU
6985485675000,0.525029,-0.571746370007196,10.026806699928,-0.0619110168899861,-0.18173242,0.03023783,-0.06841691,306.49387,-81.44714,-7.634021,STU
6985490638000,0.529992,-0.570083677454898,10.043433625451,-0.0509847599082468,-0.18081611,0.03970624,-0.064446285,306.47287,-81.4303,-7.6510005,STU
6985495658000,0.535012,-0.568401888897062,10.0602515110294,-0.0399330149861571,-0.18142697,0.03573562,-0.07360926,306.45728,-81.40848,-7.6723337,STU
6985500654000,0.540008,-0.566728140762611,10.0769889923739,-0.0289341070915833,-0.18234327,0.036651913,-0.076358154,306.43774,-81.39018,-7.690176,STU
6985505616000,0.54497,-0.565065783227954,10.0936125677205,-0.0180100516526572,-0.18112154,0.035430185,-0.076052725,306.42053,-81.37136,-7.7088075,STU
6985510646000,0.55,-0.563380644493708,10.1104639550629,-0.00693629130243578,-0.19272798,0.016798794,-0.07849618,306.40857,-81.35021,-7.7278495,STU
6985515681000,0.555035,-0.561693830671258,10.1273320932874,0.00414847676185146,-0.19272798,0.029626964,-0.09315695,306.38852,-81.32846,-7.750076,STU
6985520737000,0.560091,-0.559999981478346,10.1442705852165,0.0152794772252151,-0.18967366,0.038789943,-0.09132435,306.37488,-81.31006,-7.7670784,STU
6985525684000,0.565038,-0.558342649208304,10.160843907917,0.0261705095219438,-0.18967366,0.04642576,-0.09285152,306.35864,-81.28759,-7.78855,STU
6985530664000,0.570018,-0.556674261356108,10.1775277864389,0.0371341927315069,-0.19272798,0.035430185,-0.09285152,306.34546,-81.26687,-7.8080025,STU
6985536291000,0.575645,-0.554789117090184,10.1963792290982,0.049522274141188,-0.19730948,0.032375857,-0.1001819,306.3284,-81.24455,-7.829431,STU
6985540696000,0.58005,-0.553313364381565,10.2111367561843,0.0592200702331811,-0.19914207,0.03940081,-0.1020145,306.3118,-81.22446,-7.8484497,STU
6985545686000,0.58504,-0.55164162635296,10.2278541364704,0.0702057688708759,-0.20616703,0.06994407,-0.093767814,306.28955,-81.20473,-7.86623,STU
6985550674000,0.590028,-0.549970558359637,10.2445648164036,0.0811870644229443,-0.2125811,0.054061573,-0.108123146,306.27948,-81.179474,-7.889361,STU
6985555670000,0.595024,-0.548296810225185,10.2613022977481,0.0921859723175181,-0.22113322,0.06505715,-0.10567969,306.25287,-81.160324,-7.905627,STU
6985560695000,0.600049,-0.546613346579145,10.2781369342086,0.103248724953674,-0.22907446,0.061391957,-0.10354166,306.23575,-81.137634,-7.9245877,STU
6985565672000,0.605026,-0.544945963779872,10.2948107622013,0.114205803534797,-0.21868975,0.065973446,-0.10781772,306.21356,-81.116135,-7.944174,STU
6985570771000,0.610125,-0.543237708828398,10.311893311716,0.125431470339127,-0.22999077,0.07086037,-0.11484267,306.19272,-81.09163,-7.9630265,STU
6985575683000,0.615037,-0.54159210217579,10.3283493782421,0.136245448637395,-0.24587326,0.04642576,-0.13347405,306.1798,-81.06468,-7.9850855,STU
6985580670000,0.620024,-0.539921369200108,10.3450567079989,0.14722454264665,-0.23273966,0.04886922,-0.118202426,306.15756,-81.04786,-7.999207,STU
6985585755000,0.625109,-0.538217804495607,10.3620923550439,0.158419387851596,-0.23915374,0.07574729,-0.10048734,306.13593,-81.02351,-8.016947,STU
6985590700000,0.630054,-0.536561142260847,10.3786589773915,0.169306017062698,-0.2507602,0.08552113,-0.108123146,306.11896,-80.99854,-8.036459,STU
6985595686000,0.63504,-0.534890744302806,10.3953629569719,0.18028290952914,-0.25442538,0.0842994,-0.10873401,306.09735,-80.980896,-8.0485,STU
6985600671000,0.640025,-0.533220681362405,10.4120635863759,0.191257600452769,-0.25167647,0.08032878,-0.118507855,306.07446,-80.959175,-8.064704,STU
6985605623000,0.644977,-0.531561674004158,10.4286536599584,0.202159640463564,-0.26511553,0.0852157,-0.12492194,306.04977,-80.93648,-8.079509,STU
6985610686000,0.65004,-0.529865479687759,10.4456156031224,0.213306051726619,-0.2660318,0.08032878,-0.13225232,306.02966,-80.91393,-8.096276,STU
6985615663000,0.655017,-0.528198096888487,10.4622894311151,0.224263130307743,-0.27000242,0.09010262,-0.14202617,306.0045,-80.887985,-8.115121,STU
6985620784000,0.660138,-0.52648247154891,10.4794456845109,0.235537231053962,-0.27885997,0.07513642,-0.16462818,305.98865,-80.85716,-8.138225,STU
6985625683000,0.665037,-0.524841220125636,10.4958581987436,0.246322589295659,-0.28802297,0.06627888,-0.183565,305.96878,-80.825325,-8.162441,STU
6985630644000,0.669998,-0.52317919760862,10.5124784239138,0.257244443191772,-0.29565877,0.07880162,-0.17684549,305.94733,-80.794586,-8.184819,STU
6985635720000,0.675074,-0.521478648062888,10.5294839193711,0.268419474511399,-0.30604348,0.13469578,-0.18142697,305.91678,-80.756,-8.21536,STU
6985640607000,0.679961,-0.519841416851306,10.5458562314869,0.279178414239338,-0.3203988,0.15149458,-0.19730948,305.8943,-80.71608,-8.245499,STU
6985645686000,0.68504,-0.518139862252651,10.5628717774735,0.290360050187404,-0.31856623,0.17562376,-0.22143865,305.8545,-80.67509,-8.279372,STU
6985650670000,0.690024,-0.540460776969697,10.5807273030303,0.329577591515152,-0.33169982,0.18173242,-0.23365596,305.81586,-80.63078,-8.312957,STU
6985655690000,0.695044,-0.598340326716422,10.6004207556575,0.41075305590984,-0.34697145,0.204029,-0.2510656,305.76706,-80.5807,-8.354177,STU
6985660670000,0.700024,-0.6557586848317,10.6199572883434,0.491281703855169,-0.3707952,0.20830505,-0.28130344,305.6136,-80.51641,-8.409951,STU
6985665680000,0.705034,-0.713522936670563,10.6396115109852,0.572295464137518,-0.37904188,0.22632557,-0.31673363,305.45377,-80.44849,-8.470492,STU
6985670760000,0.710114,-0.772094273864461,10.6595403435243,0.654441153206246,-0.41080686,0.20158553,-0.36102137,305.30936,-80.366714,-8.538703,STU
6985675643000,0.714997,-0.828394242273477,10.6786963453526,0.733401271261877,-0.42485678,0.19364429,-0.3866777,305.15875,-80.284546,-8.609568,STU
6985680691000,0.720045,-0.886596626162216,10.6984996419387,0.815029507171118,-0.4352415,0.2171626,-0.39828414,305.01004,-80.19396,-8.686088,STU
6985685710000,0.725064,-0.944464646118155,10.7181891715673,0.896188801154572,-0.4746423,0.24801129,-0.4156938,304.86523,-80.09286,-8.768338,STU
6985690653000,0.730007,-1.00145640197434,10.7375805533076,0.976119143884243,-0.5143485,0.2846632,-0.43310347,304.71533,-79.990555,-8.851311,STU
6985695655000,0.735009,-1.05912841548692,10.7572033919612,1.05700354087672,-0.5702427,0.30665436,-0.47128254,304.56482,-79.87452,-8.942183,STU
6985700681000,0.740035,-1.11707714397836,10.7769203825795,1.13827602773881,-0.63194007,0.32436943,-0.50701815,304.4086,-79.75213,-9.034577,STU
6985705651000,0.745005,-1.17438020418577,10.7964176852801,1.2186429715718,-0.6942484,0.3399465,-0.54183745,304.2508,-79.616585,-9.134296,STU
6985710654000,0.750008,-1.23206374748913,10.8160444469322,1.29954353897551,-0.76174897,0.36560285,-0.58093286,304.08914,-79.46609,-9.242091,STU
6985715663000,0.755017,-1.28981646953721,10.8356947465755,1.38054112884663,-0.84604836,0.3930918,-0.61666846,303.92648,-79.30135,-9.355048,STU
6985721471000,0.760825,-1.35678149442346,10.8584795220454,1.47445887729371,-0.93737274,0.43096542,-0.6597345,303.75784,-79.11947,-9.477657,STU
6985725686000,0.76504,-1.4053795625873,10.8750149608548,1.54261716064503,-1.0198395,0.45937067,-0.70371675,303.5882,-78.923,-9.606426,STU
6985730644000,0.769998,-1.46254426530528,10.8944651875731,1.62279005954321,-1.1093313,0.48624873,-0.75136423,303.41263,-78.70646,-9.744395,STU
6985735834000,0.775188,-1.52238387948566,10.9148255499505,1.70671449384768,-1.1957687,0.50243664,-0.81000733,303.23694,-78.47071,-9.893129,STU
6985740569000,0.779923,-1.57697743885832,10.9334009479963,1.78328139104067,-1.2886202,0.5186246,-0.8481864,303.05765,-78.22043,-10.044667,STU
6985745569000,0.784923,-1.63462639278932,10.9530159406528,1.86413344721068,-1.3723087,0.54519725,-0.8979719,302.8762,-77.94813,-10.210913,STU
6985750669000,0.790023,-1.69342832579894,10.9730232331625,1.94660254450409,-1.4498887,0.5674938,-0.93737274,302.69556,-77.66291,-10.379146,STU
6985755608000,0.794962,-1.75037396249198,10.9923989229086,2.02646820558883,-1.5183055,0.5885687,-0.9599747,302.51205,-77.36558,-10.550981,STU
6985760607000,0.799961,-1.8080113866322,11.0120099925666,2.1073040913476,-1.5683966,0.59773165,-0.99296147,302.33066,-77.0547,-10.730508,STU
6985765583000,0.804937,-1.86538362558433,11.0315308332584,2.18776805764799,-1.6148223,0.61269784,-1.0048733,302.14496,-76.74094,-10.90455,STU
6985770615000,0.809969,-1.92340153282049,11.0512713618679,2.26913756697749,-1.6545285,0.6224717,-1.0140363,301.96252,-76.42092,-11.08039,STU
6985775606000,0.81496,-1.98094671863442,11.0708510475377,2.34984408944639,-1.681712,0.61636305,-1.0173961,301.78394,-76.10188,-11.250998,STU
6985780604000,0.819958,-2.03857261298384,11.0904581941972,2.43066380479393,-1.7058412,0.6078109,-1.0296134,301.60718,-75.78048,-11.420189,STU
6985785604000,0.824958,-2.09622156691485,11.1100731868537,2.51151586096394,-1.7302758,0.5919284,-1.0235047,301.43683,-75.46567,-11.577934,STU
6985790835000,0.830189,-2.15653390251746,11.130594392171,2.59610328212901,-1.7580702,0.56779927,-1.0079277,301.27435,-75.153175,-11.729203,STU
6985795580000,0.834934,-2.21124275979798,11.149209020202,2.67283188343434,-1.7858646,0.52595496,-0.99387777,301.12408,-74.84492,-11.871375,STU
6985800773000,0.840127,-2.27111696335072,11.1695811515751,2.75680482897251,-1.8197676,0.46761733,-0.98899084,300.98773,-74.53926,-12.00385,STU
6985805648000,0.845002,-2.32732469343344,11.1887057694152,2.83563558373827,-1.8771889,0.39828414,-0.9492846,300.86633,-74.24202,-12.114337,STU
6985810646000,0.85,-2.38495058778287,11.2083129160747,2.91645529908581,-1.9281962,0.3381139,-0.92087936,300.761,-73.944756,-12.218872,STU
6985815624000,0.854978,-2.44234588631658,11.2278416027635,2.99695160620867,-1.9633209,0.28099802,-0.8924741,300.67377,-73.654564,-12.304043,STU
6985820701000,0.860055,-2.50088263413812,11.247758666307,3.0790487840437,-1.9990565,0.22479841,-0.87872964,300.60345,-73.363304,-12.377882,STU
6985825707000,0.865061,-2.55860076681384,11.2673971969547,3.15999786268111,-2.0140228,0.17256944,-0.86467975,300.54694,-73.080765,-12.4368305,STU
6985830674000,0.870028,-2.61586923764889,11.2868827306597,3.2403162952804,-2.0470095,0.12736541,-0.85154617,300.50354,-72.79566,-12.485795,STU
6985835685000,0.875039,-2.67364501927854,11.3065408763001,3.32134622597398,-2.068695,0.090713486,-0.8194757,300.47003,-72.521545,-12.519706,STU
6985840615000,0.879969,-2.73048688785451,11.3258812590594,3.40106635335761,-2.0867157,0.07513642,-0.7779369,300.441,-72.25096,-12.542883,STU
6985845683000,0.885037,-2.78891986755897,11.3457630156161,3.48301799749153,-2.1245892,0.07269296,-0.73639804,300.4154,-71.98286,-12.553128,STU
6985850620000,0.889974,-2.82841380233087,11.2213498800455,3.61360837464468,-2.1578815,0.06780604,-0.6591236,300.38855,-71.73127,-12.5385895,STU
6985855687000,0.895041,-2.83760953834565,10.8351305997726,3.83890282677658,-2.1966715,0.04917465,-0.57787853,300.36176,-71.483,-12.508605,STU
6985860630000,0.899984,-2.83817532665528,10.4800047334472,4.05424131994874,-2.26631,0.0106901415,-0.47739118,300.28394,-71.00659,-12.575288,STU
6985865649000,0.905003,-2.81353656040154,10.1843403959846,4.25956387180692,-2.3267858,-0.03940081,-0.3707952,300.20575,-70.54692,-12.610814,STU
6985870652000,0.910006,-2.78897633972661,9.88961860273387,4.46423187876976,-2.3979516,-0.07544186,-0.27855456,300.07388,-70.02832,-12.655729,STU
6985875647000,0.915001,-2.82461985984439,9.72719825156689,4.6943967160147,-2.4517076,-0.13500121,-0.22999077,299.95505,-69.51669,-12.673677,STU
6985880714000,0.920068,-2.87140985882353,9.58530062895928,4.92445773152338,-2.528066,-0.21502456,-0.13164146,299.83722,-69.01348,-12.644743,STU
6985885785000,0.925139,-2.97884147960784,9.57065056349925,5.08072203700352,-2.56991,-0.3051272,-0.0580322,299.6844,-68.45901,-12.626009,STU
6985890665000,0.930019,-3.07845229784081,9.5612340784179,5.2136302520954,-2.6236663,-0.40653083,0.0015271631,299.49194,-67.85435,-12.605343,STU
6985895679000,0.935033,-3.13500518858573,9.60836144636373,5.13822616812249,-2.6416867,-0.47250426,0.039095376,299.3061,-67.25954,-12.562974,STU
6985900836000,0.94019,-3.18776200645741,9.65900846128392,5.05462703493429,-2.617252,-0.5170974,0.06719518,299.08972,-66.63771,-12.531153,STU
6985905690000,0.945044,-3.17018205478869,9.73372343944408,4.90080250372506,-2.5607471,-0.5549711,0.0711658,298.88446,-66.02517,-12.487691,STU
6985910649000,0.950003,-3.15222181986386,9.81005462541363,4.74365049501749,-2.4758368,-0.59498274,0.08674286,298.6273,-65.431656,-12.464552,STU
6985915640000,0.954994,-3.18976192548788,9.70358199408634,4.60096761661739,-2.3817637,-0.6282749,0.076052725,298.3792,-64.85628,-12.441584,STU
6985920681000,0.960035,-3.2325856328701,9.5798688187463,4.45822156098955,-2.268448,-0.67011917,0.0580322,298.14197,-64.31329,-12.4090605,STU
6985925696000,0.96505,-3.23301740757617,9.40950024430414,4.39631953799067,-2.1493294,-0.70341134,0.02443461,297.82803,-63.814,-12.41474,STU
6985930604000,0.969958,-3.22871669903925,9.2374696574252,4.34471054155915,-2.0176878,-0.7275405,0.00061086525,297.52737,-63.35126,-12.415716,STU
6985935636000,0.97499,-3.19555290145156,8.97902404596613,4.40652587063217,-1.8875736,-0.7693848,-0.017715093,297.198,-62.911194,-12.458,STU
6985940636000,0.97999,-3.1502225133165,8.68689508835595,4.51733343348059,-1.7867808,-0.8142834,-0.03634648,296.88474,-62.5003,-12.499033,STU
6985945643000,0.984997,-3.1184004860265,8.39318288706487,4.65336772685918,-1.6936239,-0.89919364,-0.045814894,296.53983,-62.098663,-12.573235,STU
6985950628000,0.989982,-3.0900735883307,8.10047090427215,4.79500265901899,-1.6233743,-0.97249746,-0.03390302,296.2119,-61.72396,-12.637198,STU
6985955617000,0.994971,-3.02355730895899,7.78421334756196,4.84676889543939,-1.5561792,-1.0106765,0.004276057,295.8275,-61.33151,-12.726671,STU
6985960643000,0.999997,-2.945468489653,7.45884356156827,4.87279845657503,-1.4874569,-1.0296134,0.040317107,295.46713,-60.965504,-12.800998,STU
6985965658000,1.005012,-2.90255074316133,7.16710432124932,4.93989585664313,-1.4306464,-1.0482447,0.080634214,295.0577,-60.564407,-12.897205,STU
6985970739000,1.010093,-2.88669211694731,6.89750657164584,5.04033411705595,-1.4065173,-1.0384709,0.11056661,294.65607,-60.182873,-12.981626,STU
6985975680000,1.015034,-2.87584308511384,6.76389240928196,5.18470863292469,-1.3875804,-1.0042624,0.12370021,294.27643,-59.774097,-13.068334,STU
6985980712000,1.020066,-2.86646563634948,6.67480706217163,5.34881332535513,-1.3866642,-0.9633345,0.12675454,293.9016,-59.376373,-13.146748,STU
6985985703000,1.025057,-2.78417450793418,6.68119198560094,5.47743803056127,-1.398576,-0.9416488,0.13927728,293.5523,-58.935482,-13.232442,STU
6985990697000,1.030051,-2.66705584020962,6.73272425418748,5.58987175981977,-1.3924674,-0.90102625,0.16249016,293.19547,-58.50882,-13.317209,STU
6985995678000,1.035032,-2.49115790824732,6.76372958212246,5.61304109528009,-1.4104879,-0.8414669,0.18997909,292.86295,-58.036484,-13.400887,STU
6986000718000,1.040072,-2.27833571363864,6.7830769395731,5.58402000859806,-1.4138476,-0.80909103,0.22693644,292.53006,-57.581554,-13.473287,STU
6986005664000,1.045018,-2.05491749369204,6.79919028075003,5.49059322680118,-1.409877,-0.7672467,0.2574797,292.24884,-57.126778,-13.503807,STU
6986010690000,1.050044,-1.81947615497809,6.81390540283298,5.35815769145012,-1.3863586,-0.74006325,0.2929099,291.96027,-56.688175,-13.524373,STU
6986015640000,1.054994,-1.59825779762306,6.78407931949094,5.18928354298306,-1.3622295,-0.7031059,0.32528573,291.7759,-56.244633,-13.501651,STU
6986020654000,1.060008,-1.37949653566406,6.73176686755472,4.99905619674161,-1.310306,-0.6609562,0.36132678,291.57672,-55.825108,-13.474472,STU
6986025652000,1.065006,-1.10625450135684,6.57846013216797,4.76958458531247,-1.2641857,-0.5983425,0.4092797,291.41962,-55.445164,-13.398282,STU
6986030639000,1.069993,-0.803529870684362,6.37033687140735,4.51889075748242,-1.2177598,-0.5476407,0.44440445,291.24957,-55.086044,-13.3229265,STU
6986035734000,1.075088,-0.671460538045943,6.24076484437928,4.44857738847507,-1.1722504,-0.4728097,0.47769663,291.09503,-54.77492,-13.213618,STU
6986040691000,1.080045,-0.643617572983382,6.16187634565005,4.48570124821114,-1.1313224,-0.40530908,0.49571714,290.9249,-54.480274,-13.108897,STU
6986045680000,1.085034,-0.629247090504371,6.1094010529991,4.577296884256,-1.0781772,-0.32834008,0.50793445,290.774,-54.234528,-12.961959,STU
6986050613000,1.089967,-0.624500546306641,6.07617529317794,4.70545377584648,-1.0525209,-0.2660318,0.52015173,290.6056,-53.996292,-12.821909,STU
6986055608000,1.094962,-0.624703747643322,6.04885059414007,4.84812570573289,-1.0241156,-0.20799962,0.51923543,290.42233,-53.760387,-12.692629,STU
6986060654000,1.100008,-0.628540855218358,6.02582794868985,5.00161000873432,-1.010982,-0.14202617,0.5375614,290.21588,-53.532505,-12.56979,STU
6986065720000,1.105074,-0.63478844024439,6.0055641023106,5.1513558408798,-1.0021244,-0.102319926,0.5366451,290.00958,-53.28548,-12.456808,STU
6986070645000,1.109999,-0.666225319243501,6.01604304921129,5.25090605527661,-0.979217,-0.093462385,0.5290093,289.7926,-53.049034,-12.349087,STU
6986075640000,1.114994,-0.68825937049067,6.02254057049067,5.34376554263994,-0.9786061,-0.077579886,0.5342017,289.5614,-52.778534,-12.247794,STU
6986080639000,1.119993,-0.683532899644585,6.01781409964459,5.41466260533123,-0.97005403,-0.052839845,0.5360342,289.32794,-52.517635,-12.154121,STU
6986085632000,1.124986,-0.670788418610505,6.01194329340932,5.47064779462834,-0.945314,-0.027183503,0.5494733,289.08655,-52.252094,-12.06335,STU
6986090645000,1.129999,-0.632724168067393,6.00242728790882,5.48016375044599,-0.9233228,-0.013133603,0.5500842,288.84433,-51.989784,-11.979286,STU
6986095638000,1.134992,-0.602294385654074,5.98985872827037,5.49168783919588,-0.8854492,0.03390302,0.55680364,288.58875,-51.730156,-11.900245,STU
6986100675000,1.140029,-0.597609687042828,5.96643523521414,5.51042673147519,-0.8542951,0.017104227,0.5626069,288.34567,-51.477352,-11.81464,STU
6986105667000,1.145021,-0.592173260460829,5.92177653732719,5.52621458617512,-0.8200866,0.0036651916,0.5537493,288.10287,-51.233276,-11.733316,STU
6986110676000,1.15003,-0.582865428049479,5.77285127706039,5.52854149325249,-0.7703011,0.019547688,0.5751296,287.8517,-51.00771,-11.647769,STU
6986116048000,1.155402,-0.572883061167111,5.61313346948339,5.53103703024982,-0.7165449,0.03145956,0.5876524,287.6103,-50.787827,-11.562664,STU
6986120703000,1.160057,-0.564233039231627,5.47473317270919,5.53319948831433,-0.6985244,0.04886922,0.6059783,287.3601,-50.57636,-11.476988,STU
6986125801000,1.165155,-0.557140000993695,5.33562955966877,5.5407866597911,-0.68111473,0.07238753,0.6151413,287.10986,-50.380352,-11.394712,STU
6986130646000,1.17,-0.578971013866566,5.35309435537781,5.61064611617578,-0.65270954,0.09193522,0.6041457,286.85825,-50.193863,-11.317061,STU
6986135655000,1.175009,-0.601540991881058,5.37115032270631,5.68287026829773,-0.6246097,0.10567969,0.61178154,286.5945,-49.975986,-11.243017,STU
6986140662000,1.180016,-0.510284465094889,5.39917554310674,5.67089867872276,-0.5897904,0.113926366,0.6059783,286.33365,-49.767403,-11.178482,STU
6986145617000,1.184971,-0.410222740343408,5.42776458457676,5.65183921823476,-0.5543602,0.14874569,0.61269784,286.0617,-49.57016,-11.118181,STU
6986150638000,1.189992,-0.437469755447583,5.41683295878257,5.68115454684703,-0.5137377,0.17684549,0.61544675,285.79007,-49.374454,-11.065495,STU
6986155595000,1.194949,-0.475243569629998,5.40266779140641,5.71420680127313,-0.47586402,0.21594086,0.61636305,285.5094,-49.18989,-11.021232,STU
6986160648000,1.200002,-0.505032206104478,5.37512716668657,5.76537226991045,-0.4370741,0.2501493,0.6084218,285.24545,-49.026443,-10.9558325,STU
6986165626000,1.20498,-0.533493908721393,5.34666548883582,5.81755191357214,-0.3915646,0.2669481,0.6032294,284.978,-48.87669,-10.895005,STU
6986170654000,1.210008,-0.519282007554837,5.33534861488445,5.88226569580885,-0.34391713,0.29779682,0.60139686,284.69925,-48.730732,-10.852846,STU
6986175586000,1.21494,-0.500781091279867,5.32609816882099,5.94701881825304,-0.31429017,0.3182608,0.59650993,284.4231,-48.592728,-10.814627,STU
6986180646000,1.22,-0.468083968027672,5.32096593277265,5.99042250775909,-0.28008172,0.34483343,0.58032197,284.14157,-48.45581,-10.792038,STU
6986185703000,1.225057,-0.433046956483993,5.31658640065111,6.0298391200217,-0.2510656,0.3744604,0.5720753,283.85715,-48.326893,-10.773638,STU
6986190658000,1.230012,-0.434725218322505,5.29844586516136,6.06965638090318,-0.22693644,0.39858958,0.56199604,283.5737,-48.196228,-10.755848,STU
6986195645000,1.234999,-0.455072236749388,5.27301211204601,6.11035033277239,-0.18997909,0.42943826,0.5561928,283.28607,-48.07772,-10.74593,STU
6986200626000,1.23998,-0.452789846769547,5.29827985390946,6.1402700973251,-0.17867808,0.46181414,0.5354234,283.00183,-47.954086,-10.733191,STU
6986205653000,1.245007,-0.443784487808642,5.3388038117284,6.16728636697531,-0.14294247,0.48502702,0.52198434,282.71567,-47.848198,-10.724389,STU
6986210685000,1.250039,-0.452727763461843,5.3851410918936,6.22581917744617,-0.116675265,0.49877146,0.50610185,282.4302,-47.73159,-10.729135,STU
6986215647000,1.255001,-0.471537188422261,5.43404554572514,6.30105675944427,-0.08002335,0.52198434,0.4905248,282.1435,-47.627514,-10.742551,STU
6986220650000,1.260004,-0.490604770574188,5.47656613803343,6.37541280983283,-0.040317107,0.5476407,0.4718934,281.86108,-47.532932,-10.758813,STU
6986225644000,1.264998,-0.51046836538781,5.46415139937701,6.43748650311494,-0.0106901415,0.5720753,0.45265114,281.58044,-47.445065,-10.782182,STU
6986230609000,1.269963,-0.530216612934794,5.45180875271519,6.49919973642405,0.008857546,0.5842926,0.44226643,281.29773,-47.360794,-10.809818,STU
6986235787000,1.275141,-0.550812066267781,5.43893660278268,6.56356048608659,0.058948494,0.59803706,0.41233405,281.02045,-47.290665,-10.849707,STU
6986240648000,1.280002,-0.565635936071446,5.41191929261495,6.60618348547524,0.09162979,0.61422503,0.3933972,280.7435,-47.221718,-10.891207,STU
6986245679000,1.285033,-0.568000177731979,5.34099194405025,6.59909073580647,0.11942416,0.63621616,0.38759398,280.46918,-47.164265,-10.938747,STU
6986250648000,1.290002,-0.570335283438834,5.27093867531282,6.59208539430296,0.14110987,0.65484756,0.3744604,280.19803,-47.08878,-10.999385,STU
6986255736000,1.29509,-0.572726311379361,5.1992077372295,6.5849122855145,0.16157386,0.6805039,0.36010507,279.92578,-47.020714,-11.065348,STU
6986260652000,1.300006,-0.573733416066593,5.12787028226858,6.58101597700331,0.18051068,0.70157874,0.34300083,279.65015,-46.961918,-11.133969,STU
6986265645000,1.304999,-0.568937812576472,5.04634507301173,6.59060723405877,0.19242255,0.7107417,0.3368922,279.37613,-46.906902,-11.204017,STU
6986270792000,1.310146,-0.570140745820984,4.97074304179016,6.59382147356254,0.20708331,0.73273283,0.32559118,279.09467,-46.84118,-11.287267,STU
6986275788000,1.315142,-0.59377527593361,4.92820090733057,6.5725504186722,0.23823744,0.74128497,0.32070425,278.81802,-46.783665,-11.367517,STU
6986280645000,1.319999,-0.616752240056313,4.88684239110354,6.55187117255483,0.26358834,0.7669413,0.3032946,278.541,-46.713676,-11.458649,STU
6986285774000,1.325128,-0.641015952015412,4.84316772984588,6.53003385459395,0.29016098,0.77946407,0.2959642,278.26785,-46.653366,-11.54558,STU
6986290654000,1.330008,-0.666000210668093,4.80885713445493,6.52327961232131,0.31978795,0.7861836,0.28252518,277.99042,-46.603477,-11.639077,STU
6986295681000,1.335035,-0.703454318302052,4.81822071024993,6.60286978658952,0.33017266,0.80848014,0.26206118,277.71368,-46.554432,-11.738631,STU
6986300653000,1.340007,-0.744216011593679,4.83458658740406,6.68720632802709,0.33017266,0.8173377,0.24984388,277.43643,-46.505257,-11.848361,STU
6986305684000,1.345038,-0.826874024221219,4.93029574085779,6.83512049905192,0.3295618,0.8042041,0.23396139,277.16803,-46.456604,-11.960338,STU
6986310593000,1.349947,-0.907527608794582,5.02368398063205,6.97944780288036,0.31642818,0.7996226,0.21471913,276.90167,-46.39083,-12.081736,STU
6986315668000,1.355022,-1.06215844882163,5.20958215355021,7.08043737498238,0.29718593,0.7849618,0.19822577,276.64697,-46.322376,-12.198373,STU
6986320642000,1.359996,-1.22527571665324,5.4062824376473,7.17159132279182,0.26053402,0.7654142,0.17531833,276.40326,-46.243767,-12.315593,STU
6986325627000,1.364981,-1.38909248740806,5.73473417552221,7.26906975786015,0.23945917,0.7461719,0.15088372,276.15625,-46.155315,-12.447038,STU
6986330574000,1.369928,-1.55170659208591,6.07854703695204,7.36663811393547,0.20372356,0.72234815,0.12583824,275.92294,-46.052,-12.575394,STU
6986335723000,1.375077,-1.60738845931754,6.32535296615166,7.40704553203791,0.20097467,0.6966918,0.11056661,275.69772,-45.961582,-12.726749,STU
6986340614000,1.379968,-1.63846721776303,6.53846440627488,7.43368456056872,0.19883664,0.66248333,0.101098195,275.48706,-45.8616,-12.871379,STU
6986345686000,1.38504,-1.59126542543712,6.66135823885212,7.38523368892621,0.19975294,0.63438356,0.09468412,275.2849,-45.793514,-13.03344,STU
6986350665000,1.390019,-1.51589975388719,6.74614476075274,7.30986796819125,0.21013765,0.61483586,0.10048734,275.09143,-45.72905,-13.184545,STU
6986355690000,1.395044,-1.39431982647472,6.76392929880618,7.22265410421348,0.23548855,0.5983425,0.1142318,274.8789,-45.710686,-13.32884,STU
6986360645000,1.399999,-1.25626417122793,6.75440827227127,7.13220368105939,0.26725355,0.6041457,0.13622294,274.66693,-45.6982,-13.465971,STU
6986365686000,1.40504,-1.11250212069028,6.74536094895729,7.17201472255714,0.29718593,0.61422503,0.14844026,274.46323,-45.718014,-13.580427,STU
6986370676000,1.41003,-0.968889257235224,6.73665710021856,7.26340483893999,0.30390546,0.6239988,0.16340645,274.25717,-45.741447,-13.687262,STU
6986375646000,1.415,-0.807738502682446,6.7607534443787,7.42527429506903,0.31581733,0.6411031,0.18997909,274.0491,-45.791534,-13.765695,STU
6986380671000,1.420025,-0.627893757898889,6.81570591167861,7.65507605308834,0.30543262,0.64599,0.22999077,273.8394,-45.838596,-13.835297,STU
6986385730000,1.425084,-0.476072701851103,6.86136063600041,7.89464078312766,0.28160888,0.63713247,0.27122417,273.61093,-45.88322,-13.869379,STU
6986390688000,1.430042,-0.346393478581833,6.89978413296581,8.13478732571313,0.24220806,0.60903263,0.3222314,273.37915,-45.924244,-13.889082,STU
6986395678000,1.435032,-0.284951653157365,7.02778343050779,8.30103575686274,0.18448131,0.6001751,0.35827246,273.13867,-45.940094,-13.866871,STU
6986400656000,1.44001,-0.265776842649573,7.20994404273504,8.42087866666667,0.13072516,0.59864795,0.39003745,272.89667,-45.950085,-13.831524,STU
6986405688000,1.445042,-0.292418572091038,7.41375248547043,8.34282577626499,0.093767814,0.63132924,0.410196,272.642,-45.929794,-13.768142,STU
6986410668000,1.450022,-0.345722529843528,7.62696843791912,8.14899286222312,0.073303826,0.68691796,0.42394048,272.3807,-45.902042,-13.705531,STU
6986415667000,1.455021,-0.491000891233199,7.70595206471108,7.84725788702051,0.0720821,0.7687739,0.44012842,272.09717,-45.88466,-13.641485,STU
6986420745000,1.460099,-0.686612764589424,7.7154940018444,7.48466019083685,0.13591751,0.8323039,0.40225476,271.81693,-45.875546,-13.595179,STU
6986425694000,1.465048,-0.837384910235435,7.84162867292498,7.25022444319633,0.23182335,0.8720101,0.33475417,271.5289,-45.92659,-13.573753,STU
6986430662000,1.470016,-0.965536809517159,8.03622945552674,7.08410144191939,0.36896262,0.8970556,0.29138273,271.2367,-46.003128,-13.565217,STU
6986435775000,1.475129,-1.10206303992792,8.30567984209029,7.02559388429439,0.47616947,0.89552844,0.26236662,270.94397,-46.138157,-13.613827,STU
6986441372000,1.480726,-1.25457083271055,8.64628070139416,7.03576127219272,0.54550266,0.90102625,0.25411993,270.65286,-46.293972,-13.6713705,STU
6986445669000,1.485023,-1.28750255376267,8.94248247163919,7.09623539623221,0.59803706,0.8979719,0.25442538,270.3595,-46.51645,-13.751019,STU
6986450639000,1.489993,-1.25826320974711,9.31284720748439,7.20831945500154,0.6533204,0.91507614,0.30085114,270.05786,-46.75609,-13.824201,STU
6986455623000,1.494977,-1.19339586953351,9.73303145236286,7.32271369890594,0.70554936,0.895223,0.34391713,269.76733,-47.038322,-13.904154,STU
6986460675000,1.500029,-1.09782279218964,10.1998689548701,7.44034193054247,0.7483099,0.8872818,0.41813725,269.46106,-47.332794,-13.969073,STU
6986466262000,1.505616,-1.00016008072423,10.6987442033426,7.56477000501393,0.7724391,0.91232723,0.5317582,269.12872,-47.67455,-13.999555,STU
6986470645000,1.509999,-1.08980061069638,10.7299237339833,7.54528295097493,0.8063421,0.9236283,0.58368176,268.80493,-48.022175,-14.020503,STU
6986475594000,1.514948,-1.19101689699164,10.7651296425255,7.52327943045497,0.82344633,0.97097033,0.65301496,268.4422,-48.437904,-13.982513,STU
6986480639000,1.519993,-1.18551351668772,10.6509440667509,7.37177368035376,0.8604037,1.0118983,0.68539083,268.08212,-48.857155,-13.940983,STU
6986485682000,1.525036,-1.14483475026321,10.4882290010529,7.17855000442198,0.8891144,1.0531317,0.72784597,267.7033,-49.274895,-13.889542,STU
6986490658000,1.530012,-1.15207734645748,10.2767443817328,6.97560672819027,0.9251554,1.10139,0.73884153,267.3131,-49.698658,-13.862955,STU
6986495624000,1.534978,-1.16633493244729,10.0581284767663,6.77124840921355,0.9615019,1.1313224,0.77671516,266.91275,-50.12533,-13.823161,STU
6986500634000,1.539988,-1.10755681272492,9.93189543609855,6.41519861941497,1.0085385,1.1759156,0.7858781,266.5024,-50.56049,-13.7978735,STU
6986505650000,1.545004,-1.03663343319184,9.82107803165083,6.03398567428255,1.0302242,1.2269229,0.79473567,266.08472,-50.99108,-13.768231,STU
6986511370000,1.550724,-0.939497724883698,9.68796577165198,5.4884914025339,1.047023,1.2681563,0.8008443,265.6596,-51.425858,-13.753836,STU
6986515656000,1.55501,-0.862305053419776,9.58639652291399,5.04971195102445,1.1053606,1.3411547,0.7623598,265.22925,-51.862736,-13.758723,STU
6986520664000,1.560018,-0.925585419525118,9.37920173979592,4.67706081833791,1.2156218,1.395827,0.75991637,264.79114,-52.35451,-13.7538185,STU
6986525652000,1.565006,-1.06150616826923,9.13079425,4.37241083894231,1.3106114,1.4370605,0.745561,264.35565,-52.84117,-13.766394,STU
6986530646000,1.57,-1.14364587005463,8.95866453850631,4.13619001701442,1.3799446,1.4862351,0.6795876,263.90308,-53.39693,-13.794612,STU
6986535663000,1.575017,-1.1952767618698,8.82958764592102,3.9382716807558,1.4208726,1.5180001,0.6637051,263.44696,-53.962185,-13.812642,STU
6986540654000,1.580008,-1.30534291020974,8.73815879386306,3.79535842041949,1.4437801,1.5457945,0.6377433,262.99518,-54.53017,-13.88794,STU
6986545646000,1.585,-1.5016445710243,8.70102071817778,3.73169294204861,1.4618006,1.565953,0.61422503,262.54858,-55.093803,-13.963015,STU
6986550629000,1.589983,-1.68269652814377,8.74767795518509,3.68571953042933,1.4624114,1.5531249,0.61758476,262.1025,-55.66217,-14.049842,STU
6986555649000,1.595003,-1.85505674558573,8.8510939146724,3.65124751393744,1.4395039,1.5519031,0.6239988,261.6613,-56.214474,-14.1385145,STU
6986560688000,1.600042,-1.99817331895257,9.06348050761966,3.5519922113329,1.4126259,1.5454891,0.6417139,261.23105,-56.750587,-14.248947,STU
6986565660000,1.605014,-2.09015510551621,9.45184824060957,3.34758826490663,1.3759739,1.5512923,0.6478226,260.8092,-57.26534,-14.353943,STU
6986570666000,1.61002,-2.2157262421703,9.80639746186523,3.20177658215872,1.3674219,1.5515977,0.6765333,260.39023,-57.779057,-14.474967,STU
6986575685000,1.615039,-2.37350217523653,10.1265900859239,3.11360760855377,1.3564262,1.5406022,0.70249504,259.98346,-58.27079,-14.585337,STU
6986580653000,1.620007,-2.48590262399448,10.4526245576696,2.97825649478509,1.3634512,1.5201381,0.7247916,259.5739,-58.812397,-14.6850815,STU
6986585766000,1.62512,-2.5438280147082,10.8001759946767,2.77551792971214,1.3839152,1.5057828,0.7761043,259.1701,-59.348293,-14.761229,STU
6986590665000,1.630019,-2.66731659736922,11.0338068159466,2.56128855725994,1.4046847,1.5103643,0.82253003,258.7607,-59.909985,-14.8439665,STU
6986595678000,1.635032,-2.89077014666599,11.1309605109784,2.31354648275827,1.4092661,1.4770721,0.8530733,258.37354,-60.4624,-14.901652,STU
6986600638000,1.639992,-3.01466479649663,11.1796224106788,2.13537988846765,1.4422529,1.4471397,0.850019,257.9801,-61.06966,-14.946229,STU
6986605693000,1.645047,-3.00986028890433,11.1652089380707,2.0440931906709,1.4688255,1.4065173,0.8549059,257.60748,-61.66494,-14.9671,STU
6986610571000,1.649925,-2.99224682493423,11.0993567950892,1.97152885068693,1.4816537,1.3949108,0.8555168,257.2693,-62.260983,-15.022728,STU
6986615669000,1.655023,-2.9541897557147,10.9518853600312,1.91920026253532,1.4886786,1.3860532,0.8536842,256.9547,-62.844666,-15.063465,STU
6986620612000,1.659966,-2.89899563206809,10.8203003197026,1.87999778084524,1.493871,1.3750577,0.82741696,256.6184,-63.43551,-15.103569,STU
6986625684000,1.665038,-2.80871011220896,10.706255739777,1.86099033431814,1.4865406,1.3967434,0.8188649,256.2875,-64.00977,-15.132967,STU
6986630582000,1.669936,-2.74709003245351,10.5735706442711,1.87303266346731,1.4947872,1.4162911,0.8185594,255.97571,-64.567314,-15.157933,STU
6986635705000,1.675059,-2.74218481885623,10.3822669042192,1.95642134584083,1.4902058,1.4104879,0.8029824,255.67993,-65.09971,-15.1809635,STU
6986640598000,1.679952,-2.72000541669152,10.22758879491,2.01988076152699,1.4813483,1.4016303,0.7663304,255.33948,-65.63771,-15.184605,STU
6986645679000,1.685033,-2.6571188106273,10.1308401701958,2.04890534894125,1.4450017,1.4184291,0.745561,255.00635,-66.15245,-15.183418,STU
6986650647000,1.690001,-2.62012225252133,10.035540719744,2.08131162269201,1.4245378,1.4349225,0.72387534,254.69485,-66.623886,-15.19123,STU
6986655687000,1.695041,-2.63884493366951,9.93724654596586,2.1234377530256,1.3976597,1.4501941,0.6942484,254.39294,-67.06656,-15.20232,STU
6986660641000,1.699995,-2.63895636162072,9.86304796800959,2.13245837219508,1.3741413,1.4624114,0.6585127,254.05185,-67.50185,-15.204068,STU
6986665712000,1.705066,-2.58075299723426,9.85857069622937,2.03843753482069,1.3588698,1.5085317,0.65026605,253.70853,-67.919235,-15.20504,STU
6986670728000,1.710082,-2.52700708043803,9.84945436595321,1.94731901987058,1.3414601,1.5641204,0.64568454,253.35498,-68.30566,-15.216806,STU
6986675685000,1.715039,-2.51282917217521,9.79274322638128,1.87642967594823,1.3475688,1.6013832,0.6258314,253.00667,-68.67621,-15.231712,STU
6986680706000,1.72006,-2.49350122535211,9.74210220998719,1.79330307221511,1.3457361,1.6374242,0.61208695,252.6496,-69.04768,-15.236564,STU
6986685727000,1.725081,-2.41298842957746,9.77525426130208,1.57070858704816,1.366811,1.6832392,0.6032294,252.29121,-69.40891,-15.243716,STU
6986690857000,1.730211,-2.33639072447089,9.80314731785819,1.355002841344,1.3863586,1.7400496,0.6114761,251.88977,-69.779434,-15.240977,STU
6986695655000,1.735009,-2.33190906583439,9.75833166741441,1.29226088392666,1.4114041,1.7785342,0.6044512,251.49417,-70.13615,-15.241336,STU
6986700988000,1.740342,-2.32325196257004,9.70835069042644,1.2221493816768,1.4404203,1.822211,0.6053675,251.0662,-70.529564,-15.22059,STU
6986705662000,1.745016,-2.25097977700636,9.66158649696077,1.15412848743708,1.4602734,1.8671097,0.6188065,250.63916,-70.91176,-15.195207,STU
6986710626000,1.74998,-2.17422343786684,9.61192080240289,1.08188721251068,1.4773777,1.9080375,0.6462954,250.19612,-71.29751,-15.160962,STU
6986715666000,1.75502,-2.09629194123848,9.56149471445531,1.00853990678365,1.484708,1.9126191,0.6554584,249.76437,-71.66781,-15.123213,STU
6986720584000,1.759938,-2.02024688163168,9.51228925800171,0.936968071552379,1.491733,1.8933768,0.6600399,249.33987,-72.03016,-15.075114,STU
6986725673000,1.765027,-1.97105774238818,9.40870810874025,0.942244613110382,1.491122,1.8942931,0.66798115,248.92075,-72.379654,-15.020268,STU
6986730586000,1.76994,-1.93244402191219,9.29286654411161,0.971204928667419,1.4935656,1.8750509,0.6713409,248.52597,-72.71522,-14.959468,STU
6986735660000,1.775014,-1.89237782799216,9.17673779766818,0.95648407280747,1.4731015,1.8387043,0.67347896,248.10129,-73.078,-14.864053,STU
6986740649000,1.780003,-1.85294017420553,9.06335438217086,0.931835545625258,1.462106,1.7889189,0.6704246,247.69942,-73.42568,-14.764794,STU
6986745687000,1.785041,-1.84075470573152,9.04629742383107,0.868398276093514,1.4535538,1.7644843,0.6759224,247.28464,-73.76526,-14.652573,STU
6986750678000,1.790032,-1.83227314973827,9.04205655727087,0.800545806006565,1.4538593,1.7385225,0.6783658,246.8976,-74.08762,-14.538136,STU
6986755646000,1.795,-1.84781533738511,9.01564481328101,0.781936469393783,1.4624114,1.7269161,0.6826419,246.50601,-74.40437,-14.41551,STU
6986760673000,1.800027,-1.87764653036249,8.97587009697408,0.791880184811525,1.4645494,1.711339,0.68569624,246.13513,-74.70565,-14.2902,STU
6986766429000,1.805783,-1.92181068395074,8.9521645822188,0.744059756900799,1.4697418,1.6713274,0.68477994,245.76617,-75.00482,-14.158355,STU
6986770705000,1.810059,-1.95727243693832,8.94034417617627,0.692837255436351,1.4480561,1.616044,0.68691796,245.41791,-75.287704,-14.023083,STU
6986775683000,1.815037,-2.02414663334349,8.88383650360662,0.62207115987199,1.4294246,1.5720617,0.6817256,245.07211,-75.555305,-13.888355,STU
6986780701000,1.820055,-2.10714566863761,8.80083736635172,0.543954435166108,1.3982705,1.5283848,0.66828656,244.7536,-75.80377,-13.753939,STU
6986785712000,1.825066,-2.17897539053377,8.73829624594515,0.501666311082277,1.3680327,1.5121969,0.6536258,244.43576,-76.03732,-13.622609,STU
6986790690000,1.830044,-2.24458296428782,8.68674730168092,0.47823500747862,1.3277156,1.4932601,0.62949663,244.14243,-76.24798,-13.496983,STU
6986795678000,1.835032,-2.28638494756971,8.61974502166541,0.472043831799171,1.2935071,1.4749341,0.60903263,243.8617,-76.42873,-13.389943,STU
6986801299000,1.840653,-2.31680956314054,8.5335424119254,0.477114608120761,1.2550226,1.4477507,0.5671884,243.59935,-76.58202,-13.295138,STU
6986805687000,1.845041,-2.33729769121419,8.44340295852929,0.504174458994228,1.2223413,1.4410311,0.5403103,243.33136,-76.71441,-13.209537,STU
6986810684000,1.850038,-2.35775751141513,8.32064425096195,0.555323769153484,1.1869112,1.4312572,0.52106804,243.08148,-76.825386,-13.132573,STU
6986815628000,1.854982,-2.33610168683103,8.25673916596513,0.624536786650632,1.1520919,1.4398094,0.514654,242.80893,-76.924484,-13.057086,STU
6986820705000,1.860059,-2.28737291762878,8.22750189426739,0.707375485678493,1.1294898,1.4517213,0.49663344,242.54683,-77.00551,-12.989693,STU
6986825700000,1.865054,-2.23017118774423,8.24513710124334,0.757180088561279,1.104139,1.4538593,0.4978552,242.28822,-77.07701,-12.922929,STU
6986830648000,1.870002,-2.16815346363466,8.28943550864729,0.788189001497616,1.0680978,1.4553864,0.4896085,242.03403,-102.86622,-12.863679,STU
6986835737000,1.875091,-2.10539731324116,8.30336618858923,0.800963612894558,1.0338894,1.4740179,0.48258355,241.73068,-102.804115,-12.79252,STU
6986840687000,1.880041,-2.04539655163081,8.28490429344757,0.794040466073411,0.99112886,1.4840971,0.48166725,241.43773,-102.74823,-12.722313,STU
6986845637000,1.884991,-1.98539579002045,8.26644239830591,0.787117319252264,0.95447695,1.4844025,0.48502702,241.1122,-102.679436,-12.634072,STU
6986850672000,1.890026,-1.92436471230163,8.24766348072242,0.780075290111966,0.91904676,1.46852,0.4914411,240.7969,-102.61479,-12.54654,STU
6986855621000,1.894975,-1.87157109677645,8.22646957463209,0.756554349124036,0.8958339,1.4676038,0.5021312,240.45901,-102.55321,-12.457119,STU
6986860673000,1.900027,-1.8301320303901,8.20009949567858,0.703813640504555,0.8765916,1.4440855,0.50488013,240.14058,-102.49613,-12.369995,STU
6986865630000,1.904984,-1.78947220218796,8.17422529113136,0.652064691053492,0.8573494,1.3961325,0.5128214,239.8099,-102.41823,-12.257697,STU
6986870637000,1.909991,-1.80948987147655,8.10857934683597,0.569121982545913,0.8396343,1.3579534,0.51893,239.4913,-102.344536,-12.147545,STU
6986875579000,1.914933,-1.84425740418722,8.03407749102739,0.479719714085423,0.83291477,1.3197744,0.52595496,239.19437,-102.27286,-12.037731,STU
6986880640000,1.919994,-1.86502256985609,7.95856843339168,0.352371352541813,0.8246681,1.2681563,0.5326745,238.92091,-102.199326,-11.922485,STU
6986885625000,1.924979,-1.88359135554259,7.88429319369895,0.222389765484247,0.81092364,1.2119566,0.54519725,238.66696,-102.126144,-11.806636,STU
6986890651000,1.930005,-1.89078571533388,7.81812257419621,0.122171393992168,0.80756384,1.1475104,0.54244834,238.40375,-102.06996,-11.698103,STU
6986895578000,1.934932,-1.89564813223413,7.7549113575845,0.0297854089136438,0.7901542,1.0784826,0.5403103,238.16528,-102.01298,-11.589136,STU
6986900635000,1.939989,-1.87105914828931,7.75182833775222,-0.0437178107938396,0.77396625,1.0180069,0.5476407,237.93906,-101.96676,-11.480858,STU
6986905587000,1.944941,-1.84332292822887,7.756450944556,-0.113058411145531,0.75961095,0.979217,0.55863625,237.73297,-101.923416,-11.375009,STU
6986910646000,1.95,-1.77766920047108,7.85493780870001,-0.157073261664829,0.74464476,0.95203346,0.5699373,237.53696,-101.88951,-11.27047,STU
6986915662000,1.955016,-1.70544719650195,7.97049288433397,-0.195591662105843,0.73273283,0.9431759,0.5891795,237.35313,-101.85374,-11.162819,STU
6986920657000,1.960011,-1.59396346029635,8.12708444950608,-0.263347634331307,0.70707655,0.95569867,0.59681535,237.18011,-101.81982,-11.052611,STU
6986925581000,1.964935,-1.47750632355623,8.28833249407295,-0.335013591975684,0.6740898,0.9773844,0.61208695,237.01292,-101.78085,-10.936781,STU
6986930650000,1.970004,-1.39337261349338,8.50317855104856,-0.393885819718543,0.6383542,0.9810496,0.61453044,236.81282,-101.73001,-10.79993,STU
6986935715000,1.975069,-1.32198700104857,8.73518229231052,-0.447425022064018,0.61178154,0.9728029,0.61911196,236.61644,-101.67702,-10.660896,STU
6986941028000,1.980382,-1.25019994474351,8.96766955446485,-0.446287879607346,0.57696223,0.94989544,0.62980205,236.40616,-101.609314,-10.496148,STU
6986945643000,1.984997,-1.18955390531982,9.16360246295124,-0.413632326662445,0.54305923,0.91813046,0.6365216,236.20694,-101.54403,-10.335048,STU
6986950629000,1.989983,-1.23156988748222,9.35844001493599,-0.410843984292319,0.5122105,0.8924741,0.636827,236.00488,-101.46557,-10.15405,STU
6986955618000,1.994972,-1.32502031550498,9.54534122581792,-0.423587233348151,0.48472157,0.8848383,0.627664,235.81226,-101.38978,-9.978067,STU
6986960601000,1.999955,-1.4411161474046,9.67944460286938,-0.408936421920893,0.46883908,0.86620694,0.6236934,235.616,-101.30041,-9.788373,STU
6986965633000,2.004987,-1.58995600943509,9.74186155693932,-0.356122300617714,0.42455134,0.84696466,0.59773165,235.42615,-101.216446,-9.611961,STU
6986970673000,2.010027,-1.75005768306793,9.82321325105826,-0.29267077417053,0.39828414,0.8454375,0.5665775,235.24231,-101.147964,-9.453308,STU
6986975635000,2.014989,-1.92247493059867,9.92857898558758,-0.216040870820399,0.35918877,0.8323039,0.537256,235.0711,-101.08101,-9.306301,STU
6986980600000,2.019954,-2.07585827012987,10.0240640124098,-0.123139583640212,0.33108896,0.8350528,0.50701815,234.89877,-101.03356,-9.193946,STU
6986985628000,2.024982,-2.20556108051948,10.1074446496393,-0.00733346389417988,0.29871312,0.8481864,0.47708577,234.7302,-100.9887,-9.093014,STU
6986990580000,2.029934,-2.30563673210687,10.2113320485347,0.102123095654988,0.27091873,0.86559606,0.43310347,234.51285,-100.96181,-9.019521,STU
6986995640000,2.034994,-2.35491529418508,10.3591675944347,0.205159865831561,0.23548855,0.8912524,0.3943135,234.29285,-100.93578,-8.955094,STU
6987000621000,2.039975,-2.39230526516102,10.5092680724592,0.306269563242367,0.20341812,0.9224065,0.3622431,234.04904,-100.91716,-8.919446,STU
6987005653000,2.045007,-2.38222779598494,10.6805849432246,0.40704433392409,0.15943582,0.9379836,0.32925636,233.80533,-100.90102,-8.896806,STU
6987010702000,2.050056,-2.3673663366938,10.824586082655,0.501885853976205,0.12675454,0.9388999,0.30390546,233.5411,-100.87816,-8.884338,STU
6987015631000,2.054985,-2.34150301412805,10.8984809592987,0.579475532322323,0.083383106,0.9615019,0.29138273,233.26993,-100.85253,-8.87829,STU
6987020668000,2.060022,-2.31507299672824,10.973994956794,0.65876528883062,0.036957346,0.94806284,0.28985557,232.99484,-100.811035,-8.871788,STU
6987025644000,2.064998,-2.30144180042513,11.0073109305621,0.75220685019367,0.020158553,0.9080512,0.2843578,232.72488,-100.77361,-8.871988,STU
6987030576000,2.06993,-2.29251732662258,11.0251597849787,0.850376136572508,-0.0021380284,0.83169305,0.2996294,232.47418,-100.72589,-8.870085,STU
6987035644000,2.074998,-2.29466111003185,11.0005566842158,0.937078382681131,-0.027488936,0.74464476,0.31490102,232.22617,-100.66349,-8.86432,STU
6987040654000,2.080008,-2.30421122308917,10.9480309626791,1.01347935694467,-0.051618114,0.6453791,0.33628133,232.00809,-100.59623,-8.856942,STU
6987045642000,2.084996,-2.32691855081304,10.919572815505,1.03756924534148,-0.061086524,0.5338962,0.35979962,231.81828,-100.51585,-8.848817,STU
6987050625000,2.089979,-2.35837758714072,10.906989393689,1.0270828925991,-0.073303826,0.4831944,0.3631594,231.64244,-100.435646,-8.843167,STU
6987055645000,2.094999,-2.39007021454689,10.8943125368726,1.01651867610969,-0.07971791,0.40530908,0.37140608,231.48618,-100.344604,-8.830496,STU
6987060644000,2.099998,-2.42163026323284,10.8816887107322,1.00599865255779,-0.07666359,0.34238997,0.3726278,231.34233,-100.25905,-8.8215065,STU
6987065634000,2.104988,-2.45230778691922,10.8750533722768,0.993191664170041,-0.06078109,0.28863382,0.36651915,231.2148,-100.17773,-8.813305,STU
6987070656000,2.11001,-2.46621607407943,10.9909553618662,0.932922581174089,-0.036957346,0.27122417,0.35827246,231.09654,-100.102905,-8.807491,STU
6987075981000,2.115335,-2.48100409362932,11.1190772477026,0.868026521920496,-0.04153884,0.26053402,0.34269542,230.98567,-100.04382,-8.8160715,STU
6987080646000,2.12,-2.49484269450697,11.3451089007744,0.789607462498709,-0.039095376,0.22479841,0.35124752,230.88875,-99.98884,-8.822077,STU
6987085838000,2.125192,-2.50052382873432,11.6416520843786,0.710747571379704,-0.036957346,0.18936823,0.29810223,230.79573,-99.95996,-8.8499,STU
6987090773000,2.130127,-2.38825295387685,12.4679654082098,0.737692558836944,-0.059864793,0.17806722,0.2565634,230.70763,-99.92634,-8.87288,STU
6987095598000,2.134952,-2.27848457065754,13.2758604006081,0.764036948802737,-0.09743301,0.118507855,0.19639318,230.6264,-99.91368,-8.909907,STU
6987100622000,2.139976,-2.30496547755284,13.966396934802,0.651542148061923,-0.15424347,0.007330383,0.16798794,230.56429,-99.9007,-8.950991,STU
6987105655000,2.145009,-2.34323101145182,14.6456077016969,0.52717956994542,-0.22449298,-0.0027488936,0.14844026,230.48984,-99.89722,-9.005282,STU
6987110686000,2.15004,-2.17302153695827,15.0158862875201,0.499373587978531,-0.2443461,0.059864793,0.121256754,230.42445,-99.86307,-9.028861,STU
6987115620000,2.154974,-1.98814721007223,15.3524526033307,0.480412143811196,-0.30482176,0.121256754,0.058948494,230.36191,-99.83455,-9.067891,STU
6987120707000,2.160061,-1.69399918531942,15.5156629145158,0.409134583485264,-0.38453966,0.12767084,0.0076358155,230.29376,-99.802704,-9.095768,STU
6987126244000,2.165598,-1.36397716046129,15.6758203607908,0.326629062067545,-0.46486846,0.1151481,-0.02565634,230.21367,-99.779976,-9.134914,STU
6987130661000,2.170015,-0.977419816591125,15.6402698081585,0.233730817276273,-0.57451874,0.08368854,-0.064751714,230.13815,-99.73312,-9.153596,STU
6987135650000,2.175004,-0.514086858785707,15.5647264511437,0.122933820031622,-0.68477994,0.0870483,-0.073303826,230.05717,-99.6848,-9.172771,STU
6987140680000,2.180034,-0.0746325091154963,15.361652543524,0.056558131577081,-0.7874053,0.106595986,-0.087659165,229.98477,-99.601585,-9.153692,STU
6987145582000,2.184936,0.34859653678253,15.1406328881098,0.000127588686767507,-0.8857546,0.15454891,-0.0711658,229.90419,-99.51077,-9.129301,STU
6987150674000,2.190028,0.622276312739547,14.8607281089169,-0.0546760881462972,-0.9636399,0.18906279,-0.052534413,229.83415,-99.374344,-9.051724,STU
6987155582000,2.194936,0.854331280243829,14.5813152980353,-0.106770056577935,-1.0711522,0.23976462,-0.05100725,229.74606,-99.23801,-8.976661,STU
6987160786000,2.20014,0.998498779738307,14.1559497253198,-0.168849552863978,-1.1304061,0.28893927,-0.06078109,229.65956,-99.05756,-8.848241,STU
6987165646000,2.205,1.11666352228298,13.7378283738893,-0.227931938373206,-1.2754866,0.3203988,-0.06536258,229.56406,-98.87507,-8.721841,STU
6987170691000,2.210045,1.08475145981028,13.295830574638,-0.208055298721917,-1.402852,0.36651915,-0.090713486,229.45416,-98.685776,-8.579602,STU
6987175622000,2.214976,1.01873794964553,12.8620271420869,-0.17033329150674,-1.5497651,0.40866885,-0.13103059,229.33682,-98.50929,-8.447228,STU
6987180674000,2.220028,0.813817835796178,12.5611546821077,-0.0199355106890562,-1.6792686,0.4266894,-0.18448131,229.21675,-98.34805,-8.320052,STU
6987185676000,2.22503,0.578046494904459,12.297645537541,0.155737249137232,-1.7974709,0.43982297,-0.2556471,229.08656,-98.21896,-8.213111,STU
6987190689000,2.230043,0.376459324780934,12.2536020672123,0.286898439793934,-1.9062049,0.4465425,-0.32650748,228.9491,-81.862465,-8.136936,STU
6987196259000,2.235613,0.165861808314877,12.2895579324025,0.415311563645643,-1.9798143,0.45631635,-0.410196,228.80804,-81.89554,-8.087602,STU
6987200674000,2.240028,0.0748193649990628,12.5019603730084,0.450468924723524,-2.0412061,0.4538729,-0.48716503,228.66199,-81.84052,-8.098709,STU
6987205676000,2.24503,-5.98376778090243e-06,12.8112384656878,0.46543399406019,-2.0751092,0.4361578,-0.54611355,228.51892,-81.73824,-8.130035,STU
6987210684000,2.250038,-0.00126667224128257,13.1264895382766,0.522924352,-2.082745,0.3915646,-0.59315014,228.37738,-81.56307,-8.204607,STU
6987215660000,2.255014,0.0226081727671343,13.4416373683367,0.594548896,-2.1010711,0.33261612,-0.6252206,228.24652,-81.34888,-8.29195,STU
6987220705000,2.260059,0.022090430357156,13.5755709504231,0.692595517100809,-2.129171,0.2678644,-0.6603453,228.12961,-81.094406,-8.398055,STU
6987225692000,2.265046,0.0133046441144224,13.6458572844003,0.798024953848418,-2.1688771,0.19333886,-0.6817256,228.03337,-80.81472,-8.508212,STU
6987230677000,2.270031,-0.0589130757620482,13.590067705027,0.877003947787703,-2.2366831,0.118507855,-0.71593404,227.9599,-80.50873,-8.617625,STU
6987235718000,2.275072,-0.179253786463855,13.4396419194017,0.937174314395513,-2.3200662,0.08552113,-0.75136423,227.89636,-80.176216,-8.732377,STU
6987240674000,2.280028,-0.415811849875915,13.1707528917819,1.03337566838893,-2.4126122,0.087964594,-0.80756384,227.84642,-79.800674,-8.859426,STU
6987245688000,2.285042,-0.718611149930838,12.8337663986981,1.15058832172498,-2.4868324,0.10170906,-0.88270026,227.80379,-79.391884,-9.000611,STU
6987250616000,2.28997,-1.12043407242516,12.3930313033642,1.37511928170648,-2.5589144,0.11209377,-0.98868537,227.76262,-78.918045,-9.182959,STU
6987255652000,2.295006,-1.58132360664651,11.8898153259873,1.65729650245734,-2.5876253,0.11056661,-1.0552697,227.72179,-78.42619,-9.373547,STU
6987260642000,2.299996,-2.02517922119048,11.3946748083333,1.98437990113095,-2.638327,0.10293079,-1.1905763,227.67178,-77.82423,-9.658708,STU
6987266154000,2.305508,-2.506968705,10.850043275,2.37714303875,-2.7192667,0.118507855,-1.4083499,227.62137,-77.18076,-9.983355,STU
6987270650000,2.310004,-2.83828639840956,10.5569749374691,2.71388331871975,-2.894585,0.12614368,-1.4880677,227.55923,-76.42028,-10.381986,STU
6987275647000,2.315001,-3.17393063826929,10.3111509704633,3.09680131105404,-2.948952,0.14813483,-1.6447546,227.5011,-75.61133,-10.858814,STU
6987280637000,2.319991,-3.34850706551508,10.2687592796921,3.35342429501477,-3.0818152,0.15302174,-1.7968601,227.43741,-74.64766,-11.425891,STU
6987285643000,2.324997,-3.40857866227513,10.3717395950953,3.52076690430502,-3.2097914,0.17165314,-1.921782,227.37161,-73.65982,-12.0229225,STU
6987290643000,2.329997,-3.42713206502867,10.5207933398853,3.65012815282555,-3.3053918,0.22479841,-2.005165,227.3069,-72.5549,-12.697069,STU
6987295646000,2.335,-3.36827126808968,10.7562365276413,3.7089890009828,-3.396716,0.27397305,-2.0534234,227.24646,-71.42367,-13.38721,STU
6987300635000,2.339989,-3.15760900628337,11.015475076386,3.72324610603696,-3.4251215,0.29565877,-2.05434,227.19495,-70.27479,-14.077415,STU
6987305656000,2.34501,-2.71082191972279,11.3141558856006,3.66894048561602,-3.390913,0.25167647,-2.0039434,227.15149,-69.13971,-14.754047,STU
6987310640000,2.349994,-2.26732722953799,11.610635701001,3.61503504602669,-3.2821789,0.12858713,-1.881465,227.13037,-68.06002,-15.376159,STU
6987315650000,2.355004,-1.82151896352156,11.9086621607033,3.56084839828542,-3.116329,-0.061391957,-1.6945401,227.1338,-67.04101,-15.946005,STU
6987320649000,2.360003,-1.20616907657399,12.0500511596062,3.40993738979714,-2.9025261,-0.3549127,-1.3988814,227.18669,-66.11851,-16.414066,STU
6987325649000,2.365003,-0.420482379079952,12.0357659070207,3.16232705765712,-2.6841419,-0.7244862,-1.07665,227.29417,-65.28965,-16.790346,STU
6987330640000,2.369994,0.261705143510811,11.7476102935134,2.7846732080814,-2.4223862,-1.1255192,-0.7602218,227.52103,-64.71516,-16.886503,STU
6987335846000,2.3752,0.86168491027375,11.1476306357499,2.24810595123765,-2.1337523,-1.5005904,-0.473726,227.8103,-64.25623,-16.867638,STU
6987340634000,2.379988,1.16512910239473,10.4133735475953,1.80711726691279,-1.8646661,-1.8423696,-0.27672195,228.21986,-63.990654,-16.629826,STU
6987345641000,2.384995,1.17948288542207,9.42296526651367,1.40999706891838,-1.6224581,-2.1374176,-0.17195857,228.69228,-63.81714,-16.30954,STU
6987350623000,2.389977,1.06785676233418,8.58130126658163,1.11724327672194,-1.4477507,-2.264783,-0.14905111,229.2114,-63.77257,-15.878177,STU
6987355653000,2.395007,0.791363097447157,7.91859418385569,0.954858094779519,-1.3878858,-2.4599543,-0.13041973,229.81116,-63.77081,-15.386858,STU
6987360614000,2.399968,0.444102018454252,7.32986505166846,0.868817405683531,-1.2986995,-2.5662448,-0.13164146,230.40636,-63.786602,-14.932072,STU
6987365665000,2.405019,-0.14948888089774,6.93934500215285,1.01981860023681,-1.2776246,-2.595872,-0.16432275,231.02649,-63.79878,-14.4703865,STU
6987370622000,2.409976,-0.772771045205799,6.61477160075898,1.21592179772307,-1.321607,-2.5689938,-0.22479841,231.62813,-63.757782,-14.092505,STU
6987375686000,2.41504,-1.4758989748195,6.3788226092634,1.49434157220979,-1.4071281,-2.4288,-0.33414328,232.20695,-63.702675,-13.74698,STU
6987380574000,2.419928,-2.10985771634137,6.25213293539136,1.76058941768572,-1.5140295,-2.2015584,-0.45173484,232.70041,-63.547665,-13.5467205,STU
6987385704000,2.425058,-2.67737073516232,6.34019524489146,2.03456125158335,-1.6337591,-1.8790215,-0.5717699,233.13348,-63.358223,-13.402993,STU
6987390605000,2.429959,-3.09039524475989,6.48579773140218,2.32249318531421,-1.7632625,-1.5063937,-0.68233645,233.42467,-63.03298,-13.460827,STU
6987395668000,2.435022,-3.23505018803772,6.77044104340295,2.67713087657588,-1.8784106,-1.1585059,-0.75686204,233.63858,-62.676308,-13.572364,STU
6987400627000,2.439981,-3.283863212205,7.00720672196901,3.02189917558999,-1.9914207,-0.890947,-0.78801614,233.82265,-62.17867,-13.795662,STU
6987405643000,2.444997,-3.04058726301023,7.11424825341841,3.36248547397954,-2.079996,-0.7302894,-0.81000733,233.94453,-61.65693,-14.059549,STU
6987410627000,2.449981,-2.73294126339176,7.13175421415443,3.65275564882994,-2.1114557,-0.6560693,-0.8014552,234.00606,-61.099483,-14.349635,STU
6987415669000,2.455023,-2.23887054824254,6.90301780557082,3.81287113006158,-2.090381,-0.6545421,-0.768163,234.04071,-60.542274,-14.643361,STU
6987420714000,2.460068,-1.71722062200644,6.57626069258168,3.91822820487805,-2.0292943,-0.74189585,-0.7290677,234.13907,-59.968662,-14.86899,STU
6987425679000,2.465033,-1.07389983700874,5.78852087564657,3.76068027804878,-1.9550742,-0.8555168,-0.7141015,234.2388,-59.41472,-15.084169,STU
6987430937000,2.470291,-0.411428852495519,4.98231796215893,3.5911404686915,-1.8729129,-0.9621128,-0.68630713,234.44339,-58.871937,-15.175753,STU
6987435616000,2.47497,-0.201703268380801,4.8306016434276,3.38587713719379,-1.7980819,-1.0512991,-0.6621779,234.66615,-58.35632,-15.248814,STU
6987441006000,2.48036,0.0371100205218308,4.66348601150839,3.15070975500307,-1.738828,-1.1212431,-0.6218608,234.9842,-57.851707,-15.205125,STU
6987445633000,2.484987,0.192822516965651,4.65570022937714,2.97164030238953,-1.6820174,-1.1468995,-0.57787853,235.30472,-57.37468,-15.145198,STU
6987450604000,2.489958,0.360111650274971,4.64733560370728,2.77925771130633,-1.6282613,-1.2018774,-0.55863625,235.66113,-56.946526,-15.029542,STU
6987455574000,2.494928,0.456364692926829,4.66331867987805,2.61212154243451,-1.6084082,-1.2324207,-0.52412236,236.00352,-56.53704,-14.896349,STU
6987460530000,2.499884,0.520677254390244,4.69011583231707,2.45669962522584,-1.5690074,-1.2647965,-0.49541172,236.35266,-56.15262,-14.749621,STU
6987465550000,2.504904,0.46770844640866,4.72804503764547,2.29651311526387,-1.486846,-1.2831224,-0.47158796,236.70753,-55.835224,-14.552508,STU
6987470574000,2.509928,0.402601693917907,4.76710905106901,2.13591657031123,-1.4104879,-1.2712106,-0.45540005,237.0539,-55.53365,-14.34876,STU
6987475883000,2.515237,0.310698937970582,4.85119997290797,1.99727729550785,-1.3313808,-1.2266175,-0.46792278,237.3966,-55.28208,-14.132526,STU
6987480562000,2.519916,0.221631401469887,4.94026744895647,1.88594281094216,-1.2290609,-1.1591167,-0.52106804,237.72914,-55.057808,-13.927537,STU
6987485586000,2.52494,0.168719740664294,4.95732477101621,1.83202628877026,-1.1273518,-1.0485502,-0.55924714,238.02402,-54.883736,-13.747922,STU
6987490589000,2.529943,0.135565399727165,4.93837944464215,1.80834463080269,-1.0195341,-0.929126,-0.5681047,238.29907,-54.739887,-13.586627,STU
6987495577000,2.534931,0.0901158125882353,4.86016446645682,1.79731400430848,-0.90224797,-0.838718,-0.5720753,238.5452,-54.64706,-13.461489,STU
6987500573000,2.539927,0.0383449095294118,4.75191624355695,1.79260756197128,-0.7892379,-0.77213365,-0.56291234,238.76361,-54.5862,-13.351012,STU
6987505624000,2.544978,-0.0513026110020998,4.54943340061994,1.84906585977402,-0.6603453,-0.72234815,-0.5656612,238.95786,-54.562374,-13.265935,STU
6987510579000,2.549933,-0.160433775392661,4.29795731592841,1.93921767774223,-0.5204572,-0.7131852,-0.5546656,239.13974,-54.577095,-13.179962,STU
6987515570000,2.554924,-0.260895489802442,4.07867501232999,2.18206112742976,-0.41813725,-0.66920286,-0.5540548,239.31747,-54.588806,-13.119056,STU
6987520943000,2.560297,-0.363062041993448,3.86412519618783,2.53964406543234,-0.35338554,-0.57726765,-0.5543602,239.47769,-54.631046,-13.065053,STU
6987525578000,2.564932,-0.41873863174302,3.72952142125442,2.95627327853913,-0.3231477,-0.51893,-0.56321776,239.64226,-54.629875,-13.046448,STU
6987530572000,2.569926,-0.461054715343099,3.61197674186001,3.46406621300629,-0.29749137,-0.4822781,-0.5571091,239.78546,-54.648148,-13.034821,STU
6987535871000,2.575225,-0.472863015886483,3.53866282609713,3.9524510693583,-0.29718593,-0.46273044,-0.53878313,239.93887,-54.57032,-13.056407,STU
6987540671000,2.580025,-0.463897014716208,3.50279876524283,4.36488697339575,-0.2941316,-0.4437936,-0.49174652,240.07558,-54.505978,-13.074273,STU
6987545679000,2.585033,-0.505537744583736,3.47322121444852,4.72668047546842,-0.30848694,-0.42913285,-0.462425,240.2308,-54.327316,-13.107923,STU
6987550667000,2.590021,-0.588582356327989,3.45015328012362,5.03117754577941,-0.31123585,-0.3921755,-0.4474588,240.36841,-54.15852,-13.139115,STU
6987555676000,2.59503,-0.68289686473128,3.46810813544686,5.22066401132246,-0.3200934,-0.35002577,-0.4334089,240.51219,-53.909515,-13.166734,STU
6987560688000,2.600042,-0.789174755959139,3.5309087577496,5.28346458318237,-0.2968805,-0.29443705,-0.42149702,240.63972,-53.67247,-13.197879,STU
6987565639000,2.604993,-0.897309295143603,3.60095941503916,5.28280188198433,-0.27672195,-0.20708331,-0.43554693,240.75436,-53.36919,-13.263414,STU
6987570649000,2.610003,-1.01005557347258,3.68029932731071,5.21598923707572,-0.25320363,-0.112704635,-0.45081854,240.85083,-53.07763,-13.334568,STU
6987575590000,2.614944,-1.12672476244383,3.77083021756901,5.14466872421357,-0.20738874,0.0067195175,-0.48288897,240.93802,-52.776134,-13.439563,STU
6987580640000,2.619994,-1.27161675153007,3.92089691669163,5.04634907142093,-0.16829337,0.15210545,-0.52442783,240.9993,-52.480415,-13.567651,STU
6987585642000,2.624996,-1.39858327921123,4.06445366359817,4.96975456278648,-0.106595986,0.28130344,-0.5540548,241.03198,-52.216747,-13.735624,STU
6987591197000,2.630551,-1.50018593729947,4.21177765309396,4.93419370406799,-0.0421497,0.38606682,-0.5873469,241.04286,-51.962856,-13.930563,STU
6987595644000,2.634998,-1.56926496298003,4.33606028977535,4.94691456707949,0.028405234,0.46273044,-0.6072,241.02399,-51.75023,-14.161246,STU
6987600629000,2.639983,-1.6059318969278,4.49647807793779,5.09816581319124,0.099265605,0.49235737,-0.6072,240.99356,-51.555977,-14.399463,STU
6987605631000,2.644985,-1.64512481052952,4.65246102678898,5.25140941955482,0.20005837,0.50701815,-0.6062838,240.947,-51.404522,-14.658206,STU
6987610644000,2.649998,-1.69939061180767,4.77768987273281,5.41420673621424,0.2855795,0.50243664,-0.6047566,240.89816,-51.26946,-14.912241,STU
6987615626000,2.65498,-1.75332083761412,4.9021443132858,5.57599732699765,0.36957347,0.47250426,-0.59498274,240.85686,-51.156242,-15.151621,STU
6987620656000,2.66001,-1.78732794387936,5.02326087551742,5.80399604409777,0.45937067,0.44501534,-0.58062744,240.8153,-51.06884,-15.382975,STU
6987625591000,2.664945,-1.81682035589184,5.14123052356734,6.03993498091524,0.54092115,0.41263947,-0.571159,240.78148,-51.002575,-15.601388,STU
6987630643000,2.669997,-1.93206723691051,5.21288516478291,6.22217768046667,0.6114761,0.4120286,-0.56077427,240.75122,-50.94199,-15.814557,STU
6987635673000,2.675027,-2.05537671874569,5.27928255141282,6.39765668607857,0.6765333,0.41355577,-0.57696223,240.73126,-50.899616,-16.020987,STU
6987640653000,2.680007,-2.2684990404622,5.2947269842832,6.54556835440658,0.7351763,0.43218717,-0.59559363,240.7156,-50.850533,-16.224018,STU
6987645574000,2.684928,-2.49001478104191,5.30395675058754,6.68863067179788,0.7806858,0.43218717,-0.6026186,240.70491,-50.815033,-16.419752,STU
6987650636000,2.68999,-2.62841970506455,5.28151679261172,6.78143873944389,0.7996226,0.4605924,-0.6261369,240.69109,-50.752884,-16.646135,STU
6987655581000,2.694935,-2.74598990367428,5.25329999405164,6.86138647449851,0.8216137,0.5122105,-0.64904433,240.67285,-50.7035,-16.871712,STU
6987660828000,2.700182,-2.57967490130238,5.58104596428841,7.38537377129105,0.8335256,0.5552765,-0.6478226,240.64374,-50.614876,-17.13442,STU
6987665644000,2.704998,-2.37074217695357,5.95103084643262,7.95123318193658,0.83658,0.5946773,-0.6404922,240.60626,-50.529587,-17.401026,STU
6987670673000,2.710027,-1.95724324692802,6.38757255863632,8.32363682395405,0.816116,0.6062838,-0.6075055,240.56433,-50.41614,-17.685062,STU
6987675598000,2.714952,-1.47509763253241,6.83492428589946,8.60198911476446,0.8014552,0.6084218,-0.54183745,240.50871,-50.313225,-17.956087,STU
6987680616000,2.71997,-1.06934966569636,7.48374929082135,8.9372923590387,0.78893244,0.5864306,-0.45478916,240.46999,-50.20752,-18.139177,STU
6987685683000,2.725037,-0.680619724993726,8.18627370486439,9.28855439489432,0.7828238,0.54000485,-0.3371976,240.42033,-50.117573,-18.290632,STU
6987690612000,2.729966,-0.463033622020468,9.09815246580201,9.24385249386969,0.75900006,0.44409904,-0.19058995,240.39078,-50.10546,-18.30023,STU
6987695622000,2.734976,-0.297736888339244,10.1045177500253,9.06397070037491,0.7079928,0.31764993,-0.0036651916,240.35193,-50.10854,-18.260063,STU
6987700630000,2.739984,-0.421993643252054,10.7743803045731,8.19771575799393,0.6554584,0.20708331,0.19120082,240.32059,-50.21492,-18.058952,STU
6987705629000,2.744983,-0.635795251832797,11.338816340836,7.12015554501608,0.6420194,0.13622294,0.3494149,240.2823,-50.33519,-17.816074,STU
6987710606000,2.74996,-0.966336255886858,11.7800531800265,5.91105574794241,0.7367035,0.12064589,0.44837508,240.22385,-50.655373,-17.457535,STU
6987715609000,2.754963,-1.40666595442663,12.1127462940876,4.57049650820995,0.93615097,0.2406809,0.48808134,240.13205,-50.998825,-17.102613,STU
6987720609000,2.759963,-1.74713767828691,12.4491226912249,4.06995074525307,1.1878275,0.49602258,0.50946164,239.96323,-51.59318,-16.77341,STU
6987725612000,2.764966,-2.01021072146351,12.788726351203,4.22301147940501,1.4220943,0.7315111,0.5705481,239.76389,-52.222607,-16.45553,STU
6987730599000,2.769953,-2.58669428276798,12.7887378762551,4.58223057020353,1.527774,0.8390234,0.6239988,239.5098,-53.032795,-16.232931,STU
6987735644000,2.774998,-3.42144440940751,12.517771861782,5.11105125794663,1.488984,0.8549059,0.5879578,239.24397,-53.83289,-16.04408,STU
6987740608000,2.779962,-4.10440358461539,12.1986003293608,5.49182653846154,1.3445144,0.84421575,0.47678033,238.97418,-54.599968,-15.904164,STU
6987745607000,2.784961,-4.53349607062937,11.7789383906235,5.61442439160839,1.2186762,0.8399397,0.39736784,238.71683,-55.33264,-15.770451,STU
6987750752000,2.790106,-4.70571341546723,11.393170115589,5.65053438740035,1.1838568,0.8353582,0.27763826,238.47955,-55.8375,-15.818533,STU
6987755571000,2.794925,-4.36847459871568,11.1172471514615,5.51768268866253,1.1695015,0.86376345,0.25320363,238.24199,-56.3017,-15.862052,STU
6987760565000,2.799919,-3.90536966222483,10.81744941493,5.43744399011838,1.2156218,0.90285885,0.312763,237.99724,-56.66712,-15.992375,STU
6987765541000,2.804895,-3.33189668916936,10.5050704383133,5.41413210439292,1.2965615,0.91629785,0.39614612,237.75858,-57.02711,-16.115042,STU
6987770572000,2.809926,-2.74919587112733,10.2018549805353,5.32106956366585,1.3845261,0.9263771,0.4804455,237.51738,-57.411194,-16.191235,STU
6987775564000,2.814918,-2.16759715190592,9.91590204622871,5.14658995296026,1.4523321,0.93584555,0.5739079,237.26701,-57.813194,-16.240152,STU
6987780549000,2.819903,-1.72713461377551,9.65063621565934,4.96148311754317,1.5045611,0.91721416,0.66523224,237.03912,-58.24881,-16.20011,STU
6987785591000,2.824945,-1.43339952704082,9.4042777239011,4.76250122076138,1.539075,0.8573494,0.73823065,236.81784,-58.696926,-16.134659,STU
6987790533000,2.829887,-1.19146340420672,9.29642897515942,4.47377507027696,1.5406022,0.8038987,0.81183994,236.56306,-59.208157,-15.991035,STU
6987795559000,2.834913,-1.00364058355382,9.35598279394689,4.06148110172266,1.5274686,0.75594574,0.87109387,236.32272,-59.721947,-15.825762,STU
6987800725000,2.840079,-0.897245834895989,9.43799360545436,3.65758519054444,1.5192219,0.68600166,0.91324353,236.08884,-60.267498,-15.610972,STU
6987805645000,2.844999,-0.939453578102916,9.55054735881358,3.30585420935603,1.5332718,0.61850107,0.95447695,235.86714,-60.813454,-15.377234,STU
6987810618000,2.849972,-0.981502092709924,9.67059015687023,2.93804006175573,1.536326,0.5421429,0.9578367,235.67151,-61.41981,-15.108816,STU
6987815622000,2.854976,-1.02265679358779,9.80319949923664,2.54478420091603,1.5467108,0.5018258,0.9624182,235.48712,-62.026505,-14.828263,STU
6987820628000,2.859982,-1.08691753185641,9.91481381702564,2.13278926059487,1.5613716,0.4810564,0.9642508,235.32524,-62.674892,-14.548704,STU
6987825646000,2.865,-1.21999684758974,9.96410241435897,1.66454727712821,1.5903877,0.50243664,0.95294976,235.1727,-63.31603,-14.274208,STU
6987830593000,2.869947,-1.35226622033749,10.0037368132051,1.26997970416953,1.6297885,0.54611355,0.9419542,235.04132,-64.00648,-14.004498,STU
6987835656000,2.87501,-1.49021710034337,10.0227644145983,1.02737632110272,1.6554449,0.62125,0.91538155,234.90828,-64.68351,-13.749554,STU
6987840602000,2.879956,-1.6079231679967,10.0512588417722,0.853471628508531,1.6969837,0.6640105,0.8894198,234.78403,-65.41096,-13.519864,STU
6987846103000,2.885457,-1.68524037391304,10.1140793333333,0.858303950724638,1.7024814,0.7339546,0.86926126,234.64551,-66.11812,-13.305891,STU
6987850683000,2.890037,-1.75126211762423,10.1580684695483,0.879453736919263,1.704314,0.8020661,0.8344419,234.49747,-66.839615,-13.122139,STU
6987855647000,2.895001,-1.83837734789264,10.1273218484424,1.06393298197693,1.7085901,0.86162543,0.79473567,234.34644,-67.54319,-12.949056,STU
6987860636000,2.89999,-1.91810246289753,10.0968982650177,1.25215906961131,1.6917913,0.9272934,0.7623598,234.16904,-68.226036,-12.794508,STU
6987865619000,2.904973,-1.97156928416789,10.0681082663966,1.44957515390847,1.6563611,0.98746365,0.7425067,233.98984,-68.8849,-12.649485,STU
6987870674000,2.910028,-2.02580865433078,10.0389022774283,1.64984372828579,1.6285667,1.0259482,0.71837753,233.798,-69.492424,-12.531485,STU
6987875645000,2.914999,-2.07891462163247,10.0219037471008,1.75876433891615,1.6142114,1.0512991,0.689056,233.6049,-70.07504,-12.421372,STU
6987880738000,2.920092,-2.13416574325697,10.0048649488368,1.853540198146,1.6218473,1.0690142,0.66553766,233.41403,-70.63782,-12.315958,STU
6987885658000,2.925012,-2.19296331737231,9.98386581522417,1.8913386825029,1.6441438,1.0650436,0.6374379,233.21617,-71.14751,-12.230811,STU
6987890583000,2.929937,-2.25182064511989,9.96284534102861,1.92917557995365,1.6887369,1.0329732,0.6032294,233.018,-71.6312,-12.156762,STU
6987895644000,2.934998,-2.35780924316169,9.92731823644505,1.92637476661151,1.7284433,1.0140363,0.5751296,232.82706,-72.09999,-12.08679,STU
6987900627000,2.939981,-2.46929655591356,9.89015600905286,1.91708416125767,1.7672331,0.98349303,0.5363397,232.65936,-72.55475,-12.02367,STU
6987905652000,2.945006,-2.60448449856295,9.83009719837551,1.86628362308654,1.815797,0.95569867,0.5158757,232.48761,-72.99513,-11.972068,STU
6987910576000,2.94993,-2.74198044299698,9.7662595355618,1.80735678243257,1.829236,0.93431836,0.49113566,232.33244,-73.41256,-11.928012,STU
6987915657000,2.955011,-2.86843449628099,9.67815193299882,1.69861120430933,1.844813,0.91782504,0.47250426,232.16774,-73.817154,-11.895747,STU
6987920666000,2.96002,-2.99114464710744,9.58847930106258,1.58534028827233,1.8267925,0.89919364,0.4529566,232.01764,-74.1969,-11.866358,STU
6987925648000,2.965002,-3.03745489954275,9.49717103383631,1.50233688911751,1.7983873,0.90102625,0.4279111,231.84877,-74.5547,-11.856085,STU
6987930576000,2.96993,-3.07198231075446,9.40653684417009,1.4246504279561,1.7464638,0.9095783,0.39553526,231.69049,-74.88319,-11.849729,STU
6987935662000,2.975016,-3.06273908499625,9.31971311252813,1.33523528379595,1.6930131,0.9324858,0.35063666,231.51137,-75.18552,-11.864596,STU
6987940588000,2.979942,-3.03240435360626,9.23882081223877,1.2442315647519,1.6313156,0.9477574,0.3268129,231.33775,-75.45927,-11.879627,STU
6987945646000,2.985,-2.90544831550947,9.14451497174632,1.1400861875263,1.5992452,0.9764681,0.29718593,231.14543,-75.70792,-11.911529,STU
6987950639000,2.989993,-2.7569335039976,9.04869899659353,1.03468851480814,1.5482379,1.0146471,0.27152961,230.95166,-75.92408,-11.946939,STU
6987955654000,2.995008,-2.55663800168951,8.88390615336963,0.926927742127839,1.5045611,1.0833695,0.27977628,230.73671,-76.13459,-11.978793,STU
6987960609000,2.999963,-2.34729925098555,8.70574567279895,0.820031393324573,1.4676038,1.1325442,0.30268374,230.52176,-76.32201,-12.01104,STU
6987965681000,3.005035,-1.95149190246644,8.37527513837028,0.730091739541055,1.4495832,1.1859949,0.31490102,230.28737,-76.51856,-12.022882,STU
6987970677000,3.010031,-1.47846205403268,7.98191321442398,0.65042353429181,1.4413365,1.2211196,0.34483343,230.04822,-76.708466,-12.021396,STU
6987975649000,3.015003,-1.30957130863198,7.7814498905221,0.612098534035838,1.4382823,1.2464706,0.36041048,229.8025,-76.91429,-11.995221,STU
6987980646000,3.02,-1.2312199030926,7.63780554855376,0.585981400371112,1.4330899,1.2654073,0.38056904,229.5538,-77.11447,-11.957818,STU
6987985959000,3.025313,-1.22967430666811,7.48404855656511,0.545292347603817,1.4404203,1.2596041,0.38881573,229.33719,-77.34974,-11.870127,STU
6987990651000,3.030005,-1.27839423784018,7.3476328917272,0.501444429898081,1.4333953,1.2507466,0.39706242,229.12279,-77.5756,-11.775946,STU
6987995632000,3.034986,-1.34714828740865,7.25621683668773,0.447707679129962,1.432479,1.239751,0.40744713,228.90695,-77.80275,-11.670651,STU
6988000680000,3.040034,-1.42353575404898,7.18460368330041,0.390417071671934,1.4236214,1.2336423,0.43127087,228.6993,-78.021805,-11.5583315,STU
6988005652000,3.045006,-1.5200528103257,7.17017487047494,0.306263709618836,1.3771957,1.1841623,0.4569272,228.49295,-78.22391,-11.450791,STU
6988010647000,3.050001,-1.62617311399617,7.17982216622971,0.20979068659272,1.3414601,1.1178834,0.473726,228.30048,-78.41785,-11.338214,STU
6988015634000,3.054988,-1.73539720086806,7.25466410364583,0.149205319947917,1.3109168,1.0421361,0.5112942,228.10484,-78.60457,-11.221573,STU
6988020712000,3.060066,-1.84796898688272,7.35785491157407,0.102300395231481,1.2770138,0.97127575,0.5525276,227.93362,-78.78324,-11.09842,STU
6988025646000,3.065,-1.97880520709033,7.56324124240996,0.120756615383745,1.2373075,0.89644474,0.5928447,227.76242,-78.95227,-10.975819,STU
6988030640000,3.069994,-2.12310567405242,7.82929501501037,0.174869275191401,1.1963795,0.81581056,0.63316184,227.6193,-79.12008,-10.841418,STU
6988035632000,3.074986,-2.28315671959961,8.13051511056937,0.275286547857066,1.1508701,0.77366084,0.6743952,227.46884,-79.27919,-10.70536,STU
6988040657000,3.080011,-2.45926228224088,8.46718778493165,0.420314711079539,1.1142182,0.6872234,0.6954701,227.35991,-79.43254,-10.564274,STU
6988045648000,3.085002,-2.61507142854552,8.69827137879366,0.526483996913533,1.0922271,0.6047566,0.7171558,227.26045,-100.427444,-10.427407,STU
6988050658000,3.090012,-2.76160264433098,8.8768560275816,0.613486907182668,1.0516045,0.5342017,0.74006325,227.18675,-100.289986,-10.285966,STU
6988055650000,3.095004,-2.88865831413886,8.99429571565467,0.655926619696838,0.9978484,0.47983465,0.7492262,227.11005,-100.17597,-10.162967,STU
6988060647000,3.100001,-3.0012198855301,9.06516788065163,0.664264500975695,0.9239337,0.4474588,0.7623598,227.05058,-100.05995,-10.034445,STU
6988065619000,3.104973,-3.07410471069665,9.10611736313768,0.669001181162918,0.88056225,0.44440445,0.77274454,226.9825,-99.96258,-9.922755,STU
6988070735000,3.110089,-3.03647811629183,9.06311546077893,0.663625985463522,0.8213083,0.44318274,0.78954333,226.92557,-99.861984,-9.807752,STU
6988075678000,3.115032,-2.95053446557864,8.96794302344214,0.654397153124629,0.768163,0.43310347,0.82711154,226.85597,-99.76894,-9.699569,STU
6988080675000,3.120029,-2.803797140455,8.80700551928783,0.640196741790307,0.73364913,0.41996986,0.8689558,226.78981,-99.67227,-9.587649,STU
6988085624000,3.124978,-2.66075779425366,8.64796480793073,0.63600625810489,0.6921103,0.39645153,0.9138544,226.72275,-99.563156,-9.463292,STU
6988090692000,3.130046,-2.51748743392699,8.48559183262816,0.645557650367018,0.6579019,0.37293324,0.95569867,226.66171,-99.4458,-9.330824,STU
6988095577000,3.134931,-2.39655017166238,8.33277621866971,0.639236625079456,0.6356053,0.32834008,0.9972375,226.60936,-99.304474,-9.172596,STU
6988100659000,3.140013,-2.29929484137406,8.17994627576363,0.606818184873918,0.61544675,0.27916542,1.0137309,226.5672,-99.161644,-9.013619,STU
6988105595000,3.144949,-2.22470554378901,8.05986708757801,0.566790038481981,0.602924,0.23365596,1.0348058,226.53325,-98.99861,-8.8321905,STU
6988110681000,3.150035,-2.2001899383934,8.01083587678679,0.503049408135696,0.60139686,0.19242255,1.0366384,226.51387,-98.841255,-8.656306,STU
6988115611000,3.154965,-2.16924471144279,7.98785613598673,0.445419459049199,0.61086524,0.14935656,1.0320568,226.50345,-98.67835,-8.4704075,STU
6988120694000,3.160048,-2.11991095107794,8.02373497899392,0.396085759564216,0.6105598,0.10476339,1.0430524,226.50687,-98.51569,-8.284368,STU
6988125609000,3.164963,-2.09297037467163,8.07597729334501,0.352410984575306,0.6075055,0.065973446,1.0647382,226.5143,-98.358345,-8.097158,STU
6988130661000,3.170015,-2.21477273434764,8.25603331611208,0.336523716422942,0.6151413,0.037873644,1.0482447,226.53235,-98.21532,-7.9222383,STU
6988135710000,3.175064,-2.35211859096143,8.42323440299367,0.306749116885435,0.62858033,0.007941248,1.0085385,226.55757,-98.07418,-7.7422667,STU
6988140687000,3.180041,-2.52133372567645,8.56043570869315,0.247295169994243,0.6383542,-0.03970624,0.9798279,226.59692,-97.94143,-7.5684853,STU
6988145646000,3.185,-2.67934263402968,8.6925553006638,0.186807562025576,0.63621616,-0.09254608,0.9049969,226.62894,-97.84674,-7.43146,STU
6988150681000,3.190035,-2.80172645821945,8.81023196017181,0.120908588465443,0.65057147,-0.105374254,0.8689558,226.66386,-97.75715,-7.294934,STU
6988155644000,3.194998,-2.92025942226251,8.9139928071066,0.0468701026686004,0.6591236,-0.12950343,0.8332202,226.70953,-97.708725,-7.2004166,STU
6988160683000,3.200037,-3.03024242259401,8.95898570558376,-0.073111327086916,0.6597345,-0.13408493,0.784351,226.75267,-97.67762,-7.1219296,STU
6988165709000,3.205063,-3.09583166664039,8.98786942236453,-0.180624241566502,0.6462954,-0.13072516,0.74006325,226.78357,-97.67345,-7.065627,STU
6988171552000,3.210906,-3.01864914819704,8.96581742226601,-0.263319731251232,0.6597345,-0.13255776,0.6621779,226.8161,-97.6964,-7.034281,STU
6988175676000,3.21503,-2.99281341304,8.9986240566,-0.320884320128,0.6774496,-0.14569137,0.6365216,226.84515,-97.72837,-7.006223,STU
6988180679000,3.220033,-3.05989133566,9.20464934765,-0.387962182712,0.6942484,-0.16554448,0.5537493,226.87448,-97.79818,-7.0174165,STU
6988185699000,3.225053,-3.08766446178055,9.38737280179232,-0.448503837016156,0.7165449,-0.18753563,0.4364632,226.90746,-97.884125,-7.033833,STU
6988190674000,3.230028,-2.97540855173342,9.48359220708516,-0.484586108768092,0.7452556,-0.19242255,0.35094208,226.93999,-97.986595,-7.064821,STU
6988195652000,3.235006,-2.86308494968024,9.57986963412992,-0.520690138673847,0.7666359,-0.18692477,0.29016098,226.97066,-98.12076,-7.1243052,STU
6988200685000,3.240039,-2.72433114,9.72755232380952,-0.437706612354016,0.77671516,-0.1731803,0.2312125,226.99818,-98.27661,-7.206083,STU
6988205650000,3.245004,-2.58253074,9.88307503809524,-0.332499919742184,0.7657196,-0.15088372,0.18784106,227.02013,-98.44128,-7.298543,STU
6988210681000,3.250035,-2.4225156049235,10.0599912394993,-0.147782074442281,0.7504479,-0.13103059,0.1469131,227.03769,-98.606476,-7.3820057,STU
6988215596000,3.25495,-2.26103304066759,10.2389314189152,0.0573445140417246,0.70280045,-0.1142318,0.12583824,227.04869,-98.76793,-7.4694595,STU
6988220693000,3.260047,-2.05233067590337,10.4789378073508,0.302379330353087,0.63163465,-0.099265605,0.12064589,227.048,-98.90019,-7.5393333,STU
6988225682000,3.265036,-1.82049103208755,10.750239277101,0.563815498141648,0.5494733,-0.09621128,0.12156218,227.04547,-99.0236,-7.611001,STU
6988230663000,3.270017,-1.49571662500475,11.1304228618133,0.904515855911424,0.45478916,-0.09315695,0.13744467,227.03503,-99.09311,-7.6570935,STU
6988235718000,3.275072,-1.11844216240259,11.5721103328265,1.29099212881581,0.35124752,-0.10476339,0.16187929,227.02844,-99.14427,-7.699175,STU
6988241343000,3.280697,-0.61963564440858,11.7039781251059,1.44158943643008,0.25992316,-0.116675265,0.19547687,227.01413,-99.13196,-7.704082,STU
6988245686000,3.28504,-0.196665412073941,11.6334830459746,1.42396573565678,0.18081611,-0.12461651,0.2098322,227.00298,-99.10522,-7.70734,STU
6988250679000,3.290033,-0.153137958636265,11.9930486537739,1.09839320456128,0.14660765,-0.13622294,0.23396139,226.99916,-98.99052,-7.6495676,STU
6988255691000,3.295045,-0.324071022776734,12.5675733857948,0.623579076631714,0.06078109,-0.16982053,0.31031954,227.00693,-98.843445,-7.5737357,STU
6988260669000,3.300023,-0.380008891238921,12.8302138079575,0.150286270815442,-0.036957346,-0.106901415,0.34605515,227.00912,-98.65139,-7.4363904,STU
6988265667000,3.305021,-0.375295000516053,12.9292056115816,-0.325817021981485,-0.093462385,-0.022907447,0.3323107,227.0161,-98.45033,-7.293705,STU
6988270658000,3.310012,-0.500632226966754,13.0024761247747,-0.661317523364711,-0.10934488,0.030848695,0.32650748,227.01665,-98.27053,-7.138534,STU
6988275646000,3.315,-0.706327391945724,13.0598795832165,-0.91006515730022,-0.14019357,0.045814894,0.33169982,227.0046,-98.08604,-6.986848,STU
6988280644000,3.319998,-0.928597562062238,13.1690215518652,-1.07018993104302,-0.15424347,0.017104227,0.31581733,226.99854,-97.93485,-6.8257565,STU
6988285656000,3.32501,-1.16155784523316,13.3106248609631,-1.17525047531405,-0.15882497,-0.01740966,0.2837469,226.99037,-97.788414,-6.6724515,STU
6988290649000,3.330003,-1.34779125285847,13.5167335135945,-1.21561393454978,-0.15943582,-0.03970624,0.25534168,226.98137,-97.68597,-6.548674,STU
6988295643000,3.334997,-1.491177031376,13.7837276844826,-1.19583660003101,-0.17073683,-0.038789943,0.2284636,226.9757,-97.592354,-6.437581,STU
6988300631000,3.339985,-1.57057265124457,14.0298565296819,-1.11646992403694,-0.19639318,-0.034513887,0.2003638,226.9599,-97.53167,-6.3619385,STU
6988305650000,3.345004,-1.60380672022916,14.2624956570525,-0.993028972441723,-0.22479841,-0.011301007,0.17592919,226.93883,-97.47641,-6.2949967,STU
6988310995000,3.350349,-1.6155157365651,14.5401201807479,-0.805121599466759,-0.2846632,0.022296581,0.15851954,226.90547,-97.426636,-6.250321,STU
6988315625000,3.354979,-1.6111290543332,14.7989343408192,-0.607720757035022,-0.33964106,0.0421497,0.15118915,226.87,-97.37794,-6.211119,STU
6988320655000,3.360009,-1.57238431925849,15.0373650589797,-0.405317039008155,-0.42332962,0.060170226,0.14477506,226.82294,-97.31327,-6.182098,STU
6988325647000,3.365001,-1.50438590439029,15.2368273157595,-0.214921486844301,-0.49174652,0.070249505,0.14355333,226.77324,-97.2454,-6.1547737,STU
6988330653000,3.370007,-1.4022105970682,15.3852435743236,-0.0254931692243596,-0.5684101,0.09162979,0.1459968,226.7089,-97.14482,-6.1249647,STU
6988335722000,3.375076,-1.25239633074787,15.4651440713918,0.164271632426705,-0.64996064,0.14080444,0.14538592,226.63435,-97.0398,-6.09721,STU
6988340648000,3.380002,-1.074297077274,15.502690802623,0.310398876853396,-0.68844515,0.18753563,0.14905111,226.55556,-96.91431,-6.0617876,STU
6988345644000,3.384998,-0.859159348674473,15.498209144918,0.417967731792974,-0.75228053,0.23335053,0.14721853,226.46368,-96.78387,-6.0290785,STU
6988350636000,3.38999,-0.656854693973284,15.449219606296,0.491828579512271,-0.8029824,0.26145032,0.15118915,226.36392,-96.6298,-5.9768586,STU
6988355648000,3.395002,-0.477921031295433,15.3150192451072,0.501769326439888,-0.8680395,0.2706133,0.14630222,226.25743,-96.47995,-5.929602,STU
6988360619000,3.399973,-0.307048124902454,15.1057596732496,0.466529743159785,-0.9334021,0.2415972,0.13775012,226.16089,-96.3053,-5.856353,STU
6988365627000,3.404981,-0.14440479441931,14.7852566642729,0.366073578850987,-1.0152581,0.19028452,0.12736541,226.06905,-96.138054,-5.787985,STU
6988370646000,3.41,-0.0284551690656095,14.381336447671,0.267600091696729,-1.1163563,0.13500121,0.11453723,225.99504,-95.96124,-5.7042785,STU
6988375646000,3.415,0.019001750656888,13.8593101840436,0.172686246305253,-1.2208142,0.07849618,0.09285152,225.93636,-95.80118,-5.62946,STU
6988380626000,3.41998,0.0408733465479025,13.3225210395881,0.11667435204932,-1.3377949,0.0290161,0.0571159,225.8984,-95.64726,-5.546766,STU
6988385634000,3.424988,0.0227476301079932,12.7560922973356,0.121205782933673,-1.4691309,-0.013744468,0.015271631,225.87436,-95.51869,-5.47504,STU
6988390612000,3.429966,0.0199312025789521,12.2467125508703,0.142906305403732,-1.5925257,-0.04337143,-0.032375857,225.86107,-95.42134,-5.412397,STU
6988395644000,3.434998,0.0588433150160596,11.8792095097793,0.212083398093486,-1.7232509,-0.090713486,-0.08246681,225.86429,-84.634384,-5.36463,STU
6988400779000,3.440133,0.0926787716344086,11.5047318781362,0.292144098924731,-1.820073,-0.12644911,-0.12370021,225.86945,-84.63491,-5.3381987,STU
6988405652000,3.445006,0.0508617669190562,11.1562565841298,0.487290137425329,-1.917506,-0.16768251,-0.17592919,225.88869,-84.57688,-5.3302255,STU
6988410820000,3.450174,0.00987716016691557,10.8149181702539,0.69256813319863,-1.9828686,-0.21135938,-0.2507602,225.92139,-84.45766,-5.3389244,STU
6988415646000,3.455,0.0139373965353597,10.8514601860669,0.863098063217078,-2.0186043,-0.25411993,-0.30726522,225.96442,-84.28641,-5.357311,STU
6988420642000,3.459996,0.0181406582213828,10.8892894258104,1.03963505666345,-2.0500638,-0.28680122,-0.35430184,226.01192,-84.03488,-5.40348,STU
6988425644000,3.464998,0.112490620793131,11.0779004846032,1.11807805943545,-2.0616703,-0.2938262,-0.40561453,226.06335,-83.73475,-5.4661016,STU
6988430611000,3.469965,0.234556158639755,11.3126422184169,1.16502635717529,-2.057394,-0.29016098,-0.43676865,226.11972,-83.402054,-5.5351176,STU
6988435686000,3.47504,0.419860924053651,11.5677667293592,1.23086950435171,-2.0506747,-0.28191432,-0.46486846,226.17975,-83.02084,-5.613699,STU
6988440614000,3.479968,0.621486726895181,11.8209709435668,1.301204084461,-2.055867,-0.26236662,-0.50976706,226.23491,-82.612885,-5.7047534,STU
6988445641000,3.484995,0.747849545103448,12.0335816551724,1.49134003048276,-2.0873265,-0.258396,-0.5549711,226.30264,-82.19826,-5.779711,STU
6988450661000,3.490015,0.842579714758621,12.2277789950739,1.72816547934975,-2.1383338,-0.25320363,-0.61300325,226.36452,-81.75966,-5.8699236,STU
6988455687000,3.495041,0.840948819133754,12.3009260690342,1.91982558066711,-2.225993,-0.21899518,-0.6765333,226.42854,-81.31365,-5.9358077,STU
6988460763000,3.500117,0.796580190491205,12.3210936083638,2.0932665452539,-2.3472497,-0.16401732,-0.77121735,226.4868,-80.82937,-6.0263753,STU
6988465634000,3.504988,0.606629952219446,12.251182695713,2.29598750996303,-2.4672847,-0.069027774,-0.8720101,226.5354,-80.297295,-6.120291,STU
6988470702000,3.510056,0.0246143092015589,11.9456238748876,2.60154562176476,-2.5977044,0.041233405,-0.97433007,226.5672,-79.71951,-6.242243,STU
6988475601000,3.514955,-0.503347341740538,11.650533057883,2.9136313490589,-2.6978865,0.14477506,-1.1032226,226.58018,-79.071976,-6.4083786,STU
6988480686000,3.52004,-0.956719314053835,11.344999788302,3.2832281058895,-2.7980683,0.21838433,-1.2382239,226.57611,-78.38279,-6.605751,STU
6988485601000,3.524955,-1.35642716607377,11.0796131568469,3.60199324584133,-2.8756483,0.24923302,-1.3839152,226.5361,-77.561844,-6.937455,STU
6988490689000,3.530043,-1.67651219196564,10.8777133981809,3.83836378029308,-2.9911017,0.24953845,-1.5210545,226.4931,-76.70205,-7.301305,STU
6988496240000,3.535594,-2.02890410218852,10.7553393655212,3.99556083065848,-3.1172454,0.26389378,-1.6404786,226.4378,-75.7159,-7.7668576,STU
6988500674000,3.540028,-2.31422268133999,10.7757192518718,3.99963672280668,-3.285844,0.27885997,-1.7599027,226.39455,-74.68863,-8.263011,STU
6988505612000,3.544966,-2.61552293533525,10.8205977230564,3.92049474696627,-3.4440582,0.27855456,-1.9025398,226.35814,-73.56281,-8.840776,STU
6988510681000,3.550035,-2.87012873406006,10.9404120141917,3.56105150865899,-3.5784485,0.2751948,-2.0986276,226.33617,-72.39641,-9.457208,STU
6988515642000,3.554996,-3.05336411403344,11.0480461341349,3.1905116002818,-3.6340373,0.26236662,-2.2629502,226.31543,-71.186226,-10.14031,STU
6988520727000,3.560081,-3.08081002658275,11.1349582701484,2.76510105434905,-3.6025777,0.23976462,-2.3533583,226.31311,-69.96949,-10.842902,STU
6988525664000,3.565018,-3.04661444872819,11.209126954383,2.34278849528064,-3.47002,0.19181168,-2.3759604,226.29527,-68.80685,-11.583664,STU
6988530746000,3.5701,-2.70898814109733,11.2347046806811,1.86192686696447,-3.2507193,0.13072516,-2.3261747,226.29062,-67.692406,-12.310823,STU
6988535663000,3.575017,-2.34044595920265,11.2750636910045,1.46163790897707,-2.9394836,-0.011301007,-2.2730296,226.32144,-66.69925,-13.009254,STU
6988540679000,3.580033,-1.84950254610993,11.3590993562287,1.23164643467452,-2.767525,-0.21838433,-2.122146,226.37239,-65.767365,-13.640163,STU
6988545613000,3.584967,-1.36877787573262,11.4211729830174,1.02392212448657,-2.3948972,-0.48655418,-1.9162843,226.50839,-65.05451,-14.1436205,STU
6988550686000,3.59004,-0.898680386639021,11.258077635861,1.01432830410742,-2.0045543,-0.7849618,-1.7012597,226.68997,-64.42657,-14.56816,STU
6988555698000,3.595052,-0.443320436947057,11.0640198978769,1.02113054901908,-1.6566665,-1.0662653,-1.4825699,226.93816,-64.005066,-14.808366,STU
6988560684000,3.600038,-0.101118817629669,10.4694446460629,1.22645150988981,-1.3341297,-1.359786,-1.2953397,227.24696,-63.70793,-14.960794,STU
6988566682000,3.606036,0.305287487821554,9.75002580591479,1.47212942054135,-1.0797043,-1.8289305,-1.0531317,227.65761,-63.569042,-14.914393,STU
6988570706000,3.61006,0.47527556075589,9.18597436370927,1.61121059972932,-0.8197812,-1.9819523,-0.979217,228.05421,-63.514683,-14.864425,STU
6988575737000,3.615091,0.687802895480702,8.48076988912281,1.78509663663158,-0.754724,-2.2149973,-0.83260936,228.63823,-63.47368,-14.639551,STU
6988580681000,3.620035,0.627295921192083,7.97218463830859,2.00286136224022,-0.6994407,-2.4058928,-0.7156286,229.23906,-63.50326,-14.391995,STU
6988585684000,3.625038,0.519529928349078,7.48939293275753,2.23132521395412,-0.69913524,-2.526844,-0.65179324,229.86511,-63.554676,-14.104012,STU
6988590693000,3.630047,0.291891789241373,7.18441860557239,2.50453573701242,-0.7867944,-2.6025913,-0.6215554,230.56378,-63.549583,-13.774957,STU
6988595681000,3.635035,-0.00698623033043311,6.98827990294261,2.80341387849252,-0.93462384,-2.597399,-0.61086524,231.25844,-63.541035,-13.431051,STU
6988600658000,3.640012,-0.395865257053683,6.87073117740325,3.12399991186017,-1.1221595,-2.562885,-0.6267477,231.97516,-63.416348,-13.122936,STU
6988605687000,3.645041,-0.856839239554723,6.81060412483354,3.46471978922181,-1.3411547,-2.44621,-0.6771441,232.66052,-63.248924,-12.830101,STU
6988610667000,3.650021,-1.17427452128684,6.80831755530452,3.71637673689587,-1.5815301,-2.2489004,-0.71837753,233.30652,-62.948215,-12.607863,STU
6988615639000,3.654993,-1.4174990469057,6.83638200442043,3.92218198074656,-1.8173242,-2.010663,-0.75441855,233.90494,-62.593655,-12.413596,STU
6988620638000,3.659992,-1.56900994994452,6.77977943054575,4.03251262554222,-2.0344868,-1.7482964,-0.77396625,234.41432,-62.104183,-12.328632,STU
6988625653000,3.665007,-1.66106345453445,6.66834631267023,4.08096178523151,-2.2030854,-1.6105462,-0.7819075,234.88669,-61.572475,-12.260262,STU
6988630648000,3.670002,-1.74823056373896,6.38803948611384,3.99555351933268,-2.323426,-1.3707817,-0.8035932,235.26895,-60.94718,-12.277739,STU
6988635611000,3.674965,-1.83218879214917,6.01022733650638,3.83230150323847,-2.3451116,-1.174083,-0.83016586,235.6192,-60.313198,-12.30728,STU
6988640649000,3.680003,-1.81087357918711,5.71557996366003,3.622175653639,-2.3603833,-1.0445796,-0.86376345,235.91656,-59.63355,-12.384007,STU
6988645645000,3.684999,-1.71507676713385,5.48566743467815,3.38268354848333,-2.3066273,-0.9776898,-0.8912524,236.17499,-58.975094,-12.479712,STU
6988650628000,3.689982,-1.53687425403751,5.33333400641658,3.16524704331688,-2.201253,-0.94134337,-0.8933904,236.41058,-58.307205,-12.611599,STU
6988655641000,3.694995,-1.29991211939783,5.23381012068115,2.96145963622902,-2.0726657,-0.95203346,-0.8872818,236.63712,-57.66823,-12.747082,STU
6988660643000,3.699997,-1.07632031679389,5.1530532693566,2.76836550763359,-1.9453003,-0.9575313,-0.86162543,236.837,-57.08952,-12.873906,STU
6988665632000,3.704986,-0.863170571616933,5.08673992847229,2.58363575156142,-1.8081611,-0.9593639,-0.82436264,237.03009,-56.558487,-12.9923,STU
6988670753000,3.710107,-0.675714516565972,5.03527634213604,2.42773447066849,-1.6698002,-0.9450085,-0.81122905,237.22946,-56.104694,-13.068887,STU
6988675706000,3.71506,-0.518556724303255,4.99829801252193,2.3029327228513,-1.5479325,-0.9315695,-0.7761043,237.41528,-55.697315,-13.128607,STU
6988680642000,3.719996,-0.378028247039133,4.93595463238997,2.1923578979799,-1.4172074,-0.90102625,-0.7538077,237.64229,-55.35031,-13.137191,STU
6988685682000,3.725036,-0.250848408959696,4.84645776813702,2.09344021280375,-1.3164146,-0.8713993,-0.7281514,237.85492,-55.038864,-13.137381,STU
6988690621000,3.729975,-0.15880902845961,4.77693458651015,2.01460494381218,-1.221425,-0.86590147,-0.7119634,238.09268,-54.781906,-13.10166,STU
6988695600000,3.734954,-0.106629150066852,4.72949836764823,1.95768148117787,-1.14018,-0.8512407,-0.6780604,238.30936,-54.558746,-13.06104,STU
6988700621000,3.739975,-0.0786820318742869,4.7249556207787,1.91666787209489,-1.07665,-0.816116,-0.6753115,238.53119,-54.37055,-13.006939,STU
6988705631000,3.744985,-0.0834843337519768,4.77778085819237,1.89745862647383,-1.0118983,-0.77549344,-0.6979135,238.74287,-54.210308,-12.953906,STU
6988710601000,3.749955,-0.112644107479208,4.76889511019802,1.8988399189505,-0.93828905,-0.698219,-0.6817256,238.95676,-54.071705,-12.883897,STU
6988715614000,3.754968,-0.17443726890198,4.67858194450495,1.92735986862376,-0.8536842,-0.65240407,-0.6618725,239.16786,-53.95586,-12.81995,STU
6988720588000,3.759942,-0.22469736377668,4.58824390161638,1.9552978824404,-0.78984874,-0.6462954,-0.63529986,239.3602,-53.87066,-12.754317,STU
6988725656000,3.76501,-0.259616491479687,4.49512632335364,1.98323316321166,-0.70157874,-0.6453791,-0.61117065,239.53712,-53.820084,-12.691185,STU
6988730593000,3.769947,-0.293633013474507,4.40441569117464,2.0104463599693,-0.593761,-0.6365216,-0.6035349,239.73346,-53.75955,-12.636438,STU
6988735665000,3.775019,-0.328579701657154,4.31122461837498,2.03840368910739,-0.5412266,-0.65270954,-0.5879578,239.92767,-53.71463,-12.570544,STU
6988740594000,3.779948,-0.372844383307965,4.20320771019787,2.12261586311517,-0.41691554,-0.68600166,-0.56291234,240.11871,-53.7223,-12.499706,STU
6988745637000,3.784991,-0.451254656452562,4.03658576207001,2.3921513433587,-0.3191771,-0.72692966,-0.5305365,240.30948,-53.742027,-12.420074,STU
6988750623000,3.789977,-0.556932817589499,3.84287088225935,2.76370126109785,-0.23854288,-0.77824235,-0.49510628,240.52594,-53.742268,-12.343945,STU
6988755672000,3.795026,-0.739652120924821,3.56879192223548,3.4224523646778,-0.18295415,-0.8405506,-0.44776422,240.74501,-53.768894,-12.249715,STU
6988760622000,3.799976,-0.902214388576284,3.35567349337236,3.96630072875755,-0.15057829,-0.872621,-0.42760566,240.98018,-53.735584,-12.176909,STU
6988765647000,3.805001,-1.02034221382175,3.29660953330816,4.22981652983384,-0.10934488,-0.8885035,-0.40011674,241.21402,-53.72738,-12.084729,STU
6988770666000,3.81002,-1.13448729817014,3.25587134565008,4.48899507219904,-0.055588737,-0.8707884,-0.37384954,241.45306,-53.569206,-12.050821,STU
6988775683000,3.815037,-1.22703341953986,3.317568849374,4.72550182084537,-0.023823744,-0.838718,-0.3304781,241.68105,-53.423153,-12.005967,STU
6988780648000,3.820002,-1.30339179637938,3.37724348083432,4.91347852947658,0.015882496,-0.79809546,-0.30665436,241.89423,-53.23159,-11.996646,STU
6988785619000,3.824973,-1.34086229838646,3.43344918493703,4.98373567183196,0.05009095,-0.73548174,-0.30176744,242.08684,-53.051975,-11.989842,STU
6988790668000,3.830022,-1.36597288803982,3.50153949348558,5.02628357879276,0.077579886,-0.6579019,-0.29871312,242.2717,-52.842323,-11.999102,STU
6988795669000,3.835023,-1.35195046766213,3.60203360380618,4.98187924759674,0.112704635,-0.5708536,-0.31398472,242.43845,-52.645416,-12.022379,STU
6988800679000,3.840033,-1.33790281197482,3.70270856735471,4.93739500458693,0.15302174,-0.47342056,-0.31948254,242.58601,-52.450108,-12.057952,STU
6988805686000,3.84504,-1.32386356805739,3.80332324649392,4.89293739884839,0.17806722,-0.3848451,-0.33017266,242.71577,-52.260994,-12.109792,STU
6988810657000,3.850011,-1.3033308475632,3.90411845047523,4.83660887098079,0.20433442,-0.2602286,-0.3494149,242.82123,-52.08042,-12.183875,STU
6988815701000,3.855055,-1.24471961856421,4.01157217480283,4.70961788331648,0.23090707,-0.13836098,-0.36560285,242.90567,-51.908455,-12.272227,STU
6988821418000,3.860772,-1.18466828108517,4.1265010965253,4.59677418208304,0.2660318,-0.037873644,-0.37873647,242.97446,-51.791008,-12.356743,STU
6988825727000,3.865081,-1.15157862394868,4.2000338129722,4.57103777355666,0.2950479,0.01038471,-0.38973203,243.02785,-51.679417,-12.453995,STU
6988830642000,3.869996,-1.11383537381504,4.28390786758731,4.54168190261048,0.34116822,0.08124508,-0.3930918,243.06152,-51.620213,-12.548024,STU
6988835665000,3.875019,-1.2049682700904,4.39729430627044,4.56505859557607,0.36835176,0.12980886,-0.3979787,243.09026,-51.563293,-12.647086,STU
6988840583000,3.879937,-1.30461939880746,4.51053407047509,4.59223610303905,0.42913285,0.16279559,-0.41691554,243.10828,-51.526466,-12.757096,STU
6988845646000,3.885,-1.4212594908867,4.59361209802956,4.70450001970443,0.49877146,0.19822577,-0.42821655,243.12363,-51.519302,-12.857038,STU
6988850642000,3.889996,-1.53910607409852,4.66903407666995,4.83177447330049,0.5696318,0.23457226,-0.44012842,243.13388,-51.52651,-12.964792,STU
6988855666000,3.89502,-1.64018981689714,4.73056086533764,5.00586477157565,0.6411031,0.2751948,-0.4560109,243.1404,-51.549973,-13.089462,STU
6988860578000,3.899932,-1.73515553035228,4.78754026366206,5.18629983042293,0.68386364,0.32253686,-0.46303585,243.13704,-51.583508,-13.218914,STU
6988865699000,3.905053,-1.77425962316779,4.95714304842953,5.5051292165906,0.7431176,0.37201694,-0.46517387,243.12674,-51.6146,-13.36977,STU
6988870767000,3.910121,-1.8003188483311,5.14824392714094,5.84824184148546,0.76083267,0.43066,-0.46609017,243.10406,-51.644417,-13.527314,STU
6988875773000,3.915127,-1.883727839254,5.50241160923623,6.4624223437537,0.7593055,0.47403142,-0.44135013,243.07224,-51.653107,-13.699243,STU
6988880667000,3.920021,-1.99935068999408,5.94640346039076,7.22553332283402,0.7272351,0.46731192,-0.44257188,243.04341,-51.654823,-13.873694,STU
6988885697000,3.925051,-1.91376280119225,6.5568301147541,8.04341845424739,0.6808093,0.42760566,-0.41508293,243.0036,-51.625893,-14.033128,STU
6988891334000,3.930688,-1.65094726721311,7.3667308642623,8.98740878819672,0.64568454,0.34116822,-0.36651915,242.97354,-51.594395,-14.174146,STU
6988895668000,3.935022,-1.35422538474576,8.20553783728814,9.68312525423729,0.6059783,0.18661933,-0.29901853,242.9686,-51.484856,-14.2923355,STU
6988900673000,3.940027,-0.952638625211864,9.30874761059322,10.4678354131356,0.5702427,0.017104227,-0.21105394,242.97606,-51.379528,-14.372912,STU
6988905664000,3.945018,-0.404168707352074,10.4770550686063,10.7919696188323,0.48808134,-0.12644911,-0.07666359,243.00931,-51.266903,-14.33757,STU
6988910668000,3.950022,0.302372582602713,11.7205677586004,10.6318202237075,0.3707952,-0.2724459,0.115453534,243.05684,-51.157757,-14.23944,STU
6988915634000,3.954988,0.629713156985583,12.3580991920989,9.74451141181427,0.35979962,-0.3417791,0.30818152,243.12155,-51.15321,-13.978668,STU
6988920760000,3.960114,0.491843710091743,12.2569948165138,7.90165658715596,0.52778757,-0.18784106,0.43310347,243.14273,-51.179493,-13.712778,STU
6988925716000,3.96507,0.156821098858414,12.155040693106,6.28871796308377,0.8344419,-0.029932396,0.40042216,243.20364,-51.490143,-13.264934,STU
6988930659000,3.970013,-0.590122148175368,12.0447536370857,5.02543132301176,1.0885619,0.34788775,0.36835176,243.15,-51.826332,-12.875228,STU
6988935640000,3.974994,-1.20971793841889,12.076939106204,4.36749280447376,1.1878275,0.7254025,0.31031954,243.06984,-52.400703,-12.5675955,STU
6988940696000,3.98005,-1.65406861388013,12.3083720567823,4.55263897160883,1.3387111,0.98349303,0.28099802,242.93146,-53.03383,-12.316196,STU
6988945573000,3.984927,-2.3986310359779,12.4132267781725,4.90000636333136,1.3628404,1.1374311,0.20250183,242.74881,-53.71843,-12.242885,STU
6988950680000,3.990034,-3.87062334931912,12.2636139526347,5.63358906690349,1.2669345,1.1914927,-0.0143553335,242.56499,-54.37109,-12.235791,STU
6988955647000,3.995001,-5.17118083048632,12.0786437559271,6.17037029250253,1.119716,1.119716,-0.2874121,242.39813,-54.950138,-12.3252,STU
6988961180000,4.000534,-6.28785778571429,11.7726318571429,6.32069242857143,1.0259482,0.98715824,-0.5332854,242.26974,-55.476814,-12.455052,STU
6988965655000,4.005009,-6.65452664846416,11.610484836665,6.25820743734763,1.0516045,0.84116143,-0.6374379,242.12831,-55.773533,-12.804465,STU
6988970761000,4.010115,-6.02987603508532,11.5914116487567,5.829057970941,1.1630874,0.81306165,-0.5708536,242.00418,-56.048767,-13.15738,STU
6988975750000,4.015104,-5.34100232567182,11.43742751698,5.55301058613053,1.3005321,0.7690793,-0.4615087,241.89609,-56.218224,-13.632431,STU
6988980669000,4.020023,-4.48082000592578,10.9737172266955,5.61097445715129,1.4239268,0.70005155,-0.33414328,241.79028,-56.413944,-14.063948,STU
6988985674000,4.025028,-3.60559892230535,10.5018997835417,5.66995172376218,1.5201381,0.68600166,-0.18967366,241.68175,-56.733055,-14.378112,STU
6988990688000,4.030042,-2.72880401455852,10.0292339174131,5.72903504339994,1.5625933,0.73456544,-0.04734206,241.5581,-57.074627,-14.650545,STU
6988995635000,4.034989,-1.94124925139791,9.60746818638803,5.78630349454956,1.561677,0.8023715,0.08582657,241.41577,-57.436073,-14.881244,STU
6989000698000,4.040052,-1.42547472600019,9.34273424446955,5.84107587977031,1.5097535,0.8564331,0.21563543,241.24765,-57.803013,-15.074151,STU
6989005648000,4.045002,-0.93575866439394,9.11142640629984,5.86772997089314,1.4703526,0.88300574,0.3484986,241.1097,-58.19245,-15.048696,STU
6989010676000,4.05003,-0.585368962121212,9.15462500558214,5.6229372400319,1.4437801,0.89858276,0.46761733,240.94864,-58.579727,-14.99865,STU
6989015649000,4.055003,-0.252722125177371,9.20791154183473,5.37213000193402,1.450805,0.8741482,0.5757405,240.75851,-58.989113,-14.86799,STU
6989020747000,4.060101,-0.065894655710001,9.37959113393319,5.01867272844141,1.4752395,0.8237518,0.66248333,240.56215,-59.40147,-14.712088,STU
6989025720000,4.065074,0.0400215801916203,9.5240412346108,4.61043199155083,1.5033394,0.79412484,0.6942484,240.3609,-59.874893,-14.502083,STU
6989030857000,4.070211,-0.248160248697379,9.55334794201747,3.85822845655282,1.5118915,0.7425067,0.77640975,240.16504,-60.35922,-14.249861,STU
6989035724000,4.075078,-0.528437039833415,9.57893254140127,3.20935161592357,1.5635096,0.70402217,0.81153446,239.96667,-60.922283,-13.983231,STU
6989040689000,4.080043,-0.854592755095541,9.59291043949045,2.90183343057325,1.6093245,0.68019843,0.8542951,239.7716,-61.48804,-13.691454,STU
6989045630000,4.084984,-1.17986258222222,9.60426011111111,2.60957347333333,1.6340646,0.66553766,0.89369583,239.60666,-62.123207,-13.423779,STU
6989050659000,4.090013,-1.51783986028265,9.59017793079922,2.44997301169591,1.6447546,0.6817256,0.9245446,239.44357,-62.75972,-13.150252,STU
6989055874000,4.095228,-1.85536780495868,9.5823472892562,2.30159939669421,1.6371188,0.7770206,0.95447695,239.28734,-63.402798,-12.919335,STU
6989060671000,4.100025,-2.03657344379226,9.64274903371525,2.33611486588092,1.629483,0.8530733,0.9578367,239.14078,-64.03752,-12.688248,STU
6989065600000,4.104954,-2.22276535411345,9.70481286495116,2.37158010407588,1.6056592,0.87781334,0.96577793,238.97723,-64.65936,-12.50018,STU
6989070741000,4.110095,-2.34458302929069,9.77681565262825,2.34679073062065,1.5793921,0.8744536,0.96761054,238.8109,-65.266754,-12.317996,STU
6989076021000,4.115375,-2.44709255079765,9.85534325804646,2.30927809790092,1.5268577,0.88147855,0.96791595,238.64374,-65.8514,-12.137854,STU
6989080681000,4.120035,-2.40129478029667,9.95942919889915,2.22600938869298,1.4935656,0.8903361,0.96974856,238.45825,-66.417946,-11.978164,STU
6989085602000,4.124956,-2.35293194153373,10.0693448458811,2.13807691701651,1.4669929,0.8970556,0.9673051,238.2615,-66.96971,-11.832072,STU
6989090693000,4.130047,-2.29532096267577,10.101376049317,2.11330201285657,1.4630222,0.9068295,0.9831876,238.0678,-67.51106,-11.681277,STU
6989095575000,4.134929,-2.23896818770591,10.1201604220571,2.09921384363198,1.4727961,0.91965765,1.010982,237.87863,-68.04025,-11.528531,STU
6989100675000,4.140029,-2.14757848410391,10.2065022242802,2.00951193611554,1.484708,0.9108001,1.0140363,237.70763,-68.58069,-11.366751,STU
6989105603000,4.144957,-2.0546323278627,10.2994486116009,1.9121397306199,1.496009,0.9266826,1.0073168,237.53256,-69.11524,-11.203703,STU
