timestamp,rel_time,acc_x,acc_y,acc_z,gyro_x,gyro_y,gyro_z,azimuth,pitch,roll,label
6765650280000,0,-0.959458712590889,9.86680700767644,-1.07553684752454,-0.05589417,0.1881465,-0.019242255,300.47714,-97.4699,-4.734381,STD
6765654817000,0.004537,-0.943827404240539,9.87275131285944,-1.06871191049671,-0.064446285,0.172264,-0.019547688,300.48767,-97.49457,-4.7021775,STD
6765659771000,0.009491,-0.926759407421576,9.8792419648049,-1.06125968699311,-0.07391469,0.14874569,-0.027183503,300.50128,-97.51908,-4.6716876,STD
6765664764000,0.014484,-0.909557044055189,9.88578371392958,-1.05374879640905,-0.1020145,0.12308934,-0.04550946,300.52,-97.53941,-4.645854,STD
6765669772000,0.019492,-0.892303001247486,9.8923451158155,-1.04621534156326,-0.14172074,0.10354166,-0.05009095,300.5441,-97.55383,-4.619708,STD
6765674773000,0.024493,-0.875073075512396,9.89889734641284,-1.03869241670627,-0.15577064,0.09407325,-0.06291912,300.5719,-97.57234,-4.6023445,STD
6765679773000,0.029493,-0.857846595073395,9.90544826682611,-1.0311709961334,-0.16982053,0.09865474,-0.076358154,300.60098,-97.58284,-4.5872865,STD
6765684767000,0.034487,-0.84064078641092,9.91199132613487,-1.02365860126522,-0.18295415,0.10262536,-0.08827003,300.63245,-97.59237,-4.576301,STD
6765689765000,0.039485,-0.823421196564095,9.91853962617997,-1.01614018926058,-0.1740966,0.10903945,-0.10476339,300.6612,-97.60688,-4.5706434,STD
6765694764000,0.044484,-0.806198161421181,9.92508923640915,-1.00862027297182,-0.19364429,0.11728613,-0.106901415,300.6882,-97.6115,-4.5644126,STD
6765699891000,0.049611,-0.788534128379029,9.93180655020091,-1.0009078083164,-0.20158553,0.10903945,-0.11942416,300.7172,-97.62532,-4.5663366,STD
6765704796000,0.054516,-0.771634951068369,9.93823300312631,-0.993529294734415,-0.19608775,0.10415252,-0.11759156,300.7431,-97.635605,-4.5645633,STD
6765709771000,0.059491,-0.754494603031562,9.94475116893751,-0.986045481264409,-0.20647246,0.09437868,-0.11178834,300.7724,-97.64185,-4.5656714,STD
6765714793000,0.064513,-0.737192326078629,9.95133091340059,-0.978490966441018,-0.20525073,0.07666359,-0.10995574,300.80518,-97.65234,-4.567841,STD
6765719736000,0.069456,-0.720162227516632,9.95780715332114,-0.971055290062678,-0.19639318,0.06383542,-0.10170906,300.83945,-97.66015,-4.566792,STD
6765724768000,0.074488,-0.702825497602821,9.96439999962504,-0.963485732398142,-0.1853976,0.06078109,-0.09865474,300.8756,-97.669395,-4.567065,STD
6765729742000,0.079462,-0.693394407246715,9.96829141287633,-0.957363085711807,-0.17959438,0.04734206,-0.09743301,300.9182,-97.6785,-4.5664253,STD
6765734719000,0.084439,-0.710643427127341,9.96309307196645,-0.955945358077425,-0.18051068,0.044898596,-0.0870483,300.9586,-97.68657,-4.562306,STD
6765739734000,0.089454,-0.728024145371532,9.95785504109181,-0.954516805920216,-0.183565,0.033292156,-0.07269296,300.9749,-97.63135,-4.482758,STD
6765744737000,0.094457,-0.745363274658807,9.95262954389026,-0.953091672033373,-0.18478674,0.03634648,-0.058948494,300.98813,-97.57618,-4.4012337,STD
6765749801000,0.099521,-0.76291381447707,9.94734033385055,-0.951649161938836,-0.19486602,0.0571159,-0.055283304,300.99973,-97.519104,-4.3195925,STD
6765754831000,0.104551,-0.780346518917405,9.94208663588457,-0.950216336943669,-0.20066923,0.06963864,-0.061391957,301.0129,-97.4637,-4.2383757,STD
6765759765000,0.109485,-0.797446511702418,9.93693320730323,-0.948810858111432,-0.20799962,0.08032878,-0.062002823,301.021,-97.405685,-4.155386,STD
6765765129000,0.114849,-0.816036775443563,9.93133065543652,-0.94728289125774,-0.2134974,0.09560041,-0.074830994,301.02362,-97.35124,-4.078482,STD
6765769783000,0.119503,-0.832166359233885,9.92646967922704,-0.945957172067381,-0.22204952,0.1142318,-0.07666359,301.0226,-97.2942,-3.9995737,STD
6765774761000,0.124481,-0.84941884486092,9.92127029384441,-0.944539159577135,-0.23640485,0.122783914,-0.08124508,301.01974,-97.238304,-3.9262455,STD
6765779772000,0.129492,-0.866785700119473,9.9160364408608,-0.943111746843381,-0.24801129,0.12339478,-0.09010262,301.0137,-97.18333,-3.8556051,STD
6765784772000,0.134492,-0.88411443216752,9.91081407707752,-0.94168746752413,-0.24770586,0.10842858,-0.09132435,301.00992,-97.12864,-3.7855544,STD
6765789790000,0.13951,-0.90150554765094,9.90557291278462,-0.94025806079933,-0.26145032,0.099265605,-0.0842994,301.0044,-97.069176,-3.7166593,STD
6765794737000,0.144457,-0.918650595139278,9.90040590605744,-0.938848878840863,-0.25167647,0.089491755,-0.081855945,301.00317,-97.0177,-3.6510413,STD
6765799776000,0.149496,-0.9361144912973,9.89514280783664,-0.937413490142922,-0.24373524,0.07269296,-0.07574729,301.0069,-96.96225,-3.5840826,STD
6765804740000,0.15446,-0.953318456474601,9.8899580450726,-0.935999465634769,-0.23426682,0.062002823,-0.06688975,301.01184,-96.910194,-3.5169687,STD
6765809736000,0.159456,-0.970633325537009,9.88473985918034,-0.934576325738973,-0.23457226,0.054061573,-0.0711658,301.02048,-96.86008,-3.4535308,STD
6765815094000,0.164814,-0.989202794799697,9.87914357415018,-0.933050068020464,-0.23884831,0.03604105,-0.06261369,301.03552,-96.80955,-3.3858526,STD
6765819746000,0.169466,-1.0053254470972,9.87428468688621,-0.931724918541833,-0.21899518,0.03390302,-0.05497787,301.04803,-96.76705,-3.3206897,STD
6765824731000,0.174451,-1.0226021929491,9.86907799019428,-0.93030491206054,-0.22876903,0.026572637,-0.04550946,301.06726,-96.71607,-3.2545843,STD
6765829727000,0.179447,-1.03991706201151,9.86385980430202,-0.928881772164744,-0.23548855,0.01863139,-0.032986723,301.08734,-96.670685,-3.1868894,STD
6765835600000,0.18532,-1.06027139067515,9.85772561580218,-0.927208813676352,-0.23671028,-0.0015271631,-0.03390302,301.11264,-96.62619,-3.1223152,STD
6765839739000,0.189459,-1.07461611506452,9.85340254306238,-0.926029795255876,-0.26328292,-0.0033597588,-0.03268129,301.13504,-96.573074,-3.0547514,STD
6765844721000,0.194441,-1.09188246367719,9.84819897978872,-0.924610643342174,-0.2666427,-0.011911872,-0.029626964,301.16476,-96.526886,-2.9891846,STD
6765849771000,0.199491,-1.10938448304572,9.8429243923676,-0.92317212122973,-0.27305678,-0.009162978,-0.027183503,301.19138,-96.474655,-2.924608,STD
6765854771000,0.204491,-1.12671321509377,9.83770202858432,-0.921747841910479,-0.26358834,-0.0012217305,-0.016187929,301.21884,-96.4257,-2.8582604,STD
6765859714000,0.209434,-1.14384439959647,9.83253919974816,-0.920339799375468,-0.24801129,0.010995574,-0.031154128,301.2431,-96.38124,-2.7998369,STD
6765864750000,0.21447,-1.16129789851526,9.82727923494564,-0.918905265245118,-0.23884831,0.0143553335,-0.040927973,301.26767,-96.337,-2.7383413,STD
6765869998000,0.219718,-1.17948613567289,9.82179784191871,-0.917410341671632,-0.21533,0.02687807,-0.051923547,301.2853,-96.30383,-2.682227,STD
6765874736000,0.224456,-1.19590684216162,9.81684912999767,-0.91606069458871,-0.21105394,0.027183503,-0.07269296,301.30453,-96.27158,-2.6332252,STD
6765880067000,0.229787,-1.21438273627125,9.81128104573193,-0.914542127978525,-0.21197024,0.03481932,-0.0852157,301.3178,-96.24532,-2.5856416,STD
6765884749000,0.234469,-1.23060936096104,9.80639082428527,-0.913208432823978,-0.20861048,0.040317107,-0.099571034,301.33066,-96.22477,-2.5456033,STD
6765889836000,0.239556,-1.24823961294672,9.80107759137216,-0.911759371044572,-0.18661933,0.05681047,-0.1142318,301.33768,-96.211006,-2.5096278,STD
6765895697000,0.245417,-1.26855235265344,9.79495593654539,-0.910089830826546,-0.16829337,0.054061573,-0.12370021,301.34818,-96.198814,-2.477468,STD
6765899747000,0.249467,-1.28258862561236,9.79072582188093,-0.908936164577952,-0.14569137,0.05497787,-0.14385876,301.35214,-96.196754,-2.4526844,STD
6765905461000,0.255181,-1.30239190059687,9.7847577045494,-0.907308498171912,-0.12186762,0.042455133,-0.15668693,301.36063,-96.20028,-2.4295976,STD
6765909723000,0.259443,-1.31716291179463,9.78030616166053,-0.906094442480183,-0.09712757,0.04337143,-0.1704314,301.3644,-96.212364,-2.4126213,STD
6765914713000,0.264433,-1.33445698637858,9.77509424260481,-0.90467301171957,-0.089186326,0.0290161,-0.1704314,301.37616,-96.226036,-2.3966064,STD
6765919736000,0.269456,-1.35186543059404,9.76984785594813,-0.903242180715451,-0.071776666,0.0070249503,-0.18051068,301.3892,-96.25105,-2.3879073,STD
6765924733000,0.274453,-1.36918376540286,9.76462862558311,-0.901818755963791,-0.047036625,0.0070249503,-0.1777618,301.400281049486,-96.2652776170505,-2.38045420472317,STD
6765929941000,0.279661,-1.38723337270411,9.75918901146645,-0.900335226624859,-0.034513887,-0.03145956,-0.16340645,301.41183,-96.280106,-2.3726864,STD
6765934869000,0.284589,-1.41374538488304,9.7543993271436,-0.887119831855559,-0.026572637,-0.055588737,-0.1554652,301.43607,-96.30769,-2.3634732,STD
6765939751000,0.289471,-1.44084667495577,9.74968606230058,-0.872980026991275,-0.013744468,-0.08277224,-0.14630222,301.47253,-96.343994,-2.3506916,STD
6765944737000,0.294457,-1.46852529689404,9.74487239197956,-0.858539005472774,-0.008552114,-0.10995574,-0.13194689,301.5332,-96.40062,-2.3936167,STD
6765949780000,0.2995,-1.49652034110478,9.74000369173307,-0.84393289405725,-0.009773844,-0.11453723,-0.11575896,301.5955,-96.456985,-2.4326978,STD
6765954717000,0.304437,-1.52392695091409,9.73523732783919,-0.829633791923909,-0.040927973,-0.09407325,-0.10323623,301.65863,-96.504875,-2.468051,STD
6765959708000,0.309428,-1.55163332919206,9.73041883033171,-0.815178288835493,-0.043982297,-0.070249505,-0.10354166,301.7221,-96.558815,-2.501848,STD
6765964725000,0.314445,-1.57948404043641,9.72557523145474,-0.800647481583524,-0.046120327,-0.023823744,-0.10445796,301.77362,-96.60289,-2.5303879,STD
6765969751000,0.319471,-1.6073847130922,9.72072294364217,-0.786090607505708,-0.048563786,0.026267206,-0.1151481,301.81693,-96.646614,-2.560426,STD
6765974751000,0.324471,-1.6351410527816,9.71589575719909,-0.771609037591447,-0.039095376,0.074830994,-0.122783914,301.84756,-96.692085,-2.5879538,STD
6765979714000,0.329434,-1.6626919955573,9.7111042919357,-0.757234631294552,-0.021991149,0.10354166,-0.13713925,301.8692,-96.74019,-2.618925,STD
6765984746000,0.334466,-1.69062597582072,9.7062462114994,-0.742660379332839,-0.009162978,0.109650314,-0.13561209,301.88394,-96.78796,-2.646133,STD
6765989734000,0.339454,-1.71831570029487,9.70143061030379,-0.728213565186372,-0.016493361,0.10293079,-0.14110987,301.8938,-96.8364,-2.678252,STD
6765994714000,0.344434,-1.74596101462552,9.69662273260649,-0.713789921551768,-0.0036651916,0.093767814,-0.14110987,301.9032,-96.89177,-2.7076032,STD
6765999726000,0.349446,-1.77378396953018,9.69178396091596,-0.699273595869713,-0.008246681,0.07574729,-0.13958271,301.91724,-96.940155,-2.7379072,STD
6766004750000,0.35447,-1.80167353965009,9.68693360397796,-0.684722514419864,0.007330383,0.07544186,-0.1441642,301.92896,-96.99695,-2.7690234,STD
6766009733000,0.359453,-1.82933550778455,9.6821228299688,-0.670290181843311,-0.005497787,0.071776666,-0.14905111,301.94714,-97.04403,-2.799846,STD
6766014725000,0.364445,-1.85704743733045,9.67730336702404,-0.655831782440913,-0.002443461,0.08979719,-0.15607607,301.9593,-97.099174,-2.831255,STD
6766019749000,0.369469,-1.88493700745036,9.67245301008604,-0.641280700991063,-0.002443461,0.087659165,-0.16401732,301.970740990811,-97.1264346695965,-2.84759253415901,STD
6766024737000,0.374457,-1.91262673192451,9.66763740889043,-0.626833886844596,0.01282817,0.074830994,-0.16035213,301.9821,-97.1535,-2.863813,STD
6766029717000,0.379437,-1.94027204625516,9.66282953119314,-0.612410243209992,0.0143553335,0.06780604,-0.16340645,301.99768,-97.20477,-2.8964925,STD
6766034713000,0.384433,-1.96800618087281,9.65800620649922,-0.597940258551663,0.0067195175,0.04520403,-0.17073683,302.02197,-97.25765,-2.931929,STD
6766039736000,0.389456,-1.99589019972479,9.65315681499851,-0.583392073415796,0.009773844,0.037873644,-0.16401732,302.04456,-97.31149,-2.9632819,STD
6766044777000,0.394497,-2.02387414139965,9.64829004562661,-0.568791754628238,0.018936822,0.021991149,-0.1731803,302.07553,-97.36673,-3.001569,STD
6766049767000,0.399487,-2.05157496840967,9.64347251355643,-0.554339147853805,0.028405234,0.016493361,-0.172264,302.1064,-97.42001,-3.0343192,STD
6766054746000,0.404466,-2.07921473147238,9.63866560129642,-0.539918400533184,0.032986723,0.01282817,-0.15974127,302.14163,-97.473206,-3.0661507,STD
6766059739000,0.409459,-2.10693221228622,9.63384517291437,-0.525457104816803,0.04520403,0.011911872,-0.15943582,302.17743,-97.53125,-3.100631,STD
6766064738000,0.414458,-2.13468300070769,9.62901895190859,-0.510978431216525,0.040317107,0.023518313,-0.16218472,302.2112,-97.584,-3.1315427,STD
6766069749000,0.419469,-2.16250040434441,9.62418114565534,-0.496465001848452,0.03390302,0.035430185,-0.15882497,302.2456,-97.63781,-3.160098,STD
6766074732000,0.424452,-2.19016237247887,9.61937037164618,-0.4820326692719,0.03390302,0.043676864,-0.15027285,302.27805,-97.69078,-3.187129,STD
6766079715000,0.429435,-2.21782434061333,9.61455959763701,-0.467600336695347,0.019242255,0.04428773,-0.14874569,302.30936,-97.73781,-3.2145317,STD
6766084741000,0.434461,-2.24572501326912,9.60970730982444,-0.453043462617532,0.0143553335,0.038179077,-0.14385876,302.3409,-97.78509,-3.238036,STD
6766089732000,0.439452,-2.27343139154708,9.60488881231697,-0.438587959529116,0.015577064,0.029321533,-0.13958271,302.37335,-97.829254,-3.260915,STD
6766094758000,0.444478,-2.30133206420287,9.60003652450439,-0.424031085451301,0.0015271631,0.026572637,-0.13530666,302.40613,-97.86688,-3.2820098,STD
6766099812000,0.449532,-2.32938817236092,9.59515720444774,-0.409393114581966,-0.007330383,0.02443461,-0.13713925,302.4414,-97.905716,-3.3035514,STD
6766104786000,0.454506,-2.35700017908394,9.59035511937417,-0.394986848831259,-0.021991149,0.028710667,-0.13072516,302.47623,-97.93731,-3.3210633,STD
6766109768000,0.459488,-2.38465659595046,9.5855453108023,-0.380557412568689,-0.02321288,0.043676864,-0.13347405,302.50833,-97.97089,-3.3410475,STD
6766114791000,0.464511,-2.41254061480244,9.58069591930159,-0.366009227432823,-0.0290161,0.03970624,-0.13561209,302.545,-97.99819,-3.359263,STD
6766119781000,0.469501,-2.44024144181246,9.57587838723141,-0.35155662065839,-0.03940081,0.046731193,-0.13683382,302.57434,-98.023766,-3.3767545,STD
6766124767000,0.474487,-2.46792006375074,9.57106471691037,-0.337115599139889,-0.061391957,0.03940081,-0.13225232,302.6092,-98.044,-3.3935478,STD
6766129764000,0.479484,-2.48154123071336,9.58281287053215,-0.302384145665934,-0.070554934,0.03145956,-0.13530666,302.642,-98.06558,-3.4123042,STD
6766134773000,0.484493,-2.44035274031649,9.65896369833267,-0.188876323890974,-0.07238753,0.02687807,-0.1386664,302.6762,-98.08266,-3.4296873,STD
6766139765000,0.489485,-2.39930403916633,9.73485607852436,-0.0757537352903354,-0.080634214,0.019547688,-0.1328632,302.7195,-98.0961,-3.5497508,STD
6766144767000,0.494487,-2.35817310904752,9.81090048672125,0.0375954610599042,-0.077579886,0.01038471,-0.13347405,302.7646,-98.11499,-3.6706877,STD
6766149796000,0.499516,-2.31682016071336,9.88735537053215,0.151556498334066,-0.07422013,0.0033597588,-0.13683382,302.81155,-98.133194,-3.7888577,STD
6766154802000,0.504522,-2.27565633900709,9.96346058993111,0.264996337784145,-0.06872234,0.0012217305,-0.12950343,302.86035,-98.15296,-3.902241,STU
6766160116000,0.509836,-2.23195986506639,10.04424827189,0.385415695921925,-0.059253927,0.010995574,-0.11759156,302.90808,-98.175804,-4.013029,STU
6766164769000,0.514489,-2.19369872595347,10.1149869027057,0.490856281811102,-0.06291912,0.016187929,-0.111177474,302.95804,-98.19776,-4.1215563,STU
6766169766000,0.519486,-2.15260891031899,10.1909552969,0.604092174286541,-0.053145275,0.027794369,-0.10751228,303.00397,-98.22516,-4.225023,STU
6766174759000,0.524479,-2.11155198627196,10.2668628798922,0.717237423662141,-0.05009095,0.04520403,-0.10567969,303.04724,-98.250305,-4.324966,STU
6766179750000,0.52947,-2.07051150801867,10.3427400572833,0.830337351487819,-0.04337143,0.0571159,-0.103847094,303.08914,-98.27901,-4.4218707,STU
6766184777000,0.534497,-2.02917500547823,10.4191645354932,0.944253067212061,-0.04734206,0.062308256,-0.09285152,303.1287,-98.30484,-4.5135303,STU
6766189770000,0.53949,-1.98811808143121,10.4950721184854,1.05739831658766,-0.022602014,0.051923547,-0.08552113,303.16956,-98.339966,-4.6041346,STU
6766194747000,0.544467,-1.94719272373403,10.5707364566693,1.1701809935639,-0.016798794,0.05467244,-0.07788532,303.20584,-98.368286,-4.6892657,STU
6766199830000,0.54955,-1.90539573896915,10.6480122917083,1.2853657126859,-0.017104227,0.049480084,-0.080634214,303.24762,-98.40184,-4.774361,STU
6766204782000,0.554502,-1.86467595369359,10.7232965598792,1.39758187028814,-0.0143553335,0.050701816,-0.06780604,303.28787,-98.43386,-4.8510456,STU
6766209771000,0.559491,-1.82365192123403,10.7991433316693,1.5106364765639,-0.004581489,0.06658431,-0.06566802,303.32526,-98.46979,-4.929746,STU
6766215142000,0.564862,-1.77948674217202,10.8807975732578,1.6323474988744,0.00030543262,0.070249505,-0.052534413,303.3669,-98.50132,-5.000668,STU
6766219779000,0.569499,-1.74135716940895,10.9512929592652,1.73742551236422,0.016187929,0.06658431,-0.05497787,303.40598,-98.53988,-5.0737734,STU
6766224766000,0.574486,-1.70034958274311,11.0271093254543,1.85043479709006,0.022907447,0.076358154,-0.059864793,303.44083,-98.57557,-5.142006,STU
6766230581000,0.580301,-1.65253343747304,11.1155136104732,1.98220720348283,0.03390302,0.067500606,-0.06811147,303.48218,-98.61669,-5.2114177,STU
6766234787000,0.584507,-1.61794793325879,11.1794565894569,2.07751842296486,0.048563786,0.062308256,-0.06872234,303.52017,-98.65942,-5.278342,STU
6766239853000,0.589573,-1.57629073774062,11.256473976887,2.19231790891254,0.04337143,0.06963864,-0.076358154,303.55692,-98.70247,-5.348223,STU
6766244758000,0.594478,-1.53595742861771,11.3310437134335,2.30346901009165,0.03756821,0.09682214,-0.08582657,303.58975,-98.74873,-5.417056,STU
6766249824000,0.599544,-1.49430023309954,11.4080611008636,2.41826849603934,0.032070424,0.1328632,-0.089186326,303.6183,-98.793755,-5.484496,STU
6766254781000,0.604501,-1.45353933333966,11.4834213830371,2.53059795751637,0.03359759,0.17562376,-0.09193522,303.63724,-98.84018,-5.5519996,STU
6766259770000,0.60949,-1.41251530088009,11.5592681548273,2.64365256379213,0.026572637,0.22235495,-0.09010262,303.64523,-98.882774,-5.6164813,STU
6766264782000,0.614502,-1.37130214179263,11.6354645910294,2.75722836789197,0.017715093,0.24953845,-0.086437434,303.6471,-98.924934,-5.6791544,STU
6766269766000,0.619486,-1.33031922381739,11.7112353488169,2.87016967029293,0.015882496,0.2773328,-0.09193522,303.6357,-98.96789,-5.741042,STU
6766274766000,0.624486,-1.28920473949231,11.7872493514127,2.98347354509325,0.021991149,0.29626966,-0.080634214,303.62036,-99.006325,-5.795282,STU
6766279766000,0.629486,-1.24809025516723,11.8632633540086,3.09677741989357,0.021991149,0.32834008,-0.08368854,303.603228286829,-99.0207039378938,-5.82164863666367,STU
6766284765000,0.634485,-1.20698399373902,11.9392621538039,3.21005863391893,-0.017715093,0.3549127,-0.07086037,303.5861,-99.03508,-5.84801,STU
6766289766000,0.639486,-1.16586128651707,12.0152913592003,3.32338516949421,-0.052534413,0.4098906,-0.050396383,303.54886,-99.06157,-5.892843,STU
6766294743000,0.644463,-1.12493592881989,12.0909556973842,3.43616784647045,-0.086132,0.46700647,-0.03023783,303.4952,-99.07751,-5.931876,STU
6766300461000,0.650181,-1.07791740454573,12.1778853107528,3.56574215769209,-0.121256754,0.5751296,-0.0076358155,303.41272,-99.08102,-5.959894,STU
6766304788000,0.654508,-1.0423369298108,12.2436678285992,3.66379533094429,-0.18417588,0.6374379,0.027183503,303.32874,-99.06511,-5.9776154,STU
6766309771000,0.659491,-1.00136223473243,12.3194233835863,3.77671397257029,-0.21746802,0.76052725,0.0421497,303.19733,-99.047516,-5.988245,STU
6766314787000,0.664507,-0.960116184057508,12.3956806309904,3.89038041976997,-0.30298916,0.88117313,0.07849618,303.05142,-98.99496,-5.9806485,STU
6766319761000,0.669481,-0.919215495050919,12.4712993607728,4.00309511442133,-0.4392121,0.98929626,0.122783914,302.87546,-98.9206,-5.9627204,STU
6766324775000,0.674495,-0.877985890169729,12.5475262025759,4.11671624007109,-0.6200282,1.0772609,0.16340645,302.6726,-98.81332,-5.932405,STU
6766329723000,0.679443,-0.795459639907264,12.6789969513138,4.2930367805255,-0.8390234,1.1047498,0.22968534,302.45914,-98.6575,-5.88129,STU
6766334768000,0.684488,-0.436084230768934,13.1830559036901,4.89510723647604,-1.0980303,1.1026118,0.29749137,302.23065,-98.450356,-5.8173633,STU
6766339763000,0.689483,-0.0843238695912105,13.6893256713847,5.47923301785608,-1.3900238,1.0665708,0.38728857,301.84137,-97.69266,-5.512828,STU
6766344750000,0.69447,0.213493684126497,14.2896878111452,5.90468670833416,-1.7165314,0.98929626,0.48899764,301.46323,-96.89959,-5.198387,STU
6766349816000,0.699536,0.508621880790059,14.8917315957838,6.32398109566773,-2.0717494,0.9098838,0.60903263,301.0498,-95.93144,-4.7703314,STU
6766354786000,0.704506,0.683525245116526,15.361208917126,6.5357063157625,-2.44285,0.8405506,0.7516697,300.654,-94.96888,-4.326269,STU
6766360084000,0.709804,0.853021699977799,15.8322055589768,6.77832169321429,-2.7913487,0.8002335,0.88270026,300.2514,-93.9858,-3.7915986,STU
6766364775000,0.714495,0.670894136640927,15.6717602277992,7.32470424285714,-3.1285462,0.74281216,1.0201449,299.87057,-86.75965,-3.2399356,STU
6766369841000,0.719561,0.474207239206564,15.4984888469112,7.91476478357143,-3.4251215,0.3998113,1.0928379,299.57452,-87.01621,-2.6326988,STU
6766374769000,0.724489,0.243905142923121,15.1454256730733,7.47696750340628,-3.627318,-0.15515977,1.0903945,299.3506,-86.55377,-2.0303996,STU
6766379685000,0.729405,0.0109709571370123,14.7781059885823,6.95734522759277,-3.6813793,-0.46517387,1.0546589,299.1496,-85.59472,-1.4389017,STU
6766384746000,0.734466,-0.360841934272211,14.3164283838867,6.01804202778941,-3.6713002,-0.5702427,1.0201449,299.02872,-84.32547,-0.84036374,STU
6766389665000,0.739385,-0.755407521208795,13.8467077816333,5.0034447912055,-3.627318,-0.52320606,0.96883225,298.945,-82.97258,-0.2738455,STU
6766394765000,0.744485,-1.31703302260132,13.5761790873704,4.0764666898492,-3.5677586,-0.36254853,0.84299403,298.88354,-81.68197,0.1950945,STU
6766399709000,0.749429,-1.90162807813384,13.3709015047125,3.21073049184731,-3.4816265,-0.47311515,0.68019843,298.88315,-80.42391,0.6348705,STU
6766404747000,0.754467,-2.41677843512736,13.4352922900575,2.0856771780834,-3.3695326,-0.4605924,0.6160576,298.8893,-79.41208,1.1134132,STU
6766409721000,0.759441,-2.88647464474117,13.6309989589154,0.85761698292728,-3.1795535,-0.07360926,0.5537493,298.82678,-78.463715,1.5199721,STU
6766414690000,0.76441,-3.12826497954568,13.6514476657488,0.114816190575278,-3.091589,0.41355577,0.54458636,298.78674,-77.67838,1.8181548,STU
6766419738000,0.769458,-3.28514807278985,13.6039074096765,-0.450913238922215,-3.098614,1.0170907,0.5626069,298.6076,-76.93469,2.0678768,STU
6766424740000,0.77446,-3.17246642210727,13.4459204771997,-0.665896828289474,-3.2775974,1.382388,0.54061574,298.56628,-76.586586,2.776739,STU
6766429740000,0.77946,-2.94160719149257,13.2391090067296,-0.728421170394737,-3.4697146,1.529912,0.4896085,298.43652,-76.21022,3.4389024,STU
6766434746000,0.784466,-2.50093725282227,13.0163310172852,-0.434159464548828,-3.6398406,1.5042557,0.462425,298.40884,-75.9096,4.3073187,STU
6766439756000,0.789476,-1.97147267362305,12.786740428418,0.0109656395722656,-3.712228,1.3753631,0.43035457,298.3972,-75.5513,5.134972,STU
6766444748000,0.794468,-1.95895152115869,12.4983121813602,0.0884588206549118,-3.6624427,0.9129381,0.45845437,298.6319,-75.144066,6.1984854,STU
6766454650000,0.80437,-2.46593096883257,11.8645877445124,-0.135782116693569,-3.5863898,1.6975945,0.3173445,298.97324,-74.09163,8.223093,STU
6766459671000,0.809391,-2.72300467179869,11.5432455512774,-0.249487807102246,-3.7953057,1.7693712,0.20250183,299.21854,-73.47989,9.232922,STU
6766464711000,0.814431,-2.99938199882983,11.1608510864736,-0.29573852293931,-3.9309177,1.8289305,0.105374254,299.38187,-72.877785,10.09085,STU
6766469685000,0.819405,-3.27808768835779,10.7640497925426,-0.319357643819913,-4.0274343,1.9074267,0.018020526,299.53552,-72.24962,10.895552,STU
6766474670000,0.82439,-3.38962835909935,10.4599619753834,-0.246688147816743,-4.1548,1.9336939,-0.048563786,299.6116,-71.614944,11.330234,STU
6766479673000,0.829393,-3.44111214674221,10.1885014532578,-0.139040047818697,-4.212221,1.9361374,-0.102319926,299.67917,-71.00056,11.734086,STU
6766485076000,0.834796,-3.39428655973804,9.92581662397985,0.816549897285642,-4.1862597,1.9007072,-0.14202617,299.64896,-70.415085,11.895237,STU
6766489677000,0.839397,-3.31881356368766,9.7127168470529,1.92200673082519,-4.111734,1.7235563,-0.19975294,299.66278,-69.85002,12.045246,STU
6766494653000,0.844373,-3.05916066733218,9.73408182002315,2.79492014456019,-4.057367,1.5928311,-0.20555615,299.63696,-69.26596,12.122736,STU
6766499709000,0.849429,-2.71823826424576,9.86484632619599,3.5421475939429,-3.9886446,1.2916746,-0.19242255,299.711,-68.717384,12.217226,STU
6766504731000,0.854451,-2.38461176980743,9.91500510247593,4.02829211513067,-3.9538252,0.9877691,-0.14660765,299.7096,-68.0153,12.27404,STU
6766509744000,0.859464,-2.05442927869916,9.91972209019454,4.36790823690312,-3.8582249,0.8167268,-0.11178834,299.75464,-67.35153,12.343945,STU
6766514732000,0.864452,-1.97419722358831,9.65499365859031,4.23452096115338,-3.8148534,0.77213365,-0.1142318,299.93384,-66.57172,12.597054,STU
6766519739000,0.869459,-2.05581202541049,9.21331339537445,3.79284119923909,-3.7720928,0.8341365,-0.15210545,300.13068,-65.831505,12.849592,STU
6766524732000,0.874452,-2.21659551893939,8.76669546969697,3.38380509848485,-3.669162,0.981355,-0.22876903,300.47064,-65.06157,13.296983,STU
6766529733000,0.879453,-2.42898393232631,8.31537000461936,2.99442614809682,-3.5750887,1.1203269,-0.30818152,300.79712,-64.32745,13.715746,STU
6766534742000,0.884462,-2.65186655769231,7.91035006897993,2.88171003448997,-3.517362,1.1887437,-0.3549127,301.1184,-63.64749,14.062468,STU
6766539733000,0.889453,-2.88665951442308,7.56565422811455,3.11650293905727,-3.4972036,1.1191051,-0.37843102,301.4445,-63.006844,14.387703,STU
6766544729000,0.894449,-3.09898107244839,7.26520227869839,3.2732736737672,-3.4648278,0.9914343,-0.38728857,301.6665,-62.4221,14.512813,STU
6766549732000,0.899452,-3.29129148698394,7.00420962448394,3.36027122517202,-3.3872478,0.93187493,-0.42363504,301.89615,-61.87257,14.623264,STU
6766555443000,0.905163,-3.46290264440917,6.80758277097926,3.51091016698085,-3.3050864,0.9221011,-0.45631635,302.00977,-61.296616,14.56301,STU
6766559770000,0.90949,-3.5574649599365,6.73357754776267,3.66303210056553,-3.1639764,0.9202685,-0.4908302,302.1444,-60.766457,14.498405,STU
6766564764000,0.914484,-3.63424905389591,6.71304340779182,3.79820974473082,-3.0289752,0.9120218,-0.5195409,302.19608,-60.23409,14.302238,STU
6766569772000,0.919492,-3.66765778121206,6.77986086242412,3.87934532502737,-2.9318478,0.8713993,-0.5357288,302.26263,-59.73275,14.1047735,STU
6766574722000,0.924442,-3.61885594277733,6.87520717877095,3.89140894604948,-2.8588493,0.8588765,-0.5360342,302.2756,-59.237686,13.841435,STU
6766579771000,0.929491,-3.45002466615124,7.01509585872905,3.80458135752195,-2.7818804,0.83169305,-0.5213735,302.30658,-58.76946,13.585203,STU
6766584730000,0.93445,-3.25875807970173,7.14685607198479,3.68620499543589,-2.699719,0.77274454,-0.50610185,302.38492,-58.306442,13.35065,STU
6766589767000,0.939487,-3.0270052610049,7.27238904203783,3.51721861135022,-2.605951,0.76052725,-0.46211955,302.45514,-57.86387,13.124866,STU
6766594701000,0.944421,-2.82511711157282,7.23920328038835,3.37792755739806,-2.4990497,0.7611381,-0.42180246,302.63858,-57.461376,13.023314,STU
6766599789000,0.949509,-2.65480979724272,6.96955014796117,3.27385093666019,-2.3722951,0.7641924,-0.40500367,302.82352,-57.09336,12.928002,STU
6766604672000,0.954392,-2.50962435910126,6.67351244261136,3.19562825742006,-2.314874,0.7831292,-0.40194935,303.1138,-56.773247,12.985683,STU
6766609765000,0.959485,-2.39467111993872,6.29033471199623,3.15731052436955,-2.20278,0.8045095,-0.40194935,303.4016,-56.50798,13.043647,STU
6766616032000,0.965752,-2.25384450593394,5.79530890207542,3.11217675963169,-2.0809124,0.77274454,-0.39828414,303.73602,-56.251984,13.18257,STU
6766619781000,0.969501,-2.17688103909188,5.22507990168567,3.10867842355062,-1.8933768,0.76174897,-0.4016439,304.0614,-56.051804,13.310553,STU
6766624912000,0.974632,-2.07154640362467,4.44464645249927,3.10389049011985,-1.8216002,0.7318166,-0.38056904,304.4568,-55.773365,13.512439,STU
6766629748000,0.979468,-2.02039621181809,4.07391993096703,3.13918598522739,-1.6740762,0.6603453,-0.34300083,304.86316,-55.57033,13.721628,STU
6766634730000,0.98445,-1.98190746110719,3.79968718025613,3.18729692361601,-1.5311338,0.6087272,-0.30543262,305.26892,-55.39013,13.933391,STU
6766639735000,0.989455,-1.95918785636735,3.55770799040714,3.32136262828593,-1.38025,0.5335908,-0.25259277,305.62027,-55.14988,14.130924,STU
6766644781000,0.994501,-1.9412200062837,3.32412575170106,3.48307332594348,-1.2238685,0.4447099,-0.21624629,305.98462,-54.952015,14.34114,STU
6766649742000,0.999462,-1.92518966295476,3.11883959917748,3.66464791142044,-1.0693196,0.35430184,-0.18142697,306.3509,-54.744377,14.574695,STU
6766654751000,1.004471,-1.91001402511863,2.92661474761152,3.86193141457345,-0.9108001,0.2565634,-0.16310102,306.73773,-54.58111,14.824881,STU
6766659730000,1.00945,-1.88884790401777,2.84594330765054,4.15402735467917,-0.7486154,0.15149458,-0.13927728,307.12305,-54.396484,15.090694,STU
6766664733000,1.014453,-1.86519892550839,2.80810497166831,4.48511251054294,-0.5919284,0.015577064,-0.103847094,307.53497,-54.251747,15.380011,STU
6766669747000,1.019467,-1.85463803229923,2.73444061368545,4.7080017411938,-0.41874814,-0.172264,-0.07666359,307.97754,-54.097916,15.699928,STU
6766674737000,1.024457,-1.84994647211859,2.64530097025329,4.88158966383271,-0.2489276,-0.33628133,-0.025045475,308.43735,-53.978725,16.046844,STU
6766679708000,1.029428,-1.8016245350531,2.58022220452815,5.01946431743138,-0.08674286,-0.45723262,0.014660766,308.98087,-53.844795,16.48695,STU
6766684726000,1.034446,-1.72940992497495,2.52726476012823,5.13982211819275,0.06963864,-0.550695,0.07452556,309.54425,-53.745056,16.956274,STU
6766689733000,1.039453,-1.61015716769946,2.56705150557707,5.22983426134779,0.21502456,-0.61453044,0.1142318,310.13602,-53.639572,17.455631,STU
6766694811000,1.044531,-1.4641887105151,2.65651605178156,5.30517269459721,0.32925636,-0.6429357,0.17134771,310.72626,-53.55552,17.9712,STU
6766699740000,1.04946,-1.37024735034048,2.65931547519057,5.44979887171461,0.45204028,-0.6404922,0.20372356,311.3847,-53.47223,18.569422,STU
6766704740000,1.05446,-1.30697948775282,2.60578122374225,5.64446936668361,0.5216789,-0.6215554,0.2501493,312.02933,-53.392715,19.171392,STU
6766709732000,1.059452,-1.24616787646432,2.52474831309904,5.93479532268371,0.63499445,-0.59895337,0.2938262,312.88138,-53.319836,20.00644,STU
6766714725000,1.064445,-1.1867573800497,2.42714526608094,6.28277113170927,0.73731434,-0.57848936,0.33353242,313.71222,-53.249493,20.820799,STU
6766719758000,1.069478,-1.07034279721522,2.36349955147462,6.72547072749698,0.8561276,-0.5644395,0.37934732,314.60828,-53.14041,21.718552,STU
6766724737000,1.074457,-0.861230092281548,2.3582717379454,7.31621403841684,0.9575313,-0.58184916,0.4541783,315.4827,-53.032707,22.601048,STU
6766729708000,1.079428,-0.690393810017532,2.40134499026006,7.91055886052401,1.0390818,-0.6062838,0.5290093,316.38953,-52.852127,23.551006,STU
6766734707000,1.084427,-0.550505483744034,2.48527794220318,8.51207883634947,1.1114693,-0.63285637,0.61269784,317.2693,-52.670677,24.485905,STU
6766739763000,1.089483,-0.372937068860435,2.61299961154339,9.03204565172855,1.1633929,-0.65393126,0.70280045,318.3615,-52.354935,25.67699,STU
6766744791000,1.094511,-0.159517550796415,2.78373519905447,9.4588848681178,1.2092078,-0.68325275,0.79290307,319.41534,-52.032833,26.832344,STU
6766749732000,1.099452,0.0317036250943962,3.05874653599041,9.97176247557687,1.2345587,-0.7113526,0.8686504,320.6188,-51.592113,28.157528,STU
6766754778000,1.104498,0.205480915314354,3.46422688588553,10.6041183646988,1.212873,-0.7828238,0.929126,321.78168,-51.139103,29.430725,STU
6766759744000,1.109464,0.208026989730556,4.01386980802599,10.8584370214026,1.1664472,-0.90041536,0.94806284,322.88522,-50.641964,30.655523,STU
6766764759000,1.114479,0.0152921446608064,4.74350894308236,10.6886472148863,1.0845913,-1.0506883,0.91965765,323.97095,-50.14374,31.824875,STU
6766769677000,1.119397,-0.212983269731491,5.47266598048371,10.3334581133268,1.0812315,-1.1102476,0.895223,324.977,-49.6365,32.908382,STU
6766774762000,1.124482,-0.520651179672261,6.25145039603159,9.62197575597236,1.1646146,-1.0525209,0.906524,325.94818,-49.1473,33.933216,STU
6766779693000,1.129413,-0.794299533476395,6.97064136051502,9.06767415021459,1.2513574,-0.91232723,0.8958339,326.96024,-48.7957,34.798912,STU
6766784766000,1.134486,-1.02597882286123,7.63787754363376,8.77112500429185,1.2861768,-0.7458665,0.8231409,327.9214,-48.477356,35.586006,STU
6766789748000,1.139468,-1.25604316756703,8.28042243815409,8.54147942310376,1.2812898,-0.7275405,0.73792523,329,-48.347176,36.228848,STU
6766794833000,1.144553,-1.49873258503937,8.89685388188976,8.49779545669291,1.269378,-0.78801614,0.66889745,330.04004,-48.24129,36.80089,STU
6766799771000,1.149491,-1.8058370840399,9.36568774314214,8.27749034837905,1.2748758,-0.9966267,0.6444628,331.2166,-48.265186,37.25398,STU
6766804789000,1.154509,-2.33793304004988,9.44238630892768,7.50571108647382,1.2770138,-1.2180653,0.605062,332.4159,-48.31205,37.650116,STU
6766810615000,1.160335,-3.07046839044385,9.32897780692286,6.45956462323439,1.3292428,-1.1435398,0.5864306,333.60223,-48.470314,37.89624,STU
6766814737000,1.164457,-3.73898598731739,8.98369941853541,5.5229053073695,1.459968,-0.83658,0.5665775,334.7757,-48.648964,38.095703,STU
6766819743000,1.169463,-4.49432647438917,8.55284541683839,4.41125417530174,1.6200147,-0.5729916,0.54458636,335.6568,-49.033756,37.979603,STU
6766824854000,1.174574,-4.64321861580807,7.98609464615838,3.56112862110686,1.8219056,-0.5757405,0.5296202,336.5199,-49.432365,37.847183,STU
6766829907000,1.179627,-4.77124826405209,7.43466932269609,2.82019577623024,2.053729,-0.7779369,0.51343226,337.16168,-50.041935,37.45687,STU
6766834752000,1.184472,-4.67899318322895,7.00568380375783,3.22611762129436,2.2223277,-1.0519099,0.48380527,337.82504,-50.665287,37.059402,STU
6766839946000,1.189666,-4.55416004801708,6.6045081171446,3.71227769164124,2.322204,-1.3332134,0.46578476,338.5386,-51.31765,36.665222,STU
6766844804000,1.194524,-4.12837495771812,6.92891606711409,4.77471318791946,2.3289237,-1.5100589,0.44898596,339.30597,-51.977707,36.26292,STU
6766850271000,1.199991,-3.64921335033557,7.29399187248322,5.97033584295302,2.2708917,-1.6349808,0.45448375,340.07324,-52.551365,35.922184,STU
6766854807000,1.204527,-2.75152826657244,9.22792014628975,6.05134417795053,2.2073615,-1.7540996,0.48441613,340.89392,-53.117226,35.580326,STU
6766859669000,1.209389,-1.67972252904594,11.658286441898,5.93852251103483,2.2088888,-1.9498819,0.5363397,341.77704,-53.66964,35.24289,STU
6766864728000,1.214448,-1.64346074227123,12.9342619806539,5.14512062410524,2.2870796,-2.1911736,0.58368176,342.73026,-54.066322,35.031517,STU
6766869751000,1.219471,-1.96918149672084,13.7811355049333,4.13073311085316,2.4135287,-2.3432791,0.61269784,343.71323,-54.448788,34.82201,STU
6766874733000,1.224453,-2.35295796589404,14.1833446192999,3.3742823678808,2.4749205,-2.3695462,0.58093286,345.27444,-54.75279,34.752888,STU
6766880490000,1.23021,-2.82761880331126,14.4232835254494,2.62838676622517,2.468812,-2.1991148,0.5122105,346.79468,-55.041317,34.64963,STU
6766884729000,1.234449,-2.82270951389062,14.2568424257642,2.52036701887087,2.4330764,-1.9117028,0.45234573,348.19287,-55.573296,34.25909,STU
6766889744000,1.239464,-2.61797508490331,13.8673477423581,2.64021159700561,2.3961189,-1.7666223,0.4025602,349.55405,-56.085922,33.84277,STU
6766894742000,1.244462,-2.0854708744245,13.3888781774875,2.88453287390773,2.381458,-1.5323554,0.38728857,350.72156,-56.72656,33.255917,STU
6766899789000,1.249509,-1.37247080400263,12.8575343043315,3.19788964229071,2.3762658,-1.4101825,0.3820962,351.8487,-57.337345,32.66265,STU
6766904817000,1.254537,-0.741138183896007,12.3051159691736,3.37834538744661,2.4113905,-1.41904,0.40133846,352.91724,-122.166855,32.150772,STU
6766909774000,1.259494,-0.185752718896936,11.7409150158774,3.44446260827298,2.4336872,-1.536326,0.43218717,353.9585,-121.706116,31.642574,STU
6766914705000,1.264425,0.230510251084794,11.2018749275225,3.41164775007106,2.4736989,-1.6609426,0.46303585,355.11505,-121.53529,31.386246,STU
6766919723000,1.269443,0.41718131536144,10.691943913406,3.20676487812411,2.5240953,-1.7333301,0.4831944,356.27145,-121.39427,31.125015,STU
6766924718000,1.274438,0.50896339933184,10.1890518103633,3.10506896340703,2.5540276,-1.740966,0.48930305,357.69302,-121.56752,31.11611,STU
6766929724000,1.279444,0.326853890924321,9.69875684688809,3.30118690003896,2.591596,-1.7873917,0.45845437,359.11447,-121.751335,31.074295,STU
6766934739000,1.284459,0.111850841281999,9.22737085473424,3.42369706696823,2.6175575,-1.924531,0.39675698,0.69097745,-122.09307,31.116802,STU
6766939732000,1.289452,-0.227346527098797,8.8340988292382,3.26147230511977,2.624277,-2.0234911,0.28863382,2.219869,-122.42149,31.106407,STU
6766944764000,1.294484,-0.571913262757974,8.52616141838649,3.00661431163227,2.6193902,-2.0320432,0.17165314,3.618745,-122.704544,31.028559,STU
6766950650000,1.30037,-0.983813386437247,8.45380087449393,2.41102905303644,2.5885415,-1.967597,0.058337633,4.981715,-122.96335,30.899118,STU
6766954748000,1.304468,-1.24759852625386,8.44295046854123,2.04733210567355,2.5662448,-1.8139644,-0.03848451,6.0823927,-123.07127,30.622562,STU
6766959730000,1.30945,-1.49973904149965,8.54761220929305,1.75713251819723,2.5680776,-1.6261233,-0.12461651,7.1205378,-123.16171,30.314667,STU
6766964706000,1.314426,-1.68225885922367,8.67080487202152,1.56925651072252,2.5967882,-1.457219,-0.22082779,7.9823413,-123.11659,29.85108,STU
6766969719000,1.319439,-1.62460064138163,8.85992376489239,1.73531218388739,2.6224444,-1.3796391,-0.29260445,8.79163,-123.07054,29.374128,STU
6766974890000,1.32461,-1.56512514877018,9.0550033170638,1.90660160857033,2.617252,-1.4892895,-0.35827246,9.558225,-122.94776,28.781073,STU
6766979723000,1.329443,-1.50953724395657,9.23733158541507,2.06669478000576,2.6386325,-1.6716328,-0.3979787,10.303272,-122.83867,28.174477,STU
6766984779000,1.334499,-1.45338936651435,9.4159597783769,2.20876071271248,2.6499333,-1.8057177,-0.42394048,11.048256,-122.734314,27.544014,STU
6766989734000,1.339454,-1.42303190828002,9.44198054743191,2.03528938694937,2.663678,-1.8774943,-0.43799037,11.811904,-122.64571,26.895546,STU
6766996605000,1.346325,-1.39437158346037,9.46572741653964,1.70111680114329,2.7043004,-1.967597,-0.43218717,12.624681,-122.571526,26.246956,STU
6766999812000,1.349532,-1.40900229878049,9.45109670121951,1.34997938902439,2.7269025,-1.9214766,-0.43066,13.401465,-122.50893,25.601965,STU
6767004750000,1.35447,-1.43153004192073,9.42856895807927,0.809313177286585,2.73576,-1.7867808,-0.4343252,14.187854,-122.49319,24.955204,STU
6767009754000,1.359474,-1.52836800660377,9.34939386509434,0.216164791754717,2.7217102,-1.640784,-0.44348818,14.942375,-122.49251,24.317026,STU
6767015095000,1.364815,-1.65382960820755,9.24805947518868,-0.430444955390566,2.6655104,-1.4175128,-0.49388456,15.616836,-122.4901,23.694206,STU
6767020063000,1.369783,-1.55638811967213,9.38848903278689,-0.852021823770492,2.5445592,-1.2110404,-0.5421429,16.269445,-122.53029,23.05683,STU
6767024730000,1.37445,-1.3898644525016,9.60259076282734,-1.18506918791995,2.409558,-0.9935723,-0.54825157,16.84226,-122.56952,22.450905,STU
6767029719000,1.379439,-1.13266822939923,9.73222951706381,-1.39548597619144,2.316401,-0.8029824,-0.5338962,17.364351,-122.637276,21.809898,STU
6767034707000,1.384427,-0.852921794419427,9.83351704170032,-1.56429845010097,2.2870796,-0.573297,-0.5516113,17.79979,-122.6994,21.199095,STU
6767039736000,1.389456,-0.432450069076166,9.84756451366618,-1.60281155233236,2.2534819,-0.29168814,-0.56291234,18.21177,-122.82681,20.652271,STU
6767044803000,1.394523,0.0273413613146866,9.83872265406341,-1.60723262062682,2.201253,-0.00580322,-0.5671884,18.549929,-122.95465,20.143843,STU
6767049840000,1.39956,0.59084916652819,9.82270639465875,-1.43779980192878,2.1044307,0.24465153,-0.5852089,18.878016,-123.16936,19.73912,STU
6767054771000,1.404491,1.206412694078,9.8026876634167,-1.16755241717889,1.9932534,0.43066,-0.59986967,19.139442,-123.37493,19.374306,STU
6767059727000,1.409447,1.47896207143236,9.51855855091569,-0.583164267856321,1.8887954,0.5161811,-0.6478226,19.511667,-123.758995,19.191074,STU
6767064743000,1.414463,1.61921068288065,9.12756261567725,0.130828491290808,1.8274034,0.58123827,-0.72051555,19.82532,-124.11494,19.026497,STU
6767069736000,1.419456,1.75340186452946,8.92920863506225,0.629361123272342,1.7592919,0.68783426,-0.80573124,20.414465,-124.731995,19.147,STU
6767074730000,1.42445,1.88117083348959,8.95813753611573,0.875256092496598,1.6859881,0.70646566,-0.818254,20.985678,-125.30404,19.25509,STU
6767079708000,1.429428,2.00853045052674,8.9869737534654,1.12036325244821,1.638646,0.6444628,-0.7870999,21.583256,-125.91315,19.412516,STU
6767084750000,1.43447,2.13752747525581,9.01618070563032,1.3686216494904,1.6346754,0.589485,-0.729984,22.152107,-126.487854,19.565601,STU
6767089669000,1.439389,2.16139735416229,8.99400472990538,1.55697015135238,1.6459764,0.56230146,-0.698219,22.708353,-127.028114,19.704237,STU
6767094773000,1.444493,2.07263497457708,8.91458565086495,1.69244952147568,1.65911,0.5213735,-0.62796944,23.276472,-127.55658,19.845137,STU
6767099753000,1.449473,1.95090732539239,8.77163650827779,1.77376212825199,1.6933185,0.45173484,-0.54183745,23.817278,-128.03806,20.028185,STU
6767104741000,1.454461,1.77630512552139,8.53027511373898,1.77889753754031,1.7486018,0.37201694,-0.45875978,24.363943,-128.51465,20.206318,STU
6767109729000,1.459449,1.61729942317793,8.30375175946717,1.81775268447193,1.7947221,0.3115413,-0.39003745,24.959536,-129.05173,20.329868,STU
6767114730000,1.46445,1.47147682966698,8.08957429885823,1.88610702815414,1.8249599,0.27366763,-0.34330627,25.560621,-129.58286,20.448458,STU
6767119736000,1.469456,1.35497142576619,7.93423749167851,1.93756278209864,1.8206838,0.24007004,-0.3051272,26.17479,-130.11188,20.548773,STU
6767124727000,1.474447,1.27736178096205,7.85662799882281,1.96666637990664,1.7993035,0.22510384,-0.27000242,26.78307,-130.62766,20.64729,STU
6767129716000,1.479436,1.18991990935927,7.7908472762168,2.03655159928917,1.7623463,0.21960606,-0.23793201,27.353827,-131.13322,20.67791,STU
6767134718000,1.484438,1.0906043573798,7.73882489596209,2.15478438045217,1.7107282,0.22907446,-0.20463985,27.917204,-131.6167,20.712002,STU
6767139682000,1.489402,0.991947163012072,7.7073130746883,2.28433281124085,1.6459764,0.21471913,-0.17806722,28.424097,-132.037,20.708597,STU
6767144736000,1.494456,0.891370812665743,7.70252382707303,2.43280263793786,1.5974126,0.10842858,-0.172264,28.943758,-132.43602,20.690256,STU
6767149692000,1.499412,0.831256978504155,7.76135970993273,2.43976632825485,1.5683966,-0.038789943,-0.18081611,29.384195,-132.72595,20.633995,STU
6767154750000,1.50447,0.826464768698061,7.91470948298378,2.2432864968144,1.5326608,-0.116675265,-0.17379116,29.832415,-132.99568,20.574198,STU
6767159666000,1.509386,0.832142266624084,8.08133485816269,2.05263379304903,1.4837917,-0.12186762,-0.17012598,30.197071,-133.16156,20.44334,STU
6767164721000,1.514441,0.854878864613939,8.28141713319557,1.85709902374601,1.4559973,-0.07666359,-0.17012598,30.567343,-133.31816,20.30881,STU
6767169666000,1.519386,0.887405041945577,8.46510548497203,1.69719592733479,1.3891076,-0.032070424,-0.172264,30.978577,-133.47916,20.164558,STU
6767174731000,1.524451,0.951792203650327,8.6168753982175,1.62820968608135,1.3191634,0.007330383,-0.18875736,31.37518,-133.62326,20.024384,STU
6767179675000,1.529395,1.00838690260022,8.76761371289274,1.58541285536295,1.2504412,0.03756821,-0.22266038,31.80136,-133.789,19.85826,STU
6767184782000,1.534502,1.02857316125471,8.93919684558634,1.69139065401641,1.17897,0.02443461,-0.24495697,32.224693,-133.92816,19.690445,STU
6767189683000,1.539403,1.04794517097972,9.10385886503637,1.7930936481814,1.1441506,-0.004581489,-0.25259277,32.677444,-134.08344,19.517857,STU
6767194714000,1.544434,1.06783102711655,9.27288857731001,1.8974943344993,1.1313224,-0.07086037,-0.25686884,33.134888,-134.21535,19.33178,STU
6767199805000,1.549525,1.04360887777186,9.43474829885932,2.01272252663498,1.1273518,-0.18295415,-0.26328292,33.606518,-134.33875,19.122425,STU
6767205702000,1.555422,0.887928391680608,9.59579693840304,2.17377127828897,1.1499538,-0.39278635,-0.2782491,34.110016,-134.45592,18.879984,STU
6767209713000,1.559433,0.796264560026181,9.70589484795086,2.2404771152754,1.1374311,-0.45631635,-0.28588495,34.57108,-134.47319,18.635286,STU
6767214987000,1.564707,0.745405558068674,9.85338575500957,2.11841548083778,1.1154399,-0.5503896,-0.30573806,35.079735,-134.48412,18.341034,STU
6767219751000,1.569471,0.711099165869317,10.0009420206666,1.96748083695365,1.0567969,-0.5687156,-0.33567044,35.50899,-134.37515,18.002762,STU
6767224731000,1.574451,0.723681822803623,10.2148477140973,1.64033149388796,0.9627236,-0.49693888,-0.36774087,35.936127,-134.24643,17.662508,STU
6767229731000,1.579451,0.736315012496702,10.4296124665377,1.31186829803887,0.86926126,-0.3390302,-0.39370266,36.35299,-134.09294,17.316158,STU
6767234815000,1.584535,0.926069099587422,10.7362436599019,1.01023878069804,0.7825184,-0.10323623,-0.3885103,36.738,-133.91557,17.001898,STU
6767239787000,1.589507,1.11075538891609,11.0243629612958,0.801913910311705,0.72418076,0.13133603,-0.35124752,37.09153,-133.72156,16.722155,STU
6767244740000,1.59446,1.18222565369621,11.1807045298992,1.14586456831152,0.66737026,0.28191432,-0.31978795,37.475468,-133.57613,16.445333,STU
6767250290000,1.60001,1.27108586013682,11.3554641044776,1.53982301539179,0.61422503,0.28680122,-0.30604348,37.938587,-133.51544,16.197056,STU
6767254743000,1.604463,1.40811022715589,11.4924880099502,1.91995510503731,0.5558874,0.1386664,-0.28496864,38.40893,-133.43854,15.958235,STU
6767259758000,1.609478,1.55447305832184,11.6486148673429,2.32297441071499,0.514654,-0.07971791,-0.25503623,38.85409,-133.26843,15.717232,STU
6767264724000,1.614444,1.59662644607051,11.8265961312783,2.3979138645263,0.46761733,-0.2883284,-0.2134974,39.33799,-133.0841,15.45884,STU
6767269914000,1.619634,1.62021123119038,12.0195530247417,2.45612639716812,0.41233405,-0.45937067,-0.17440203,39.83586,-132.81593,15.198373,STU
6767274901000,1.624621,1.37818658118045,12.2947968726153,2.25206637482114,0.36743546,-0.5708536,-0.118507855,40.38038,-132.54457,14.924235,STU
6767280112000,1.629832,1.10607468064725,12.5817083996764,2.03968932508091,0.32559118,-0.61666846,-0.09101892,40.950397,-132.23349,14.634296,STU
6767284766000,1.634486,0.698806073207691,12.8320086351609,1.85726692209214,0.27947086,-0.63529986,-0.057726767,41.55282,-131.91615,14.344028,STU
6767289667000,1.639387,0.269922651406815,13.0955929613554,1.66516288319056,0.23915374,-0.63163465,-0.046731193,42.14596,-131.54997,13.988501,STU
6767294785000,1.644505,-0.27349418467202,13.3859875372192,1.5988902883786,0.21624629,-0.6239988,-0.036651913,42.751156,-131.1825,13.642129,STU
6767299760000,1.64948,-0.810855619166291,13.6697147094649,1.54730358283858,0.16401732,-0.6264423,-0.059864793,43.356304,-130.79701,13.29428,STU
6767304825000,1.654545,-1.40182596111898,14.0116341561615,1.4657019475516,0.10445796,-0.6160576,-0.08307768,43.916393,-130.32315,12.8747425,STU
6767309708000,1.659428,-1.98849939093484,14.361745601983,1.37580850627276,0.01863139,-0.5876524,-0.12583824,44.46878,-129.83224,12.456978,STU
6767314769000,1.664489,-2.50023358238682,14.749383404284,1.34716051788318,-0.07147124,-0.5326745,-0.18142697,44.959877,-129.21297,11.946636,STU
6767319729000,1.669449,-2.96622265843758,15.1384202074521,1.34288539161192,-0.19303341,-0.44990227,-0.2519819,45.43152,-128.57188,11.44572,STU
6767324767000,1.674487,-3.28975189817681,15.5849404651261,1.39020640139919,-0.3368922,-0.36102137,-0.3005457,45.864513,-127.82036,10.865133,STU
6767329763000,1.679483,-3.46725876139495,16.0768875929616,1.48656724125504,-0.5002986,-0.30207285,-0.32467487,46.279865,-127.04854,10.299744,STU
6767334770000,1.68449,-3.40912137849367,16.5286751712193,1.58804188560966,-0.6588182,-0.25320363,-0.31215215,46.674026,-126.17958,9.670533,STU
6767339770000,1.68949,-3.2100785736639,16.9551963509501,1.69230247547506,-0.8353582,-0.21777347,-0.2950479,47.05527,-125.288574,9.064865,STU
6767345152000,1.694872,-2.93872800817143,17.449995648,1.84229028097143,-1.0097603,-0.204029,-0.27091873,47.44259,-124.33095,8.451831,STU
6767349749000,1.699469,-2.67877326213333,17.890241144,1.9890388672,-1.2034045,-0.18295415,-0.22113322,47.826992,-123.35573,7.8774076,STU
6767354732000,1.704452,-2.36670400107615,18.2046898725018,2.19083998859281,-1.4138476,-0.1518,-0.15241088,48.229458,-122.344025,7.354598,STU
6767359732000,1.709452,-2.02316787316798,18.3568273122886,2.43622294441939,-1.6022996,-0.1133155,-0.0711658,48.635754,-121.32254,6.8705955,STU
6767364708000,1.714428,-1.72524704362296,18.3249216596253,2.77241299342367,-1.7806722,-0.081855945,0.0036651916,49.063858,-120.258835,6.45594,STU
6767369753000,1.719473,-1.46046783940813,18.137168837784,3.19124571642088,-1.9556851,-0.067500606,0.07849618,49.500443,-119.18301,6.080297,STU
6767374731000,1.724451,-1.16469366339286,17.6456078214286,3.90879085803571,-2.1563544,-0.06536258,0.12644911,49.9556,-118.081436,5.770206,STU
6767379733000,1.729453,-0.838164630501152,16.8913719158986,4.88837786066628,-2.3606887,-0.10629055,0.1591304,50.429844,-116.96532,5.4826226,STU
6767384690000,1.73441,-0.531083705646312,16.3817388770817,5.51829127724029,-2.5876253,-0.13041973,0.1704314,50.89736,-115.79411,5.250508,STU
6767389736000,1.739456,-0.238875264794211,16.1565946403648,5.73864531534496,-2.7085764,-0.2574797,0.19853121,51.413532,-114.62756,5.0217366,STU
6767394714000,1.744434,0.134194974470098,16.0336408007537,5.73493367898443,-2.9651399,-0.45234573,0.25595254,51.904003,-113.30154,4.8645816,STU
6767399752000,1.749472,0.62227305380482,16.0384259763959,5.44304381075077,-3.2162056,-0.70554936,0.36865717,52.458393,-111.97469,4.715961,STU
6767404674000,1.754394,0.987871273316822,16.2008715118883,5.05087476875372,-3.4275649,-0.9639453,0.54458636,53.080505,-110.61987,4.6268053,STU
6767409698000,1.759418,1.20236747424411,16.5917316442441,4.49795106754508,-3.5659258,-1.183246,0.7302894,53.778004,-109.25122,4.55804,STU
6767415785000,1.765505,1.32420919146919,16.8636076698262,3.85471753104265,-3.6050212,-1.4407257,0.98807454,54.659756,-107.994835,4.5828776,STU
6767419696000,1.769416,1.31533363109005,16.9109443625592,3.45827567964455,-3.5100317,-1.505172,1.0613784,55.554806,-106.76777,4.6138387,STU
6767424673000,1.774393,1.30403890748815,16.9711833601896,2.95377782886256,-3.4510832,-1.5491543,1.1902709,56.66145,-105.693405,4.7173085,STU
6767429710000,1.77943,1.15880787191578,16.7129228010083,2.13980577965599,-3.2971451,-1.4798211,1.2696834,57.75901,-104.70432,4.8370337,STU
6767434672000,1.784392,0.994394631049822,16.4075827268683,1.28955452259787,-3.1493158,-1.2745703,1.3240504,58.83969,-103.773346,4.996403,STU
6767439705000,1.789425,0.798269616291752,15.8934513094751,0.551864297450579,-3.0121765,-0.9947941,1.3335189,59.990246,-103.027054,5.1534853,STU
6767444761000,1.794481,0.595516237072743,15.3370589176161,-0.164845302191061,-2.9290988,-0.6740898,1.3035865,61.06989,-102.336334,5.3315277,STU
6767454635000,1.804355,0.288457441361257,14.4795301727749,-1.61474487732984,-2.8906143,-0.042760566,1.2290609,63.193687,-101.337975,5.6538014,STU
6767459671000,1.809391,0.138093906388965,14.0568868201635,-2.55148833910082,-2.9107728,0.16462818,1.2177598,64.18202,-100.96386,5.803679,STU
6767464678000,1.814398,-0.011228236447645,13.6369186045154,-3.51274960373686,-2.8759537,0.3912592,1.2183707,65.072044,-100.61778,5.966351,STU
6767469682000,1.819402,-0.15390232929936,13.1860713544355,-3.87441429791688,-2.842356,0.5500842,1.1933253,65.951996,-100.35561,6.110747,STU
6767474631000,1.824351,-0.293570337424245,12.7333542748704,-4.10077268683061,-2.8096747,0.61391956,1.1667526,66.779976,-100.11625,6.264203,STU
6767479646000,1.829366,-0.747455742385944,12.0957696212386,-3.99206598896331,-2.8215866,0.6114761,1.1230757,67.586205,-99.97161,6.397577,STU
6767484636000,1.834356,-1.25771679967579,11.4277916169676,-3.82043280288294,-2.855795,0.5873469,1.0903945,68.36031,-99.835884,6.5326505,STU
6767489649000,1.839369,-2.12111968050104,10.5853822646218,-3.94945750600651,-2.9437597,0.56413406,1.0024298,69.089714,-99.688354,6.6352158,STU
6767494642000,1.844362,-3.07849721839432,9.6987468055035,-4.16168408705001,-3.0057623,0.61911196,0.8848383,69.78394,-99.536514,6.7254653,STU
6767499682000,1.849402,-3.99437508987103,9.04092573180834,-4.6126474159277,-3.0411925,1.0140363,0.79901177,70.06304,-99.26218,6.810048,STU
6767504740000,1.85446,-4.89722913737174,8.45726214751012,-5.14159222970912,-3.1083877,1.5974126,0.7012733,70.26549,-98.96683,6.8643246,STU
6767509735000,1.859455,-5.48407474695167,7.97802800260223,-5.36512658862454,-3.2247577,2.223244,0.57818395,70.071335,-98.54945,6.8263674,STU
6767514740000,1.86446,-5.90726531214684,7.55038284786245,-5.42749158648699,-3.3820555,2.7714956,0.4447099,69.73022,-98.12025,6.764739,STU
6767519742000,1.869462,-5.93515381325131,7.2734929277439,-4.45872628018293,-3.5472944,3.19116,0.2932153,69.13669,-97.60422,6.570119,STU
6767524732000,1.874452,-5.56571054593859,7.14861057103658,-2.45540710640244,-3.7033706,3.2259793,0.14172074,68.49298,-97.06451,6.3308825,STU
6767529720000,1.87944,-4.92414153228621,7.31340442094241,-0.31066127417103,-3.8643336,2.8502972,0.038789943,67.78733,-96.46735,6.007382,STU
6767534778000,1.884498,-4.13043668062827,7.63276518743456,1.93895224450262,-4.039041,2.339003,-0.005192355,67.107475,-95.87603,5.645817,STU
6767539732000,1.889452,-3.31690114755422,8.14076152810065,3.54780888819829,-4.129449,1.8964312,-0.011301007,66.50085,-95.335045,5.2996736,STU
6767544776000,1.894496,-2.46426586906394,8.7893085443057,4.78594414400526,-4.159076,1.4407257,0.018936822,66.04446,-85.047935,4.935622,STU
6767549738000,1.899458,-1.73074975249108,9.32304537259101,5.26109846809422,-4.1001277,1.0809261,0.08124508,65.71584,-85.0164,4.6808214,STU
6767554749000,1.904469,-1.10929048881819,9.74387586662588,4.89898849385133,-3.9364157,0.9767735,0.16401732,65.44674,-84.661644,4.4316006,STU
6767559728000,1.909448,-0.668117461130374,9.78287378353477,4.16646140722211,-3.7662897,1.1004738,0.22082779,65.29248,-83.86102,4.3184724,STU
6767565158000,1.914878,-0.374466035957004,9.42224894600753,2.97124842079453,-3.6407568,1.2492194,0.21380283,65.16537,-82.920456,4.204139,STU
6767569739000,1.919459,-0.272599556173408,8.91759250580697,2.14656430210252,-3.5515707,1.4703526,0.16187929,65.099724,-81.95097,4.187369,STU
6767574729000,1.924449,-0.301306969219063,8.17598498077693,1.42409458614337,-3.5824192,1.6022996,0.105374254,65.025,-80.95432,4.1583905,STU
6767579739000,1.929459,-0.410896097763534,7.40219296035894,0.778119133596292,-3.6480873,1.6658295,0.031154128,65.03938,-80.118195,4.1752205,STU
6767584811000,1.934531,-0.607278716219308,6.58792364727344,0.20813053441278,-3.7174203,1.8237382,-0.015882496,64.99913,-79.277275,4.169031,STU
6767589751000,1.939471,-0.827855620135028,5.89380987326251,-0.172259864633638,-3.7531562,1.9700404,-0.11209377,64.96388,-78.52018,4.131698,STU
6767594787000,1.944507,-1.08642942013503,5.30004762326251,-0.359007599633638,-3.817297,2.0470095,-0.19761491,64.91452,-77.744896,4.076038,STU
6767599908000,1.949628,-1.23477523435226,4.89385420919942,-0.42055704026492,-3.844786,2.0922134,-0.28008172,64.71942,-76.99751,3.934423,STU
6767604848000,1.954568,-1.25313892333819,4.71710386150412,-0.34021594829015,-3.850589,2.1371121,-0.3622431,64.51814,-76.24864,3.7619941,STU
6767609680000,1.9594,-1.27110113896167,4.54421769145075,-0.261631301241145,-3.8221838,2.1361957,-0.45631635,64.187164,-75.474335,3.4831166,STU
6767615066000,1.964786,-1.29112276424066,4.35150972127123,-0.174036742258127,-3.7363572,2.1429152,-0.49480084,63.853287,-74.71548,3.190033,STU
6767619666000,1.969386,-1.28731375857651,4.27127643288256,0.0132030363914591,-3.6236527,2.1111503,-0.5109888,63.528435,-73.96768,2.8747432,STU
6767624765000,1.974485,-1.23766235624809,4.36561394695475,0.465030631674631,-3.5005634,2.0204368,-0.50426924,63.22861,-73.249825,2.5574741,STU
6767629688000,1.979408,-1.18866675323579,4.3901002150054,0.724067888347245,-3.3677,1.9645426,-0.50426924,62.88749,-72.50126,2.2118707,STU
6767634710000,1.98443,-1.13671329278209,4.2909164794265,0.657945335492487,-3.2406402,1.971873,-0.5271767,62.56431,-71.78888,1.8617249,STU
6767639726000,1.989446,-1.08474043244844,4.11778418071647,0.551071373974144,-3.1377094,1.9917262,-0.5558874,62.27586,-71.03879,1.5307438,STU
6767644786000,1.994506,-1.03213555788019,3.78302580629626,0.354998700984901,-3.037222,1.9981402,-0.58062744,62.00037,-70.32895,1.1941812,STU
6767649816000,1.999536,-0.993333943825839,3.45877970039258,0.262729883427016,-2.9358184,1.9938642,-0.6053675,61.724983,-69.64985,0.85763574,STU
6767654792000,2.004512,-0.984830346966453,3.15690183429693,0.398787544169343,-2.8194485,1.9914207,-0.58062744,61.45381,-69.00862,0.52702653,STU
6767659829000,2.009549,-0.981114571389929,2.84022659221806,0.532431427278402,-2.6945267,1.9254472,-0.5561928,61.17811,-68.39989,0.19074534,STU
6767664777000,2.014497,-1.0402731826675,2.38667732488556,0.611309558489388,-2.5573874,1.8304577,-0.5290093,60.91559,-67.83292,-0.13421161,STU
6767669742000,2.019462,-1.09865065578508,1.94747394690635,0.696876539770583,-2.408947,1.7342464,-0.50610185,60.649734,-67.240906,-0.4576975,STU
6767674766000,2.024486,-1.15121325163373,1.60820640526368,0.82589377286225,-2.252871,1.6801848,-0.4877759,60.402626,-66.69488,-0.7691552,STU
6767679742000,2.029462,-1.20249757369975,1.29190772646523,0.96207616205175,-2.087021,1.6575829,-0.45814893,60.118546,-66.1229,-1.1101784,STU
6767684778000,2.034498,-1.2485613851437,1.12021534829383,1.16308180322567,-2.010663,1.6129897,-0.44348818,59.86026,-65.57242,-1.4424458,STU
6767689663000,2.039383,-1.2932440139967,0.95367101402709,1.3580604682643,-1.8509218,1.5338826,-0.41050145,59.582344,-65.02423,-1.7897439,STU
6767694800000,2.04452,-1.31369985674189,0.960638344305898,1.69832215398255,-1.6878207,1.4495832,-0.3817908,59.32163,-64.4998,-2.1298585,STU
6767699737000,2.049457,-1.32714969410203,1.00995443803338,2.0569848112839,-1.536326,1.3753631,-0.34513888,59.078827,-64.01952,-2.452009,STU
6767705091000,2.054811,-1.34597081012356,1.12088334304504,2.589703672778,-1.3833044,1.2516629,-0.30024028,58.867577,-63.51857,-2.7646797,STU
6767709667000,2.059387,-1.36343730546034,1.23441565392587,3.09186568728577,-1.2140946,1.0613784,-0.25289822,58.692085,-63.066513,-3.05029,STU
6767714760000,2.06448,-1.48087004236641,1.37835124104058,3.56947273588791,-1.0549643,0.8072584,-0.21594086,58.593796,-62.586094,-3.2805548,STU
6767719728000,2.069448,-1.6385699110687,1.52649354799116,3.99956326421254,-0.8885035,0.528093,-0.16157386,58.546272,-62.158424,-3.4659054,STU
6767724760000,2.07448,-1.80500200751073,1.66352832124464,4.21389759399142,-0.74006325,0.2648101,-0.11911872,58.606094,-61.680782,-3.5797205,STU
6767729762000,2.079482,-1.97321450555989,1.79436028585642,4.33538452282481,-0.5910121,0.055283304,-0.05589417,58.715782,-61.254326,-3.6441152,STU
6767734708000,2.084428,-1.96911720592687,1.97942824872223,4.37048409185178,-0.48258355,-0.05497787,0.007330383,58.872795,-60.78358,-3.6963058,STU
6767739751000,2.089471,-1.87417750155298,2.19778960347946,4.36099007680362,-0.39553526,-0.0983493,0.07544186,59.05727,-60.35313,-3.712703,STU
6767744801000,2.094521,-1.69286985005627,2.43446834479795,4.59643703089514,-0.30268374,-0.06078109,0.17256944,59.222664,-59.942856,-3.7469218,STU
6767749769000,2.099489,-1.4641081126445,2.67783188550384,4.97121685207161,-0.20891592,-0.05467244,0.2779437,59.396202,-59.562134,-3.7529414,STU
6767754745000,2.104465,-1.19564717577482,2.8366246424565,5.47756981463664,-0.093767814,-0.05681047,0.3707952,59.56655,-59.25263,-3.7011194,STU
6767759733000,2.109453,-0.90717452272262,2.95396946120778,6.04962602302968,0.036651913,-0.10262536,0.4801401,59.72786,-58.98023,-3.6165545,STU
6767764725000,2.114445,-0.723637942350402,2.96463794741024,6.75183978763979,0.1731803,-0.17195857,0.58062744,59.95641,-58.720497,-3.3949115,STU
6767769749000,2.119469,-0.582043269028841,2.9315991594173,7.51173117221895,0.3210097,-0.26450464,0.6750061,60.182514,-58.506306,-3.1462233,STU
6767774736000,2.124456,-0.488540206554655,2.89226949436648,8.19979850270805,0.49418998,-0.30085114,0.7492262,60.49357,-58.261593,-2.738837,STU
6767779714000,2.129434,-0.417864158584701,2.849863999407,8.854729431864,0.66767573,-0.37140608,0.7858781,60.815704,-58.062706,-2.319134,STU
6767784708000,2.134428,-0.439080631040579,2.79139882492969,9.18434784652471,0.7611381,-0.4016439,0.8533788,61.16081,-57.72877,-1.8224328,STU
6767789735000,2.139455,-0.511613697255926,2.72370120153676,9.33424999738851,0.9673051,-0.41691554,0.91751957,61.498123,-57.483913,-1.3378687,STU
6767794780000,2.1445,-0.659139891254575,2.62875390784461,9.23546750051609,1.2183707,-0.41691554,0.9798279,61.837982,-57.142574,-0.83311766,STU
6767799748000,2.149468,-0.84218206826499,2.52160724262926,9.0122450093835,1.5057828,-0.42180246,1.0326678,62.15685,-56.884045,-0.34309095,STU
6767804734000,2.154454,-1.01763386541925,2.47603277925466,8.44475369531056,1.8212948,-0.46120325,1.0824533,62.44312,-56.665974,0.11505975,STU
6767809731000,2.159451,-1.1860686910559,2.48594070256729,7.56790212004141,2.1184807,-0.5183192,1.1270463,62.713676,-56.535698,0.5630932,STU
6767815000000,2.16472,-1.29249123607529,2.37034574806588,6.40022645859765,2.4049764,-0.6081163,1.1557571,62.94066,-56.512108,0.94591314,STU
6767819766000,2.169486,-1.34833682425412,2.19421730972235,5.20598900276706,2.7186558,-0.7791586,1.1542299,63.189625,-56.58507,1.3375201,STU
6767824763000,2.174483,-1.41867007242647,1.99389476599265,4.20129566084559,3.1089988,-1.0598512,1.1068878,63.43577,-56.91129,1.6935787,STU
6767829757000,2.179477,-1.50195942076238,1.77641703385255,3.47020068327206,3.4923167,-1.45783,1.0586295,63.746853,-57.31781,2.0823119,STU
6767834734000,2.184454,-1.764650983711,1.60808992355452,3.44661590373946,3.8066068,-2.0073032,1.0012082,64.10961,-58.01828,2.4886465,STU
6767839764000,2.189484,-2.29820206185347,1.51019066707652,4.47455822454019,3.9635992,-2.5778513,0.9080512,64.5867,-58.769382,2.9256232,STU
6767844703000,2.194423,-2.95154622682879,1.69248758309609,5.39511234183472,3.8973203,-2.9840767,0.799928,65.13257,-59.64444,3.3577988,STU
6767849745000,2.199465,-3.79163947204429,2.25095861245552,6.21611252589956,3.6994,-3.0060678,0.7302894,65.73436,-60.51246,3.7880006,STU
6767854727000,2.204447,-4.57444376606133,3.20421607761238,6.76613232009527,3.5466835,-2.5271494,0.675617,66.347626,-61.160904,4.0484433,STU
6767859765000,2.209485,-5.29742081367471,4.75071704399127,6.94328553839436,3.503312,-1.7556267,0.63438356,66.89794,-61.77542,4.246155,STU
6767864677000,2.214397,-5.61592312878236,6.71611118283797,7.55422996285714,3.5341609,-1.0555751,0.59223384,67.37344,-62.279613,4.1757164,STU
6767869785000,2.219505,-5.32044310638543,9.50206384669223,8.90030471714286,3.5686748,-0.8680395,0.52595496,67.79183,-62.767708,4.051356,STU
6767874661000,2.224381,-4.77898043165839,11.9562592841112,10.1122660373386,3.542102,-1.0943651,0.47311515,68.149155,-63.393147,3.711078,STU
6767879756000,2.229476,-3.58699612500496,14.0252730095333,11.2024958575968,3.5075881,-1.9388863,0.3491095,68.63731,-64.0159,3.3985398,STU
6767884763000,2.234483,-2.88232545441893,15.7540209951287,11.4216985142658,3.3417382,-2.7598891,0.21960606,69.186295,-64.599106,3.1716368,STU
6767890380000,2.2401,-3.31014474243961,16.8984371410677,9.44303473993439,3.133128,-2.996294,0.10903945,69.810814,-65.151825,2.9690287,STU
6767894824000,2.244544,-3.51843750397827,17.6466659016107,7.91410508701727,2.8857274,-2.533869,0.07422013,70.447075,-65.62147,3.042402,STU
6767899789000,2.249509,-3.46768678284494,18.1403321998836,6.28546676720357,2.6138923,-1.6966782,0.17562376,71.029465,-66.02155,3.1088362,STU
6767904781000,2.254501,-3.05620889375546,18.0947749623362,4.84823738460699,2.414445,-1.003957,0.38912117,71.52413,-66.77057,3.0874996,STU
6767909771000,2.259491,-1.45196308014556,16.2557615789665,4.07437363951965,2.3619106,-0.68661255,0.6227771,71.87703,-67.45033,3.0573168,STU
6767915064000,2.264784,0.0474525592621647,14.1952246110463,3.28622854473656,2.3719897,-0.73823065,0.75228053,72.1329,-68.35406,3.0357625,STU
6767919781000,2.269501,-0.560739148801018,11.3027225070497,2.89832667730308,2.414445,-0.9398162,0.7611381,72.32935,-69.20996,3.0333257,STU
6767924797000,2.274517,-1.22979576234911,8.37348648009197,2.53299924762407,2.4410176,-1.1459832,0.713796,72.512695,-69.983604,3.3705754,STU
6767929757000,2.279477,-2.01707929406017,6.30288501314428,2.43743314377275,2.4764478,-1.2046263,0.6398814,72.70721,-70.74152,3.6960628,STU
6767934861000,2.284581,-2.79218063030679,4.23486290319182,2.35596286120236,2.5207355,-1.1545353,0.53878313,72.96165,-71.42882,3.9087036,STU
6767939769000,2.289489,-3.11262238376201,3.00650310176635,2.48219742221878,2.6105325,-1.1267409,0.43096542,73.24138,-72.12628,4.099875,STU
6767944764000,2.294484,-3.37797429547498,1.89516793055121,2.59978487169664,2.718045,-1.1597277,0.3115413,73.56643,-72.79791,4.104069,STU
6767949742000,2.299462,-3.19626391637021,1.80664233504691,2.63705876567631,2.8255572,-1.2217305,0.17195857,73.90259,-73.495895,4.0658803,STU
6767954769000,2.304489,-2.99267736642307,1.7976609983409,2.65723192243729,2.9236012,-1.2883148,0.013439035,74.27006,-74.16816,3.9309664,STU
6767960376000,2.310096,-2.48359914273158,2.91657267752321,2.43451009920995,2.9804115,-1.4315627,-0.1423316,74.68734,-74.8632,3.759997,STU
6767964907000,2.314627,-2.06176385901498,3.86667905122883,2.24498700803877,3.037833,-1.6285667,-0.28130344,75.14749,-75.57443,3.582221,STU
6767969779000,2.319499,-1.48613143472437,5.42454124177029,1.92975978281602,3.1047225,-1.8057177,-0.3735441,75.64978,-76.30537,3.3735316,STU
6767974968000,2.324688,-0.886606351794238,7.07703331261767,1.60597135975088,3.1597004,-1.9339994,-0.4071417,76.193405,-77.102165,3.237035,STU
6767979742000,2.329462,-0.604037272775506,8.46379547277741,1.54511032692783,3.1923819,-1.9724839,-0.4092797,76.761604,-77.90599,3.0815558,STU
6767984756000,2.334476,-0.307262793889893,9.92027336784254,1.481189669497,3.2049046,-2.031127,-0.4251622,77.36344,-78.79338,3.0670393,STU
6767989734000,2.339454,-0.187963086583558,11.2278853641256,1.40216190379671,3.1884112,-2.0625865,-0.44409904,77.95717,-79.66257,3.0443687,STU
6767994702000,2.344422,-0.0883986505369208,12.517481626009,1.32156218074738,3.1316006,-2.0265455,-0.50640726,78.539604,-80.509224,2.997857,STU
6767999757000,2.349477,-0.176841687403484,13.4937215945808,1.1202835345849,3.025921,-1.922393,-0.605062,79.10871,-81.361305,3.0039215,STU
6768004697000,2.354417,-0.287681744044005,14.4045379315473,0.90824167580931,2.91566,-1.704314,-0.6954701,79.622055,-82.17287,2.981664,STU
6768009763000,2.359483,-0.325220156720538,14.82829883639,1.17403444411476,2.771801,-1.4966198,-0.8017606,80.11805,-82.98189,2.9319904,STU
6768014975000,2.364695,-0.356943434338115,15.2180422967133,1.49126723921918,2.5558603,-1.4758505,-0.87995136,80.59232,-83.7185,2.8584538,STU
6768019778000,2.369498,-0.166431026281519,15.1584167028407,1.38216278525375,2.3903158,-1.5558738,-0.8933904,81.05627,-84.48677,2.7303393,STU
6768024664000,2.374384,0.0974258450196829,14.9642575948505,1.143198085158,2.331978,-1.6099354,-0.82986045,81.49387,-85.19374,2.5994658,STU
6768030295000,2.380015,0.312624436250486,14.258799181058,1.06131301611241,2.3762658,-1.5900823,-0.75533485,81.94364,-85.82394,2.4586136,STU
6768034758000,2.384478,0.470556066970051,13.63122864683,1.02390813747569,2.4297166,-1.5393804,-0.6649268,82.38684,-86.395,2.340619,STU
6768039801000,2.389521,0.503909484176949,12.8617294778575,1.0114802403539,2.4526238,-1.4746287,-0.57940567,82.82377,-86.90867,2.2959368,STU
6768044854000,2.394574,0.499280931343855,12.074874191296,1.00685168268771,2.4614816,-1.4511104,-0.48899764,83.24508,-87.32652,2.2735655,STU
6768049764000,2.399484,0.448832542797364,11.2907307566691,0.844034360477038,2.4834726,-1.4309518,-0.42363504,83.655754,-87.57932,2.3071442,STU
6768054733000,2.404453,0.379136955810231,10.4892314205461,0.615034572434355,2.493552,-1.3741413,-0.37140608,84.037445,-87.6429,2.3558254,STU
6768059759000,2.409479,0.342927450281795,9.84891559065628,0.0262572050556172,2.499355,-1.217149,-0.33475417,84.40021,-92.482765,2.4139817,STU
6768064786000,2.414506,0.316151806725992,9.25538849276975,-0.660984328409344,2.4788911,-0.906524,-0.31612277,84.69184,-92.759544,2.477475,STU
6768069748000,2.419468,0.342417943566832,8.83857532064718,-1.01491086912668,2.4382687,-0.7284568,-0.32742378,84.993744,-93.152084,2.5263147,STU
6768074775000,2.424495,0.399951852277992,8.51550068725869,-1.18308691281853,2.388483,-0.39614612,-0.3213151,85.15377,-93.61513,2.5860875,STU
6768079758000,2.429478,0.518039437491319,8.17639939776912,-1.19350714673261,2.364354,-0.1554652,-0.32162055,85.30093,-94.21551,2.6340966,STU
6768084762000,2.434482,0.709668294134484,7.813313201831,-1.0170068833421,2.309376,0.028405234,-0.32284227,85.361565,-94.83183,2.686519,STU
6768089772000,2.439492,0.987622248284653,7.60100494298906,-0.855538620385426,2.228131,0.17928895,-0.32589662,85.37758,-95.50427,2.7604423,STU
6768094848000,2.444568,1.33892752102178,7.50829903512998,-0.704282150466727,2.140472,0.33078352,-0.3408628,85.33416,-96.16549,2.8345203,STU
6768099720000,2.44944,1.58411368437191,7.47253296538081,-0.376630855707221,2.0796907,0.48533243,-0.344528,85.27432,-96.83985,2.9716244,STU
6768104780000,2.4545,1.76625301394659,7.47732620178042,0.107476230979228,2.0305161,0.5467244,-0.37384954,85.19117,-97.482666,3.097122,STU
6768109767000,2.459487,1.91423111661289,7.54792834066686,0.571496680424367,1.9953914,0.50915617,-0.42180246,85.13618,-98.167015,3.3372726,STU
6768114756000,2.464476,2.03569846108341,7.67406754923242,1.02466308769336,1.9767599,0.39858958,-0.4465425,85.07801,-98.82648,3.5657728,STU
6768119773000,2.469493,2.10209431875689,7.78102166881203,1.39776736239599,1.9755383,0.2874121,-0.4541783,85.088554,-99.44195,3.8245761,STU
6768124772000,2.474492,2.1116932006015,7.86741160541353,1.68573401819549,1.9617938,0.18234327,-0.4810564,85.11862,-100.026596,4.0545645,STU
6768129712000,2.479432,2.037359627842,7.92400487302505,1.93767030905588,1.9437732,0.06169739,-0.51159966,85.22385,-100.53224,4.2527657,STU
6768134841000,2.484561,1.87173527421002,7.95239749512524,2.16481217527938,1.9254472,-0.06688975,-0.5290093,85.3516,-101.01674,4.432111,STU
6768139709000,2.489429,1.68276339092889,7.96887849199231,2.25081329660474,1.9058995,-0.19242255,-0.52534413,85.5288,-101.42341,4.551999,STU
6768144783000,2.494503,1.44091325748583,7.97127309594442,2.15742566775736,1.8854356,-0.29016098,-0.50885075,85.72611,-101.811874,4.6601467,STU
6768149722000,2.499442,1.20549784379343,7.97360398851821,2.06652273143941,1.8512272,-0.34422258,-0.47555858,85.91938,-102.09989,4.7064185,STU
6768154743000,2.504463,0.966173933659883,7.97597357985512,1.97411057447396,1.8298469,-0.36071593,-0.44409904,86.12507,-102.37927,4.7522283,STU
6768159666000,2.509386,0.765986675701866,7.99099173890599,1.86731950316066,1.8017471,-0.35796702,-0.40866885,86.37838,-102.6555,4.775093,STU
6768164734000,2.514454,0.625330251887339,8.0305512379098,1.72666304262815,1.74738,-0.33353242,-0.34300083,86.62833,-102.917755,4.815039,STU
6768169699000,2.519419,0.498811800010556,8.05199243468806,1.61036332256941,1.6920967,-0.31978795,-0.28160888,86.86584,-103.143074,4.754275,STU
6768174731000,2.524451,0.437766112992716,7.97059833406524,1.62053759842711,1.6847663,-0.3136793,-0.25534168,87.09714,-103.36523,4.7046523,STU
6768179800000,2.52952,0.389092356753783,7.86420500522696,1.6565108909216,1.625207,-0.40744713,-0.19914207,87.35919,-103.576164,4.6403275,STU
6768184722000,2.534442,0.376124807259056,7.69562688887666,1.76025130493352,1.5760323,-0.5497787,-0.16768251,87.63023,-103.78346,4.575029,STU
6768189748000,2.539468,0.365069047678044,7.52045811742231,1.84026122654101,1.5250251,-0.6740898,-0.11728613,87.929535,-103.97421,4.510314,STU
6768194752000,2.544472,0.379716732006113,7.31050807055527,1.61566345455935,1.4874569,-0.77946407,-0.06047566,88.26269,-104.15418,4.44955,STU
6768199767000,2.549487,0.375876088859769,7.12402627217876,1.33462073709173,1.4556919,-0.8912524,-0.023518313,88.628006,-104.302734,4.3874125,STU
6768204743000,2.554463,0.236073067228633,7.11470583392333,0.644925775229806,1.4462235,-0.98440933,-0.019242255,89.015816,-104.44447,4.3272963,STU
6768209824000,2.559544,0.094034299848231,7.12820761974968,-0.0214093108031931,1.4031575,-1.0253373,-0.06658431,89.43304,-104.62561,4.2561398,STU
6768215533000,2.565253,-0.0568350975500148,7.4245583383266,-0.306983505605598,1.3710871,-1.0073168,-0.11178834,89.855736,-104.80201,4.1854205,STU
6768219911000,2.569631,-0.154751457869634,7.65547702861685,-0.491112031414944,1.3545936,-0.9193522,-0.14172074,90.2688,-105.10195,4.0859466,STU
6768224761000,2.574481,-0.0486015357710652,7.95546572098569,-0.274196986204293,1.3130548,-0.8011498,-0.16310102,90.659256,-105.37702,3.9814606,STU
6768230004000,2.579724,0.0734050140058346,8.28258939547817,-0.0338911906828334,1.284955,-0.6988298,-0.19883664,91.023186,-105.671425,3.8422449,STU
6768234799000,2.584519,0.265980113144316,8.61331631315526,0.250785052329292,1.2525792,-0.6411031,-0.24190263,91.358635,-105.94598,3.7029023,STU
6768239685000,2.589405,0.462209922193454,8.95031980007293,0.540863910172304,1.2134838,-0.61819565,-0.2602286,91.68998,-106.156136,3.5763857,STU
6768244774000,2.594494,0.736324803899592,9.2389343949611,0.731547045407558,1.1863003,-0.6365216,-0.2669481,92.00973,-106.35403,3.4454186,STU
6768249823000,2.599543,1.02296903480456,9.51214253816228,0.897263217942757,1.1866057,-0.6808093,-0.2761111,92.32427,-106.543205,3.311526,STU
6768254773000,2.604493,1.2942000866254,9.78230594316263,0.86562314058807,1.1695015,-0.73945236,-0.25900686,92.67157,-106.649666,3.2097619,STU
6768259730000,2.60945,1.56134826133934,10.0539060264491,0.745406475914463,1.1612549,-0.7431176,-0.23854288,93.01155,-106.754745,3.1103323,STU
6768264761000,2.614481,1.76804154680851,10.3451922659574,0.527233786489362,1.1163563,-0.7131852,-0.21746802,93.38127,-106.81725,3.0643294,STU
6768269782000,2.619502,1.91998534164736,10.6490801729513,0.228410981158627,1.0839803,-0.66431594,-0.20280726,93.74363,-106.87794,3.0251422,STU
6768274764000,2.624484,1.97589757211472,10.9884826660713,0.106046244466607,1.0589349,-0.52534413,-0.20616703,94.09989,-106.968254,3.0431576,STU
6768279761000,2.629481,1.98064653208296,11.3494042187159,0.0775524648218716,1.0146471,-0.3436117,-0.20555615,94.42727,-107.03987,3.073069,STU
6768285519000,2.635239,1.84459154803259,11.7395839799285,0.316580837569555,0.9630291,-0.19394971,-0.22479841,94.75436,-107.16423,3.1149032,STU
6768289774000,2.639494,1.69477787707671,12.0189659100755,0.587865013121025,0.8741482,-0.20341812,-0.22266038,95.0717,-107.260086,3.1620307,STU
6768294780000,2.6445,1.44131756712251,12.2169550709402,0.816200421339031,0.8356637,-0.2950479,-0.22388211,95.37479,-107.33658,3.1978176,STU
6768299810000,2.64953,1.13938897490978,12.3358966578348,0.990038128936372,0.74372846,-0.37384954,-0.23915374,95.672165,-107.36882,3.2286348,STU
6768304855000,2.654575,0.784515540028389,12.441387739633,1.08549704706479,0.59895337,-0.42455134,-0.2507602,95.978226,-107.275116,3.2201395,STU
6768309774000,2.659494,0.392861722746629,12.5321368809186,1.10937836066106,0.45112398,-0.44226643,-0.23273966,96.294975,-107.158,3.2126935,STU
6768314768000,2.664488,0.0570748164433906,12.6332332092472,1.08208266727919,0.33017266,-0.42821655,-0.21899518,96.61101,-106.95115,3.1468494,STU
6768319781000,2.669501,-0.227504511686426,12.7423219233847,1.01093783648488,0.26725355,-0.38453966,-0.21380283,96.92173,-106.72645,3.0879085,STU
6768324763000,2.674483,-0.436027927485402,12.873701471181,0.965203770243925,0.22937989,-0.33475417,-0.21319197,97.21925,-106.45382,2.9748108,STU
6768329755000,2.679475,-0.575605074940667,13.0267858667357,0.94269132179789,0.23793201,-0.28619036,-0.22724187,97.50145,-106.18514,2.867096,STU
6768334775000,2.684495,-0.706050200260308,13.2126934537693,0.962396287562474,0.23090707,-0.25992316,-0.2275473,97.77161,-105.906876,2.7254486,STU
6768339766000,2.689486,-0.820518140857976,13.4466063036235,1.04700306580591,0.22602014,-0.2489276,-0.22693644,98.02865,-105.64041,2.5878775,STU
6768344776000,2.694496,-0.939499994435093,13.6939448504802,1.11872544539063,0.20311269,-0.2724459,-0.2284636,98.28827,-105.36898,2.4300234,STU
6768349790000,2.69951,-1.06312322029904,13.9554553105258,1.17578232268541,0.14752395,-0.33078352,-0.22388211,98.55202,-105.096886,2.277587,STU
6768355102000,2.704822,-1.2105517567242,14.1641329918195,1.14631125911093,0.055283304,-0.37965274,-0.22296582,98.82335,-104.791016,2.1074705,STU
6768359762000,2.709482,-1.35497866251348,14.2844890957389,1.03799103787756,-0.054367006,-0.37110063,-0.21410827,99.09255,-104.475815,1.9465274,STU
6768364739000,2.714459,-1.52024171790996,14.4099819099573,0.93878825798554,-0.17379116,-0.35918877,-0.21410827,99.372696,-104.11852,1.7670777,STU
6768369776000,2.719496,-1.72632089783109,14.5262318310877,0.896515612060467,-0.30543262,-0.32620203,-0.21013765,99.64203,-103.739845,1.5995274,STU
6768374685000,2.724405,-1.88443818773973,14.6510312759295,0.905798183150685,-0.37323865,-0.25686884,-0.20586158,99.89719,-103.37208,1.4143052,STU
6768379759000,2.729479,-1.97953155089041,14.7984255146771,0.996136930273973,-0.49968776,-0.19028452,-0.20677789,100.14052,-102.96365,1.2372551,STU
6768384746000,2.734466,-2.03151490970922,14.9670381868901,1.11853899655002,-0.6401868,-0.17470746,-0.19883664,100.377655,-102.54533,1.044375,STU
6768389779000,2.739499,-2.0077593481518,15.1808387370133,1.30383252552982,-0.7846564,-0.20097467,-0.20250183,100.60404,-102.10379,0.8562353,STU
6768394697000,2.744417,-1.93942605272791,15.4135392156179,1.43088551424089,-0.9575313,-0.269697,-0.21135938,100.840065,-101.60905,0.65840536,STU
6768399814000,2.749534,-1.76858929491895,15.7082323028586,1.44369821644588,-1.1435398,-0.3277292,-0.22082779,101.07731,-101.0854,0.46552175,STU
6768404983000,2.754703,-1.57111363803191,16.0488237465093,1.43447540974235,-1.3277156,-0.3555236,-0.23640485,101.32599,-100.49516,0.27730677,STU
6768409751000,2.759471,-1.10432073164894,16.8533773821476,1.17261598189661,-1.5213599,-0.35185838,-0.23945917,101.579544,-99.86786,0.09575416,STU
6768415002000,2.764722,-0.590241547207447,17.7394325710605,0.884230106137799,-1.7214183,-0.3203988,-0.21991149,101.83656,-99.19907,-0.048485808,STU
6768419746000,2.769466,-0.363364703586867,18.1368667241663,0.883972993807122,-1.8881844,-0.23090707,-0.17104226,102.07508,-98.50445,-0.17593908,STU
6768424772000,2.774492,-0.25437677815459,18.3350264475093,1.0276389122077,-2.0497584,-0.10751228,-0.095294975,102.2949,-97.77413,-0.2815347,STU
6768429743000,2.779463,-0.267949452195956,18.219028901729,1.42863472931523,-2.2171354,-0.0070249503,-0.02107485,102.52644,-97.060844,-0.28381085,STU
6768434758000,2.784478,-0.33832312921559,17.9563006107258,1.95409150727752,-2.378404,0.062002823,0.030848695,102.73361,-96.32244,-0.26571065,STU
6768439759000,2.789479,-0.429551511605547,17.5950877309707,2.63588848486903,-2.5919013,0.095294975,0.05009095,102.92712,-95.51933,-0.21868609,STU
6768444762000,2.794482,-0.532907242352337,17.176743911659,3.40859559075501,-2.8561006,0.09712757,0.054061573,103.11165,-94.67642,-0.16020398,STU
6768449718000,2.799438,-0.614371207362149,16.7934397008685,3.941511670612,-3.186884,0.0580322,0.04153884,103.291306,-93.69838,-0.11406765,STU
6768454685000,2.804405,-0.686429375479701,16.4235401581499,4.36905670446374,-3.5576792,-0.007941248,0.016187929,103.47858,-92.657455,-0.070125565,STU
6768459672000,2.809392,-0.678865199317704,16.2330983651939,4.6170599147881,-3.9104538,-0.08827003,0.007941248,103.66802,-91.444305,-0.041098952,STU
6768464664000,2.814384,-0.63575661101593,16.1229322623986,4.78470453877367,-4.212527,-0.1255328,0.004886922,103.863686,-90.168076,-0.015729927,STU
6768469661000,2.819381,-0.476682150566887,16.2613562591482,4.79652112212558,-4.324315,-0.18234327,0.005497787,104.08095,-88.811356,-0.0017109623,STU
6768474673000,2.824393,-0.265528980812837,16.5109009430114,4.73893398375325,-4.506353,-0.258396,0.048563786,104.31377,-87.378685,0.027967919,STU
6768479664000,2.829384,-0.0697873598299681,16.7631976745242,4.57722813343638,-4.5704937,-0.37568212,0.15485434,104.57272,-85.953255,0.0858128,STU
6768484677000,2.834397,0.120372990658874,17.0182911365086,4.36851550342962,-4.511851,-0.5345071,0.32895094,104.861404,-84.53985,0.18275565,STU
6768489670000,2.83939,0.119338030255064,17.2431090288219,4.00161714699184,-4.3310347,-0.77304995,0.5549711,105.21175,-83.18478,0.36220565,STU
6768494668000,2.844388,0.00357091362843898,17.4505252733044,3.53854859385267,-4.0732493,-1.0140363,0.8216137,105.59738,-81.89183,0.612659,STU
6768499698000,2.849418,-0.429314239243494,17.1315417952042,2.6461691017838,-3.7711766,-1.2938126,1.0589349,106.06952,-80.720314,0.9605268,STU
6768504883000,2.854603,-1.05854184895253,16.4974732548981,1.47967783323911,-3.488957,-1.5079209,1.2235631,106.57746,-79.62961,1.3720771,STU
6768509768000,2.859488,-1.40903424744235,15.9912819456666,0.0955802999469918,-3.2351422,-1.679574,1.2907583,107.148705,-78.69385,1.8217529,STU
6768514766000,2.864486,-1.61624155133846,15.5303518937185,-1.49864706888418,-3.010344,-1.6548339,1.3066407,107.71348,-77.83607,2.3011239,STU
6768519770000,2.86949,-1.70879281099276,15.1395973123136,-3.28614629143588,-2.8365529,-1.3607023,1.3100005,108.23438,-77.17453,2.7119944,STU
6768524769000,2.874489,-1.58130435979974,14.8846200904346,-5.4381510941095,-2.765998,-0.9111055,1.3106114,108.700066,-76.55312,3.1112149,STU
6768529787000,2.879507,-1.28582722173236,14.630256723601,-6.80522293965937,-2.73576,-0.33567044,1.2993103,109.10308,-76.1935,3.4660504,STU
6768534811000,2.884531,-0.798835201426764,14.3773957476399,-7.26880196603406,-2.6829202,0.12889257,1.2880094,109.409065,-75.860565,3.7948647,STU
6768540385000,2.890105,-0.187261796319396,14.1651578427848,-7.46081957205284,-2.6655104,0.4538729,1.2907583,109.71239,-75.77836,4.1427236,STU
6768544776000,2.894496,0.355664853043997,14.0565724989572,-7.33552889134969,-2.7608054,0.745561,1.2702943,109.88967,-75.67242,4.447837,STU
6768549714000,2.899434,0.720671657077714,13.85673924886,-7.21023188910449,-2.933375,1.0546589,1.2696834,110.03375,-75.581566,4.8147507,STU
6768554776000,2.904496,0.701858127786941,13.5275024862715,-7.10675728155622,-3.1422908,1.5335772,1.3322971,110.03269,-75.43661,5.1544514,STU
6768559664000,2.909384,0.519561363965719,13.1154186709194,-6.84993605726529,-3.3735032,1.8619173,1.3396275,109.97772,-75.178116,5.5291314,STU
6768564773000,2.914493,-0.0331886502921698,12.4768966669264,-6.23523996532918,-3.6306777,2.565634,1.2980887,109.67834,-74.85023,5.8402476,STU
6768569698000,2.919418,-0.604459977350809,11.7805475672724,-5.32931570668255,-3.764457,3.1764994,1.2705997,109.293884,-74.46533,6.130251,STU
6768574880000,2.9246,-1.31405087759905,10.8196434054215,-3.49127816145368,-3.9764273,3.5411859,1.1780536,108.792946,-74.01029,6.3490458,STU
6768579721000,2.929441,-1.89007581442934,9.99780822388755,-1.92571381147086,-4.120897,3.5286632,1.029308,108.14421,-73.48109,6.4383173,STU
6768584769000,2.934489,-2.24111003137218,9.35874561580711,-0.72859690868181,-4.1404448,3.2840116,0.8567385,107.48107,-72.95786,6.4800487,STU
6768589698000,2.939418,-2.53563734111577,8.77903695177276,0.381666135594156,-4.0903535,3.0094275,0.72143185,106.63556,-72.20175,6.340797,STU
6768594780000,2.9445,-2.42126170476142,8.56520454511086,1.0181916360703,-4.032627,2.7476718,0.61544675,105.87928,-71.47111,6.1717978,STU
6768599766000,2.949486,-2.25995752547462,8.40123082497094,1.61205941907207,-3.9950588,2.5115724,0.53969944,105.10417,-70.59012,5.9106917,STU
6768604875000,2.954595,-1.83342599957381,8.47705869798528,2.05754783899651,-4.0356812,2.2626448,0.5271767,104.41802,-69.714745,5.651685,STU
6768610406000,2.960126,-1.41964298951434,8.52281749010331,2.40166005014966,-4.108985,2.0204368,0.5708536,103.786514,-68.75532,5.4136767,STU
6768614937000,2.964657,-1.23529713053973,8.44321372173409,2.23826253054939,-4.188092,1.8356501,0.6200282,103.21629,-67.79267,5.183782,STU
6768620100000,2.96982,-1.05306558637576,8.32085338022104,2.00883187764863,-4.1829,1.7525724,0.65179324,102.72698,-66.78018,5.045617,STU
6768624820000,2.97454,-1.14781171671113,7.91172192747713,1.39298191804497,-4.085772,1.7446312,0.66431594,102.272896,-65.78345,4.919712,STU
6768629721000,2.979441,-1.24619112026486,7.48690132368521,0.753515678210747,-3.961461,1.7886134,0.63163465,101.849556,-64.81813,4.8328032,STU
6768634796000,2.984516,-1.50484633977557,6.87867657004308,0.216415109385833,-3.869526,1.8719965,0.57726765,101.429,-63.887054,4.734109,STU
6768639721000,2.989441,-1.76947747994189,6.27380554760044,-0.293944931141168,-3.8386772,1.9596558,0.49632803,101.01314,-62.9922,4.60931,STU
6768644755000,2.994475,-2.05671967256737,5.74721308098802,-0.430730509101796,-3.8566978,2.0131063,0.419359,100.58093,-62.17785,4.4432673,STU
6768649722000,2.999442,-2.34155802229603,5.23539403117515,-0.533094281886228,-3.8728857,2.0842721,0.36193767,100.13934,-61.389664,4.2449017,STU
6768654770000,3.00449,-2.57869463986071,4.80485571980746,-0.621534172091356,-3.853338,2.1719313,0.2929099,99.63726,-60.630665,3.940553,STU
6768659667000,3.009387,-2.79483489905776,4.41100040163867,-0.703187133265055,-3.781256,2.2003367,0.2321288,99.147575,-59.895805,3.6186507,STU
6768664780000,3.0145,-2.91854523309901,4.15869998736634,-0.68633273460396,-3.7363572,2.1945333,0.21013765,98.59169,-59.128487,3.1899219,STU
6768669675000,3.019395,-3.01601520007921,3.94983547469307,-0.649201251683168,-3.5903604,2.1371121,0.16249016,98.06102,-58.422047,2.7382865,STU
6768674765000,3.024485,-2.92122766850245,3.94431130158431,-0.493749195999623,-3.447418,1.9914207,0.13805555,97.52108,-57.70518,2.2362561,STU
6768680277000,3.029997,-2.76690778242173,3.99409177250094,-0.294626776935119,-3.277292,1.68385,0.14080444,97.04247,-57.04494,1.7574493,STU
6768684786000,3.034506,-2.5519390890271,3.97930157044903,-0.292578802765979,-3.0014863,1.5809193,0.14080444,96.53797,-56.431217,1.2292142,STU
6768689752000,3.039472,-2.28740502007484,3.94563371765777,-0.340675924018002,-2.912911,1.4370605,0.13988814,96.12088,-55.818207,0.75068986,STU
6768694767000,3.044487,-1.80432569890976,3.72736598592762,-0.597827023587723,-2.7705793,1.3610078,0.11911872,95.722534,-55.27609,0.30343086,STU
6768699815000,3.049535,-1.23297067474118,3.43504474623912,-0.938868395893724,-2.649628,1.4559973,0.118507855,95.31816,-54.759304,-0.14674163,STU
6768704774000,3.054494,-0.87603761710326,3.15784303006051,-0.973319872730822,-2.5821273,1.59558,0.09743301,94.943474,-54.272083,-0.5417053,STU
6768709779000,3.059499,-0.688913211354675,2.88651267933828,-0.753448649814562,-2.4819455,1.7003434,0.0888809,94.55578,-53.83569,-0.94505084,STU
6768714757000,3.064477,-0.543058950510386,2.53420775133531,-0.595552304816024,-2.3506095,1.7229455,0.10934488,94.19866,-53.45341,-1.1912982,STU
6768719774000,3.069494,-0.43850597066271,2.09223387091988,-0.500504187784372,-2.1777346,1.7131716,0.124311075,93.83008,-53.11979,-1.4522725,STU
6768724764000,3.074484,-0.376307725642684,1.64369009231002,-0.310309452039208,-1.9981402,1.7482964,0.14080444,93.45888,-52.761623,-1.6571184,STU
6768729754000,3.079474,-0.361820589830234,1.18493046382377,-0.0109084284236055,-1.8322903,1.7916678,0.1441642,93.091255,-52.456345,-1.8603224,STU
6768734784000,3.084504,-0.356646603277435,0.696886660929097,0.304984240123566,-1.6615535,1.7767016,0.15882497,92.72199,-52.129017,-2.0354161,STU
6768739769000,3.089489,-0.361328406552908,0.186569754849858,0.632710694286555,-1.4850134,1.700038,0.17531833,92.35946,-51.856735,-2.2048495,STU
6768744743000,3.094463,-0.401565226338819,-0.323738913529516,1.00226137859072,-1.2980887,1.5800029,0.18112154,91.99796,-51.51948,-2.3877022,STU
6768749926000,3.099646,-0.489616739576229,-0.856939686594264,1.44251891413028,-1.1026118,1.4321736,0.18661933,91.66062,-51.23896,-2.5475113,STU
6768754725000,3.104445,-0.583498697827393,-1.2792659729976,1.83719935009011,-0.91751957,1.2599095,0.18325958,91.34341,-50.871094,-2.7326672,STU
6768759770000,3.10949,-0.699593956988386,-1.62271455114137,2.23385823219864,-0.7452556,1.174083,0.1731803,91.04301,-50.555683,-2.907378,STU
6768764742000,3.114462,-0.756346298327595,-1.78040045238564,2.6082124478603,-0.5879578,0.9841039,0.16401732,90.81457,-50.139168,-3.0484006,STU
6768769773000,3.119493,-0.732646898032464,-1.6856027522184,2.96370374924742,-0.50701815,0.8426886,0.1704314,90.596375,-49.747906,-3.1818516,STU
6768774665000,3.124385,-0.627021865427873,-1.42664351274523,3.31549710612225,-0.3820962,0.7263188,0.20005837,90.424,-49.29505,-3.3002098,STU
6768779753000,3.129473,-0.374452674621027,-0.869085116688509,3.69196815332029,-0.26847526,0.61453044,0.25625798,90.27821,-48.859158,-3.386703,STU
6768784760000,3.13448,-0.154991620071784,-0.287788927888828,4.10466735144487,-0.15057829,0.535118,0.3399465,90.146866,-48.404118,-3.4169405,STU
6768789773000,3.139493,0.00848304347045832,0.357273264214983,4.59950959617154,-0.0290161,0.47891834,0.43310347,90.02413,-47.980827,-3.4170685,STU
6768794748000,3.144468,0.184073279772107,0.972982494428854,5.08202694604012,0.057726767,0.4111123,0.52503866,89.932396,-47.605846,-3.2496421,STU
6768799791000,3.149511,0.429668472050099,1.47326896168754,5.52773667963085,0.13103059,0.34330627,0.63194007,89.831795,-47.262077,-3.0512135,STU
6768804905000,3.154625,0.667711448802642,1.95682396944674,5.9770266629232,0.24373524,0.28344148,0.7351763,89.736755,-46.96074,-2.6847003,STU
6768809776000,3.159496,0.759198210807184,2.12535222318332,6.37186440232246,0.37904188,0.22510384,0.82986045,89.63431,-46.688084,-2.297099,STU
6768815165000,3.164885,0.822569040332679,2.28096248668349,6.80989015300439,0.5323691,0.204029,0.9138544,89.53055,-46.444386,-1.7397373,STU
6768819780000,3.1695,0.723444929838333,2.28922278034763,7.18986594727595,0.70952,0.2180789,0.97585726,89.412735,-46.247143,-1.1916584,STU
6768825128000,3.174848,0.606693515902534,2.29730220746589,7.61243029762183,0.8891144,0.25686884,1.0134255,89.27254,-46.038174,-0.6191362,STU
6768829723000,3.179443,0.465155593982456,2.27156810254386,7.58669596877193,1.033584,0.29168814,1.0308352,89.11789,-45.8722,-0.07237782,STU
6768834719000,3.184439,0.311265831651072,2.24358821392788,7.55871583668616,1.1887437,0.3191771,1.0635164,88.926445,-45.6768,0.39500836,STU
6768839764000,3.189484,0.104223934533107,2.04831571910516,6.44394358366124,1.4175128,0.37384954,1.0977248,88.716484,-45.549007,0.8296698,STU
6768844703000,3.194423,-0.103625201578947,1.8404665879257,5.24408720185759,1.7446312,0.3885103,1.1420126,88.49911,-45.49777,1.2534497,STU
6768849735000,3.199455,-0.256175948405577,1.5035673796605,4.01750079339194,2.1600194,0.2950479,1.2131784,88.26565,-45.53766,1.6214148,STU
6768854688000,3.204408,-0.399958675804789,1.15848881188239,2.80972593128221,2.59465,0.18600847,1.2678508,88.02717,-45.677444,1.9807872,STU
6768859735000,3.209455,-0.525436618629762,0.906853708263451,3.26623085353065,2.9895744,-0.19120082,1.294118,87.827065,-46.093384,2.3417814,STU
6768864687000,3.214407,-0.646737602482872,0.668583951186627,3.85973915900247,3.1685581,-0.8167268,1.2837334,87.698975,-46.562515,2.7696662,STU
6768869747000,3.219467,-0.786740703203957,1.12202060486829,6.11224117832491,3.3912184,-1.6734654,1.2205088,87.68763,-47.304817,3.2511868,STU
6768874665000,3.224385,-0.928528081432104,1.81070227863241,8.88722318064724,3.3567045,-2.4514022,1.1743884,87.793045,-48.01144,3.831155,STU
6768879749000,3.229469,-1.56413298572389,3.2553745262177,9.67968391065424,3.0292807,-2.8258626,1.1166617,88.02629,-48.531143,4.4312105,STU
6768884723000,3.234443,-2.25973546497262,4.77929286742242,10.1418931832068,2.6371052,-2.5176811,1.0125091,88.29568,-49.01079,5.016048,STU
6768889766000,3.239486,-2.61955953111702,7.23752827236013,10.7448809023838,2.4856107,-1.681712,0.9239337,88.54285,-49.075676,5.4997663,STU
6768894683000,3.244403,-2.883948975,9.86286965740741,11.3664285462963,2.556471,-1.0393872,0.9049969,88.76128,-49.09757,5.9388704,STU
6768899968000,3.249688,-2.79122576226588,12.3808548253257,11.8298387834894,2.6716192,-1.2174544,0.8335256,88.99362,-49.297146,6.1442637,STU
6768904725000,3.254445,-2.60573351038274,14.5650247899023,12.1915484930782,2.7980683,-1.9804251,0.7067711,89.22814,-49.526436,6.3246875,STU
6768909765000,3.259485,-3.28517807841826,15.9233022065709,10.8002851084006,2.7779098,-2.574186,0.55771995,89.46514,-50.06769,6.3814855,STU
6768914743000,3.264463,-4.17149158742868,17.0300218805823,8.99014210781035,2.6343563,-2.617252,0.4370741,89.767334,-50.598747,6.465168,STU
6768919771000,3.269491,-4.08876413891239,17.7272367293051,6.95636671117825,2.447737,-2.039679,0.42149702,90.06142,-51.36507,6.551831,STU
6768924742000,3.274462,-3.71961152148036,18.2929505462236,4.88527665422961,2.3176227,-1.2305881,0.48075095,90.318855,-52.0712,6.6063547,STU
6768929708000,3.279428,-2.70007592637021,18.5761204029646,4.22650447343764,2.2922719,-0.75319684,0.5992588,90.5377,-53.157043,6.49312,STU
6768935450000,3.28517,-1.31136269227743,18.8126047438924,3.91957878543325,2.2834144,-0.7257079,0.6973027,90.670616,-54.152084,6.3498836,STU
6768939731000,3.289451,-0.83453495387862,17.407140718346,3.67623825474944,2.2489004,-0.9575313,0.74006325,90.77147,-55.395145,6.272737,STU
6768944758000,3.294478,-0.561903459034085,14.9431689417673,3.38303067793568,2.2107213,-1.1334605,0.73792523,90.84613,-56.5731,6.205703,STU
6768949747000,3.299467,-0.893957416993591,12.6196833612352,2.87480148580307,2.2241604,-1.0790935,0.68661255,90.9282,-57.722313,6.3481226,STU
6768954794000,3.304514,-1.45718298868227,10.3151519994174,2.27872118405516,2.235767,-0.94134337,0.65179324,91.028145,-58.80682,6.504563,STU
6768959771000,3.309491,-2.15196223748103,8.40166435235205,1.99334193626707,2.3139575,-0.86529064,0.61941737,91.11719,-59.713493,6.709887,STU
6768964739000,3.314459,-2.91243342218513,6.66413200904401,1.85376174203338,2.3576343,-0.7171558,0.50762904,91.16718,-60.5957,6.850833,STU
6768969804000,3.319524,-3.24064134579411,5.6369341803329,2.04634621619935,2.4306328,-0.6954701,0.36132678,91.27135,-61.434723,6.9271846,STU
6768974732000,3.324452,-3.36689233099178,4.95891959945507,2.37833961455464,2.5231788,-0.88606006,0.20708331,91.40752,-62.28753,6.9766026,STU
6768979716000,3.329436,-3.41786929408617,4.85030792817768,2.59228297741504,2.63344,-1.1969905,0.03145956,91.61145,-63.105694,6.8909984,STU
6768984752000,3.334472,-3.43077503794488,5.03098820743912,2.7471521283204,2.7430904,-1.5222762,-0.12889257,91.88723,-63.953438,6.788283,STU
6768989769000,3.339489,-3.42254556129859,5.61231941809056,2.62843372909013,2.8362474,-1.6722436,-0.26297748,92.211266,-64.743515,6.640731,STU
6768994749000,3.344469,-3.38689335625801,6.71244577221273,2.15476829380607,2.8829784,-1.6847663,-0.35185838,92.59851,-65.55315,6.477749,STU
6768999736000,3.349456,-3.37366105357461,8.47752259299911,1.66846384716701,2.8759537,-1.6181821,-0.4111123,93.02591,-66.36861,6.285882,STU
6769005286000,3.355006,-3.37891684265797,11.0318111720558,1.11661134420053,2.850908,-1.518611,-0.48472157,93.45867,-67.19165,6.0565114,STU
6769009731000,3.359451,-3.31551853061466,12.154018891253,0.961059711298266,2.8585439,-1.3460416,-0.54733527,93.87268,-68.150375,5.792223,STU
6769014975000,3.364695,-3.18689951288416,12.7426981820331,1.00558166904058,2.819754,-1.2513574,-0.5888741,94.28288,-69.082146,5.5058327,STU
6769019775000,3.369495,-2.94019470070195,13.0610355331117,0.963913931772421,2.803566,-1.2360858,-0.63316184,94.6894,-70.23112,5.1771016,STU
6769024758000,3.374478,-2.56554747521012,13.1888565937933,0.84490836740556,2.7800477,-1.2727377,-0.6966918,95.08181,-71.34846,4.8270307,STU
6769029723000,3.379443,-2.12604688924478,13.2529325960364,0.855073905249063,2.7162123,-1.3045027,-0.7492262,95.466286,-72.44894,4.487422,STU
6769034753000,3.384473,-1.54809412373862,13.1910083657204,1.12340918323514,2.6331346,-1.4040737,-0.79229224,95.87435,-73.51538,4.143023,STU
6769039712000,3.389432,-1.097031859861,12.9605363414252,1.14882215046985,2.6123652,-1.5922203,-0.80481493,96.30525,-74.56912,3.8764782,STU
6769044740000,3.39446,-0.776520060714565,12.5316168363352,0.899011463077525,2.6111436,-1.7910569,-0.80909103,96.75894,-75.58317,3.6072843,STU
6769049717000,3.399437,-0.480458709041957,12.0819258493813,0.631543346171694,2.6661212,-1.8677205,-0.7849618,97.20187,-76.51683,3.4478939,STU
6769054749000,3.404469,-0.210249059098415,11.5927530844934,0.333381000928074,2.7339275,-1.8839084,-0.7272351,97.67036,-77.42998,3.3024113,STU
6769059662000,3.409382,0.0270133940847837,11.1333127216334,0.0528405079941663,2.7797422,-1.8869628,-0.6973027,98.144394,-78.342545,3.2216945,STU
6769064729000,3.414449,0.220455584053573,10.6945292426835,-0.21609130772387,2.8075366,-1.8442022,-0.6612616,98.594604,-79.242645,3.1505558,STU
6769069675000,3.419395,0.396991568989965,10.2848578267842,-0.456507324370252,2.850908,-1.772731,-0.64812803,99.01157,-80.1491,3.1332574,STU
6769074925000,3.424645,0.552593356479415,9.89821056522555,-0.654545950460471,2.8915308,-1.7379116,-0.63621616,99.41323,-81.03554,3.1180344,STU
6769079720000,3.42944,0.67868069230917,9.56175125300048,-0.871640211717715,2.9245174,-1.668273,-0.6020077,99.78196,-81.92577,3.1499465,STU
6769084745000,3.434465,0.72950720431109,9.2937568819011,-1.28287281815074,2.9068022,-1.5919148,-0.5714644,100.12638,-82.77895,3.1751232,STU
6769089703000,3.439423,0.782562531712916,9.04818168618649,-1.68605245653948,2.8655689,-1.395827,-0.56230146,100.404564,-83.60076,3.2324517,STU
6769094755000,3.444475,0.871409311696593,9.02350203223832,-2.06611943658437,2.8212812,-1.1071932,-0.5708536,100.62193,-84.36076,3.2825177,STU
6769099737000,3.449457,0.968617326875539,8.99991873900546,-2.41243598910606,2.7586675,-0.77457714,-0.56046885,100.7761,-85.08175,3.345462,STU
6769104743000,3.454463,1.13398039489317,8.98154517936189,-2.55942528164223,2.7073548,-0.35979962,-0.5308419,100.81332,-85.6848,3.4008074,STU
6769109911000,3.459631,1.30341713535022,8.95474927853554,-2.66198298780638,2.6209173,0.07696902,-0.52381694,100.75053,-86.14666,3.4655151,STU
6769114733000,3.464453,1.44549285786073,8.83161692964824,-2.14103845764537,2.5305092,0.39003745,-0.49449542,100.59584,-86.380684,3.540884,STU
6769119696000,3.469416,1.58743162196442,8.6938442745553,-1.60257078366589,2.4281893,0.52106804,-0.47952923,100.358894,-93.66432,3.6603017,STU
6769124734000,3.474454,1.6807184425174,8.42331234396752,-1.02885675690255,2.3588562,0.52381694,-0.46181414,100.06522,-93.93138,3.786148,STU
6769130063000,3.479783,1.76680582356458,8.14435170000949,-0.432676791922748,2.3359487,0.47067168,-0.45356745,99.73532,-94.36797,3.967593,STU
6769134812000,3.484532,1.71069465563253,7.97170209120243,-0.0140011976122236,2.363743,0.3726278,-0.45845437,99.41729,-94.88167,4.1448183,STU
6769139797000,3.489517,1.65179506158299,7.79047271661763,0.425480343267533,2.3851233,0.25442538,-0.4636467,99.114456,-95.42148,4.364766,STU
6769144762000,3.494482,1.60534135851562,7.58376794173273,0.660659709027605,2.4226916,0.15454891,-0.49510628,98.83524,-95.977684,4.5668125,STU
6769149730000,3.49945,1.55989523911548,7.37471569758334,0.878801234002292,2.4569001,0.10995574,-0.54275376,98.574005,-96.542755,4.754354,STU
6769154738000,3.504458,1.51449452437283,7.26604312543298,1.10411426383437,2.4767532,0.10140363,-0.5726862,98.371376,-97.053825,4.904971,STU
6769159668000,3.509388,1.46989253959274,7.18179508145271,1.32712411011336,2.4584272,0.07452556,-0.58093286,98.18514,-97.56102,5.042015,STU
6769164724000,3.514444,1.35856326716037,7.19436611765571,1.58931125142717,2.413834,0.059253927,-0.5876524,98.0336,-98.03108,5.143252,STU
6769169676000,3.519396,1.242270149436,7.21762473148602,1.84980787204512,2.3667974,0.021991149,-0.5656612,97.89495,-98.49982,5.2460217,STU
6769174730000,3.52445,1.17649983181505,7.30313149917184,2.01407054403037,2.3124304,-0.022907447,-0.5204572,97.79367,-98.92004,5.3210373,STU
6769179714000,3.529434,1.12003036984127,7.39724713809524,2.15995000793651,2.2424862,-0.07574729,-0.4718934,97.704636,-99.32746,5.40003,STU
6769184761000,3.534481,1.17570196132845,7.51535401103293,2.32071934871939,2.1792617,-0.13316862,-0.4596761,97.667076,-99.65735,5.421184,STU
6769189668000,3.539388,1.25065154101698,7.63439168980204,2.47943610029083,2.1114557,-0.22602014,-0.42424592,97.65575,-99.978264,5.458907,STU
6769194743000,3.544463,1.33997524938713,7.74425696782431,2.57710013018386,2.028378,-0.3472769,-0.38698313,97.692154,-100.243164,5.4652624,STU
6769199715000,3.549435,1.43238603994893,7.84639505231869,2.64519230501532,1.9385809,-0.4642576,-0.34116822,97.75396,-100.49322,5.4803624,STU
6769204740000,3.55446,1.38843290742503,7.93564112533609,2.70718008204757,1.8497,-0.57451874,-0.25992316,97.867615,-100.70854,5.5143967,STU
6769209674000,3.559394,1.30047678039297,8.01871090858325,2.76581748306101,1.7663169,-0.7263188,-0.19486602,98.0259,-100.90309,5.549331,STU
6769215697000,3.565417,1.02919662156003,8.09961969028321,2.72183499167541,1.6713274,-0.8848383,-0.16126843,98.22934,-101.071884,5.599976,STU
6769219748000,3.569468,0.825729458472394,8.15141122504053,2.67744214274816,1.5604553,-1.0613784,-0.14660765,98.48083,-101.21812,5.654472,STU
6769224736000,3.574456,0.619051658779203,8.19995701809325,2.41138550251516,1.4379768,-1.1954633,-0.14630222,98.78025,-101.313675,5.678247,STU
6769229714000,3.579434,0.429476789436326,8.24261123799582,2.06541133528184,1.3222178,-1.2699889,-0.13744467,99.11109,-101.383255,5.7029853,STU
6769234752000,3.584472,0.153240304284014,8.28570412971043,1.62439130067434,1.1951579,-1.2733486,-0.16584991,99.47415,-101.39103,5.6529627,STU
6769239736000,3.589456,-0.154425529821499,8.3283043804046,1.15105922919476,1.0836749,-1.1768318,-0.21838433,99.826195,-101.36979,5.6017685,STU
6769244751000,3.594471,-0.399900125856194,8.46661635345076,0.793658148559053,0.9837985,-0.98746365,-0.27152961,100.1571,-101.357605,5.510219,STU
6769249755000,3.599475,-0.616701559075946,8.64651518683223,0.489213594034074,0.88208944,-0.8732319,-0.3036,100.47758,-101.31189,5.413776,STU
6769254734000,3.604454,-0.640842654905376,8.8813631475379,0.365171996828924,0.82650065,-0.6426302,-0.31978795,100.7153,-101.30438,5.265094,STU
6769260094000,3.609814,-0.539348877294982,9.17134515299878,0.350672886462668,0.8038987,-0.45204028,-0.35185838,100.92714,-101.274475,5.1103225,STU
6769264726000,3.614446,-0.354104709161905,9.48548913904762,0.488654288609524,0.77854776,-0.31642818,-0.35827246,101.0868,-101.26255,4.927449,STU
6769269747000,3.619467,-0.0589789419037037,9.88747093037037,0.783780071807407,0.77763146,-0.2510656,-0.3643811,101.2089,-101.250206,4.7456646,STU
6769274730000,3.62445,0.276944998066627,10.2883578304581,1.11685354971644,0.77854776,-0.28191432,-0.35308012,101.33508,-101.24515,4.584484,STU
6769279715000,3.629435,0.641411529699583,10.6906912198096,1.47658670868927,0.7858781,-0.38056904,-0.3268129,101.460976,-101.24534,4.4295774,STU
6769284757000,3.634477,1.00171918371426,11.0776882968929,1.75699901257148,0.782213,-0.52870387,-0.30879238,101.62045,-101.207825,4.3203793,STU
6769289731000,3.639451,1.35130909843214,11.4454386070339,1.97492530313572,0.7648033,-0.7150178,-0.27885997,101.81923,-101.174866,4.218127,STU
6769294760000,3.64448,1.75483663778143,12.0831861681322,1.73575537668954,0.75869465,-0.89858276,-0.23976462,102.07352,-101.10019,4.1778603,STU
6769299761000,3.649481,2.20836587027732,12.9948724789835,1.01843870791381,0.7498371,-1.0381655,-0.1872302,102.368484,-101.027695,4.144665,STU
6769304744000,3.654464,2.36642428133619,13.615657928811,0.362864794320723,0.7309003,-1.0958922,-0.12064589,102.70491,-100.93808,4.1816382,STU
6769309738000,3.659458,2.11686337065785,13.8384800458442,-0.212016672468319,0.69058317,-1.0604621,-0.047647487,103.05472,-100.85125,4.232827,STU
6769314704000,3.664424,1.80573230488194,13.9516561247607,-0.691094638816209,0.6377433,-0.9239337,0.0143553335,103.39175,-100.92319,4.3848033,STU
6769319749000,3.669469,1.31240755403106,13.7615210104233,-0.917201842671772,0.5699373,-0.7318166,0.043676864,103.70143,-100.98398,4.5447993,STU
6769324693000,3.674413,0.91112327435845,13.5475892452959,-0.972718227330779,0.49021935,-0.50335294,0.046120327,103.96491,-101.10613,4.65999,STU
6769330377000,3.680097,0.600598277222648,13.2509681687527,-0.731713723627075,0.40530908,-0.2611449,0.044898596,104.16844,-101.207756,4.7866673,STU
6769334920000,3.68464,0.368698931689789,13.0152168563729,-0.52077221109492,0.31429017,-0.06688975,0.029932396,104.32603,-101.28682,4.8357964,STU
6769339720000,3.68944,0.309052983790797,12.7812212879529,-0.0894861314462522,0.21594086,0.04886922,-0.004886922,104.434654,-101.33701,4.8852644,STU
6769344943000,3.694663,0.251534549685529,12.5372792595361,0.364703164856838,0.106901415,0.08857546,-0.027183503,104.51925,-101.30407,4.8850007,STU
6769349733000,3.699453,0.282701233515481,12.4348747035815,0.609584236816461,-0.0009162979,0.07788532,-0.05467244,104.58269,-101.2428,4.877259,STU
6769355097000,3.704817,0.314075727727273,12.3288334659091,0.865395069090909,-0.04153884,-0.024129177,-0.070249505,104.671196,-101.10558,4.8552623,STU
6769359737000,3.709457,0.276360955339495,12.3958817722086,0.748060233330819,-0.15821409,-0.0571159,-0.08155051,104.741684,-100.9231,4.830909,STU
6769364712000,3.714432,0.235923241410788,12.4677708506224,0.62225402473029,-0.19639318,-0.11942416,-0.105068825,104.85752,-100.71662,4.7951827,STU
6769369720000,3.71944,0.0302399725717932,12.738931334716,0.373361015520102,-0.27183503,-0.15271631,-0.122783914,104.97377,-100.47653,4.759512,STU
6769375096000,3.724816,-0.226099985993485,13.071638742671,0.0935376351351792,-0.32895094,-0.14996742,-0.124311075,105.09652,-100.23706,4.7225046,STU
6769379719000,3.729439,-0.530550930428882,13.4361789408252,0.0494723674340391,-0.3662137,-0.12614368,-0.12675454,105.225624,-100.00459,4.6730638,STU
6769384762000,3.734482,-0.862661272801303,13.8338376514658,0.00140376587296417,-0.40317106,-0.11362094,-0.122783914,105.35244,-99.77765,4.590677,STU
6769389734000,3.739454,-1.28513673499707,14.3427524561438,0.0761822888917757,-0.44318274,-0.08582657,-0.11728613,105.46716,-99.54672,4.512829,STU
6769394691000,3.744411,-1.73491270581657,14.8852655546005,0.187467063325161,-0.47525316,-0.04550946,-0.11728613,105.57385,-99.31458,4.4384923,STU
6769400104000,3.749824,-2.20682546895322,15.5684949770984,0.432870211056498,-0.52381694,-0.018936822,-0.112704635,105.673096,-99.04377,4.3114343,STU
6769404679000,3.754399,-2.59966906028951,16.1743258969429,0.67898907475424,-0.6047566,-0.018325957,-0.11942416,105.766716,-98.762825,4.185944,STU
6769409692000,3.759412,-2.84283505851293,16.7682427616739,0.93557640467852,-0.6973027,-0.04550946,-0.13683382,105.86852,-98.41348,3.988634,STU
6769414984000,3.764704,-3.06583640290948,17.3826346474497,1.20408814120869,-0.8378017,-0.087659165,-0.14844026,105.972755,-98.04204,3.7968302,STU
6769419705000,3.769425,-3.10970219730009,17.8863069088652,1.30833618495914,-0.99296147,-0.12370021,-0.14355333,106.083115,-97.58266,3.5523512,STU
6769424695000,3.774415,-3.07509796423916,18.3954809959657,1.34788380614462,-1.1911873,-0.13103059,-0.11575896,106.1954,-97.092896,3.3191917,STU
6769429691000,3.779411,-2.96236632271153,18.6162176617516,1.41266097854527,-1.3924674,-0.14569137,-0.058948494,106.32197,-96.52272,3.069551,STU
6769434706000,3.784426,-2.8150275582385,18.7112758576942,1.48870674123701,-1.5968018,-0.16646078,0.0036651916,106.450584,-95.92533,2.8390725,STU
6769439700000,3.78942,-2.64343265969137,18.5944280487914,1.58827203821247,-1.7953329,-0.19700404,0.06261369,106.587814,-95.29962,2.6352215,STU
6769444719000,3.794439,-2.45907477497101,18.37577003782,1.69974433711533,-1.9917262,-0.24404067,0.12308934,106.73462,-94.65738,2.4580307,STU
6769449708000,3.799428,-2.2122694537273,17.9920427891057,1.82334966175708,-2.2064452,-0.25320363,0.15424347,106.887217363196,-94.0110649152542,2.3302815465799,STU
6769454631000,3.804351,-1.88792697891057,17.4018468770723,1.96159396433969,-2.3267858,-0.27152961,0.20433442,107.037796,-93.3733,2.2042224,STU
6769459651000,3.809371,-1.56149987742639,16.8070457720829,2.0976861912759,-2.5793786,-0.27885997,0.22724187,107.195786,-92.7543,2.125065,STU
6769464702000,3.814422,-1.23540427290572,16.2124003101021,2.23196086963418,-2.83808,-0.26358834,0.22449298,107.35154,-92.259705,2.0577705,STU
6769469663000,3.819383,-0.818894555772,15.9144990413,2.4376918914,-3.126103,-0.20525073,0.2003638,107.499466,-92.032326,2.0319598,STU
6769474653000,3.824373,-0.345790719652,15.7759132683,2.6861908974,-3.4859025,-0.14721853,0.2284636,107.643,-87.77242,2.0232747,STU
6769479633000,3.829353,0.243926210168075,15.9068852804819,2.9854283314097,-3.8621955,-0.086437434,0.32986724,107.771736,-87.12794,2.0720396,STU
6769484657000,3.834377,0.907694874199942,16.1966992573594,3.31731260973477,-4.188703,-0.11148291,0.49480084,107.90808,-86.21734,2.149334,STU
6769489670000,3.83939,1.46932477318217,16.4441232801668,3.41628177466771,-4.415334,-0.2764165,0.69058317,108.0767,-85.09134,2.3297052,STU
6769494688000,3.844408,1.95777927336461,16.6612150991226,3.34530970409174,-4.463287,-0.50488013,0.92149025,108.26733,-83.88862,2.5705535,STU
6769499664000,3.849384,2.22256106744952,16.8646675526778,3.25242092181738,-4.3252316,-0.77579886,1.14018,108.52777,-82.59877,2.9592018,STU
6769504707000,3.854427,1.90984664092406,17.0395753075066,3.09871380173398,-4.075082,-1.0024298,1.2534955,108.8364,-81.33609,3.38761,STU
6769509712000,3.859432,1.34918335543839,16.9511559748096,2.67699134422964,-3.8066068,-1.2449434,1.2983941,109.254944,-80.11977,3.9442203,STU
6769514707000,3.864427,0.499136576879516,16.5588260846514,1.94370925020504,-3.4828482,-1.3295482,1.2980887,109.68784,-78.99987,4.516862,STU
6769519685000,3.869405,-0.231700345297774,16.1183541111891,1.11256871837778,-3.1609223,-1.142318,1.2745703,110.09425,-77.99903,5.04629,STU
6769524698000,3.874418,-0.799677768758773,15.6033244018448,0.130641689051534,-2.9471195,-0.8335256,1.2244794,110.48774,-77.07597,5.5577087,STU
6769529689000,3.879409,-1.27491061063405,15.0299167319021,-0.779833184123814,-2.814867,-0.54428095,1.1490375,110.78817,-76.340225,5.9268227,STU
6769534773000,3.884493,-1.62980421818273,14.3590216345482,-1.61115926975537,-2.726597,-0.29138273,1.1001683,111.01203,-75.66409,6.2681594,STU
6769539642000,3.889362,-1.78324248790947,13.8692327584872,-2.51447925491364,-2.669481,0.07452556,1.0906999,111.10901,-75.14293,6.504188,STU
6769544798000,3.894518,-1.6656057427834,13.5800427807227,-3.6320281800675,-2.6450465,0.28985557,1.0940597,111.180046,-74.649826,6.719869,STU
6769549811000,3.899531,-1.47636061758677,13.3038998794354,-4.35146380096684,-2.6832256,0.7076874,1.0882565,111.09171,-74.24989,6.852707,STU
6769554765000,3.904485,-1.18737865730446,13.037852405395,-4.56246660172097,-2.7473664,1.0650436,1.0650436,110.96291,-73.85952,6.9673333,STU
6769559663000,3.909383,-0.974687078610729,12.6821155440165,-4.68091143094911,-2.935513,1.348485,1.02717,110.76463,-73.53773,7.073168,STU
6769564772000,3.914492,-0.907385967616428,12.1148634446846,-4.6136101693653,-3.1655037,1.604743,1.0048733,110.47724,-73.19655,7.150346,STU
6769569707000,3.919427,-1.01949823098871,11.3784274319398,-4.61316119118288,-3.4132094,1.853976,0.9605856,110.13884,-72.81546,7.237836,STU
6769574768000,3.924488,-1.5572870903507,10.1732044818704,-4.76681523695265,-3.6438112,2.0796907,0.8897252,109.7436,-72.39413,7.2904425,STU
6769579723000,3.929443,-2.02294603769599,9.22421938033987,-4.64720061437424,-3.7256672,2.345417,0.8353582,109.26143,-71.924,7.323299,STU
6769585391000,3.935111,-2.3796913200169,8.80631786273589,-3.72985564830532,-3.7039814,2.629164,0.7855727,108.723854,-71.44062,7.313601,STU
6769589733000,3.939453,-2.63574496497992,8.49108950722892,-2.94361047274297,-3.662748,2.8432722,0.72204274,108.06594,-70.94275,7.176984,STU
6769594835000,3.944555,-2.84178472718876,8.14768956204819,-1.56020031951606,-3.6758816,2.9523118,0.6395759,107.37187,-70.45523,7.0008426,STU
6769599790000,3.94951,-2.98740101762596,7.83481490720752,-0.239568200783091,-3.7504072,2.805704,0.54367006,106.63478,-69.86828,6.7371883,STU
6769604784000,3.954504,-2.873042,7.6183497,0.981622735,-3.7604864,2.5192082,0.43493605,105.92222,-69.312836,6.4445696,STU
6769609754000,3.959474,-2.75923256515798,7.40292477412468,2.19694491178053,-3.7479637,2.0851886,0.33658674,105.244354,-68.57762,6.1017566,STU
6769614991000,3.964711,-2.48724114608166,7.36664473159629,2.22404114080064,-3.7113118,1.8726074,0.23457226,104.60291,-67.86017,5.727514,STU
6769619790000,3.96951,-2.20966050884496,7.36893873695717,2.01528214955576,-3.8221838,1.8167132,0.15882497,104.05102,-67.11594,5.3549237,STU
6769624767000,3.974487,-1.92178411136069,7.37131782941,1.79878006590796,-3.9477167,1.7492126,0.16523905,103.53947,-66.171906,5.005993,STU
6769629694000,3.979414,-1.63679978136169,7.37367302099431,1.58445300821603,-3.957185,1.7318029,0.19211712,103.0442,-65.23781,4.6368775,STU
6769634784000,3.984504,-1.38999740515576,7.26546916279574,1.08777293991522,-3.9220603,1.8371773,0.21410827,102.535385,-64.283226,4.2526374,STU
6769639761000,3.989481,-1.15976037444795,7.13390513123028,0.538023205047319,-3.9135082,1.8820758,0.23518312,102.053116,-63.324833,3.8785195,STU
6769644850000,3.99457,-1.07794208170524,6.80561991150417,0.271194206028073,-3.9037344,1.8829921,0.25137106,101.616295,-62.436417,3.6247997,STU
6769649721000,3.999441,-1.0381243823217,6.44283671054628,0.0898025454931715,-3.8957932,1.883603,0.2507602,101.17707,-61.562477,3.363949,STU
6769655478000,4.005198,-1.13256009270294,5.8893255704894,0.0402848929061248,-3.8997638,1.8069394,0.21380283,100.79463,-60.766144,3.1696205,STU
6769659736000,4.009456,-1.24409527689753,5.44318508327635,0.0522350861619615,-3.9040399,1.7629571,0.19822577,100.40974,-59.985138,2.975128,STU
6769664737000,4.014457,-1.42077770086111,4.94659114671259,-0.119175021190356,-3.8887682,1.7040086,0.15363261,100.04991,-59.208237,2.7815857,STU
6769669742000,4.019462,-1.62472260299868,4.46586376149326,-0.400813277086415,-3.819435,1.808772,0.09254608,99.67359,-58.45977,2.561874,STU
6769674708000,4.024428,-1.76874564810051,4.13427194370795,-0.501062729462802,-3.7678168,1.8396207,0.04642576,99.29569,-57.65732,2.2975361,STU
6769679772000,4.029492,-1.88389473571429,3.87518642142857,-0.505860598928571,-3.6377025,1.8325957,0.0033597588,98.91803,-56.910023,2.0082612,STU
6769684827000,4.034547,-1.92813735715901,3.75084702840991,-0.421193439917772,-3.5353825,1.8414533,-0.03023783,98.494064,-56.160927,1.6251113,STU
6769689809000,4.039529,-1.93304141899476,3.70180641005242,-0.288783683299414,-3.470631,1.8399261,-0.07269296,98.08891,-55.44814,1.2301738,STU
6769694872000,4.044592,-1.89085122667917,3.70744701336516,-0.0976292245141493,-3.3765576,1.8515326,-0.10262536,97.6596,-54.745316,0.7800983,STU
6769699796000,4.049516,-1.83055946564951,3.73558314892601,0.111382210923969,-3.2690454,1.7831156,-0.10170906,97.25678,-54.07252,0.33819196,STU
6769704674000,4.054394,-1.71268453052846,3.75233142014062,0.252550535284645,-3.1490104,1.6545285,-0.102319926,96.8654,-53.406284,-0.11189907,STU
6769709677000,4.059397,-1.4736097246201,3.7468979056929,0.263417581200953,-3.0039299,1.59558,-0.094989546,96.4771,-52.78522,-0.56147784,STU
6769714688000,4.064408,-1.3322377038305,3.67403061498847,0.230904903830497,-2.8524354,1.6081028,-0.07696902,96.115746,-52.175323,-0.97339296,STU
6769719685000,4.069405,-1.26651851465006,3.54963357307372,0.165185714650056,-2.7046058,1.6618589,-0.06566802,95.76309,-51.61356,-1.382414,STU
6769724643000,4.074363,-1.20131224289568,3.42620741061357,0.0999794428956791,-2.6083946,1.6841555,-0.07147124,95.419754,-51.07483,-1.7327739,STU
6769729644000,4.079364,-1.13554044679975,3.30171079131885,0.034207646799745,-2.4801128,1.7333301,-0.07880162,95.06106,-50.595577,-2.0939565,STU
6769734650000,4.08437,-1.06354020183058,3.15901339325197,0.0590509212285919,-2.3606887,1.7935003,-0.111177474,94.693855,-50.14038,-2.473778,STU
6769739652000,4.089372,-0.984937883309404,2.99689616740847,0.181867016025023,-2.2293527,1.7889189,-0.09621128,94.32661,-49.733463,-2.8398728,STU
6769744648000,4.094368,-0.914117263393233,2.81168339747658,0.32195903354999,-2.0986276,1.7785342,-0.08552113,93.953674,-49.345276,-3.1997452,STU
6769749686000,4.099406,-0.849553001204359,2.60415540671,0.478757956696616,-2.0323486,1.7684549,-0.06841691,93.580986,-48.98361,-3.5519223,STU
6769754724000,4.104444,-0.762739848850104,2.41500930358149,0.699171322879738,-1.9101756,1.7464638,-0.08277224,93.23209,-48.641205,-3.872708,STU
6769759734000,4.109454,-0.64934336038542,2.24927603524225,0.995746791382602,-1.783421,1.7046194,-0.089491755,92.888405,-48.326107,-4.1800103,STU
6769764701000,4.114421,-0.570122290357372,2.07259895390541,1.32697696610315,-1.6328428,1.593442,-0.070249505,92.55522,-47.982647,-4.4541874,STU
6769769744000,4.119464,-0.590792460624866,1.85556217688851,1.77655296977317,-1.4914275,1.4541647,-0.046120327,92.2408,-47.678303,-4.712667,STU
6769774690000,4.12441,-0.653643065386759,1.64750155543384,2.23677654705487,-1.3191634,1.29198,-0.03145956,91.97376,-47.342823,-4.8671393,STU
6769779714000,4.129434,-0.787716502173537,1.4440798099164,2.73608471363505,-1.1554517,1.1178834,-0.029626964,91.740524,-47.05036,-4.987973,STU
6769784724000,4.134444,-0.932473173791375,1.2616226209669,3.21224937922105,-0.99082345,0.9297369,-0.041233405,91.551544,-46.69679,-5.0711784,STU
6769789735000,4.139455,-1.10284377277853,1.12632834177717,3.63817569355748,-0.81581056,0.75777835,-0.01863139,91.39222,-46.397503,-5.114843,STU
6769794684000,4.144404,-1.23965836700143,1.05949441262554,3.98281583012912,-0.6252206,0.6133087,0.0061086523,91.27043,-46.015583,-5.181637,STU
6769799759000,4.149479,-1.3279839,1.1013328,4.2106028,-0.4700608,0.46761733,0.045814894,91.18012,-45.67698,-5.205671,STU
6769804697000,4.154417,-1.38395403688462,1.17689286608173,4.45533133240385,-0.31429017,0.3827071,0.106901415,91.09817,-45.293385,-5.2535596,STU
6769809735000,4.159455,-1.36771675665385,1.33926578949519,4.76152014221154,-0.1863139,0.34238997,0.19211712,91.0264,-44.950016,-5.2680497,STU
6769814767000,4.164487,-1.35149881419231,1.50144533507212,5.06734429682692,-0.07452556,0.25717425,0.26908615,90.96636,-44.60715,-5.262916,STU
6769819743000,4.169463,-1.33546135757692,1.66182002084135,5.36976500298077,0.0693332,0.15790866,0.3436117,90.90196,-44.314457,-5.2304907,STU
6769824704000,4.174424,-1.30365563076143,1.83696809359221,5.71190898164858,0.19517145,0.08307768,0.42149702,90.827225,-44.04572,-5.172842,STU
6769829741000,4.179461,-1.16671204643618,2.11574615196188,6.3281552643212,0.31306845,-0.00580322,0.49418998,90.761696,-43.819004,-5.0798264,STU
