timestamp,rel_time,acc_x,acc_y,acc_z,gyro_x,gyro_y,gyro_z,azimuth,pitch,roll,label
29525338834000,0,-0.480045127339552,-9.63875529703223,0.580300411290931,-0.028099801,0.046120327,0.018325957,40.709858,-57.064266,18.863358,STD
29525343858000,0.005024,-0.486193275225697,-9.63721822876402,0.584911526217934,-0.023823744,0.039095376,0.022296581,41.091515,-56.080566,19.82941,STD
29525348860000,0.010026,-0.492314500489729,-9.63568789128838,0.589502449160783,-0.03359759,0.036957346,0.012217305,41.449413,-55.08685,20.792637,STD
29525353875000,0.015041,-0.49870708515779,-9.63498111319064,0.593048902980587,-0.021380283,0.023823744,0.018020526,41.779205,-54.09081,21.756989,STD
29525358817000,0.019983,-0.5081303844888,-9.64440412224988,0.583625579050274,-0.025961773,0.02565634,0.019242255,42.084713,-53.08358,22.716583,STD
29525363963000,0.025129,-0.515160117252911,-9.6524272890415,0.56328008718722,-0.026267206,0.027794369,0.02076942,42.36224,-52.077686,23.66729,STD
29525368902000,0.030068,-0.4916208344043,-9.64065765253309,0.42910613758933,-0.028099801,0.027183503,0.019242255,42.617363,-51.063637,24.617476,STD
29525373915000,0.035081,-0.467728867423111,-9.62871167403205,0.292921887875983,-0.023518313,0.027183503,0.020158553,42.846752,-50.045547,25.564777,STD
29525378819000,0.039985,-0.444356394637205,-9.61702544252016,0.159698755900269,-0.026572637,0.023823744,0.01038471,43.05595,-49.02159,26.508244,STD
29525383991000,0.045157,-0.42496210438911,-9.6061883956012,0.076607030171495,-0.022296581,0.030848695,0.015271631,43.244694,-47.986835,27.461508,STD
29525388844000,0.05001,-0.474495947979847,-9.61519472851468,0.738559136046895,-0.024740042,0.02321288,0.022907447,43.41517,-46.94629,28.412819,STD
29525394162000,0.055328,-0.526062453881534,-9.6245255102304,1.4161661690827,-0.014966198,0.029932396,0.020158553,43.654804,-45.896133,29.452772,STD
29525398857000,0.060023,-0.510600578129298,-9.62065996561211,0.940713775268226,-0.02107485,0.02076942,0.021685716,43.87137,-44.83765,30.49247,STD
29525403841000,0.065007,-0.494186949002751,-9.61655647799175,0.435994982771664,-0.020463986,0.025045475,0.013133603,43.8333,-43.78788,31.310328,STD
29525408819000,0.069985,-0.479972876034074,-9.62355829600947,0.407755920864614,-0.018020526,0.03848451,0.023823744,43.767727,-42.72765,32.12877,STD
29525413886000,0.075052,-0.466709659609603,-9.63682154705721,0.642072708970937,-0.014660766,0.027488936,0.019242255,43.68851,-41.667824,32.940186,STD
29525418875000,0.080041,-0.45365061347941,-9.6498806272777,0.872782489089832,-0.015577064,0.03726278,0.01740966,43.742134,-40.606567,33.89815,STD
29525423832000,0.084998,-0.440675329521228,-9.66285594510751,1.10201247106004,-0.015271631,0.038179077,0.017104227,43.773853,-39.546066,34.84963,STD
29525428825000,0.089991,-0.427477284097252,-9.67315484768932,1.20239547302493,-0.018020526,0.037873644,0.020463986,43.774513,-38.484066,35.789986,STD
29525433878000,0.095044,-0.413743325224918,-9.67544388704413,0.920849312317866,-0.021380283,0.03359759,0.009468411,43.750687,-37.425255,36.717064,STD
29525438817000,0.099983,-0.400319216206424,-9.67768128371411,0.645655073700771,-0.011301007,0.04550946,0.015271631,43.545456,-36.344677,37.51658,STD
29525443815000,0.104981,-0.386734746298661,-9.67994540773852,0.367173436809044,-0.019242255,0.03359759,0.010079277,43.325626,-35.263577,38.306137,STD
29525449065000,0.110231,-0.374715804320417,-9.68276215272758,0.107666423067328,-0.014049901,0.04550946,0.0125227375,43.065144,-34.18307,39.08018,STD
29525453828000,0.114994,-0.390052215925023,-9.69043011431453,0.257196460633773,-0.01985312,0.049480084,0.0106901415,42.782852,-33.10598,39.837467,STD
29525459451000,0.120617,-0.408157746568042,-9.69948259132554,0.433725413234261,-0.02107485,0.045814894,0.0067195175,42.643707,-32.040306,40.74515,STD
29525463886000,0.125052,-0.433974045175728,-9.71080720216281,0.60862635374587,-0.021685716,0.04886922,0.0067195175,42.46853,-30.97686,41.634426,STD
29525468904000,0.13007,-0.467657336260138,-9.72524318474016,0.820349847459698,-0.026267206,0.053145275,0.004581489,42.262745,-29.9178,42.50569,STD
29525473819000,0.134985,-0.480401017261875,-9.72535390043637,0.895325060155991,-0.0290161,0.048258353,0.009468411,41.961983,-28.860884,43.300537,STD
29525478809000,0.139975,-0.482797979292271,-9.71816286417214,0.902515943744294,-0.022296581,0.05131268,0.008246681,41.628555,-27.80972,44.074097,STD
29525483870000,0.145036,-0.48522904639364,-9.71086951055826,0.909809142509906,-0.025961773,0.044898596,0.007941248,41.197937,-26.764652,44.75607,STD
29525488868000,0.150034,-0.487629851248934,-9.70366694557857,0.917011554568892,-0.037873644,0.046120327,0.0067195175,40.735703,-25.721464,45.418667,STD
29525493816000,0.154982,-0.500556461458533,-9.68916576776479,0.822259018541467,-0.034208454,0.046731193,0.0067195175,40.245716,-24.684343,46.06333,STD
29525498875000,0.160041,-0.519115777466003,-9.67060657287876,0.673784582533997,-0.03634648,0.04520403,0.004581489,39.72759,-23.647245,46.68938,STD
29525503848000,0.165014,-0.523908362152348,-9.6658140790141,0.604467579385333,-0.040927973,0.03726278,0.0067195175,39.17722,-22.614786,47.29169,STD
29525508860000,0.170026,-0.519039793096663,-9.6706827192413,0.589861963724516,-0.04886922,0.03145956,0.006414085,38.599472,-21.58529,47.87352,STD
29525513863000,0.175029,-0.52008502065261,-9.66963747640562,0.554810589904619,-0.03634648,0.04062254,0.0106901415,38.026478,-20.571793,48.465588,STD
29525518887000,0.180053,-0.524915758066265,-9.66480666837349,0.506503473021084,-0.03634648,0.039095376,0.006414085,37.431263,-19.560713,49.039097,STD
29525523819000,0.184985,-0.523786045227273,-9.65418311363636,0.467848780113636,-0.03573562,0.03940081,0.009773844,36.804256,-18.552364,49.59606,STD
29525529342000,0.190508,-0.518466958563958,-9.63822617578439,0.430615378972245,-0.040011674,0.038179077,0.004276057,36.1547,-17.550884,50.12922,STD
29525533854000,0.19502,-0.5109189558787,-9.64049639225833,0.393350837309046,-0.04184427,0.01863139,0.0067195175,35.487377,-16.556433,50.654152,STD
29525538848000,0.200014,-0.501019035731733,-9.65039600745187,0.34880114237632,-0.04550946,0.02443461,0.007941248,34.790848,-15.567797,51.14813,STD
29525543845000,0.205011,-0.482880243223606,-9.63830729953624,0.298915330480131,-0.04153884,0.021991149,0.007330383,34.08462,-14.588437,51.636127,STD
29525548849000,0.210015,-0.461091424811312,-9.61651849022461,0.246622147179231,-0.039095376,0.018936822,0.0061086523,33.351715,-13.614032,52.097794,STD
29525553813000,0.214979,-0.430352201534779,-9.59456049310053,0.198313522447198,-0.03970624,0.015271631,0.005192355,32.60258,-12.646395,52.54714,STD
29525558821000,0.219987,-0.389833485665071,-9.5720501136769,0.153292735393786,-0.029626964,0.01985312,0.008552114,31.827888,-11.686732,52.969364,STD
29525563842000,0.225008,-0.361038251117545,-9.557653,0.122338182511043,-0.04337143,0.013439035,0.007330383,15.983923,-10.7357435,53.39107,STD
29525568876000,0.230042,-0.353062465466126,-9.557653,0.116356340982215,-0.027488936,0.008857546,0.007330383,16.1834652648741,-10.2611027566469,53.5901319464232,STD
29525573809000,0.234975,-0.3452467025304,-9.557653,0.110494516536107,-0.038179077,0.00580322,0.00580322,16.379004,-9.795985,53.7852,STD
29525578824000,0.23999,-0.337301020162131,-9.557653,0.104535252478286,-0.03268129,0.008857546,-0.0012217305,16.78591,-8.866251,54.189404,STD
29525583872000,0.245038,-0.329303053144181,-9.557653,0.0985367749181901,-0.022907447,0.0061086523,0.004886922,17.19048,-7.943759,54.569386,STD
29525588828000,0.249994,-0.323031291948292,-9.56152329886119,0.1138290944348,-0.028405234,0.017104227,0.004276057,17.60087,-7.0313582,54.914993,STD
29525593818000,0.254984,-0.3181284211265,-9.56887775100031,0.148149178924387,-0.035124753,0.007941248,0.0036651916,18.00926,-6.1274076,55.238804,STD
29525599267000,0.260433,-0.312774564792244,-9.57690869482918,0.18562616096522,-0.025961773,0.012217305,0.004886922,18.417747,-5.2329645,55.53895,STD
29525603921000,0.265087,-0.308201827156048,-9.58376793736534,0.217635313914025,-0.026267206,0.018936822,0.004581489,18.830795,-4.345358,55.811935,STD
29525608877000,0.270043,-0.318553836162398,-9.56521585646218,0.244963384939448,-0.029932396,0.009162978,0.007330383,19.241943,-3.4673264,56.060287,STD
29525613877000,0.275043,-0.337566750595593,-9.53194307504467,0.268729535425849,-0.020463986,0.010995574,0.008246681,19.650015,-2.6006143,56.275105,STD
29525618881000,0.280047,-0.330001195974232,-9.51639317076313,0.29249125019227,-0.027794369,0.010995574,0.002443461,19.856586217776,-2.16473656828876,56.3647946312085,STD
29525623823000,0.284989,-0.306547992124876,-9.51170243399405,0.315944463837463,-0.021380283,-0.0018325958,0.01160644,20.060598,-1.7342594,56.453373,STD
29525628814000,0.28998,-0.29958792529136,-9.50706232083054,0.352680509872739,-0.0076358155,-0.009162978,0.006414085,20.465467,-0.8822145,56.60234,STD
29525633856000,0.295022,-0.304208174607215,-9.50244245746818,0.398883031977801,-0.015271631,-0.0012217305,0.017104227,20.867205,-0.035209622,56.71218,STD
29525638817000,0.299983,-0.305269610236657,-9.49781653084464,0.443955502873552,-0.019547688,-0.006414085,0.010995574,21.270544,0.79522,56.80741,STD
29525643812000,0.304978,-0.302901251191207,-9.49307971383305,0.488954359359343,-0.01282817,0.005192355,0.02443461,21.666368,1.6238148,56.87011,STD
29525648841000,0.310007,-0.300516771183285,-9.48831065422319,0.534259514367759,-0.019242255,-0.009773844,0.023823744,22.065048,2.4429896,56.90325,STD
29525653827000,0.314993,-0.298152679451431,-9.48358237201703,0.579177291832855,-0.01282817,-0.010079277,0.024740042,22.45417,3.2544835,56.90524,STD
29525658812000,0.319978,-0.292424934854026,-9.47881091322356,0.618935135684413,-0.018020526,-0.01038471,0.027183503,22.846292,4.0600624,56.89113,STD
29525663917000,0.325083,-0.282547247198707,-9.47387197141125,0.653507037320942,-0.013133603,-0.004886922,0.03359759,23.23066,4.8558354,56.853085,STD
29525669071000,0.330237,-0.279832825443738,-9.46514581160736,0.714590456303145,-0.0143553335,-0.017715093,0.023518313,23.613255,5.6436,56.778316,STD
29525673891000,0.335057,-0.283643621778255,-9.45371358177165,0.794617219119954,-0.022907447,-0.025350908,0.03756821,23.987722,6.4310746,56.679157,STD
29525678922000,0.340088,-0.288295842143226,-9.44240144594595,0.874133778933551,-0.026572637,-0.037873644,0.044593163,24.357208,7.2049894,56.558346,STD
29525683919000,0.345085,-0.30065303862627,-9.4382822972973,0.907086301454639,-0.025045475,-0.04062254,0.05589417,24.720264,7.97588,56.417786,STD
29525688803000,0.349969,-0.312730794804614,-9.4342562972973,0.939293649862283,-0.023823744,-0.049785517,0.04917465,25.075626,8.738973,56.241333,STD
29525693822000,0.354988,-0.302263464191313,-9.42282678233284,0.979088952367008,-0.019242255,-0.052839845,0.055588737,25.421038,9.499558,56.046604,STD
29525698823000,0.359989,-0.283564156507565,-9.40880250414837,1.02116239709614,-0.027488936,-0.06078109,0.05222898,25.76707,10.250324,55.84235,STD
29525703828000,0.364994,-0.274468415675115,-9.39627755194901,1.0326656103898,-0.02443461,-0.06719518,0.06688975,26.099262,10.99831,55.613514,STD
29525708812000,0.369978,-0.269752161936663,-9.38448693607035,1.03030748721407,-0.030848695,-0.077579886,0.067500606,9.516699,11.737369,55.376553,STD
29525713858000,0.375024,-0.264977238910133,-9.37254964720123,1.02792002944025,-0.04153884,-0.07574729,0.08399397,8.940319,12.474236,55.11933,STD
29525718908000,0.380074,-0.260198530768243,-9.36060289555852,1.0255306791117,-0.03359759,-0.07696902,0.0870483,8.396648,13.198537,54.855553,STD
29525723827000,0.384993,-0.252784663413253,-9.35943546413064,1.00156184645082,-0.044593163,-0.08124508,0.093767814,7.871991,13.924968,54.577374,STD
29525728818000,0.389984,-0.243761105957146,-9.36394710387955,0.965467574225977,-0.048258353,-0.08979719,0.096516706,7.3758297,14.641216,54.2906,STD
29525733845000,0.395011,-0.231567753982098,-9.37396994514988,0.935016489702331,-0.03726278,-0.09010262,0.105068825,6.9049044,15.349021,53.995144,STD
29525738839000,0.400005,-0.216634389346378,-9.38890334616986,0.910127579829309,-0.046731193,-0.10323623,0.115453534,6.455925,16.05416,53.695484,STD
29525743813000,0.404979,-0.202376053506154,-9.41424643802694,0.894677382166877,-0.045814894,-0.10781772,0.12675454,6.027687,16.75165,53.394085,STD
29525748857000,0.410023,-0.188332421518558,-9.44701459656944,0.885314938030817,-0.04550946,-0.10873401,0.12980886,5.6247654,17.443342,53.086304,STD
29525753823000,0.414989,-0.176919104504079,-9.48204604934631,0.87098575427111,-0.050701816,-0.10629055,0.13897185,5.2409854,18.131508,52.775677,STD
29525758817000,0.419983,-0.167516457463875,-9.51965691241522,0.852180470008847,-0.052534413,-0.11484267,0.15027285,4.8800344,18.812336,52.459503,STD
29525763835000,0.425001,-0.153271543456326,-9.55280117894945,0.84752608453853,-0.05467244,-0.12522738,0.15424347,4.5420856,19.490278,52.138363,STD
29525768912000,0.430078,-0.134032666543674,-9.58165932105055,0.85714551546147,-0.053145275,-0.1386664,0.16126843,4.2227497,20.163212,51.810993,STD
29525773883000,0.435049,-0.115195467975072,-9.60991494925314,0.866564107369671,-0.05589417,-0.14752395,0.16829337,3.9235957,20.833555,51.480423,STD
29525778811000,0.439977,-0.0965212143950935,-9.6379261614403,0.875901226847364,-0.05222898,-0.16035213,0.172264,3.6448224,21.495245,51.147316,STD
29525784637000,0.445803,-0.0745966103075571,-9.65921844190588,0.869471552274946,-0.04153884,-0.17287487,0.18417588,3.3840518,22.151566,50.80815,STD
29525788834000,0.45,-0.0588989507078207,-9.66706743018942,0.853773895338801,-0.04642576,-0.17379116,0.18387043,3.1511118,22.799572,50.46568,STD
29525793812000,0.454978,-0.0402801874275044,-9.67637699980473,0.835155135217731,-0.03970624,-0.1881465,0.1740966,2.9352257,23.439592,50.124195,STD
29525798857000,0.460023,-0.0214108301054481,-9.68581186897091,0.816285781097442,-0.032375857,-0.20891592,0.17562376,2.7377195,24.074368,49.77823,STD
29525803823000,0.464989,-0.00221521767996161,-9.69356924229498,0.793409372272582,-0.038789943,-0.22174409,0.17531833,2.5634143,24.70094,49.43148,STD
29525808832000,0.469998,0.0182477128994348,-9.69868454399061,0.762714965986989,-0.022296581,-0.23365596,0.17287487,2.4063554,25.314281,49.08585,STD
29525813843000,0.475009,0.0426055609108609,-9.69734080081266,0.7291514448235,-0.018020526,-0.24862215,0.17104226,2.269346,25.916721,48.755253,STD
29525818885000,0.480051,0.0712184281798019,-9.68916595733514,0.692363496766274,-0.007941248,-0.26725355,0.16554448,2.151275,26.505838,48.425804,STD
29525823842000,0.485008,0.0988108461466264,-9.68397764249748,0.65410557795569,-0.005497787,-0.27885997,0.16371189,2.0531092,27.08353,48.104618,STD
29525828815000,0.489981,0.122791441416314,-9.69836578851964,0.601348257945619,-0.007330383,-0.29016098,0.16035213,1.9719312,27.65041,47.785507,STD
29525833899000,0.495065,0.142943607476088,-9.70804804470037,0.551912332941636,0.0033597588,-0.30573806,0.16554448,1.9045134,28.202198,47.482567,STD
29525838836000,0.500002,0.138329059203592,-9.6895899479797,0.528839562668358,0.0067195175,-0.3210097,0.15271631,1.8590459,28.742405,47.18281,STD
29525843848000,0.505014,0.134877208474253,-9.67337692480247,0.506367878335301,0.0061086523,-0.32467487,0.15760323,1.8254001,29.274464,46.88876,STD
29525848849000,0.510015,0.14357643684679,-9.68207633030606,0.493319047131051,0.01282817,-0.33444872,0.14996742,1.810202,29.79127,46.60088,STD
29525854794000,0.51596,0.151826000254324,-9.69278116683622,0.475683802980671,0.007941248,-0.32467487,0.1459968,1.808315,30.306797,46.308987,STD
29525858815000,0.519981,0.137580798013502,-9.70346491140294,0.443632097009156,0.0125227375,-0.31581733,0.1432479,1.8210684,30.811234,46.017693,STD
29525863855000,0.525021,0.119725583068529,-9.71685612568205,0.403457862217701,0.010995574,-0.3136793,0.1386664,1.8464929,31.313028,45.72662,STD
29525868884000,0.53005,0.101054588595624,-9.72392584285222,0.404782785634948,0.004886922,-0.30879238,0.13072516,1.8918648,31.806744,45.432247,STD
29525873843000,0.535009,0.0823323162639334,-9.72860650544523,0.421164774811019,-0.00061086525,-0.29810223,0.12889257,1.9533489,32.2946,45.13397,STD
29525878827000,0.539993,0.0635156586109496,-9.73331076484502,0.437629351147686,-0.0018325958,-0.2968805,0.13347405,2.0201213,32.78311,44.833736,STD
29525883870000,0.545036,0.0444762515997142,-9.73807071270882,0.454288833183364,-0.017104227,-0.29535335,0.12522738,2.1071877,33.265087,44.53296,STD
29525888824000,0.54999,0.0279200992204073,-9.74307508428618,0.463149099900904,-0.009468411,-0.30115658,0.11942416,2.2030659,33.739452,44.230335,STD
29525893799000,0.554965,0.0123550508157465,-9.74826299673309,0.468337440339758,-0.015271631,-0.2959642,0.12644911,2.3137002,34.213665,43.92313,STD
29525898856000,0.560022,-0.00211503924876763,-9.77452143843038,0.475109445260872,-0.025350908,-0.2910773,0.12705997,2.4383523,34.684242,43.607597,STD
29525903885000,0.565051,-0.0162187319292791,-9.805079565767,0.48216129417834,-0.03848451,-0.2910773,0.116980694,2.5748987,35.149765,43.29239,STD
29525908818000,0.569984,-0.0300531952406657,-9.8350543603885,0.489078528362048,-0.034513887,-0.28802297,0.11911872,2.7187529,35.615788,42.968098,STD
29525913893000,0.575059,-0.0442858936605496,-9.86589200131778,0.496194880172776,-0.04337143,-0.28313604,0.11148291,2.8779194,36.075764,42.647945,STD
29525918993000,0.580159,-0.0611537197462565,-9.86373553362374,0.517898484390598,-0.05467244,-0.269697,0.10873401,3.0442665,36.535603,42.323357,STD
29525924157000,0.585323,-0.079106213202287,-9.85027089218622,0.544827228323804,-0.08032878,-0.2706133,0.10323623,3.2192137,36.991455,42.002956,STD
29525928849000,0.590015,-0.105657115919037,-9.83939550525164,0.566578149557987,-0.079107046,-0.2507602,0.09987647,3.405353,37.455,41.660587,STD
29525933947000,0.595113,-0.143048575404814,-9.82871257374179,0.587944704210066,-0.09101892,-0.23701571,0.09437868,3.5997043,37.91738,41.322147,STD
29525938860000,0.600026,-0.176753816022897,-9.83588595619711,0.630729748461921,-0.094989546,-0.23945917,0.093767814,3.7980063,38.378487,40.977524,STD
29525943850000,0.605016,-0.210055739726232,-9.85015800199104,0.683061341433549,-0.105374254,-0.2302962,0.081855945,4.0156236,38.833275,40.634014,STD
29525948853000,0.610019,-0.232137788963148,-9.84859856955474,0.743624053859195,-0.10323623,-0.21777347,0.07849618,4.234117,39.290062,40.281532,STD
29525953855000,0.615021,-0.249235381043098,-9.84005004577496,0.807740035317213,-0.12156218,-0.20799962,0.07269296,4.4646025,39.74326,39.93312,STD
29525958854000,0.62002,-0.279697619631351,-9.84007503794595,0.861535752232433,-0.13164146,-0.19853121,0.07147124,4.6953707,40.204033,39.5697,STD
29525963912000,0.625078,-0.326827937864865,-9.85054810540541,0.903429361756757,-0.13652839,-0.19730948,0.07238753,4.933721,40.66086,39.20913,STD
29525968912000,0.630078,-0.378997743356582,-9.86879761522813,0.95645889427492,-0.13836098,-0.18600847,0.06414085,5.183448,41.11522,38.841015,STD
29525973840000,0.635006,-0.433859129418774,-9.8916565081856,1.01589208757144,-0.15515977,-0.18845193,0.065973446,5.432669,41.570244,38.47487,STD
29525978817000,0.639983,-0.484282525451646,-9.89995849968585,1.04633157736214,-0.16218472,-0.18417588,0.05681047,5.6853867,42.029476,38.09936,STD
29525983860000,0.645026,-0.530965474816587,-9.89529035513025,1.05099986815524,-0.17287487,-0.18325958,0.0571159,5.9392085,42.489346,37.725098,STU
29525988816000,0.649982,-0.576843066934899,-9.89070274370499,1.05558762329515,-0.18020524,-0.19058995,0.055588737,6.188068,42.960495,37.338474,STU
29525993966000,0.655132,-0.624516513143396,-9.88593555265575,1.06035496368469,-0.19364429,-0.1881465,0.055588737,6.444404,43.429142,36.9535,STU
29525998845000,0.660011,-0.663278543434343,-9.87924636826599,1.05498848339646,-0.19883664,-0.18509217,0.046731193,6.7047133,43.890305,36.57631,STU
29526003832000,0.664998,-0.693429743939394,-9.86919575820707,1.03488763058712,-0.21288654,-0.19181168,0.040317107,6.9664235,44.350098,36.203217,STU
29526008817000,0.669983,-0.72037570454825,-9.86644944827928,0.988473084191213,-0.2312125,-0.19394971,0.03756821,7.2257586,44.82229,35.815617,STU
29526013874000,0.67504,-0.744391328837648,-9.87125267043539,0.914024645383319,-0.23457226,-0.18325958,0.02565634,7.493382,45.28496,35.435013,STU
29526018887000,0.680053,-0.768197997724883,-9.87601410066448,0.840223968352673,-0.2434298,-0.18295415,0.02687807,7.753126,45.754803,35.05291,STU
29526023827000,0.684993,-0.791657990603987,-9.88070619428741,0.767497986997917,-0.25167647,-0.17623462,0.020158553,8.024934,46.2148,34.677265,STU
29526028829000,0.689995,-0.808706476920115,-9.87901019422522,0.698054268230991,-0.2669481,-0.17134771,0.014660766,8.299134,46.6724,34.305096,STU
29526033865000,0.695031,-0.817990166005775,-9.86972631126083,0.633068415549567,-0.2660318,-0.16920967,0.01038471,8.578564,47.12191,33.93759,STU
29526038827000,0.699993,-0.828743265827889,-9.85897317285794,0.568072526955385,-0.27458394,-0.15454891,0.0018325958,8.863595,47.579597,33.572533,STU
29526043833000,0.704999,-0.842167251513907,-9.84554939275714,0.500952640576815,-0.27977628,-0.13927728,0.008857546,9.15085,48.03387,33.207764,STU
29526048831000,0.709997,-0.856015585726423,-9.84151397621071,0.43539077556712,-0.2932153,-0.12186762,0.00030543262,9.445689,48.4851,32.852768,STU
29526053830000,0.714996,-0.8712686942226,-9.86693582370433,0.374378293800977,-0.30268374,-0.1142318,-0.013133603,9.744797,48.9319,32.49977,STU
29526058797000,0.719963,-0.882767977591581,-9.88666842724145,0.304556413940498,-0.30543262,-0.10170906,-0.013133603,10.051514,49.37843,32.148006,STU
29526063857000,0.725023,-0.887671733066181,-9.89647556952034,0.216289306958106,-0.30634892,-0.0870483,-0.014660766,10.366167,49.817867,31.801796,STU
29526068835000,0.730001,-0.885287957687658,-9.91312821953597,0.152095530286606,-0.29779682,-0.076052725,-0.032070424,10.687839,50.25381,31.459867,STU
29526073837000,0.735003,-0.871278427475141,-9.94114731897056,0.124076508871125,-0.31520647,-0.06780604,-0.04184427,11.0146055,50.690895,31.117846,STU
29526078804000,0.73997,-0.872065838703807,-9.96713130795073,0.0893897903919373,-0.3210097,-0.064751714,-0.048563786,11.341017,51.12724,30.784594,STU
29526083866000,0.745032,-0.903732933170026,-9.98975064427025,0.0396272126987682,-0.31856623,-0.04917465,-0.049480084,11.676445,51.559536,30.452429,STU
29526088822000,0.749988,-0.930821113780359,-10.0133756108765,-0.0159023538542767,-0.32986724,-0.0421497,-0.051618114,12.01517,51.990566,30.12862,STU
29526093821000,0.754987,-0.940931868416051,-10.043707980359,-0.101843831602957,-0.34483343,-0.043066,-0.05681047,12.358506,52.416363,29.8074,STU
29526098832000,0.759998,-0.949432582384696,-10.0678813676485,-0.178750436469363,-0.3576616,-0.03940081,-0.067500606,12.706223,52.847816,29.48416,STU
29526103834000,0.765,-0.953969319168482,-10.0769545096127,-0.233191031540866,-0.36896262,-0.028405234,-0.07819075,13.0581665,53.275627,29.164118,STU
29526109606000,0.770772,-0.959176935841161,-10.0888656971078,-0.296180987352367,-0.38728857,-0.020158553,-0.08827003,13.410249,53.70892,28.8476,STU
29526113857000,0.775023,-0.96296294688924,-10.1002237038966,-0.342875153920766,-0.398895,-0.018325957,-0.10323623,13.767193,54.134632,28.537079,STU
29526123830000,0.784996,-0.971845065962987,-10.126869999287,-0.452421360269072,-0.45478916,-0.012217305,-0.12858713,14.494489,54.989513,27.933315,STU
29526128805000,0.789971,-0.976275883409281,-10.1401624207818,-0.507068144244087,-0.4728097,0.0036651916,-0.14263703,14.868209,55.409374,27.63844,STU
29526133870000,0.795036,-0.980786856347066,-10.1536953081931,-0.562703513255836,-0.50762904,0.013744468,-0.15088372,15.2420225,55.829823,27.34797,STU
29526138810000,0.799976,-0.985186502213336,-10.1668942151648,-0.616965847494343,-0.5329799,0.01038471,-0.16982053,15.620153,56.24129,27.065914,STU
29526143817000,0.804983,-0.976628704499859,-10.2064368515984,-0.664677238834724,-0.55955255,0.02076942,-0.18448131,16.003284,56.655987,26.785082,STU
29526148862000,0.810028,-0.963040547754758,-10.2562601875879,-0.709971127758508,-0.59864795,0.025350908,-0.20158553,16.386526,57.067123,26.512987,STU
29526153825000,0.814991,-0.96061972724129,-10.2950169225806,-0.739593418171871,-0.63346726,0.024740042,-0.21533,16.770487,57.49058,26.243853,STU
29526158830000,0.819996,-0.965567534621935,-10.327178083871,-0.759384663193806,-0.66798115,0.040927973,-0.23487769,17.16391,57.90979,25.980577,STU
29526163886000,0.825052,-0.970565759220645,-10.3596669612903,-0.779377577245935,-0.70829827,0.040317107,-0.24098633,17.556929,58.33288,25.7217,STU
29526168914000,0.83008,-0.975536303778065,-10.391975916129,-0.799259771046194,-0.7367035,0.052839845,-0.25686884,17.962088,58.7473,25.46958,STU
29526173818000,0.834984,-0.973713300925674,-10.5346158298394,-0.879355783408658,-0.7696902,0.0571159,-0.27152961,18.365267,59.16224,25.221266,STU
29526179672000,0.840838,-0.968625490126146,-10.7533914817134,-1.00146331697432,-0.7987063,0.083383106,-0.29565877,18.781345,59.569576,24.978334,STU
29526183854000,0.84502,-0.972751021258111,-10.8808840157264,-1.07274980616958,-0.820392,0.08857546,-0.30390546,19.185558,59.988914,24.733215,STU
29526188847000,0.850013,-0.983268334004179,-11.0123504250522,-1.1463711052128,-0.8417723,0.094989546,-0.321926,19.601103,60.3986,24.496693,STU
29526193817000,0.854983,-0.998494579194631,-11.1362195436242,-1.19555832818792,-0.86620694,0.11148291,-0.34147367,20.0275,60.824013,24.255697,STU
29526198858000,0.860024,-1.01600832807909,-11.2588160601306,-1.23496426317794,-0.8958339,0.12675454,-0.35827246,20.456375,61.242702,24.020555,STU
29526203833000,0.864999,-1.03616521580783,-11.3747310333204,-1.28661302123208,-0.9224065,0.13775012,-0.3903429,20.892181,61.663662,23.78909,STU
29526208819000,0.869985,-1.05929095414568,-11.4857342489345,-1.35136500164665,-0.9593639,0.14049901,-0.42058071,21.330519,62.079205,23.563454,STU
29526213860000,0.875026,-1.0779734237148,-11.5657420337553,-1.39758870619134,-0.9981538,0.14172074,-0.4373795,21.776108,62.500565,23.336452,STU
29526218935000,0.880101,-1.09052890291914,-11.6034083839662,-1.41851450486524,-1.0390818,0.13897185,-0.46578476,22.223375,62.90882,23.123465,STU
29526223849000,0.885015,-1.09695147828151,-11.6347891071042,-1.4486340628407,-1.0937542,0.12980886,-0.48563787,22.667097,63.330467,22.908247,STU
29526228826000,0.889992,-1.05708705745351,-11.6254093009938,-1.55884743351373,-1.151481,0.13316862,-0.4972443,23.113752,63.743534,22.700457,STU
29526233866000,0.895032,-1.01671802370363,-11.6159107631605,-1.67045591014464,-1.2125676,0.11026118,-0.5222898,23.550653,64.152565,22.502287,STU
29526238824000,0.89999,-0.977005787725081,-11.60656676503,-1.7802485345764,-1.2812898,0.086132,-0.54336464,23.98704,64.557915,22.308502,STU
29526244003000,0.905169,-0.929843177647742,-11.5982077238611,-1.8987883245575,-1.3356569,0.06780604,-0.56046885,24.41633,64.95384,22.127136,STU
29526249500000,0.910666,-0.802549187460103,-11.6083914493665,-2.07699995867105,-1.3897184,0.054061573,-0.59315014,24.840345,65.33754,21.959274,STU
29526254177000,0.915343,-0.693377696563696,-11.6207848545357,-2.22808551362948,-1.4489723,0.027183503,-0.61300325,25.26964,65.70734,21.811918,STU
29526258817000,0.919983,-0.566789582542509,-11.7117698309445,-2.36654120525238,-1.4993688,0.00580322,-0.64660084,25.697344,66.05838,21.67851,STU
29526263851000,0.925017,-0.42945239159797,-11.8104806868156,-2.51675369482774,-1.5344934,-0.016493361,-0.66706485,26.12944,66.38513,21.574774,STU
29526268875000,0.930041,-0.269527153335734,-11.952812529787,-2.67650802255376,-1.570229,-0.02321288,-0.7125743,26.560467,66.689026,21.486704,STU
29526273803000,0.934969,-0.104426512627842,-12.1082014611586,-2.83675280098776,-1.6151277,-0.036651913,-0.7629707,26.981407,66.97731,21.406012,STU
29526278815000,0.939981,0.0448858914525952,-12.2485312941551,-3.01209849522771,-1.6358972,-0.06994407,-0.7901542,27.423542,67.22788,21.355087,STU
29526283858000,0.945024,0.189760229118262,-12.3846253658758,-3.19209385083174,-1.666135,-0.09254608,-0.84879726,27.864574,67.44861,21.324236,STU
29526288822000,0.949988,0.29927628698417,-12.4930652995025,-3.3511658858616,-1.6982054,-0.11759156,-0.92271197,28.321007,67.62934,21.323673,STU
29526293812000,0.954978,0.385731763121664,-12.5838435781095,-3.49814027609227,-1.7712038,-0.1414153,-0.9944886,28.767687,67.78784,21.334974,STU
29526298847000,0.960013,0.459856001832291,-12.6375204438457,-3.63574526816124,-1.8286251,-0.15882497,-1.0735956,29.23748,67.895004,21.386347,STU
29526303830000,0.964996,0.511290841485234,-12.6272335403643,-3.7540453832507,-1.8955148,-0.19120082,-1.1383474,29.690044,67.97984,21.447903,STU
29526308816000,0.969982,0.56084409179982,-12.5486029758024,-3.8729263590241,-1.9721785,-0.21319197,-1.1994339,30.161251,68.02309,21.539177,STU
29526313895000,0.975061,0.609479810664934,-12.4026961188381,-3.99451551652835,-2.0463986,-0.24862215,-1.2379184,30.610943,68.04587,21.634378,STU
29526319394000,0.98056,0.692025709732828,-12.1640517104975,-4.15291510288107,-2.129171,-0.27152961,-1.2663237,31.067774,68.04058,21.740576,STU
29526323831000,0.984997,0.776747652590968,-11.9225937179743,-4.29694252914964,-2.2146919,-0.29260445,-1.2712106,31.506178,68.02219,21.841805,STU
29526328813000,0.989979,0.911566596707142,-11.6594219870925,-4.44835860480925,-2.2925773,-0.2764165,-1.2651019,31.95444,67.96592,21.963432,STU
29526333897000,0.995063,1.08846332432546,-11.3987322190458,-4.59266920134812,-2.3744333,-0.23793201,-1.2592987,32.39466,67.89783,22.075975,STU
29526338816000,0.999982,1.28064067452839,-11.170805310183,-4.70700392638198,-2.443461,-0.14813483,-1.246776,32.872227,67.79484,22.201794,STU
29526343824000,1.00499,1.50570235659315,-10.9727507780385,-4.78802603416236,-2.5008824,-0.018936822,-1.2333369,33.36421,112.3159,22.313915,STU
29526348839000,1.010005,1.75928086163877,-10.7639288346012,-4.82038722284286,-2.5213463,0.13164146,-1.2198979,33.82978,112.479935,22.45659,STU
29526353834000,1.015,2.08158483794827,-10.529999229624,-4.73201361145403,-2.4920247,0.2782491,-1.185384,34.327137,112.6445,22.578928,STU
29526358815000,1.019981,2.39395235053254,-10.337681908284,-4.50741210171598,-2.4174993,0.4297437,-1.1676689,34.8053,112.86675,22.737349,STU
29526363920000,1.025086,2.70252573692308,-10.193037724359,-4.10240944397436,-2.3338106,0.51923543,-1.1505647,35.30438,113.08637,22.87714,STU
29526368915000,1.030081,2.95398089549442,-10.0632995189394,-3.56522795059809,-2.228742,0.5363397,-1.1319333,35.766014,113.3606,23.05738,STU
29526373870000,1.035036,3.13845754092903,-9.94977558901515,-2.85097210938995,-2.1423044,0.51251596,-1.1016954,36.23826,113.62755,23.2207,STU
29526378809000,1.039975,3.22776914084127,-9.84009784127442,-2.02711387705843,-2.097406,0.43585235,-1.0793989,36.663166,113.943214,23.4293,STU
29526383873000,1.045039,3.18108816619501,-9.73273119501396,-1.01880302117624,-2.0350976,0.30543262,-1.0381655,37.060818,114.23842,23.612637,STU
29526388816000,1.049982,3.14057457309673,-9.65862879992644,-0.433826880099301,-1.9892827,0.11881329,-1.0057896,37.42549,114.54878,23.823269,STU
29526393815000,1.054981,3.1097617317488,-9.6454234606473,-0.645115388126149,-1.9566014,-0.13561209,-0.9822713,37.724194,114.84199,24.00932,STU
29526398829000,1.059995,3.06917662898164,-9.64235430315969,-0.929536002318531,-1.9315559,-0.34055737,-0.9828822,38.108753,115.104706,24.205843,STU
29526403831000,1.064997,2.97713368861016,-9.69348918104184,-1.59940335108881,-1.9092593,-0.4382958,-0.96944314,38.43366,115.347534,24.377909,STU
29526408808000,1.069974,2.9316096933428,-9.72050162843955,-2.11868781157465,-1.9089539,-0.473726,-0.9789116,38.717377,115.611275,24.55401,STU
29526413886000,1.075052,3.00499220218356,-9.68596843387183,-2.26545291940351,-1.8918496,-0.4025602,-1.0012082,38.991886,115.86492,24.721788,STU
29526418975000,1.080141,3.07533374600386,-9.65401038377171,-2.41320854649132,-1.890017,-0.42241332,-1.001819,39.21641,116.13469,24.86799,STU
29526423823000,1.084989,3.0941936820656,-9.66344052411902,-2.56408769035239,-1.8826867,-0.5225952,-0.99082345,39.42829,116.398636,25.00681,STU
29526428895000,1.090061,3.10454600850698,-9.67326338692411,-2.73260842938253,-1.8585575,-0.6389651,-1.0088439,39.609425,116.70102,25.168446,STU
29526434710000,1.095876,2.98211719193271,-9.68390958363602,-3.07860293033837,-1.8732183,-0.7828238,-1.0219775,39.74508,116.994995,25.309673,STU
29526439175000,1.100341,2.88661976814726,-9.68671065706283,-3.34053520110044,-1.8625281,-0.8713993,-1.0296134,39.850224,117.3143,25.460499,STU
29526443819000,1.104985,2.75314230668267,-9.56658083953581,-3.52740356352541,-1.8881844,-0.9242391,-1.0454959,39.91708,117.637375,25.60176,STU
29526449184000,1.11035,2.59801005568649,-9.42174628775007,-3.73441132852836,-1.92392,-0.8561276,-1.0393872,39.98873,117.97949,25.734468,STU
29526453828000,1.114994,2.44362634847904,-9.16579430857769,-3.7222231511647,-1.9575176,-0.89644474,-1.0409144,40.00764,118.32394,25.854568,STU
29526458809000,1.119975,2.27803951695442,-8.89126872540422,-3.70915051734722,-1.9950858,-1.054048,-1.0329732,40.005375,118.69632,25.966042,STU
29526463851000,1.125017,2.07355647329987,-8.5840344504641,-3.80239954690282,-1.9935588,-1.2260065,-1.0180069,39.986053,119.05984,26.060844,STU
29526468863000,1.130029,1.85988429875923,-8.27034534267854,-3.925147404982,-1.953547,-1.3069462,-1.0363328,39.945618,119.42315,26.14773,STU
29526473820000,1.134986,1.60147606952431,-8.01583559296045,-3.99543405232619,-1.8845193,-1.423316,-1.0381655,39.83689,119.797424,26.215582,STU
29526478820000,1.139986,1.31779298013591,-7.78638621153511,-4.04132388504966,-1.8478674,-1.4636332,-1.0259482,39.73041,120.16501,26.273773,STU
29526483871000,1.145037,1.02193428101619,-7.53243324154786,-4.03483102937078,-1.7510452,-1.5131133,-1.0228939,39.553246,120.55269,26.322859,STU
29526488832000,1.149998,0.716367524407761,-7.24723737515275,-3.94316111938043,-1.6801848,-1.5787812,-1.0299188,39.365685,120.931656,26.356829,STU
29526493813000,1.154979,0.485929748653117,-7.03937840571822,-3.9269031665174,-1.6062702,-1.6102408,-1.0247264,39.10051,121.32266,26.367062,STU
29526498851000,1.160017,0.32803944473648,-6.90641833155357,-3.98507323692732,-1.5613716,-1.6010778,-1.0009027,38.83769,121.70006,26.36352,STU
29526504463000,1.165629,0.197487108535186,-6.82007933875737,-4.16961717547063,-1.5351044,-1.575116,-0.9896017,38.5121,122.09197,26.347092,STU
29526508823000,1.169989,0.187366349772966,-6.87743019469985,-4.55420595207239,-1.5091426,-1.5036448,-0.979217,38.213722,122.46797,26.322062,STU
29526513876000,1.175042,0.17563694747354,-6.94389667980932,-4.99992317412943,-1.4978416,-1.3542882,-0.95294976,37.92634,122.85019,26.283527,STU
29526518882000,1.180048,0.279118358866096,-7.06551645075765,-5.07378141542109,-1.4990633,-1.153619,-0.93126404,37.683643,123.22565,26.249357,STU
29526523804000,1.18497,0.424888003399649,-7.20642720709205,-5.00575568176477,-1.5158621,-0.96577793,-0.93554014,37.488163,123.597855,26.22329,STU
29526528826000,1.189992,0.52645364246738,-7.26009612567959,-5.0896667192461,-1.5106697,-0.93523467,-0.9624182,37.319763,124.00143,26.183725,STU
29526533863000,1.195029,0.61387369396158,-7.28632220913374,-5.22079686266763,-1.4746287,-0.9483683,-0.9957104,37.197067,124.3996,26.155605,STU
29526538823000,1.199989,0.65971410757815,-7.28903573331228,-5.31644636491948,-1.4361442,-0.9465357,-0.9975429,37.08774,124.80417,26.14598,STU
29526543812000,1.204978,0.674800515914114,-7.27394921995579,-5.38684965633091,-1.3732251,-0.8216137,-0.9828822,37.01242,125.194244,26.147438,STU
29526548850000,1.210016,0.72652880987455,-7.16322522353399,-5.38295064090246,-1.3316863,-0.67256266,-0.9618073,36.954346,125.60385,26.161587,STU
29526553872000,1.215038,0.796685441725177,-7.00420349341632,-5.34085658169795,-1.3048081,-0.59956425,-0.9462303,36.914356,125.9939,26.172989,STU
29526558818000,1.219984,0.869330196400119,-6.77171687095977,-5.26183288803005,-1.2782356,-0.56107974,-0.93309665,36.897507,126.39357,26.197292,STU
29526563871000,1.225037,0.945861365108234,-6.48472500079075,-5.15660242741919,-1.2235631,-0.5122105,-0.904386,36.910156,126.76689,26.217745,STU
29526568880000,1.230046,0.971218386418043,-6.32084126387378,-5.0634714070828,-1.1817188,-0.4813618,-0.8713993,36.92283,127.157845,26.256388,STU
29526574212000,1.235378,0.961115805035117,-6.23496937486398,-4.97254822738154,-1.1572843,-0.49235737,-0.86559606,36.93812,127.53146,26.288828,STU
29526578816000,1.239982,0.952541511656412,-6.10298739411652,-4.9364931250721,-1.1200215,-0.5002986,-0.8677341,36.962894,127.920006,26.350416,STU
29526583898000,1.245064,0.943183806474716,-5.91583358361854,-4.9271354443184,-1.1010846,-0.5006041,-0.8707884,36.986965,128.29553,26.402805,STU
29526588819000,1.249985,0.946578978119508,-5.7602961544464,-4.92449167940246,-1.0464121,-0.50732356,-0.8698721,36.975136,128.6701,26.456543,STU
29526593813000,1.254979,0.96338973440246,-5.63001278776801,-4.9286943629877,-1.0057896,-0.4886922,-0.86162543,36.971664,129.03238,26.505802,STU
29526598802000,1.259968,0.974876535669526,-5.49694040359546,-4.93352382644204,-0.95722586,-0.46517387,-0.8353582,36.955128,129.4043,26.560034,STU
29526603845000,1.265011,0.964953917057887,-5.35058191830089,-4.94096580658996,-0.9062186,-0.4089743,-0.8081747,36.955097,129.75491,26.612396,STU
29526608806000,1.269972,0.955192641838307,-5.20660324577534,-4.94828677893061,-0.8472701,-0.4184427,-0.79168135,36.93456,130.11511,26.665861,STU
29526613920000,1.275086,0.945130323460373,-5.05818419088808,-4.95583353413118,-0.79504114,-0.41874814,-0.7797695,36.935963,130.45065,26.715912,STU
29526618838000,1.280004,0.937789355868429,-4.93422897274879,-4.97922837639807,-0.7425067,-0.3930918,-0.76083267,36.915455,130.78766,26.762875,STU
29526623824000,1.28499,0.935434590862018,-4.84945730957688,-5.03809757532301,-0.6951646,-0.40042216,-0.73731434,36.890045,131.10156,26.79442,STU
29526628806000,1.289972,0.933081714957096,-4.76475365415721,-5.09691954665154,-0.6426302,-0.4175264,-0.70738196,36.86218,131.43011,26.832945,STU
29526633890000,1.295056,0.930680666964198,-4.67831580105533,-5.15694582168853,-0.59437186,-0.3662137,-0.66675943,36.858,131.73267,26.866043,STU
29526638815000,1.299981,0.943746920268614,-4.59667121953817,-5.25028726560792,-0.56077427,-0.3820962,-0.64934975,36.801033,132.04158,26.882013,STU
29526643901000,1.305067,1.00342643254948,-4.51862882649387,-5.45227916971725,-0.51923543,-0.4361578,-0.68019843,36.748158,132.33124,26.896118,STU
29526648856000,1.310022,1.06020223483135,-4.45794241143381,-5.62833887714257,-0.47555858,-0.39645153,-0.61850107,36.726444,132.63239,26.904346,STU
29526653829000,1.314995,1.10873522820748,-4.49191555747478,-5.67687217458473,-0.42638394,-0.2837469,-0.58062744,36.702705,132.92378,26.922707,STU
29526658835000,1.320001,1.16212571566399,-4.50582511402828,-5.71051981314111,-0.37843102,-0.19242255,-0.56321776,36.683086,133.24005,26.94167,STU
29526663861000,1.325027,1.2377436761852,-4.42131107312633,-5.67048645282321,-0.33475417,-0.1563815,-0.52748215,36.690407,133.52498,26.949984,STU
29526669108000,1.330274,1.31253556898488,-4.32880366306695,-5.63141850056155,-0.29229903,-0.08246681,-0.49846604,36.70929,133.8185,26.98071,STU
29526673910000,1.335076,1.32048162403456,-4.1818014787041,-5.63539177700216,-0.2565634,-0.07422013,-0.48380527,36.725246,134.08957,26.995008,STU
29526678814000,1.33998,1.32859646242765,-4.03167679896328,-5.63944945040173,-0.22510384,-0.03481932,-0.44532076,36.75062,134.36119,27.027454,STU
29526683885000,1.345051,1.34995374997674,-4.01524748394901,-5.55624029438913,-0.17989981,-0.008552114,-0.42455134,36.77486,134.61284,27.053707,STU
29526688806000,1.349972,1.37626477601191,-4.05909914821811,-5.43784049407276,-0.14660765,-0.016493361,-0.42821655,36.80347,134.84879,27.071892,STU
29526693818000,1.354984,1.4195562737136,-4.092602530714,-5.3718589754288,-0.106595986,-0.01863139,-0.4175264,36.843395,135.07196,27.087622,STU
29526698846000,1.360012,1.47717751471879,-4.11661138113283,-5.35265189509374,-0.07513642,0.0070249503,-0.42058071,36.88544,135.28525,27.105589,STU
29526703823000,1.364989,1.53368771445526,-4.15773278605795,-5.36029224682989,-0.02687807,0.020158553,-0.4202753,36.894154,135.50104,27.133093,STU
29526708819000,1.369985,1.58995876335935,-4.21400415545814,-5.39098551709612,0.0070249503,0.03634648,-0.44593164,36.905106,135.71083,27.167282,STU
29526713936000,1.375102,1.6711305733945,-4.22050353333964,-5.39198494873735,0.034513887,0.089186326,-0.4364632,36.91756,135.91443,27.209658,STU
29526718892000,1.380058,1.76091146880734,-4.20254727925849,-5.37851782848766,0.076358154,0.07147124,-0.42638394,36.912186,136.10468,27.243265,STU
29526723817000,1.384983,1.84607672321205,-4.17942913538269,-5.33709318456713,0.10293079,0.04550946,-0.42638394,36.91752,136.28531,27.283392,STU
29526728814000,1.38998,1.92921496783129,-4.1517161621079,-5.27243019115915,0.13988814,-0.015271631,-0.44012842,36.909492,136.44893,27.310606,STU
29526733840000,1.395006,1.99246377680418,-4.14454589130157,-5.29498305894894,0.18112154,-0.06566802,-0.4718934,36.89026,136.60655,27.348127,STU
29526738828000,1.399994,2.03320065210532,-4.1598222195395,-5.41210162861102,0.22632557,-0.09407325,-0.46578476,36.867607,136.74535,27.369715,STU
29526743814000,1.40498,2.0548748510465,-4.17406821853395,-5.51860087508287,0.30085114,-0.10567969,-0.46822822,36.79165,136.91148,27.41973,STU
29526748862000,1.410028,2.06403171938631,-4.18780376008145,-5.61932661805095,0.36254853,-0.1142318,-0.4813618,36.71097,137.0652,27.462646,STU
29526753822000,1.414988,2.06155705786315,-4.18760833546419,-5.82888791291517,0.43860126,-0.1441642,-0.4886922,36.61306,137.20978,27.493315,STU
29526758819000,1.419985,2.04719473205282,-4.17324575970388,-6.15443401460584,0.4990769,-0.12095132,-0.47525316,36.53069,137.33737,27.527653,STU
29526763869000,1.425035,2.05291814706233,-4.17303348321755,-6.36224176920405,0.5693264,-0.11362094,-0.4718934,36.437363,137.45003,27.547928,STU
29526768888000,1.430054,2.07915507416634,-4.1873446317239,-6.44572286693628,0.63285637,-0.099571034,-0.47800204,36.354984,137.54578,27.570684,STU
29526773818000,1.434984,2.10492675191544,-4.20140200612842,-6.52772362641425,0.64965516,-0.09896017,-0.4822781,36.260216,137.67531,27.570356,STU
29526778817000,1.439983,2.13105912860262,-4.21565612674673,-6.61087206386463,0.6966918,-0.11789699,-0.49602258,36.163975,137.78212,27.570356,STU
29526783867000,1.445033,2.20365195402122,-4.24068966187078,-6.67969276246866,0.7257079,-0.112704635,-0.47983465,36.072857,137.88554,27.566587,STU
29526788831000,1.449997,2.32742826484089,-4.27736409596914,-6.73012006148505,0.7556403,-0.1133155,-0.45540005,35.97795,137.97513,27.557772,STU
29526793792000,1.454958,2.46823213336207,-4.30521236068966,-6.75425775241379,0.79168135,-0.111177474,-0.4361578,35.88359,138.0665,27.540358,STU
29526798851000,1.460017,2.63993851844828,-4.31913449609195,-6.73569490521073,0.82436264,-0.103847094,-0.41508293,35.799294,138.14352,27.517056,STU
29526803801000,1.464967,2.79937334292219,-4.32587173489831,-6.67455285373874,0.86193085,-0.087964594,-0.40042216,35.71871,138.20972,27.504255,STU
29526808823000,1.469989,2.94049921591622,-4.31613882145098,-6.5090949003845,0.9068295,-0.059864793,-0.376293,35.652157,138.25867,27.487856,STU
29526813843000,1.475009,3.06360651679325,-4.30518009235818,-6.34763327886545,0.95172805,-0.032070424,-0.36071593,35.577553,138.30142,27.496174,STU
29526818963000,1.480129,3.15096062987342,-4.29138753727145,-6.19131523817159,0.99204516,-0.013133603,-0.3735441,35.50868,138.33385,27.508251,STU
29526823924000,1.48509,3.21684416039136,-4.27120450337382,-6.03992127118758,1.0503827,0.00030543262,-0.37018433,35.444313,138.33945,27.549294,STU
29526829549000,1.490715,3.2116514731444,-4.21927708868325,-5.86856085693079,1.1114693,0.01863139,-0.34055737,35.389652,138.3321,27.590837,STU
29526833859000,1.495025,3.21036436369673,-4.17386112868474,-5.77246678190371,1.1575897,0.023823744,-0.32406402,35.315166,138.314,27.656586,STU
29526838825000,1.499991,3.2279103244881,-4.08174453108283,-5.91064147219148,1.2269229,0.025961773,-0.30909783,35.250885,138.27257,27.718287,STU
29526843822000,1.504988,3.24556581503874,-3.98905290035049,-6.04967871088821,1.2861768,0.03359759,-0.30726522,35.187115,138.21751,27.794338,STU
29526848853000,1.510019,3.26334143500277,-3.89573058812027,-6.18966197042059,1.3585643,0.051923547,-0.30176744,35.130386,138.14275,27.868214,STU
29526853811000,1.514977,3.28085913004981,-3.80376238616491,-6.32761406757056,1.4114041,0.106901415,-0.29016098,35.085922,138.06018,27.948189,STU
29526858821000,1.519987,3.4013100541105,-3.84283595291437,-6.86015384936396,1.3891076,0.1459968,-0.2843578,35.03516,137.98328,28.026234,STU
29526863859000,1.525025,3.55245713237137,-3.92069959639263,-7.51054401023353,1.310306,0.23396139,-0.27305678,35.012676,137.90742,28.1195,STU
29526868889000,1.530055,3.81004663152973,-4.61997437247829,-8.24026353079492,1.2373075,0.3631594,-0.25686884,35.010956,137.86612,28.207468,STU
29526873831000,1.534997,4.11265332304609,-5.59554191462926,-8.99452200280561,1.0207558,0.44440445,-0.2773328,35.01266,137.8797,28.306755,STU
29526878817000,1.539983,4.59889157710217,-7.0912521965076,-9.85674200370406,0.7165449,0.42852196,-0.3707952,35.012394,137.96956,28.376202,STU
29526883940000,1.545106,5.23612121085242,-9.01710268837791,-10.8196666335386,0.33475417,0.29443705,-0.46700647,34.996597,138.12625,28.44126,STU
29526888817000,1.549983,6.10445957494235,-11.0726952321291,-11.534346867794,-0.05681047,0.024129177,-0.54611355,34.946453,138.34091,28.437677,STU
29526893811000,1.554977,7.2545662043483,-13.3991660622598,-12.0647615435379,-0.29749137,-0.32406402,-0.6414085,34.822605,138.61783,28.417011,STU
29526899647000,1.560813,7.59024893598616,-14.8744376098616,-12.6947038304498,-0.38820487,-0.56199604,-0.6969972,34.68451,138.87877,28.34076,STU
29526903829000,1.564995,7.54790437716263,-15.5827457716263,-13.1489452422145,-0.3417791,-0.5830709,-0.627664,34.52742,139.14413,28.23998,STU
29526908815000,1.569981,6.7204746424686,-15.3490750192365,-12.9181456994363,-0.17989981,-0.50640726,-0.3640757,34.380146,139.25735,28.150122,STU
29526913856000,1.575022,5.34537001186826,-14.3654929578677,-12.1494233626743,0.05100725,-0.53786683,-0.03359759,34.237305,139.31383,28.012465,STU
29526918880000,1.580046,3.97715241808682,-13.1719060884393,-11.1465232354897,0.24709499,-0.71959925,0.20463985,34.13863,139.26631,27.770264,STU
29526923823000,1.584989,2.63259941417308,-11.8453404957728,-9.99083767402869,0.37598756,-0.91751957,0.39614612,34.089577,139.13585,27.471481,STU
29526928816000,1.589982,1.60935444334209,-10.7015693320873,-8.8585931437159,0.41050145,-0.9960158,0.54641896,34.091404,138.94403,27.034248,STU
29526933887000,1.595053,0.961703721923621,-9.76934503394625,-7.74973661173975,0.35460728,-0.9147707,0.6020077,34.10218,138.73444,26.586851,STU
29526938819000,1.599985,0.499485920132166,-8.87780155153911,-6.74247253035866,0.30726522,-0.7480045,0.57726765,34.139317,138.49422,26.067009,STU
29526943813000,1.604979,0.206844766438859,-7.990873639085,-5.79701637644733,0.39706242,-0.63255095,0.48563787,34.17818,138.24353,25.56762,STU
29526948842000,1.610008,-0.160334280728111,-6.98429428341014,-5.11736909101383,0.6169739,-0.63346726,0.4120286,34.220726,137.9577,25.085892,STU
29526953832000,1.614998,-0.650829677602849,-5.78808602723083,-4.91716676853791,0.9251554,-0.7189884,0.38789943,34.258984,137.6405,24.62476,STU
29526958814000,1.61998,-0.941269406965756,-4.84195183294381,-5.14913402469261,1.2250903,-0.7464773,0.42852196,34.292248,137.27081,24.21145,STU
29526963886000,1.625052,-0.990627759734783,-4.18548587769536,-5.91912454435525,1.3322971,-0.677755,0.46089783,34.319153,136.8824,23.809675,STU
29526969480000,1.630646,-0.202020891841317,-4.16804709595808,-6.32847969797904,1.4266758,-0.23518312,0.54061574,34.43455,136.47176,23.434317,STU
29526973822000,1.634988,0.946131849825349,-4.60379171262475,-6.36652083964571,1.3014483,-0.043676864,0.5540548,34.4989,136.09901,23.0326,STU
29526978838000,1.640004,2.17918866365237,-5.09613602410848,-6.34031996016554,1.239751,0.3042109,0.54305923,34.709373,135.80191,22.719137,STU
29526983893000,1.645059,2.3624820200405,-5.46698545899445,-5.51763119521881,1.1395692,0.5549711,0.50885075,34.938187,135.55453,22.42708,STU
29526988806000,1.649972,2.54062648293563,-5.82741736277186,-4.71805257955446,1.0980303,0.70829827,0.5012149,35.211464,135.37926,22.43149,STU
29526993821000,1.654987,2.20984531777935,-6.4059199458451,-4.00129244095401,1.1294898,0.75594574,0.5012149,35.503506,135.2194,22.46477,STU
29526998842000,1.660008,1.75401593920936,-7.03632229407019,-3.30784995917709,1.1389582,0.7538077,0.4914411,35.806046,135.08176,22.516283,STU
29527003824000,1.66499,1.14872119796327,-7.72643664440735,-3.38312292754591,1.1230757,0.68416905,0.46181414,36.08149,134.82854,22.605606,STU
29527008803000,1.669969,0.51188752738082,-8.42960702541273,-3.61751306994064,1.1023064,0.5235115,0.43585235,36.32428,134.58344,22.67636,STU
29527013857000,1.675023,0.175734733453024,-9.33176151466487,-4.0631925977017,1.1301007,0.3390302,0.43188173,36.567963,134.15787,22.638416,STU
29527018921000,1.680087,-0.00614632052678143,-10.3297756475623,-4.61349941097221,1.1609493,0.23182335,0.45906523,36.789257,133.74141,22.582346,STU
29527023818000,1.684984,0.0141165371174404,-11.2608327951201,-4.92011026902117,1.1679744,0.23335053,0.46089783,37.028027,133.2573,22.378918,STU
29527028830000,1.689996,0.169054774759898,-12.1904619621191,-5.07960554668186,1.1829406,0.32436943,0.44532076,37.2608,132.7668,22.168974,STU
29527033864000,1.69503,0.361468302179104,-12.8975571663113,-5.1094123663113,1.2049317,0.4465425,0.4361578,37.52471,132.23227,21.876219,STU
29527038923000,1.700089,0.593899866514925,-13.367585728145,-5.00094427814499,1.2382239,0.5662721,0.4447099,37.80497,131.69774,21.599453,STU
29527043818000,1.704984,0.747330022661752,-13.4489618949462,-4.78111471807159,1.2825116,0.64599,0.4447099,38.10989,131.10994,21.332026,STU
29527048852000,1.710018,0.859565106010282,-13.2946384697837,-4.48182112666602,1.3087788,0.68294734,0.43310347,38.426453,130.52829,21.07973,STU
29527053848000,1.715014,0.924756330094913,-12.9089236357726,-4.16336770042711,1.3414601,0.7058548,0.398895,38.753284,129.91495,20.8687,STU
29527058821000,1.719987,0.951877890205011,-12.3348505882688,-3.82886845592255,1.3628404,0.7156286,0.37965274,39.08002,129.3086,20.660965,STU
29527063860000,1.725026,0.931564132599202,-11.6590744427357,-3.52764485890195,1.3729197,0.7443393,0.33017266,39.397594,128.70612,20.50522,STU
29527068870000,1.730036,0.850976583848415,-10.8683093697775,-3.27580884137098,1.378112,0.7510588,0.2968805,39.70564,128.11163,20.347061,STU
29527073823000,1.734989,0.819205851658864,-10.1588789670263,-3.10857341044169,1.3793337,0.75716746,0.27000242,40.002117,127.54785,20.238453,STU
29527078828000,1.739994,0.828962005556686,-9.50521761347446,-3.01101192239976,1.3897184,0.77549344,0.26511553,40.296818,126.99228,20.132845,STU
29527083831000,1.744997,0.884310961722772,-8.97758521960396,-2.95535507009901,1.4049901,0.8173377,0.2751948,40.585438,126.470695,20.050951,STU
29527088843000,1.750009,0.974606012376237,-8.54511958910891,-2.93159322772277,1.4110987,0.86376345,0.29016098,40.875736,125.957275,19.969484,STU
29527093824000,1.75499,1.08717859541866,-8.26453127488065,-2.90411738702718,1.4159856,0.9184359,0.31764993,41.164623,125.48474,19.913162,STU
29527098836000,1.760002,1.21938288770657,-8.10588573760558,-2.87326979705288,1.4138476,0.94134337,0.3387248,41.45413,125.01915,19.853952,STU
29527103758000,1.764924,1.34982742904342,-8.01379111368456,-2.84251687894854,1.41904,0.96944314,0.37751472,41.747982,124.591515,19.821966,STU
29527108823000,1.769989,1.48518442346244,-8.03544838430628,-2.81003111435428,1.4285084,0.97066486,0.3933972,42.035393,124.172104,19.787313,STU
29527113806000,1.774972,1.63157052633145,-8.11791206084499,-2.81273746548646,1.400714,0.9486737,0.41080686,42.316597,123.78612,19.774483,STU
29527118774000,1.77994,1.78728404373698,-8.24531394004761,-2.84104910368938,1.3900238,0.91629785,0.4361578,42.59297,123.39879,19.75224,STU
29527123743000,1.784909,1.95458500038124,-8.38242204136485,-2.86876302657263,1.3946054,0.9053023,0.45998153,42.864784,123.0255,19.74437,STU
29527128742000,1.789908,2.13254001415364,-8.52843672317004,-2.89614069900877,1.3906348,0.9239337,0.4831944,43.133305,122.66127,19.72816,STU
29527133767000,1.794933,2.33475873967227,-8.68145394212504,-2.90011422725185,1.3866642,0.9398162,0.5155703,43.395313,122.30675,19.72164,STU
29527138745000,1.799911,2.56364651462269,-8.84068005996243,-2.87523513822148,1.3701707,0.95325524,0.5384777,43.6571,121.962814,19.71216,STU
29527143739000,1.804905,2.75648714032119,-8.99814899684543,-2.81514639819329,1.3796391,0.9682214,0.559858,43.920753,121.62871,19.723415,STU
29527148796000,1.809962,2.91852200576427,-9.15555410410095,-2.722555005076,1.3680327,0.9746355,0.5723807,44.180634,121.309746,19.729961,STU
29527153936000,1.815102,3.09233879367089,-9.32683973417722,-2.59592080253165,1.357648,0.97494096,0.5742133,44.436974,121.00504,19.768047,STU
29527158778000,1.819944,3.26608299255696,-9.50058442339241,-2.44095988617722,1.3518448,0.96577793,0.5684101,44.685703,120.710464,19.80219,STU
29527163811000,1.824977,3.42647377409558,-9.66707055783832,-2.26853134408218,1.3411547,0.9584476,0.55833083,44.940067,120.41545,19.858383,STU
29527168819000,1.829985,3.56356534726217,-9.81701441706119,-2.0843144238142,1.348485,0.9379836,0.52564955,45.17708,120.13313,19.916529,STU
29527173781000,1.834947,3.68325133217305,-9.95634103381402,-1.90247006902039,1.3460416,0.88361657,0.49235737,45.411762,119.84249,19.992851,STU
29527178775000,1.839941,3.74984233640975,-10.065740178916,-1.72172317814023,1.3405437,0.82772243,0.44806966,45.62739,119.5701,20.074743,STU
29527183836000,1.845002,3.80522812226031,-10.1406292591323,-1.55536588474195,1.3545936,0.74006325,0.40103304,45.830406,119.279434,20.172749,STU
29527189124000,1.85029,3.82010681731466,-10.0910336089511,-1.44129583753795,1.3759739,0.63529986,0.3631594,46.00142,119.00705,20.268497,STU
29527193777000,1.854943,3.81322496836542,-10.0349677474519,-1.36149730215176,1.3949108,0.52748215,0.3286455,46.159126,118.72232,20.372555,STU
29527198821000,1.859987,3.71293057885995,-9.91643803171008,-1.37061491766704,1.4227052,0.43982297,0.30757064,46.28356,118.449005,20.471037,STU
29527203867000,1.865033,3.59264563145954,-9.7882914427359,-1.38387546077641,1.4187346,0.36926803,0.29749137,46.385677,118.17826,20.566328,STU
29527208816000,1.869982,3.2302389819763,-9.54535962482144,-1.44759530163852,1.4083499,0.33292156,0.2950479,46.465477,117.91858,20.657515,STU
29527213867000,1.875033,2.86036305016385,-9.29742092765314,-1.51262842271238,1.3939945,0.3200934,0.30848694,46.54031,117.66225,20.730043,STU
29527218875000,1.880041,2.49862677832033,-9.20895571542903,-1.64711562663357,1.3778065,0.30970868,0.31948254,46.599792,117.42059,20.799297,STU
29527223857000,1.885023,2.14094648317293,-9.18962125529328,-1.81145525716746,1.3542882,0.33505958,0.3359759,46.663074,117.18964,20.864264,STU
29527228813000,1.889979,1.9418476470179,-9.14668190845847,-1.82907338378722,1.3487904,0.42424592,0.35521814,46.759872,116.924866,20.863642,STU
29527233914000,1.89508,1.80093445864088,-9.09280354263171,-1.78762831056248,1.3310753,0.505491,0.37934732,46.859344,116.67134,20.859175,STU
29527238819000,1.899985,1.66773142243275,-9.05633629059493,-1.74219654255841,1.3066407,0.5235115,0.41080686,46.98507,116.38001,20.781134,STU
29527243812000,1.904978,1.53628871219321,-9.04694733300609,-1.68586392444532,1.3158038,0.4896085,0.43860126,47.116184,116.09037,20.701546,STU
29527248846000,1.910012,1.42753614247206,-9.02700562327416,-1.64046097639711,1.3365731,0.49418998,0.46700647,47.281807,115.77194,20.591845,STU
29527253829000,1.914995,1.37001547222222,-8.98517266666667,-1.61954438888889,1.3362677,0.4999932,0.49388456,47.43506,115.45854,20.47443,STU
29527259445000,1.920611,1.34952935954789,-8.96974202855443,-1.55624531216538,1.3426818,0.5717699,0.5174029,47.626514,115.11232,20.333862,STU
29527263854000,1.92502,1.3620885835812,-8.97811501943288,-1.48088992425144,1.3671165,0.60994893,0.5354234,47.806263,114.767685,20.1877,STU
29527268868000,1.930034,1.40082161494442,-9.00095245790237,-1.37384454673755,1.3695599,0.6395759,0.5580254,48.01036,114.41452,20.030312,STU
29527273823000,1.934989,1.46504033084582,-9.03764867539874,-1.24540706703722,1.3548992,0.63194007,0.57971114,48.210182,114.06587,19.870771,STU
29527278807000,1.939973,1.52770696421479,-9.06894682493011,-1.11264349222983,1.3439035,0.6203337,0.6078109,48.425762,113.704956,19.707684,STU
29527283899000,1.945065,1.58882200923552,-9.09245259259616,-0.971608738966548,1.3023647,0.61941737,0.6392705,48.637936,113.35505,19.540386,STU
29527288796000,1.949962,1.64688686198439,-9.10609452768487,-0.834716023634337,1.287704,0.6102544,0.6743952,48.851852,112.99546,19.376541,STU
29527293816000,1.954982,1.70494915016722,-9.10162810813824,-0.691793489632107,1.2666291,0.6020077,0.7122689,49.061764,112.64511,19.205873,STU
29527298810000,1.959976,1.75078652143909,-9.10150413864927,-0.55691760146013,1.2293663,0.5589417,0.7461719,49.266964,112.29061,19.036463,STU
29527303829000,1.964995,1.74067375914159,-9.1217295576478,-0.455789904567642,1.2049317,0.50823987,0.7874053,49.463764,111.9367,18.856455,STU
29527308797000,1.969963,1.72760128486109,-9.14497415346902,-0.372437609521616,1.174083,0.4596761,0.8060367,49.651314,111.58824,18.685184,STU
29527313881000,1.975047,1.70590089062546,-9.17752504694696,-0.332653530763631,1.1462886,0.40775254,0.82802784,49.819263,111.24227,18.501825,STU
29527318890000,1.980056,1.68452062415689,-9.20959574431734,-0.293456353246174,1.1267409,0.3491095,0.8381071,49.977177,110.8907,18.31249,STU
29527323861000,1.985027,1.69397338873547,-9.25080135038154,-0.241662995630451,1.1145236,0.2950479,0.84513205,50.116295,110.547745,18.119467,STU
29527329148000,1.990314,1.72617068081395,-9.30139719113372,-0.177268363444767,1.1096367,0.2828306,0.85062987,50.245594,110.21453,17.927464,STU
29527334136000,1.995302,1.78204097126858,-9.36917003919879,-0.122972137984062,1.0937542,0.26908615,0.8368854,50.365105,109.88026,17.731365,STU
29527338896000,2.000062,1.86549516123196,-9.45753349816929,-0.0787905315227224,1.0916162,0.27275133,0.8246681,50.48162,109.55333,17.538048,STU
29527343880000,2.005046,1.96732974728342,-9.52327235659456,-0.0472033174164091,1.0906999,0.2846632,0.7877107,50.599026,109.239914,17.361208,STU
29527348886000,2.010052,2.08203377085036,-9.5662862281926,-0.0280859838149736,1.0784826,0.269697,0.7498371,50.70424,108.941895,17.191338,STU
29527353890000,2.015056,2.18885733210845,-9.53822422892045,0.0112631376009534,1.0943651,0.26908615,0.72173727,50.814873,108.66085,17.044067,STU
29527358937000,2.020103,2.28966350064555,-9.4470188388122,0.0688666442913894,1.0919216,0.27091873,0.70402217,50.91608,108.40059,16.907482,STU
29527363870000,2.025036,2.3539273910828,-9.33813427547771,0.0908576639840764,1.0952814,0.2556471,0.66706485,51.009556,108.17332,16.805815,STU
29527368939000,2.030105,2.3877464191879,-9.20768874651672,0.0811950794806927,1.0983357,0.23976462,0.6417139,51.098614,107.95783,16.708532,STU
29527373844000,2.03501,2.41772163863835,-9.08543001221996,0.0626713813901658,1.1029172,0.18936823,0.61300325,51.173035,107.778915,16.648205,STU
29527378820000,2.039986,2.44545167871206,-8.96526619959267,0.0349412737536611,1.1090258,0.15057829,0.5714644,51.240353,107.61924,16.60018,STU
29527383888000,2.045054,2.45058200897232,-8.87980138777136,-0.0192127414212308,1.102001,0.122478485,0.52778757,51.29543,107.487434,16.572779,STU
29527388832000,2.049998,2.42700722291376,-8.8420818482374,-0.104082209520813,1.0852021,0.099571034,0.4908302,51.33541,107.37372,16.555216,STU
29527393819000,2.054985,2.39157683348258,-8.80440017033288,-0.20272554627409,1.0797043,0.095294975,0.4474588,51.364594,107.29795,16.567362,STU
29527398848000,2.060014,2.34001166822075,-8.76689853455324,-0.319918853158458,1.0735956,0.10140363,0.4196644,51.38626,107.23589,16.585213,STU
29527403821000,2.064987,2.2791709145935,-8.74001999918699,-0.450327929861789,1.0705414,0.115453534,0.39370266,51.42074,107.181404,16.604841,STU
29527408819000,2.069985,2.20134194684959,-8.73029116869919,-0.605986078678862,1.0607675,0.13988814,0.37415496,51.45601,107.13902,16.63022,STU
29527413855000,2.075021,2.10842318785489,-8.71760313091483,-0.748899246687697,1.0656544,0.18173242,0.3567453,51.506023,107.09822,16.649817,STU
29527418979000,2.080145,1.99232323485804,-8.70040324763407,-0.873599141324921,1.0684034,0.22327125,0.3484986,51.559433,107.065125,16.671822,STU
29527423907000,2.085073,1.88273865290442,-8.68872951810993,-0.978758448628332,1.0500773,0.267559,0.3378085,51.627132,107.02665,16.678602,STU
29527428815000,2.089981,1.78637410021478,-8.7070845660451,-0.992524806453188,1.061073,0.32986724,0.3286455,51.708942,106.99134,16.687439,STU
29527433880000,2.095046,1.68787129485638,-8.72599172831377,-1.00480433187327,1.0461067,0.37323865,0.33444872,51.80333,106.93057,16.66138,STU
29527438825000,2.099991,1.6020053503006,-8.74406865502433,-0.995765821328371,1.0204504,0.3894266,0.35827246,51.904743,106.87014,16.63318,STU
29527444727000,2.105893,1.50002242888133,-8.76346817078776,-0.988481569124,1.022283,0.42577308,0.38056904,52.032825,106.77828,16.573166,STU
29527448856000,2.110022,1.43096189603824,-8.76710301158195,-0.999385863783436,1.0341948,0.44043383,0.39522982,52.155895,106.686554,16.509516,STU
29527453807000,2.114973,1.34815281439471,-8.77146147531942,-1.01246098193768,1.0323622,0.45875978,0.4092797,52.301468,106.564995,16.414984,STU
29527458819000,2.119985,1.30655978411576,-8.81455465401929,-1.00459162321543,1.0320568,0.49205196,0.43066,52.45228,106.4417,16.316574,STU
29527463844000,2.12501,1.27561220097382,-8.86760775920992,-0.991328393082223,1.0375546,0.54702985,0.4465425,52.61127,106.32078,16.2182,STU
29527468958000,2.130124,1.29335726082377,-8.89376984702816,-0.944206238321168,1.0106765,0.59773165,0.45234573,52.778957,106.183525,16.0997,STU
29527473827000,2.134993,1.33711799489051,-8.90349413868613,-0.880996311678832,0.99296147,0.6542367,0.4709771,52.96112,106.04271,15.976099,STU
29527478909000,2.140075,1.39185609243697,-8.91281879379444,-0.804414623270847,0.96974856,0.6936375,0.48655418,53.168,105.88331,15.832846,STU
29527483924000,2.14509,1.44951233733493,-8.92168917056053,-0.724582853255148,0.9370673,0.69913524,0.49296826,53.376904,105.727455,15.690111,STU
29527488815000,2.149981,1.49959242755636,-8.95034814136126,-0.609734285021904,0.9053023,0.698219,0.5012149,53.589016,105.58008,15.554043,STU
29527493818000,2.154984,1.54566733661716,-8.99642289005236,-0.461270743803825,0.8900307,0.659429,0.505491,53.78678,105.437225,15.419884,STU
29527498852000,2.160018,1.58253671632031,-8.99640555977121,-0.390285450840801,0.8604037,0.6218608,0.50823987,53.990997,105.29684,15.287014,STU
29527503825000,2.164991,1.61431726777884,-8.97370516587226,-0.358504880419447,0.84238315,0.59437186,0.52381694,54.18184,105.15669,15.152048,STU
29527508814000,2.16998,1.63841367791639,-8.99237156899343,-0.326641065144272,0.83016586,0.55863625,0.5342017,54.352325,105.02867,15.027427,STU
29527514472000,2.175638,1.65905387441196,-9.04913206894581,-0.290520794015808,0.8164214,0.5314528,0.5403103,54.512962,104.90249,14.902468,STU
29527518844000,2.18001,1.67791234907832,-9.08078394907832,-0.282346584454629,0.7831292,0.50488013,0.56291234,54.6657,75.233635,14.76563,STU
29527523821000,2.184987,1.70218352414706,-9.10505512414706,-0.292055064619615,0.7648033,0.47555858,0.5815437,54.80548,75.36514,14.631562,STU
29527528814000,2.18998,1.73552592692082,-9.13839745286162,-0.28742433999706,0.7257079,0.4615087,0.6044512,54.937763,75.49808,14.494698,STU
29527533932000,2.195098,1.77875672596041,-9.18162810143081,-0.26821064874853,0.700357,0.4196644,0.6081163,55.049862,75.625984,14.361721,STU
29527538820000,2.199986,1.83391525317206,-9.20540326440135,-0.31715600006683,0.6597345,0.36346483,0.61483586,55.166817,75.76719,14.21417,STU
29527543811000,2.204977,1.90589995195783,-9.20990239909638,-0.443129248780121,0.6239988,0.3463606,0.6246097,55.27978,75.90544,14.068867,STU
29527548907000,2.210073,1.98029462855065,-9.21111289683117,-0.585301618327273,0.5907067,0.3286455,0.6392705,55.37896,76.04267,13.923786,STU
29527553832000,2.214998,2.05379978023896,-9.20621245787013,-0.747012829236364,0.5653558,0.3313944,0.64812803,55.476627,76.17675,13.781684,STU
29527558823000,2.219989,2.11938504346422,-9.19729356283436,-0.912963473856869,0.5543602,0.34300083,0.6579019,55.568714,76.29915,13.653209,STU
29527563857000,2.225023,2.17291342977693,-9.18269511527203,-1.0832812191077,0.5216789,0.3472769,0.66675943,55.657845,76.42155,13.525732,STU
29527568832000,2.229998,2.22651082545749,-9.18252937390393,-1.2514701632196,0.47311515,0.38148534,0.66920286,55.77288,76.5581,13.384556,STU
29527573819000,2.234985,2.28113468368281,-9.20073724742661,-1.41989392016775,0.40683624,0.4251622,0.66950834,55.890347,76.6944,13.244955,STU
29527578809000,2.239975,2.33718892653941,-9.25045817179803,-1.54045642346059,0.3359759,0.48258355,0.6579019,56.028675,76.83691,13.101871,STU
29527584589000,2.245755,2.40535893700739,-9.38111737335796,-1.56886057965928,0.26267207,0.52748215,0.6441574,56.174866,76.97768,12.962417,STU
29527588795000,2.249961,2.44578592975334,-9.47630511267862,-1.56689613558751,0.18142697,0.54305923,0.6133087,56.341354,77.12483,12.819685,STU
29527593812000,2.254978,2.48077036072631,-9.59000475307181,-1.53191161328843,0.11148291,0.6026186,0.5684101,56.532795,77.26255,12.687492,STU
29527598811000,2.259977,2.48199402676787,-9.7906691294809,-1.45892655746327,0.057726767,0.67256266,0.54275376,56.73938,77.40171,12.554252,STU
29527603829000,2.264995,2.33608331607248,-10.3743121688541,-1.21887983779628,0.03268129,0.7657196,0.5039638,56.968952,77.52253,12.439665,STU
29527608800000,2.269966,2.20271761622433,-10.8929587941435,-0.983039453706865,0.047036625,0.8527679,0.46120325,57.222298,77.63864,12.328098,STU
29527613857000,2.275023,2.1350675719075,-11.0583254935589,-0.755033768167003,0.099571034,0.8781188,0.42149702,57.482315,77.742256,12.228499,STU
29527618864000,2.28003,2.06808640285581,-11.2220571652957,-0.529282439810647,0.1957823,0.86498517,0.38545597,57.75893,77.86021,12.111064,STU
29527623836000,2.285002,2.00157344648973,-11.3846443176574,-0.305109161482746,0.30818152,0.7861836,0.34483343,58.019005,77.96238,12.008461,STU
29527628823000,2.289989,1.8832831480631,-11.4627816203678,0.124064027956688,0.44226643,0.6762278,0.32528573,58.272404,78.06528,11.902178,STU
29527633856000,2.295022,1.63132725930178,-11.3233060231494,1.08239636935499,0.548557,0.5204572,0.31948254,58.484337,78.15703,11.805885,STU
29527638831000,2.299997,1.41935408615111,-11.1763895570132,1.94189920913395,0.6383542,0.3717115,0.32406402,58.656387,78.25071,11.699463,STU
29527643817000,2.304983,1.43348406981653,-10.9738594960544,2.26688903016374,0.68539083,0.29565877,0.33353242,58.79955,78.33803,11.5967045,STU
29527648851000,2.310017,1.4529241142435,-10.778839720326,2.58601873429445,0.6988298,0.160963,0.34391713,58.84775,78.398964,11.4992695,STU
29527654161000,2.315327,1.51509769508915,-10.6493114268976,2.8502566692919,0.70157874,-0.009162978,0.35277468,58.86134,78.45189,11.402075,STU
29527658838000,2.320004,1.55433521405617,-10.5609619009069,3.04860749837119,0.65393126,-0.061391957,0.35369098,58.857586,78.4758,11.317947,STU
29527663890000,2.325056,1.50960804506515,-10.609948909359,3.06990618416094,0.6377433,-0.15485434,0.32834008,58.791695,78.48266,11.242566,STU
29527669186000,2.330352,1.46272065651083,-10.6613018778394,3.09223354756999,0.589485,-0.24037547,0.28130344,58.704567,78.454056,11.189681,STU
29527673852000,2.335018,1.42141088404208,-10.7065460150995,3.11190489909315,0.5375614,-0.2996294,0.22907446,58.598576,78.40886,11.147852,STU
29527678820000,2.339986,1.37742739719581,-10.7547185127223,3.13284944996478,0.47342056,-0.33200526,0.16829337,58.483643,78.345665,11.121646,STU
29527683915000,2.345081,1.26352766330238,-10.8913696895438,3.08396768078321,0.40530908,-0.32834008,0.11026118,58.36366,78.26738,11.11101,STU
29527688869000,2.350035,1.11029876330238,-11.0781171895438,2.99298798078321,0.33628133,-0.3100141,0.065973446,58.240494,78.17776,11.114731,STU
29527693832000,2.354998,0.948694407835218,-11.3031916263687,2.94580326050978,0.26297748,-0.2764165,0.043066,58.127586,78.09689,11.112213,STU
29527698908000,2.360074,0.77853975355412,-11.5562422079519,2.92398857876503,0.18173242,-0.22602014,0.04062254,58.02659,78.01548,11.115726,STU
29527703869000,2.365035,0.591974299048123,-11.8399415452142,2.88270497361185,0.094989546,-0.19181168,0.03940081,57.942192,77.969284,11.097917,STU
29527708835000,2.370001,0.37568532938128,-12.1769499043892,2.8122853078477,0.010995574,-0.16920967,0.048563786,57.869705,77.93296,11.077238,STU
29527713860000,2.375026,0.126170574368856,-12.5225804596933,2.71951938084939,-0.07452556,-0.13164146,0.04520403,57.82703,77.94168,11.020191,STU
29527718885000,2.380051,-0.152956823438852,-12.8726720911325,2.60597596878687,-0.17562376,-0.09590584,0.06078109,57.790104,77.96803,10.955751,STU
29527723884000,2.38505,-0.432016968729368,-13.2401251974802,2.44833084628382,-0.25870144,-0.049480084,0.059253927,57.77915,78.03802,10.861528,STU
29527728816000,2.389982,-0.708798737472409,-13.6230069208907,2.24535763526712,-0.33658674,0.02076942,0.07819075,57.784603,78.12667,10.757618,STU
29527733937000,2.395103,-0.998326285726237,-14.014953102426,2.05261931634424,-0.4034765,0.08093964,0.09193522,57.819336,78.27738,10.606299,STU
29527738826000,2.399992,-1.27740168370804,-14.3821574927324,1.89104934371013,-0.4465425,0.1563815,0.112399206,57.877563,78.437294,10.449164,STU
29527743813000,2.404979,-1.52342088256344,-14.6475553891626,1.7107324557115,-0.4642576,0.20433442,0.116980694,57.960564,78.66145,10.246786,STU
29527748852000,2.410018,-1.7342307424203,-14.8090267931034,1.51337849154196,-0.47769663,0.29046643,0.12339478,58.074486,78.88968,10.040849,STU
29527753817000,2.414983,-1.91455269437069,-14.8477173531599,1.28000152223048,-0.48197266,0.35277468,0.119729586,58.209568,79.1675,9.794277,STU
29527758820000,2.419986,-2.04686628877323,-14.6696031137546,0.974662592297398,-0.46853364,0.41080686,0.12614368,58.365746,79.44078,9.548334,STU
29527763855000,2.425021,-2.13937865518786,-14.4327482057726,0.712868031823837,-0.453262,0.44715336,0.1142318,58.542458,79.74829,9.279233,STU
29527768879000,2.430045,-2.18726503806917,-14.133457896077,0.501369699090985,-0.42546764,0.4615087,0.10751228,58.72671,80.04643,9.014089,STU
29527773876000,2.435042,-2.23321632608245,-13.8343388337477,0.292987397409986,-0.4016439,0.4728097,0.10567969,58.925644,80.36436,8.741061,STU
29527778814000,2.43998,-2.2577088879221,-13.5208341444997,0.111742310899109,-0.37659842,0.47403142,0.098043874,59.123707,80.66677,8.47907,STU
29527783923000,2.445089,-2.27490598076923,-13.2122312596154,-0.0541326353379121,-0.37110063,0.47616947,0.10323623,59.329746,80.98006,8.215448,STU
29527788824000,2.44999,-2.24669931201923,-13.0026958377404,-0.0944279050209478,-0.38148534,0.49113566,0.099265605,59.538265,81.28016,7.962852,STU
29527793798000,2.454964,-2.21807250721154,-12.7900394026442,-0.135323369498283,-0.410196,0.4990769,0.10354166,59.745857,81.58731,7.711442,STU
29527798855000,2.460021,-2.01310389154554,-12.3561123102937,-0.0747195467635716,-0.4746423,0.4709771,0.09712757,59.94612,81.888504,7.4702744,STU
29527803810000,2.464976,-1.76910505143874,-11.8774993893009,0.00974158115099376,-0.55955255,0.41447207,0.09437868,60.138943,82.18963,7.2327065,STU
29527808818000,2.469984,-1.54090334599193,-11.5998212297842,-0.000705535660410452,-0.6603453,0.34116822,0.07971791,60.31861,82.48107,7.013086,STU
29527813849000,2.475015,-1.31694367297842,-11.3800867231188,-0.0387364275267497,-0.77488256,0.2593123,0.06414085,60.478786,82.772484,6.800209,STU
29527818881000,2.480047,-1.05754300626905,-11.1813550590988,-0.121375705563779,-0.89644474,0.16982053,0.052839845,60.6121,83.01787,6.6337066,STU
29527823819000,2.484985,-0.769313214627775,-11.0063586378973,-0.244902752982151,-1.028697,0.09407325,0.040011674,60.72621,83.25816,6.4760065,STU
29527828817000,2.489983,-0.513149989042483,-10.8661935664916,-0.400032650351683,-1.1572843,0.04520403,0.021685716,60.823788,83.45286,6.363043,STU
29527833926000,2.495092,-0.269955849023727,-10.7423023528088,-0.574398273375223,-1.2855659,0.022907447,0.004886922,60.908676,83.63472,6.2557554,STU
29527839453000,2.500619,0.00320983231664725,-10.6976774607366,-0.770754082135676,-1.396438,0.008552114,-0.017104227,60.988495,83.75712,6.194583,STU
29527843820000,2.504986,0.224513225774156,-10.7109557011324,-0.930092504720076,-1.4908166,-0.0076358155,-0.03481932,61.06382,83.85243,6.1376224,STU
29527848846000,2.510012,0.446525284127717,-10.76093242412,-1.13240996020389,-1.5396858,-0.01863139,-0.06841691,61.153828,96.12874,6.1279087,STU
29527853825000,2.514991,0.648299512914022,-10.8297190473168,-1.3433557483266,-1.6209309,-0.028099801,-0.11178834,61.242607,96.151764,6.1245065,STU
29527858816000,2.519982,0.805731673113208,-10.9257889213836,-1.58103893679245,-1.6664404,-0.013133603,-0.16065755,61.35697,96.25458,6.163785,STU
29527863849000,2.525015,0.928884375648585,-11.0442048863994,-1.84155425766509,-1.713477,-0.002443461,-0.19853121,61.469887,96.40052,6.2079144,STU
29527868906000,2.530072,1.03046632242,-11.148757376,-2.07727071976,-1.7256943,0.027488936,-0.2452624,61.61881,96.62054,6.291026,STU
29527873953000,2.535119,1.11263435921,-11.240592588,-2.28994100388,-1.7290541,0.09162979,-0.28099802,61.7817,96.87152,6.3749533,STU
29527878814000,2.53998,1.1362140940221,-11.2802967877042,-2.44609238672207,-1.7305813,0.14721853,-0.31703907,61.957546,97.17229,6.472393,STU
29527883947000,2.545113,1.11068123641515,-11.2779753279819,-2.56679326508641,-1.7229455,0.20677789,-0.35796702,62.152794,97.49577,6.5745716,STU
29527888813000,2.549979,1.08647650524129,-11.2757746221551,-2.68121572254226,-1.7159204,0.28680122,-0.39461896,62.36414,97.86036,6.686678,STU
29527893810000,2.554976,1.06162014649164,-11.2735146700349,-2.79871860373973,-1.7101172,0.35888332,-0.41263947,62.58986,98.23619,6.798961,STU
29527898844000,2.56001,1.0331500636919,-11.2351401623391,-2.8443263794676,-1.6920967,0.43799037,-0.43890667,62.841454,98.629005,6.925382,STU
29527903828000,2.564994,0.996698405738599,-11.1101633445341,-2.71414191784857,-1.6493362,0.4886922,-0.4709771,63.10323,99.02166,7.052398,STU
29527909444000,2.57061,0.993368961639214,-10.9704077420123,-2.52470020525898,-1.6056592,0.5314528,-0.50243664,63.39437,99.435,7.177966,STU
29527913878000,2.575044,1.01864988912483,-10.8608569682477,-2.34352009295495,-1.5329664,0.54825157,-0.5552765,63.6882,99.84332,7.312389,STU
29527918838000,2.580004,1.07831212619025,-10.7450425133402,-2.1093488024135,-1.4272866,0.5497787,-0.6264423,63.97759,100.23652,7.456742,STU
29527923821000,2.584987,1.17729084528142,-10.6370659253323,-1.8349078341944,-1.3041973,0.5317582,-0.7128797,64.25992,100.61918,7.613094,STU
29527928796000,2.589962,1.26968154813166,-10.5370686685382,-1.55859327001936,-1.1710287,0.5225952,-0.7993172,64.52963,100.97266,7.7900515,STU
29527933862000,2.595028,1.34952406212972,-10.4525297322362,-1.27209939619555,-1.0412198,0.5335908,-0.8781188,64.79244,101.30906,7.9814987,STU
29527938813000,2.599979,1.41903939447359,-10.3728376466842,-0.991032695337205,-0.91721416,0.5488624,-0.94897914,65.02771,101.630516,8.219448,STU
29527943814000,2.60498,1.46390041621394,-10.3010595247284,-0.703922235832709,-0.8686504,0.5842926,-0.981355,65.26507,101.93955,8.460469,STU
29527948849000,2.610015,1.49931912256669,-10.2267045118962,-0.399841804386652,-0.78893244,0.6224717,-1.0299188,65.4805,102.219345,8.738621,STU
29527953829000,2.614995,1.46493378442682,-10.1382852761355,0.00787035449685858,-0.72418076,0.68966687,-1.0720685,65.70771,102.48976,9.016545,STU
29527958821000,2.619987,1.4145365194447,-10.0550168743573,0.423281075011686,-0.7058548,0.73884153,-1.0974194,65.91379,102.74276,9.3114395,STU
29527963844000,2.62501,1.28862084575115,-9.99655576591568,0.872980098801533,-0.70157874,0.7501425,-1.103528,66.12136,102.98425,9.603209,STU
29527969031000,2.630197,1.15830226570713,-9.93353341051314,1.33516755469337,-0.73761976,0.743423,-1.0903945,66.29985,103.22161,9.911869,STU
29527973820000,2.634986,1.03466951178781,-9.84522437960913,1.73697392194089,-0.79320854,0.72356987,-1.0684034,66.47426,103.4559,10.209719,STU
29527979406000,2.640572,0.889685699448819,-9.74392194334132,2.19004626591921,-0.8949176,0.67103547,-1.0253373,66.60784,103.66948,10.497235,STU
29527983855000,2.645021,0.765700301850394,-9.68192952250942,2.37967095447621,-1.0009027,0.6035349,-0.99296147,66.73091,103.88668,10.771682,STU
29527988841000,2.650007,0.626749707913386,-9.61245453705923,2.59218358588668,-1.1386528,0.5213735,-0.95386606,66.805885,104.10889,11.045394,STU
29527993814000,2.65498,0.481987977391129,-9.57144523222368,2.6271127654732,-1.287704,0.4465425,-0.91629785,66.86611,104.33937,11.300706,STU
29527998849000,2.660015,0.331651475832244,-9.54719742572664,2.55436929534346,-1.4391985,0.34880406,-0.8707884,66.89926,104.57738,11.53144,STU
29528003825000,2.664991,0.174737507511874,-9.59735132499758,2.38114856460211,-1.5931365,0.23976462,-0.8350528,66.9024,104.817955,11.748074,STU
29528008819000,2.669985,0.0124878156867306,-9.6900653682272,2.14936326290588,-1.724778,0.09468412,-0.8063421,66.87076,105.06504,11.941973,STU
29528013855000,2.675021,-0.0813310996138329,-9.8626484610951,1.94069432651297,-1.8383989,-0.12614368,-0.7816021,66.79385,105.31833,12.098871,STU
29528018895000,2.680061,-0.123060585723343,-10.094478778098,1.75059336974063,-1.9251418,-0.3933972,-0.7825184,66.66389,105.58197,12.240549,STU
29528023819000,2.684985,0.0155873956851816,-10.3905435069191,1.09384235643859,-1.956296,-0.68203104,-0.8005389,66.475914,105.86613,12.355355,STU
29528028814000,2.68998,0.341972820776475,-10.7628985323852,-0.0599990434749182,-1.9654589,-0.9294315,-0.84665924,66.22395,106.161575,12.461989,STU
29528033863000,2.695029,0.658227436115519,-11.0014145314715,-1.14009788296837,-1.9150625,-1.0772609,-0.9129381,65.92483,106.46659,12.559762,STU
29528038825000,2.699991,0.949792729419232,-11.0416307199831,-2.08014455742092,-1.8295414,-1.0916162,-0.95325524,65.5958,106.764206,12.652282,STU
29528043816000,2.704982,1.19739257448834,-11.0471270809139,-2.71860965502142,-1.7705929,-1.0238101,-1.0525209,65.28905,107.1677,12.769625,STU
29528049008000,2.710174,1.41038872778677,-11.018727508139,-3.08306981753451,-1.6575829,-0.8249735,-1.1508701,65.020004,107.54503,12.899935,STU
29528053825000,2.714991,1.54287237414945,-10.9714947129405,-3.120034515887,-1.5451837,-0.569021,-1.2513574,64.8254,108.03362,13.098996,STU
29528058820000,2.719986,1.59130915619684,-10.8939958414338,-2.74707143068044,-1.4498887,-0.34483343,-1.3451253,64.67868,108.509155,13.325195,STU
29528063852000,2.725018,1.62049865970135,-10.8202466044797,-2.28959530920518,-1.382388,-0.22907446,-1.4422529,64.59927,109.028824,13.611052,STU
29528068868000,2.730034,1.62503861138834,-10.7521473291749,-1.7311809198658,-1.3460416,-0.24648413,-1.5134187,64.541885,109.53219,13.907721,STU
29528073822000,2.734988,1.65617557559206,-10.6787515762215,-1.25735690510988,-1.3655893,-0.37843102,-1.5485435,64.45667,110.0324,14.2411585,STU
29528078827000,2.739993,1.74310143744399,-10.5918258745466,-0.940333296138255,-1.4135422,-0.591623,-1.5668694,64.33897,110.525505,14.568149,STU
29528083828000,2.744994,1.84182598789401,-10.4867308515071,-0.812860687923562,-1.4984524,-0.8081747,-1.5387696,64.14673,110.99904,14.903141,STU
29528088834000,2.75,1.95516282396572,-10.3592265226064,-0.91675284107565,-1.5922203,-0.9975429,-1.4764613,63.90542,111.46604,15.207908,STU
29528093830000,2.754996,2.03273540892786,-10.1932660230171,-1.14724821875249,-1.7189748,-1.1294898,-1.402852,63.60213,111.94061,15.508971,STU
29528098839000,2.760005,2.06141427971303,-9.97339458051016,-1.55353252100438,-1.8209893,-1.1826351,-1.3182472,63.278835,112.3999,15.7708435,STU
29528103845000,2.765011,2.03679474878845,-9.76221266215013,-1.96029215843141,-1.9022343,-1.1557571,-1.2241739,62.95957,112.88424,16.022425,STU
29528108842000,2.770008,1.93740189335377,-9.56342734665216,-2.36732966053803,-1.933083,-1.0647382,-1.1438452,62.65669,113.34977,16.245483,STU
29528113810000,2.774976,1.82098302050781,-9.38846951269531,-2.72480171570313,-1.9321668,-0.9288206,-1.0647382,62.413082,113.85622,16.462212,STU
29528118838000,2.780004,1.67520981074219,-9.24739826855469,-3.01164577679688,-1.9043725,-0.77518797,-1.0073168,62.212193,114.33624,16.661947,STU
29528123841000,2.785007,1.52655724805269,-9.12704222050401,-3.22073063487972,-1.8466456,-0.60139686,-0.9651671,62.070618,114.8472,16.856857,STU
29528128840000,2.790006,1.37118006319206,-9.04478395227186,-3.28470953184422,-1.7870862,-0.43127087,-0.9257663,61.98105,115.32651,17.040703,STU
29528133838000,2.795004,1.22198539340249,-8.97435792292292,-3.29146555034125,-1.7412714,-0.34330627,-0.89766645,61.904263,115.82957,17.215042,STU
29528138826000,2.799992,1.09157558817909,-8.93958172672673,-3.12627968509419,-1.7171422,-0.21197024,-0.8900307,61.891876,116.307755,17.39559,STU
29528143973000,2.805139,0.958807264415737,-8.90018420238794,-2.9537465464083,-1.6985108,-0.13439035,-0.8793405,61.86062,116.7849,17.55691,STU
29528148854000,2.81002,0.853588897357604,-8.82241446222353,-2.76618349288511,-1.6826283,-0.12675454,-0.8765916,61.84797,117.24596,17.71676,STU
29528154183000,2.815349,0.744741473365956,-8.74105420657113,-2.57134089671444,-1.6698002,-0.160963,-0.8717047,61.827,117.67382,17.858248,STU
29528158818000,2.819984,0.717590190947221,-8.71002392651171,-2.51315953674415,-1.6832392,-0.23976462,-0.86590147,61.797485,118.0932,17.98851,STU
29528163840000,2.825006,0.688171908248864,-8.67640276869975,-2.45012031565012,-1.6975945,-0.33078352,-0.8707884,61.708233,118.51998,18.121433,STU
29528168865000,2.830031,0.760850225605354,-8.63887210626648,-2.44657798359359,-1.7159204,-0.38637227,-0.8765916,61.60955,118.94025,18.24272,STU
29528173805000,2.834971,0.871184519501115,-8.60049518880552,-2.46576649241533,-1.7345519,-0.44776422,-0.8958339,61.484425,119.35779,18.352774,STU
29528178817000,2.839983,1.05928798362099,-8.5991360013768,-2.54073618402419,-1.740966,-0.50946164,-0.9083566,61.324326,119.778,18.456993,STU
29528183832000,2.844998,1.27419278964449,-8.61094395043517,-2.63519987512908,-1.7498235,-0.5412266,-0.93309665,61.15488,120.19928,18.560562,STU
29528188820000,2.849986,1.48794058076019,-8.62268832728524,-2.72915498803658,-1.7510452,-0.54702985,-0.947452,60.985825,120.61948,18.668856,STU
29528193832000,2.854998,1.70271682957172,-8.63448921276491,-2.82356217045287,-1.7421877,-0.539394,-0.9645562,60.812172,121.03447,18.77688,STU
29528198891000,2.860057,1.89814779586985,-8.60167932456936,-2.9204350562607,-1.7373008,-0.5207626,-0.97341377,60.606552,121.472885,18.894972,STU
29528203848000,2.865014,2.07986890915684,-8.54907580235721,-3.01607764233908,-1.7214183,-0.48502702,-0.97524637,60.410225,121.89856,19.013287,STU
29528208816000,2.869982,2.16554151856625,-8.42989913068868,-3.07533808797825,-1.7256943,-0.46700647,-0.9605856,60.222004,122.37526,19.184568,STU
29528213844000,2.87501,2.2091751627064,-8.27960486004833,-3.11897183336689,-1.7296649,-0.45448375,-0.95294976,60.04487,122.83719,19.354483,STU
29528218873000,2.880039,2.15430713108348,-8.13816077852773,-3.19237666333136,-1.733941,-0.4364632,-0.9245446,59.879555,123.32709,19.549253,STU
29528223843000,2.885009,2.06037236554174,-8.00195575593053,-3.27691781499901,-1.7327193,-0.44012842,-0.8958339,59.716785,123.80103,19.73199,STU
29528228819000,2.889985,1.92069939594234,-7.84585888836092,-3.33571981238655,-1.7540996,-0.45570546,-0.86834496,59.54128,124.30415,19.920519,STU
29528234661000,2.895827,1.73151871777896,-7.65169972205019,-3.39048271414843,-1.7482964,-0.4908302,-0.84604836,59.367188,124.78231,20.091087,STU
29528238822000,2.899988,1.60142099611865,-7.49823973045125,-3.40717842213106,-1.7592919,-0.5119051,-0.84329945,59.179806,125.28771,20.251686,STU
29528243813000,2.904979,1.45059152716945,-7.29713408684127,-3.4021507784159,-1.7525724,-0.56230146,-0.8231409,58.986137,125.767334,20.385519,STU
29528248855000,2.910021,1.34344429463754,-7.09491147765641,-3.40485437219464,-1.743104,-0.5885687,-0.8032878,58.773327,126.26505,20.501068,STU
29528253827000,2.914993,1.27724549678252,-6.89631488659384,-3.41431134331678,-1.7269161,-0.6203337,-0.7800749,58.554985,126.74353,20.596273,STU
29528258813000,2.919979,1.24984777041109,-6.6779611127786,-3.43350861123328,-1.7015651,-0.634689,-0.763887,58.32178,127.22758,20.675558,STU
29528263840000,2.925006,1.25938567503715,-6.43951324814264,-3.46212232511144,-1.675298,-0.6542367,-0.7461719,58.088737,127.69255,20.737791,STU
29528268985000,2.930151,1.30568782895097,-6.20527764379622,-3.5133135636264,-1.643533,-0.6597345,-0.7284568,57.84405,128.16727,20.793755,STU
29528273821000,2.934987,1.38179864516571,-5.99385861175021,-3.58096767154204,-1.6044376,-0.64934975,-0.7180721,57.606155,128.62204,20.8417,STU
29528278813000,2.939979,1.46937833241669,-5.77144346554513,-3.65777324645746,-1.5653422,-0.6420194,-0.6908886,57.38361,129.07898,20.886703,STU
29528283855000,2.945021,1.57872926974011,-5.53712014493691,-3.75150268344657,-1.5183055,-0.636827,-0.6750061,57.16947,129.51437,20.928242,STU
29528288825000,2.949991,1.67589290070896,-5.33639162798507,-3.8160878058209,-1.4657712,-0.6383542,-0.66798115,56.937733,130.00032,20.999243,STU
29528293817000,2.954983,1.76062623324627,-5.17138460708955,-3.84730531507463,-1.4202617,-0.6444628,-0.65118235,56.717415,130.46078,21.058252,STU
29528298847000,2.960013,1.83970539156977,-5.0085944032392,-3.90461288650332,-1.3771957,-0.627664,-0.63285637,56.503815,130.96364,21.155336,STU
29528304326000,2.965492,1.91052425385174,-4.83971867659884,-4.02990763917151,-1.3240504,-0.58001655,-0.59986967,56.30946,131.43353,21.241295,STU
29528308805000,2.969971,1.96594955151086,-4.71595743991915,-4.07108152609399,-1.2767084,-0.5510005,-0.5830709,56.108894,131.94482,21.363167,STU
29528313848000,2.975014,2.0245194988378,-4.59881739236988,-4.02227328762001,-1.2098186,-0.56596667,-0.56321776,55.92273,132.41608,21.467165,STU
29528318847000,2.980013,2.0767120681665,-4.48735280358867,-3.94397219566445,-1.1447614,-0.61178154,-0.55955255,55.727184,132.91624,21.584948,STU
29528323822000,2.984988,2.12010826044266,-4.38320220494581,-3.8224630204208,-1.104139,-0.6545421,-0.54641896,55.541203,133.38434,21.68333,STU
29528328797000,2.989963,2.15872754149155,-4.29604043790688,-3.72044537313556,-1.0555751,-0.6462954,-0.514654,55.34512,133.84973,21.79153,STU
29528333843000,2.995009,2.17863876225793,-4.276129113185,-3.69555634717759,-1.0207558,-0.6246097,-0.5045747,55.147915,134.29385,21.887293,STU
29528338801000,2.999967,2.19662484923077,-4.258143,-3.65156274769231,-0.96974856,-0.5891795,-0.4859433,54.938087,134.72395,21.9879,STU
29528343812000,3.004978,2.21029702723647,-4.24447101234568,-3.55130001380817,-0.9147707,-0.56688297,-0.4560109,54.742004,135.12662,22.077438,STU
29528348853000,3.010019,2.21864600611646,-4.23136236992405,-3.47473700127595,-0.8549059,-0.5549711,-0.43004912,54.538578,135.52618,22.17581,STU
29528353854000,3.01502,2.19924607627342,-4.22166220243038,-3.52323692716962,-0.79076505,-0.6001751,-0.4266894,54.335194,135.89667,22.25883,STU
29528358821000,3.019987,2.18773201780014,-4.20873096101383,-3.56341620356003,-0.74036866,-0.6337727,-0.41447207,54.126495,136.25836,22.3519,STU
29528363840000,3.025006,2.2109814901809,-4.18083149704943,-3.56806609803618,-0.68233645,-0.61758476,-0.4092797,53.92479,136.59076,22.440617,STU
29528368896000,3.030062,2.23264131019836,-4.15259805640152,-3.58709273538369,-0.6246097,-0.6133087,-0.410196,53.703762,136.91574,22.510302,STU
29528374102000,3.035268,2.24263065517932,-4.12262991715087,-3.70696497946303,-0.56046885,-0.62858033,-0.41416663,53.48903,137.21413,22.574286,STU
29528378826000,3.039992,2.24661822011788,-4.09101025196464,-3.81603304243615,-0.49541172,-0.5708536,-0.37812558,53.284824,137.50343,22.646814,STU
29528383854000,3.04502,2.21350770412574,-4.02478931876228,-3.93428488526523,-0.41722095,-0.5039638,-0.35643986,53.08186,137.76698,22.718407,STU
29528388836000,3.050002,2.1777269617153,-3.95756670403183,-4.04719744583554,-0.34391713,-0.453262,-0.33505958,52.892075,138.03194,22.7904,STU
29528393816000,3.054982,2.1102574285588,-3.87322980960212,-4.1146670670557,-0.26908615,-0.40011674,-0.31795537,52.726696,138.26613,22.868792,STU
29528398867000,3.060033,2.04182598037135,-3.78769052169761,-4.18309860456233,-0.1826487,-0.36163223,-0.28221974,52.56317,138.50397,22.938139,STU
29528403847000,3.065013,1.92229102849049,-3.72526540534197,-4.33063134309996,-0.108123146,-0.35094208,-0.26145032,52.410294,138.71771,23.008318,STU
29528408810000,3.069976,1.79245475072845,-3.66756043763658,-4.49412870138608,-0.03634648,-0.32406402,-0.23457226,52.282475,138.89743,23.077522,STU
29528413868000,3.075034,1.74312123709536,-3.6226052463692,-4.65961916841645,0.029626964,-0.312763,-0.21227567,52.143303,139.0823,23.12805,STU
29528418874000,3.08004,1.70956640888889,-3.58066171111111,-4.82319913111111,0.09040806,-0.29718593,-0.18600847,52.02134,139.24022,23.176016,STU
29528423818000,3.084984,1.70478819923678,-3.54803205053607,-4.97614232003453,0.16340645,-0.26175576,-0.1685988,51.902954,139.39679,23.19603,STU
29528428831000,3.089997,1.72223631786298,-3.521859781501,-5.12445155609668,0.226631,-0.2489276,-0.1386664,51.794846,139.53061,23.205336,STU
29528433852000,3.095018,1.75990423712386,-3.48618104474488,-5.27236435564762,0.25625798,-0.20891592,-0.13927728,51.70391,139.67885,23.215807,STU
29528438828000,3.099994,1.83264286477322,-3.43422492088966,-5.41784128543393,0.33322698,-0.16768251,-0.12736541,51.628304,139.78972,23.219305,STU
29528443796000,3.104962,1.9191507204102,-3.38912319346583,-5.48526337952627,0.41874814,-0.12003502,-0.11178834,51.542583,139.92351,23.222013,STU
29528448854000,3.11002,2.02025871284146,-3.3495592503131,-5.4808674776477,0.49663344,-0.077579886,-0.09285152,51.470776,140.034,23.227678,STU
29528453837000,3.115003,2.11069934268059,-3.30347597486682,-5.45497805731941,0.58551437,-0.022907447,-0.08460484,51.397854,140.15207,23.24715,STU
29528458820000,3.119986,2.18187947496271,-3.24246437982101,-5.38379792503729,0.66889745,0.035124753,-0.070249505,51.34295,140.24416,23.269104,STU
29528463843000,3.125009,2.20182001019643,-3.18823111019643,-5.27649254910177,0.7583892,0.09407325,-0.06414085,51.287483,140.32445,23.317408,STU
29528468894000,3.13006,2.15646037494818,-3.14287147494818,-5.12370229194551,0.84696466,0.1600467,-0.06872234,51.248127,140.38037,23.376112,STU
29528473808000,3.134974,2.11233104459579,-3.0987421445958,-4.97505621717501,0.9101892,0.226631,-0.0711658,51.209816,140.42328,23.45552,STU
29528478847000,3.140013,2.06707917328003,-3.05349027328003,-4.82262895409634,0.98746365,0.26908615,-0.070249505,51.18035,140.43884,23.5412,STU
29528483874000,3.14504,1.9910115408157,-2.99500800677706,-4.71921914309516,1.0800097,0.30604348,-0.060170226,51.153023,140.44116,23.635391,STU
29528488829000,3.149995,1.86974745050598,-2.91739897074517,-4.6901158242257,1.176221,0.35827246,-0.067500606,51.133976,140.42465,23.741991,STU
29528493817000,3.154983,1.77525025123874,-2.80716189545796,-4.84205748723724,1.2712106,0.41355577,-0.06627888,51.113415,140.37184,23.863651,STU
29528498859000,3.160025,1.71634245872748,-2.65309534299925,-5.23628643280781,1.3426818,0.49663344,-0.06261369,51.107937,140.30254,24.000034,STU
29528503796000,3.164962,1.72968110178425,-2.57357423641304,-5.75212469108901,1.3671165,0.5702427,-0.06841691,51.112484,140.22856,24.13196,STU
29528508818000,3.169984,1.91215695490156,-2.66234627445652,-6.5855956786813,1.2904528,0.6640105,-0.047647487,51.144245,140.15887,24.27603,STU
29528513838000,3.175004,2.338503738937,-3.44392975681258,-7.7577372556606,1.108415,0.7467828,-0.03970624,51.192165,140.16678,24.392315,STU
29528518890000,3.180056,3.21873617144673,-5.51189914936045,-9.56432775967268,0.8054258,0.80848014,-0.04337143,51.25549,140.2207,24.517809,STU
29528523860000,3.185026,4.08468137920076,-7.54630292627314,-11.3415951399063,0.4560109,0.84696466,-0.050701816,51.332027,140.39522,24.60401,STU
29528528813000,3.189979,5.51634597697188,-9.46667730404318,-11.4603812351103,0.10995574,0.84116143,-0.065973446,51.407814,140.6376,24.691713,STU
29528533861000,3.195027,7.08645245658555,-11.4029894403939,-11.258967899252,-0.0033597588,0.6786713,-0.2003638,51.427612,140.9194,24.775139,STU
29528538821000,3.199987,7.9636903427566,-12.5675357579668,-11.498391656696,-0.0036651916,0.29749137,-0.40958515,51.391006,141.21356,24.781832,STU
29528543812000,3.204978,8.59445350821114,-13.4599494882698,-11.9048834809384,0.18692477,0.12797627,-0.5867361,51.340843,141.48735,24.82074,STU
29528548855000,3.210021,8.29673568862774,-13.6405528388082,-11.5850374344406,0.46517387,0.28038713,-0.62125,51.222412,141.51685,25.080402,STU
29528553829000,3.214995,7.56063431692422,-13.4774643676321,-10.9238682428056,0.70371675,0.47311515,-0.453262,51.087105,141.50417,25.298286,STU
29528559342000,3.220508,6.52043403727688,-13.256777305521,-9.55498558447489,0.8454375,0.45662177,-0.122478485,50.964684,141.37975,25.51685,STU
29528563839000,3.225005,5.52823249667912,-13.0511856286841,-8.03092867009132,0.8756753,0.31795537,0.19792034,50.896893,141.20874,25.703604,STU
29528568872000,3.230038,4.76975964615855,-12.8321263192531,-6.4937491771656,0.7840455,0.18020524,0.42424592,50.922146,140.9447,25.777082,STU
29528573820000,3.234986,4.26210388290991,-12.6242295438221,-5.09648703652689,0.6010914,0.14935656,0.5335908,50.98518,140.67418,25.798946,STU
29528578815000,3.239981,3.7103098714808,-12.0389723129991,-4.67464727519484,0.42210788,0.0693332,0.548557,51.08831,140.2815,25.721813,STU
29528583863000,3.245029,3.12886425100548,-11.2202967752333,-4.84675527250072,0.38789943,-0.0720821,0.56169057,51.192997,139.88939,25.601854,STU
29528588817000,3.249983,2.47735444779278,-10.2929466857488,-5.21001164725862,0.4792238,-0.16432275,0.5671884,51.31737,139.41838,25.49156,STU
29528593928000,3.255094,1.73737673856077,-9.23231167728281,-5.7477287688974,0.6646214,-0.25411993,0.58062744,51.41454,138.93541,25.346256,STU
29528598856000,3.260022,1.31089023488267,-8.3576823601083,-6.00083742626354,0.8793405,-0.30207285,0.593761,51.503166,138.49211,25.130243,STU
29528603827000,3.264993,1.09176373193592,-7.584294808213,-6.06098971165162,1.0418307,-0.27122417,0.6075055,51.58976,138.01967,24.909714,STU
29528608814000,3.26998,1.11508130366171,-6.87975979889335,-6.15428941166323,1.1426234,-0.12675454,0.6218608,51.684525,137.61838,24.613405,STU
29528613836000,3.275002,1.60035952836606,-6.30577483942715,-6.3108308236845,1.1691961,0.11728613,0.6377433,51.80943,137.19934,24.341362,STU
29528618885000,3.280051,2.15064046525424,-5.99457137128498,-6.16842980949941,1.1530081,0.3857614,0.6365216,51.95511,136.84814,24.094336,STU
29528623835000,3.285001,2.74857739322034,-5.93851496263303,-5.74800535443437,1.1527027,0.51893,0.6010914,52.118576,136.49634,23.873667,STU
29528629397000,3.290563,3.17681791298273,-6.015654715098,-5.06590769532311,1.1566733,0.79320854,0.5467244,52.31357,136.26907,23.820292,STU
29528633877000,3.295043,3.34750182681933,-6.17801246242965,-4.3665202286047,1.1866057,0.8347474,0.5155703,52.478218,136.04425,23.751709,STU
29528638835000,3.300001,3.33132155282342,-6.37258633518414,-3.74966619943343,1.1795808,0.8173377,0.45814893,52.631767,135.87471,23.867329,STU
29528643816000,3.304982,3.02952365648725,-6.5887996923796,-3.34877048498584,1.1786644,0.6826419,0.42546764,52.759933,135.7027,23.967102,STU
29528648850000,3.310016,2.74855454877765,-6.90202164493597,-3.17882772820404,1.1551461,0.47036624,0.41538838,52.89317,135.43459,24.095367,STU
29528653829000,3.314995,2.52651549313155,-7.43188810011642,-3.55730370739761,1.1169671,0.26358834,0.42241332,52.98624,135.18002,24.201328,STU
29528658810000,3.319976,2.39612039894559,-8.03926411986472,-3.9190592453397,1.1166617,0.1459968,0.4343252,53.107986,134.81097,24.230095,STU
29528663844000,3.32501,2.4009159436785,-8.7681871195663,-4.25954322182433,1.1591167,0.09101892,0.44165558,53.191536,134.44743,24.232449,STU
29528668840000,3.330006,2.44393205962477,-9.48986081994831,-4.48469385761463,1.2272283,0.0888809,0.44104472,53.284115,134.04764,24.15236,STU
29528673819000,3.334985,2.54434595991194,-10.2064512536613,-4.53946500229731,1.2815952,0.11178834,0.44409904,53.36798,133.6463,24.06555,STU
29528678812000,3.339978,2.64212245009524,-10.8589679699048,-4.51549159009524,1.3368785,0.16035213,0.4352415,53.469707,133.19884,23.943468,STU
29528683882000,3.345048,2.73460697580952,-11.3676333441905,-4.30740116580952,1.3671165,0.19333886,0.42180246,53.568993,132.75314,23.82417,STU
29528688856000,3.350022,2.8159860274664,-11.7869368646345,-4.12928900950508,1.3793337,0.17806722,0.40378192,53.68156,132.24863,23.693813,STU
29528693811000,3.354977,2.86264589500983,-11.9113628262045,-4.04763439355949,1.4010195,0.15668693,0.39767328,53.79604,131.74539,23.568857,STU
29528699137000,3.360303,2.9127993671665,-12.0451050403966,-3.95986598094068,1.4361442,0.106901415,0.39003745,53.91131,131.18475,23.445667,STU
29528703830000,3.364996,2.85662046040713,-11.9274474863154,-3.91706417676049,1.4395039,0.04795292,0.36651915,54.010307,130.64189,23.322477,STU
29528708801000,3.369967,2.77315757860134,-11.7466114441414,-3.87996958414337,1.428203,0.01740966,0.34422258,54.09817,130.10713,23.197662,STU
29528713841000,3.375007,2.64066314632283,-11.3467562689589,-3.82653162403056,1.4052955,0.005192355,0.33169982,54.175076,129.56793,23.076805,STU
29528718911000,3.380077,2.48762638271251,-10.8551836930277,-3.76624433635148,1.3811663,0.035124753,0.32406402,54.247803,129.04634,22.962385,STU
29528723837000,3.385003,2.1851539389002,-10.0954814830587,-3.71704752664321,1.3466524,0.05375614,0.32253686,54.307777,128.551,22.842726,STU
29528728818000,3.389984,1.78771021008147,-9.15928081438623,-3.67288714819478,1.3316863,0.118507855,0.32803464,54.383705,128.06729,22.735584,STU
29528733866000,3.395032,1.5035658763777,-8.51858388838758,-3.65833917123214,1.2996159,0.1695151,0.3381139,54.45951,127.62276,22.626436,STU
29528738826000,3.399992,1.36069054282952,-8.24303827876249,-3.67874992555591,1.2834278,0.22357668,0.3652974,54.552673,127.18359,22.52317,STU
29528743812000,3.404978,1.2887935806464,-8.08429143709119,-3.62154002693344,1.2788464,0.26542094,0.38148534,54.64079,126.80527,22.40681,STU
29528748857000,3.410023,1.26555625047134,-8.00528448537899,-3.5100009779723,1.29198,0.312763,0.40561453,54.746647,126.42759,22.29197,STU
29528753823000,3.414989,1.29252056352459,-7.97043364375,-3.34081991282787,1.3072516,0.38362336,0.44318274,54.868645,126.064865,22.170534,STU
29528758819000,3.419985,1.36605390286885,-7.97533596875,-3.11531746741803,1.3298537,0.4541783,0.4700608,55.001522,125.70244,22.053915,STU
29528763842000,3.425008,1.45697907124324,-8.01487605405405,-2.94190175243243,1.359786,0.52442783,0.50335294,55.159664,125.325424,21.940052,STU
29528768988000,3.430154,1.5635353081769,-8.0826844029484,-2.80628480176904,1.3674219,0.593761,0.5421429,55.33701,124.94995,21.828602,STU
29528773900000,3.435066,1.69382411120112,-8.16978642681564,-2.69273855153631,1.368949,0.6365216,0.5665775,55.533363,124.549515,21.73294,STU
29528778818000,3.439984,1.84731164000931,-8.27503529013035,-2.59187536280261,1.3811663,0.6780604,0.59956425,55.74963,124.1448,21.634825,STU
29528783857000,3.445023,2.02530847476877,-8.41523227061164,-2.47474784025858,1.3866642,0.7134906,0.6243043,55.980072,123.73461,21.557095,STU
29528788826000,3.449992,2.2335466878369,-8.60453955733466,-2.33749995854799,1.4001031,0.7461719,0.64904433,56.219574,123.32309,21.475967,STU
29528793815000,3.454981,2.45106693257813,-8.81184969758268,-2.18456968314959,1.4172074,0.7861836,0.657291,56.471836,122.90939,21.424122,STU
29528798861000,3.460027,2.68567587195307,-9.05134611692121,-2.00372521795287,1.41904,0.79717916,0.66248333,56.721195,122.502045,21.366737,STU
29528803833000,3.464999,2.90971388579758,-9.29008849895877,-1.81361820866306,1.4217888,0.8194757,0.66156703,56.98118,122.09177,21.345917,STU
29528808816000,3.469982,3.12337614691795,-9.53356439566847,-1.60492478303832,1.416902,0.8167268,0.6585127,57.230167,121.6933,21.321487,STU
29528813844000,3.47501,3.31666870600583,-9.74049190204082,-1.41205962874636,1.4220943,0.7987063,0.6462954,57.478573,121.29033,21.33191,STU
29528818859000,3.480025,3.48469567179786,-9.90385126258503,-1.23936535012634,1.4147639,0.77763146,0.625526,57.716385,120.905426,21.342735,STU
29528823804000,3.48497,3.62221313810179,-10.0251775184712,-1.07023308837984,1.4043792,0.7141015,0.61758476,57.945084,120.504585,21.368196,STU
29528828818000,3.489984,3.72128757111417,-10.0912270419532,-0.900391089910592,1.4056009,0.6426302,0.6041457,58.154438,120.12174,21.394854,STU
29528833869000,3.495035,3.79233402263649,-10.1151693503022,-0.764489710764109,1.389413,0.5714644,0.57879484,58.341846,119.74861,21.442516,STU
29528838829000,3.499995,3.81666113848202,-10.0713808262829,-0.686643178837448,1.3784174,0.4914411,0.5571091,58.49765,119.39033,21.481825,STU
29528843814000,3.50498,3.79177189538166,-9.99348645568891,-0.645541106730677,1.3683381,0.4092797,0.5308419,58.635483,119.03641,21.53374,STU
29528848921000,3.510087,3.69785203235718,-9.86669506721075,-0.654933132261162,1.3445144,0.34788775,0.5164866,58.74833,118.703354,21.580072,STU
29528853798000,3.514964,3.57589148356513,-9.73369607502449,-0.681370602927522,1.3271047,0.30024028,0.49510628,58.83499,118.38721,21.632917,STU
29528858816000,3.519982,3.38761946562194,-9.57366463369246,-0.742558979270323,1.320996,0.26053402,0.47494772,58.89892,118.08951,21.682606,STU
29528863846000,3.525012,3.20391247132413,-9.42273362916328,-0.812585453367181,1.3203852,0.24831672,0.45753807,58.95694,117.80046,21.719385,STU
29528868880000,3.530046,3.03159542073111,-9.29349559585703,-0.902660328429732,1.3200798,0.23671028,0.45814893,58.998215,117.52488,21.752466,STU
29528873837000,3.535003,2.86191412955321,-9.16623438586515,-0.991357419348497,1.31672,0.23762658,0.453262,59.036556,117.25589,21.764439,STU
29528878814000,3.53998,2.65311928378509,-9.06083870579724,-1.06739131220218,1.3151928,0.23854288,0.45478916,59.067608,116.99586,21.773792,STU
29528885256000,3.546422,2.37487584269079,-8.93230758107978,-1.16450042294293,1.3087788,0.2489276,0.46486846,59.097717,116.746826,21.78324,STU
29528888822000,3.549988,2.24012586220768,-8.89286846530652,-1.2433784485805,1.3048081,0.25167647,0.47555858,59.122597,116.49539,21.758877,STU
29528893817000,3.554983,2.0513776422096,-8.83762494783948,-1.35386519509191,1.2901474,0.269697,0.4868596,59.161957,116.22646,21.693544,STU
29528898850000,3.560016,1.87391584045711,-8.81040081557336,-1.42143140467003,1.2794572,0.28863382,0.5002986,59.19965,115.963585,21.62721,STU
29528903852000,3.565018,1.70329003357079,-8.79618220866726,-1.46882742089641,1.273654,0.310625,0.50640726,59.240204,115.71017,21.563549,STU
29528908821000,3.569987,1.54463774192326,-8.78849208621506,-1.5206072408811,1.2568552,0.34330627,0.528093,59.29818,115.43724,21.456589,STU
29528913838000,3.575004,1.38986825901468,-8.78393994893415,-1.57523179501658,1.2409728,0.38637227,0.537256,59.36166,115.174995,21.35654,STU
29528918994000,3.58016,1.25019649802792,-8.77773181811634,-1.63012795584422,1.2330315,0.4120286,0.5653558,59.438244,114.88602,21.214714,STU
29528923827000,3.584993,1.13293852139486,-8.77083427172023,-1.68070983470766,1.2140946,0.4266894,0.58032197,59.52034,114.60994,21.079334,STU
29528928812000,3.589978,1.01199272923352,-8.76371979442154,-1.73288253616313,1.2134838,0.46700647,0.60994893,59.632618,114.296974,20.900192,STU
29528933850000,3.595016,0.889761054026129,-8.75652967674234,-1.78560993233818,1.1936307,0.5204572,0.63591075,59.749992,113.99485,20.72353,STU
29528938820000,3.599986,0.811464055684505,-8.73962767751988,-1.76929500421234,1.1859949,0.5766568,0.6737844,59.882465,113.6836,20.5379,STU
29528943817000,3.604983,0.770324720148291,-8.71391562637008,-1.69215879706641,1.1905763,0.62796944,0.7107417,60.026684,113.375496,20.352177,STU
29528948854000,3.61002,0.747547410250909,-8.68427018864845,-1.54910057046917,1.1884383,0.67347896,0.7644979,60.202606,113.02423,20.106615,STU
29528954484000,3.61565,0.732459997509561,-8.64906627809906,-1.35296409980412,1.1780536,0.6954701,0.8200866,60.384396,112.67227,19.856546,STU
29528958815000,3.619981,0.730319856530389,-8.61841965144733,-1.18115385244206,1.1768318,0.6966918,0.88514376,60.583797,112.29366,19.585203,STU
29528963840000,3.625006,0.735106827583806,-8.58012408296031,-0.965739955097981,1.169807,0.7101309,0.95722586,60.791664,111.91048,19.303268,STU
29528968892000,3.630058,0.767395656492411,-8.56666276520187,-0.814441817438746,1.1490375,0.7290677,1.0387764,61.01414,111.49692,19.003012,STU
29528973819000,3.634985,0.823562625632378,-8.57602362533479,-0.725510811477036,1.1301007,0.7473936,1.1032226,61.237312,111.079865,18.693396,STU
29528978838000,3.640004,0.892300402666273,-8.6137309564148,-0.632936112450807,1.1169671,0.7458665,1.1551461,61.473133,110.63558,18.37148,STU
29528983876000,3.645042,0.972998466086186,-8.68018804515938,-0.537997198273318,1.0894781,0.7483099,1.1902709,61.71119,110.19391,18.042965,STU
29528988821000,3.649987,1.18030706124402,-8.83112161244019,-0.317134356866029,1.0708468,0.7104363,1.1972959,61.9347,109.75428,17.719416,STU
29528993813000,3.654979,1.53661928325359,-9.08185983253589,0.0523745901196172,1.0418307,0.627664,1.1905763,62.13984,109.32476,17.394325,STU
29528998844000,3.66001,1.84188949414338,-9.29378924023896,0.338546349207382,1.0302242,0.52534413,1.1624765,62.32091,108.913795,17.091623,STU
29529003885000,3.665051,2.01699164599957,-9.40709074333262,0.415797286535097,1.0161743,0.40530908,1.1233811,62.465622,108.521736,16.796244,STU
29529008820000,3.669986,2.15136189770449,-9.45925147871592,0.430032321432718,1.0021244,0.26633725,1.0772609,62.57161,108.17275,16.578972,STU
29529013874000,3.67504,2.23650019485488,-9.42945332585752,0.357664682176781,1.0030408,0.21380283,1.033584,62.66031,107.84494,16.376116,STU
29529018937000,3.680103,2.31268722517413,-9.38987452995025,0.282850282840862,1.0027353,0.10323623,0.979217,62.67802,107.56755,16.218039,STU
29529024288000,3.685454,2.34328163422886,-9.29469168736318,0.191067306632371,1.0012082,-0.00030543262,0.926988,62.676517,107.31177,16.074608,STU
29529028875000,3.690041,2.36950786378109,-9.21309877034826,0.11238883310063,1.0015136,-0.032986723,0.9114109,62.6485,107.10344,15.9656515,STU
29529033839000,3.695005,2.39269887153285,-9.12374859610705,0.0398101566703163,1.0146471,-0.07422013,0.87872964,62.583004,106.92053,15.875862,STU
29529038955000,3.700121,2.38077796914842,-9.02440774290349,0.0517310685979724,1.0424415,-0.10629055,0.8561276,62.50878,106.745514,15.789924,STU
29529043901000,3.705067,2.36925318744526,-8.92836789537713,0.0632558595272506,1.0616838,-0.13988814,0.82924956,62.424057,106.60292,15.726076,STU
29529048885000,3.710051,2.41233404540293,-8.88513733253258,0.177164995147412,1.0720685,-0.1872302,0.8017606,62.324196,106.47114,15.669617,STU
29529053872000,3.715038,2.48186811640096,-8.86775380570721,0.340570252585717,1.0833695,-0.23182335,0.7648033,62.213623,106.35361,15.624605,STU
29529058852000,3.720018,2.55130458593579,-8.85039467926039,0.503746146317973,1.087951,-0.28893927,0.72082096,62.09255,106.24836,15.589722,STU
29529063900000,3.725066,2.61718586404141,-8.86616299085676,0.469864408507571,1.0839803,-0.3472769,0.68966687,61.957066,106.155365,15.5622015,STU
29529068874000,3.73004,2.68171015322916,-8.88459862580427,0.419166780561173,1.0818423,-0.4147775,0.65087694,61.80097,106.08152,15.549245,STU
29529073865000,3.735031,2.7464549717527,-8.90309726955638,0.368295879660394,1.0629056,-0.47555858,0.62980205,61.637638,106.013954,15.550102,STU
29529078812000,3.739978,2.81062900846597,-8.92143283169658,0.317873449935659,1.0512991,-0.50946164,0.5888741,61.467796,105.96216,15.562686,STU
29529083841000,3.745007,2.78327074488862,-8.97508686664632,0.192219986488251,1.0436633,-0.5342017,0.55863625,61.282787,105.92059,15.578224,STU
29529088815000,3.749981,2.72997138266707,-9.03807670003052,0.0468582612676228,1.0506883,-0.5149594,0.52839845,61.100735,105.89614,15.606263,STU
29529093830000,3.754996,2.63505780614243,-9.09245965727003,-0.0501915615794263,1.039998,-0.48991394,0.51159966,60.91201,105.91794,15.670953,STU
29529098818000,3.759984,2.53110921824926,-9.14443402522255,-0.135240427030663,1.0332786,-0.46486846,0.4914411,60.729713,105.95043,15.743159,STU
29529103760000,3.764926,2.36942087704635,-9.1969602199006,-0.21741653498935,1.0177015,-0.4382958,0.46822822,60.561516,105.971245,15.795756,STU
29529108789000,3.769955,2.18867390379349,-9.25069589339689,-0.300462474292525,0.9957104,-0.419359,0.46853364,60.39982,105.99275,15.845671,STU
29529113777000,3.774943,1.96383550162251,-9.2925965712672,-0.459244185475457,0.98532563,-0.40622538,0.47036624,60.25772,105.98247,15.860359,STU
29529118745000,3.779911,1.72931876077223,-9.33168296683097,-0.635131730909838,0.9669997,-0.35277468,0.47250426,60.134197,105.97555,15.87537,STU
29529123745000,3.784911,1.48993922949489,-9.40714002164762,-0.783893029449789,0.9297369,-0.28130344,0.4642576,60.024284,105.918396,15.835767,STU
29529128731000,3.789897,1.2506630483163,-9.48849407215875,-0.927458723165965,0.88361657,-0.21197024,0.4550946,59.93051,105.86593,15.798619,STU
29529133772000,3.794938,1.12141311612749,-9.54366159967554,-1.01133144612558,0.86101454,-0.108123146,0.44990227,59.877728,105.75929,15.703456,STU
29529138732000,3.799898,1.01262188948373,-9.59352382317015,-1.08385893844355,0.83260936,-0.005192355,0.43188173,59.84571,105.66496,15.61872,STU
29529143741000,3.804907,0.934857193940921,-9.63867907964513,-1.14183944871459,0.8151997,0.11789699,0.42394048,59.860947,105.52474,15.48549,STU
29529148782000,3.809948,0.866717906986591,-9.68248328087509,-1.19537747078335,0.7901542,0.24007004,0.40561453,59.905922,105.39811,15.365044,STU
29529153764000,3.81493,0.863600255839087,-9.66544511287901,-1.16537465604923,0.7870999,0.36010507,0.37843102,59.995506,105.240875,15.213674,STU
29529158771000,3.819937,0.877995643890724,-9.63185567367157,-1.1125915164215,0.7788532,0.4370741,0.37110063,60.107002,105.08874,15.066573,STU
29529163797000,3.824963,0.932284232757456,-9.6210324954155,-1.0208473265013,0.79473567,0.5002986,0.34605515,60.25438,104.93245,14.915144,STU
29529168833000,3.829999,0.997451997529196,-9.61637756133578,-0.918440847335199,0.79809546,0.539394,0.32650748,60.414867,104.78178,14.76853,STU
29529173766000,3.834932,1.07370757311611,-9.56343811661455,-0.852747379808332,0.80664754,0.54275376,0.31429017,60.578957,104.64452,14.63533,STU
29529178770000,3.839936,1.15589058766267,-9.49092378109553,-0.799570154996469,0.80573124,0.55741453,0.29443705,60.7547,104.51918,14.5132675,STU
29529183814000,3.84498,1.27935502862076,-9.37005401578532,-0.799285434225533,0.79259765,0.5354234,0.29138273,60.913223,104.409424,14.406341,STU
29529188790000,3.849956,1.41569787045185,-9.23371083030781,-0.818091331763023,0.79534656,0.5381723,0.29229903,61.07996,104.307556,14.306435,STU
29529193763000,3.854929,1.55306800655297,-9.1241673329199,-0.903607114311111,0.7706065,0.57543504,0.31490102,61.253963,104.19247,14.192399,STU
29529198813000,3.859979,1.69303291921447,-9.0241924698708,-1.01857833208889,0.7480045,0.6221663,0.3417791,61.427864,75.920105,14.079623,STU
29529203880000,3.865046,1.83273859294834,-9.00860480003382,-1.08871869711677,0.72204274,0.6365216,0.3753767,61.5917,76.007614,13.990906,STU
29529209463000,3.870629,1.98644523420986,-9.01764655043544,-1.15200967537837,0.67103547,0.6563747,0.40591997,61.76698,76.099396,13.897261,STU
29529213847000,3.875013,2.13671949537219,-9.08161867274045,-1.2340577125893,0.61453044,0.6575964,0.4166101,61.940582,76.187355,13.807202,STU
29529218937000,3.880103,2.34868034338958,-9.22797237705767,-1.37031820881044,0.5897904,0.66737026,0.4474588,62.118797,76.28765,13.704541,STU
29529223865000,3.885031,2.52848884964056,-9.38688071926057,-1.4453011490057,0.52870387,0.66767573,0.46670106,62.293686,76.383644,13.60674,STU
29529228817000,3.889983,2.68345588973018,-9.56398626458781,-1.46301165730557,0.44257188,0.636827,0.47219884,62.45903,76.48294,13.506225,STU
29529233841000,3.895007,2.81696749673048,-9.76718748289955,-1.40750834712841,0.38148534,0.5992588,0.46700647,62.62197,76.5794,13.409373,STU
29529238830000,3.899996,2.90432371701441,-10.0138398225425,-1.21224163435147,0.28405234,0.54061574,0.45112398,62.767605,76.67378,13.316206,STU
29529243919000,3.905085,2.9407129064251,-10.1910280915204,-1.04159669376167,0.19150625,0.44776422,0.4297437,62.893967,76.761444,13.230098,STU
29529248850000,3.910016,2.92307256245798,-10.2880506280351,-0.904883917497198,0.1386664,0.33444872,0.410196,62.996033,76.84372,13.149955,STU
29529253837000,3.915003,2.86245427696737,-10.3420512840691,-0.780849795412668,0.1255328,0.2275473,0.40011674,63.072998,76.922554,13.072381,STU
29529258821000,3.919987,2.71994387065472,-10.311512724888,-0.684146308451695,0.14477506,0.1133155,0.41386122,63.114426,77.000854,12.995521,STU
29529263847000,3.925013,2.57444609762682,-10.2218787473549,-0.612108796828834,0.17928895,0.032986723,0.42058071,63.129906,77.06937,12.92785,STU
29529268907000,3.930073,2.42590290035598,-10.0637521212301,-0.568983351975675,0.21685717,-0.01282817,0.43401974,63.12301,77.14156,12.856333,STU
29529273844000,3.93501,2.31590408521971,-9.89387423834887,-0.509381563435419,0.23945917,-0.0421497,0.4370741,63.116764,77.23738,12.760591,STU
29529279424000,3.94059,2.2396648540993,-9.68040474148754,-0.417894539163021,0.25900686,-0.046120327,0.4266894,63.105255,77.329605,12.668279,STU
29529283852000,3.945018,2.23917808926952,-9.46892911989925,-0.255659727848867,0.25411993,-0.041233405,0.40866885,63.0907,77.4273,12.57048,STU
29529288831000,3.949997,2.34487325442821,-9.15664774488665,0.0854473130700252,0.2678644,-0.032375857,0.3866777,63.076874,77.517166,12.4803,STU
29529293795000,3.954961,2.43821874672766,-8.99937884231164,0.379494041775745,0.27855456,-0.0015271631,0.35735616,63.083885,77.60945,12.38704,STU
29529298843000,3.960009,2.51043403687798,-9.1302691322939,0.591626865437401,0.27672195,0.025350908,0.33200526,63.092228,77.69305,12.302318,STU
29529303800000,3.964966,2.57820642283515,-9.30917158114176,0.832641589929442,0.27580565,0.06352998,0.31520647,63.095604,77.74764,12.243928,STU
29529308839000,3.970005,2.63495583045756,-9.68578107568954,1.20409152341244,0.27855456,0.087964594,0.30634892,63.101547,77.79391,12.192802,STU
29529313982000,3.975148,2.65642753529719,-10.0520613018014,1.53290671089548,0.2828306,0.115453534,0.29443705,63.11174,77.82203,12.156186,STU
29529318948000,3.980114,2.6150400243756,-10.3748841462884,1.76467690170568,0.2837469,0.13988814,0.28985557,63.126163,77.84621,12.121643,STU
29529324009000,3.985175,2.56049920821745,-10.6909252096081,1.99582348343869,0.27916542,0.15851954,0.28069258,63.129963,77.84713,12.104046,STU
29529328854000,3.99002,2.36887833527181,-10.8473503120101,2.16007000429836,0.26908615,0.18081611,0.26358834,63.139767,77.840675,12.090951,STU
29529333847000,3.995013,2.1714040280236,-11.0085537250737,2.32933375634218,0.23060162,0.2049453,0.21410827,63.146008,77.820015,12.086203,STU
29529338852000,4.000018,1.90720126200159,-11.067653609051,2.49413581800239,0.1731803,0.21502456,0.16829337,63.153,77.79309,12.085826,STU
29529343858000,4.005024,1.61091203022329,-11.0772110171451,2.65661689533493,0.09407325,0.19364429,0.122783914,63.156544,77.752365,12.099714,STU
29529349412000,4.010578,1.22401589766263,-11.0993860086532,2.72545310692253,0.018020526,0.172264,0.07269296,63.17582,77.73026,12.089572,STU
29529353850000,4.015016,0.895181363738165,-11.1210198467881,2.74276017743052,-0.0729984,0.14782938,0.03390302,63.187458,77.70156,12.089326,STU
29529358881000,4.020047,0.494913092206532,-11.2388723118323,2.72780172378675,-0.15424347,0.11728613,0.0061086523,63.193947,77.68995,12.071536,STU
29529363919000,4.025085,0.0825793768955133,-11.3959524259843,2.69834933693153,-0.23365596,0.103847094,-0.016798794,63.198845,77.673546,12.062927,STU
29529369003000,4.030169,-0.325722011187067,-11.6563233637413,2.72063140230947,-0.2874121,0.08307768,-0.038789943,63.207676,77.69309,12.022576,STU
29529373904000,4.03507,-0.716894027488503,-11.9390978749874,2.75833465407169,-0.3313944,0.04184427,-0.05955936,63.207302,77.710945,11.988422,STU
29529378850000,4.040016,-1.08035700586098,-12.2722296094273,2.71306559907257,-0.36346483,-0.030543262,-0.06536258,63.208797,77.78169,11.907576,STU
29529383904000,4.04507,-1.44131811215795,-12.6285631865379,2.63902239706473,-0.3680463,-0.099571034,-0.06291912,63.1997,77.84981,11.830784,STU
29529388856000,4.050022,-1.69876756104801,-13.016237205116,2.51265446000764,-0.40408736,-0.17623462,-0.049480084,63.18158,77.973595,11.704399,STU
29529393843000,4.055009,-1.90845913017085,-13.4265035152238,2.35766495450033,-0.40408736,-0.22388211,-0.028710667,63.151814,78.097015,11.576413,STU
29529398855000,4.060021,-2.02703210736397,-13.9030721205494,2.15296625025885,-0.40439278,-0.2321288,0.015577064,63.127567,78.28882,11.38723,STU
29529403863000,4.065029,-2.07263660088748,-14.4300560503962,1.90974274335975,-0.398895,-0.183565,0.06719518,63.105236,78.485306,11.191982,STU
29529408857000,4.070023,-2.15526749285211,-14.9583249979865,1.66839969825833,-0.3933972,-0.1572978,0.09193522,63.086555,78.72851,10.9572525,STU
29529413874000,4.07504,-2.25684631253398,-15.4904052993053,1.42654509389912,-0.3830125,-0.01740966,0.118507855,63.11332,78.98089,10.7093115,STU
29529419113000,4.080279,-2.40584788287005,-15.7613063874865,1.24022051482173,-0.3494149,0.20311269,0.11636983,63.18139,79.25349,10.446099,STU
29529423923000,4.085089,-2.55968265312838,-15.8970427827325,1.09543493206954,-0.30268374,0.4801401,0.12339478,63.30437,79.52746,10.176496,STU
29529428852000,4.090018,-2.73073483408834,-15.785516599094,1.06421863284258,-0.25503623,0.7480045,0.12950343,63.49713,79.82553,9.886676,STU
29529433895000,4.095061,-2.91305203912797,-15.5348305730464,1.09612412706682,-0.22174409,0.9828822,0.1386664,63.757362,80.11601,9.598875,STU
29529438853000,4.100019,-3.0659996288052,-15.2185477257946,1.15040526286583,-0.20097467,1.1328496,0.12217305,64.07332,80.419266,9.299318,STU
29529443864000,4.10503,-3.19688428902759,-14.8359618444351,1.22591566600231,-0.19700404,1.2061534,0.09437868,64.43057,80.71275,9.006582,STU
29529448899000,4.110065,-3.24359228262192,-14.4640475313512,1.28106778715533,-0.2144137,1.1976013,0.040317107,64.80655,81.00038,8.718058,STU
29529453868000,4.115034,-3.23892275861054,-14.1044934998528,1.32309355201649,-0.25595254,1.1435398,-0.0033597588,65.185974,81.27832,8.440681,STU
29529458852000,4.120018,-3.19163857581467,-13.777451128809,1.27143690733442,-0.321926,1.0537425,-0.03726278,65.54794,81.54725,8.173351,STU
29529463887000,4.125053,-3.11284147920792,-13.4715333762376,1.1509236039604,-0.39278635,0.9779953,-0.06078109,65.894585,81.80569,7.920846,STU
29529468965000,4.130131,-3.01597392367728,-13.1695620839246,0.952627296736266,-0.4914411,0.89766645,-0.07086037,66.21256,82.050766,7.6873226,STU
29529473941000,4.135107,-2.90488066359213,-12.879753206568,0.686969419744577,-0.60139686,0.8347474,-0.07452556,66.51053,82.293236,7.4630265,STU
29529478852000,4.140018,-2.77726929257294,-12.6404519909618,0.443923896976913,-0.71959925,0.77213365,-0.07819075,66.78203,82.528046,7.2576413,STU
