timestamp,rel_time,acc_x,acc_y,acc_z,gyro_x,gyro_y,gyro_z,azimuth,pitch,roll,label
6457261967000,0,-1.56628510879271,9.65403689640146,-1.55362889752635,-0.009162978,0.003970624,0.002443461,108.544426,-100.0561,-7.3696647,STD
6457266936000,0.004969,-1.567949753218,9.65379908544343,-1.55648256942716,-0.013133603,0.0143553335,-0.002443461,108.57819,-100.13156,-7.4319406,STD
6457271970000,0.010003,-1.5696361730282,9.65355816365581,-1.55937357050358,-0.011911872,0.0125227375,0.0015271631,108.61238,-100.20482,-7.4894543,STD
6457276995000,0.015028,-1.57044137112763,9.65285292980476,-1.56489273798671,-0.015271631,0.021380283,0.0018325958,108.63928,-100.276024,-7.5468597,STD
6457282034000,0.020067,-1.57007977474605,9.65152708185948,-1.57393268528408,-0.0076358155,0.029626964,0.0018325958,108.653737809428,-100.310393702132,-7.57448129800821,STD
6457286986000,0.025019,-1.56972442144547,9.65022412511708,-1.58281655490435,-0.020158553,0.02321288,0.002443461,108.667946,-100.34417,-7.601626,STD
6457291980000,0.030013,-1.56936605424371,9.64891011744915,-1.59177577236874,-0.016187929,0.01985312,-0.004581489,108.667076,-100.43386,-7.692964,STD
6457296996000,0.035029,-1.56900610833181,9.64759032120119,-1.60077445775147,-0.01038471,0.01282817,-0.007330383,108.66732,-100.52059,-7.7816176,STD
6457302192000,0.040225,-1.56863324570059,9.64622316384385,-1.61009606246612,-0.011301007,0.013133603,-0.00030543262,108.6669,-100.604805,-7.867925,STD
6457306976000,0.045009,-1.56828994800472,9.64496441080353,-1.61867854070994,-0.0027488936,0.0015271631,-0.0033597588,108.67178,-100.69321,-7.9570794,STD
6457311958000,0.049991,-1.56793244191758,9.6436535605429,-1.62761623021887,-0.0021380284,-0.008857546,-0.0009162979,108.67698,-100.7758,-8.041177,STD
6457316981000,0.055014,-1.56757199368882,9.64233192247402,-1.63662747357563,-0.0009162979,-0.007941248,0.0018325958,108.68241,-100.85922,-8.124581,STD
6457322010000,0.060043,-1.56721111490275,9.64100870570149,-1.64564948091011,-0.0030543262,-0.01160644,-0.00061086525,108.692245,-100.94119,-8.207807,STD
6457327022000,0.065055,-1.56685145602906,9.63968996192263,-1.65464099030769,0.007941248,-0.013439035,0.003970624,108.70178,-101.02225,-8.286674,STD
6457332047000,0.07008,-1.5664908642812,9.6383677976192,-1.66365582165702,0.003970624,-0.010995574,0.0036651916,108.71102,-101.10016,-8.366106,STD
6457338385000,0.076418,-1.56603605224181,9.63670016033459,-1.67502617013305,-0.0036651916,-0.01740966,-0.003970624,108.723335,-101.1785,-8.44522,STD
6457341997000,0.08003,-1.56577685674066,9.63574978073977,-1.68150608472684,-0.005497787,-0.015577064,-0.0036651916,108.73293,-101.25401,-8.520293,STD
6457347043000,0.085076,-1.56541475804221,9.63442209097358,-1.69055858999823,0.004581489,-0.016798794,0.003970624,108.74528,-101.32887,-8.59427,STD
6457352028000,0.090061,-1.56505703667642,9.63311045136112,-1.69950166149602,0.0061086523,-0.008857546,0.003970624,108.750897253662,-101.365639752157,-8.63285623093518,STD
6457357009000,0.095042,-1.56469960234883,9.63179986421776,-1.70843755700866,-0.002443461,-0.018020526,-0.005497787,108.75651,-101.40238,-8.6714115,STD
6457362011000,0.100044,-1.56434066107066,9.63048375161164,-1.71741112644336,-0.0070249503,-0.014049901,-0.0012217305,108.76741,-101.47206,-8.740869,STD
6457367016000,0.105049,-1.56398150451384,9.62916684965369,-1.72639007786692,-0.011911872,-0.008552114,-0.005497787,108.777534,-101.54284,-8.8139,STD
6457371984000,0.110017,-1.56362500306043,9.6278596830349,-1.73530265142781,-0.0018325958,0.00580322,-0.006414085,108.784225,-101.61243,-8.882799,STD
6457377001000,0.115034,-1.56326498538898,9.62653962366966,-1.74430313080683,-0.0015271631,0.0070249503,-0.0036651916,108.79309,-101.67805,-8.950659,STD
6457382034000,0.120067,-1.5629038195647,9.62521535442804,-1.75333231412647,-0.004886922,0.015882496,-0.0061086523,108.7954,-101.74477,-9.017965,STD
6457387010000,0.125043,-1.56254674403488,9.62390608287105,-1.76225923965767,-0.014049901,0.017104227,-0.010995574,108.79955,-101.80904,-9.083989,STD
6457392001000,0.130034,-1.56218859211178,9.62259286455495,-1.77121307513319,-0.0125227375,0.015271631,-0.004886922,108.80236,-101.87139,-9.145942,STD
6457396985000,0.135018,-1.56183094250554,9.62128148805976,-1.78015435263469,0.0030543262,0.014966198,-0.007941248,108.80386,-101.93641,-9.210336,STD
6457401938000,0.139971,-1.56147551744541,9.61997826820009,-1.78904001625126,-0.00061086525,0.01985312,-0.007941248,108.805822301908,-101.964817132331,-9.24009899545776,STD
6457406892000,0.144925,-1.56112002062572,9.61867478522313,-1.79792747386411,-0.004886922,0.009773844,-0.003970624,108.807785,-101.99323,-9.269868,STD
6457411896000,0.149929,-1.56076093582845,9.61735814638246,-1.80690463129138,-0.013439035,0.0018325958,-0.0036651916,108.81229,-102.05291,-9.330046,STD
6457416895000,0.154928,-1.56040220982893,9.61604282312816,-1.81587281873721,-0.006414085,0.004886922,-0.0027488936,108.81525,-102.111664,-9.387354,STD
6457421900000,0.159933,-1.56004305327211,9.61472592117022,-1.82485177016078,-0.0061086523,0.0012217305,-0.0021380284,108.822365,-102.16642,-9.443887,STD
6457426885000,0.164918,-1.55968533190632,9.61341428155776,-1.83379484165857,-0.005497787,-0.0061086523,-0.00030543262,108.82965,-102.220764,-9.498522,STD
6457431891000,0.169924,-1.55932610358994,9.61209711648254,-1.84277558707842,-0.0018325958,-0.0076358155,-0.0012217305,108.83615,-102.27496,-9.5524,STD
6457436892000,0.174925,-1.55896723407132,9.6107812669937,-1.85174736251683,-0.002443461,0.00061086525,-0.0009162979,108.841934,-102.32661,-9.604049,STD
6457441903000,0.179936,-1.55860764695718,9.60946278633211,-1.86073707791812,-0.014660766,-0.00030543262,0.0030543262,108.85077,-102.37501,-9.65408,STD
6457446927000,0.18496,-1.55824712696887,9.60814088514595,-1.86975011527116,-0.018020526,-0.0061086523,0.0076358155,108.85856,-102.42349,-9.702505,STD
6457451995000,0.190028,-1.55788344956028,9.60680740679973,-1.87884208846089,-0.0076358155,0.0067195175,0.009162978,108.86117,-102.470955,-9.748804,STD
6457456968000,0.195001,-1.55752658930911,9.60549892459456,-1.88776363200323,-0.016187929,-0.007330383,0.00580322,108.87304,-102.51347,-9.795337,STD
6457461963000,0.199996,-1.5571681503478,9.60418465380936,-1.8967246434639,-0.016187929,-0.004886922,0.003970624,108.87649,-102.55763,-9.838783,STD
6457466945000,0.204978,-1.55681064426067,9.60287380354873,-1.90566233297283,-0.016187929,-0.004886922,0.013744468,108.88487,-102.5974,-9.879422,STD
6457471974000,0.210007,-1.5564497654746,9.6015505867762,-1.91468434030732,-0.01863139,-0.008552114,0.012217305,108.892944,-102.63868,-9.922757,STD
6457476961000,0.214994,-1.55609190058971,9.60023842092919,-1.92363099979769,-0.01863139,-0.016798794,0.013744468,108.90272,-102.67655,-9.961622,STD
6457482009000,0.220042,-1.55572965837215,9.59891020492845,-1.93268709306165,-0.02107485,-0.013744468,0.015271631,108.910065,-102.713,-9.999627,STD
6457487529000,0.225562,-1.55533354564614,9.59745779757424,-1.94258995257375,-0.008552114,-0.008552114,0.014966198,108.91259,-102.75959,-10.054887,STD
6457491975000,0.230008,-1.55501450267878,9.59628797817263,-1.95056606007208,-0.014660766,-0.014966198,0.0027488936,108.91723,-102.8042,-10.112585,STD
6457496990000,0.235023,-1.55465462852643,9.59496844504195,-1.95956295145853,-0.013439035,-0.0009162979,0.01282817,108.915405,-102.84658,-10.162188,STD
6457501983000,0.240016,-1.55429633308423,9.5936547004913,-1.96852037492663,-0.025045475,-0.005497787,0.015882496,108.92007,-102.889305,-10.217304,STD
6457506971000,0.245004,-1.55393839643978,9.59234227152702,-1.97746882841329,-0.022907447,-0.007941248,0.013439035,108.92031,-102.93291,-10.2696295,STD
6457511966000,0.249999,-1.55357995747848,9.59102800074182,-1.98642983987397,-0.014049901,-0.004886922,0.013439035,108.92055,-102.97378,-10.319518,STD
6457516989000,0.255022,-1.55321950924972,9.58970636267293,-1.99544108323072,-0.01863139,-0.004276057,0.015882496,108.922226,-103.01204,-10.368725,STD
6457521977000,0.26001,-1.55286157260527,9.58839393370865,-2.00438953671738,-0.029932396,-0.017104227,0.014660766,108.926765,-103.050835,-10.418527,STD
6457526954000,0.264987,-1.5525044253159,9.58708439903439,-2.01331825624486,-0.026267206,-0.013744468,0.016187929,108.9267,-103.08957,-10.465348,STD
6457531986000,0.270019,-1.55214333125117,9.58576039291004,-2.02234564556821,-0.025045475,-0.0036651916,0.006414085,108.92787,-103.128204,-10.515095,STD
6457538369000,0.276402,-1.55168529003195,9.58408091534809,-2.03379672387722,-0.021991149,-0.003970624,0.008857546,108.93162,-103.164,-10.560373,STD
6457541973000,0.280006,-1.55142666860721,9.58313264069146,-2.0402622865007,-0.029626964,-0.0070249503,0.008857546,108.93278,-103.20033,-10.607938,STD
6457546976000,0.285009,-1.55106765556949,9.58181626496807,-2.04923764993169,-0.026267206,0.004276057,0.005192355,108.92984,-103.238686,-10.654431,STD
6457551979000,0.290012,-1.55070864253176,9.58049988924467,-2.05821301336267,-0.02443461,0.0030543262,0.0125227375,108.931816,-103.2723,-10.697538,STD
6457557299000,0.295332,-1.55032688171612,9.57910010534532,-2.06775707361709,-0.016187929,0.0061086523,0.010995574,108.92882,-103.30983,-10.742724,STD
6457561960000,0.299993,-1.54999241044511,9.57787371572974,-2.07611889031743,-0.02107485,-0.0012217305,0.017715093,108.929794,-103.34122,-10.783112,STD
6457566988000,0.305021,-1.5496316034186,9.57655076207449,-2.08513910365563,-0.032070424,0.00061086525,0.018325957,108.92694,-103.37409,-10.824373,STD
6457571976000,0.310009,-1.54927366677415,9.5752383331102,-2.09408755714229,-0.023518313,-0.0009162979,0.019547688,108.92746,-103.40712,-10.863205,STD
6457576975000,0.315008,-1.54891494077464,9.57392300985591,-2.10305574458812,-0.020463986,0.00061086525,0.014660766,108.92633,-103.438126,-10.902631,STD
6457581991000,0.320024,-1.54855499486274,9.57260321360795,-2.11205442997085,-0.022602014,0.0021380284,0.021991149,108.92618,-103.46598,-10.937553,STD
6457586982000,0.325015,-1.54819684293964,9.57128999529184,-2.12100826544638,-0.026267206,-0.004581489,0.011301007,108.927025,-103.49883,-10.978468,STD
6457591976000,0.330009,-1.54783847573788,9.56997598762392,-2.12996748291076,-0.025045475,-0.013133603,0.010995574,108.92867,-103.52746,-11.013644,STD
6457596992000,0.335025,-1.54747852982599,9.56865619137596,-2.1389661682935,-0.026572637,-0.018020526,0.010995574,108.93073,-103.55686,-11.051111,STD
6457601978000,0.340011,-1.54712073670064,9.56734428864622,-2.14791103378758,-0.024740042,-0.013133603,0.01985312,108.93275,-103.584435,-11.085319,STD
6457606976000,0.345009,-1.54676208246068,9.5660292285092,-2.15687742723712,-0.02443461,-0.026267206,0.015271631,108.94078,-103.61406,-11.123455,STD
6457611957000,0.34999,-1.5464046481331,9.56471864136584,-2.16581332274976,-0.03359759,-0.049785517,0.022907447,108.9512,-103.636955,-11.155119,STD
6457616986000,0.355019,-1.54604376934703,9.56339542459331,-2.17483533008425,-0.027794369,-0.059253927,0.015577064,108.9605,-103.66637,-11.191546,STD
6457621975000,0.360008,-1.54568576094303,9.56208273251176,-2.18378557756719,-0.027183503,-0.054367006,0.003970624,108.972435,-103.69215,-11.226663,STD
6457627064000,0.365097,-1.54532057658385,9.56074372870277,-2.19291522467898,-0.027183503,-0.060170226,-0.0015271631,108.99001,-103.71849,-11.262156,STD
6457631991000,0.370024,-1.54496701727207,9.55944734989222,-2.20175424439205,-0.0290161,-0.0580322,-0.0009162979,109.00352,-103.74532,-11.297874,STD
6457636981000,0.375014,-1.54460893710852,9.55813439469339,-2.21070628587128,-0.029932396,-0.062308256,-0.0036651916,109.020035,-103.77376,-11.335737,STD
6457641974000,0.380007,-1.54425064166631,9.55682065014274,-2.21966370933938,-0.01740966,-0.057421334,-0.003970624,109.03325,-103.802734,-11.371463,STD
6457647002000,0.385035,-1.54388983463979,9.55549769648749,-2.22868392267758,-0.01985312,-0.057726767,-0.006414085,109.048836,-103.82968,-11.408104,STD
6457651987000,0.39002,-1.543532113274,9.55418605687503,-2.23762699417537,-0.022602014,-0.056505036,-0.004886922,109.06257,-103.85708,-11.442639,STD
6457656975000,0.395008,-1.54317417662956,9.55287362791075,-2.24657544766203,-0.023823744,-0.060170226,-0.01160644,109.077194,-103.88622,-11.479583,STD
6457661957000,0.39999,-1.54281667054242,9.55156277765012,-2.25551313717096,-0.023823744,-0.05955936,-0.004276057,109.090706,-103.91081,-11.511097,STD
6457666916000,0.404949,-1.54246081492498,9.55025797908679,-2.26440956476525,-0.018325957,-0.058643065,-0.0015271631,109.10456,-103.938126,-11.545122,STD
6457671975000,0.410008,-1.54209778335236,9.54892686879603,-2.27348539198839,-0.032375857,-0.07086037,-0.009773844,109.12173,-103.962616,-11.579908,STD
6457676947000,0.41498,-1.53547531901935,9.5640536190385,-2.27129169048075,-0.025045475,-0.07360926,-0.014049901,109.135994,-103.989204,-11.611663,STD
6457682028000,0.420061,-1.51683522139437,9.61065361980464,-2.24799169009768,-0.037873644,-0.07941248,-0.009773844,109.15451,-104.009705,-11.643121,STD
6457686952000,0.424985,-1.50821758986486,9.64093313513514,-2.21043055472973,-0.035430185,-0.06811147,-0.016187929,109.130615,-104.0838,-11.689189,STD
6457691973000,0.430006,-1.52614309799627,9.62972970717614,-2.12976580323392,-0.040317107,-0.06627888,-0.024740042,109.11132,-104.15301,-11.734498,STD
6457697349000,0.435382,-1.54533599417521,9.61773416272134,-2.04339780800559,-0.03970624,-0.07696902,-0.029321533,109.09705,-104.21759,-11.77843,STD
6457701987000,0.44002,-1.56189415125815,9.60738532805219,-1.96888613355079,-0.044593163,-0.087659165,-0.037873644,109.08193,-104.282425,-11.825151,STD
6457707307000,0.44534,-1.58107072864373,9.59632004020995,-1.88304038355047,-0.04642576,-0.103847094,-0.04917465,109.072296,-104.35181,-11.8790245,STD
6457711957000,0.44999,-1.60194059461055,9.60466772509139,-1.79956087609898,-0.06566802,-0.116980694,-0.046120327,109.065285,-104.41514,-11.93078,STD
6457716965000,0.454998,-1.62441721584966,9.61365809194864,-1.70965434420283,-0.065973446,-0.10629055,-0.055283304,109.070335,-104.47789,-12.003244,STD
6457721983000,0.460016,-1.63567400095472,9.63415625238681,-1.63035106234994,-0.08399397,-0.10476339,-0.06627888,109.0819,-104.533745,-12.075334,STD
6457726955000,0.464988,-1.64467595758578,9.65666114396446,-1.55383433698837,-0.09254608,-0.09162979,-0.06169739,109.08727,-104.58877,-12.143729,STD
6457731983000,0.470016,-1.62584253862239,9.67520831418028,-1.4956578980847,-0.099265605,-0.06383542,-0.07696902,109.09655,-104.649796,-12.237612,STD
6457738359000,0.476392,-1.58828923185732,9.69666723458092,-1.43128085679143,-0.115453534,-0.028710667,-0.08002335,109.10047,-104.70364,-12.324773,STD
6457741976000,0.480009,-1.5368503547214,9.71042575840068,-1.38772563042322,-0.13530666,-0.008246681,-0.07422013,109.1076,-104.76416,-12.437585,STD
6457746989000,0.485022,-1.43985306928966,9.73084664355593,-1.32135908634624,-0.14508049,0.025045475,-0.0842994,109.09981,-104.82845,-12.552418,STD
6457751982000,0.490015,-1.31267225609533,9.77272563296146,-1.26527496631846,-0.16310102,0.05131268,-0.093462385,109.09647,-104.90337,-12.699855,STD
6457756975000,0.495008,-1.16233489973631,9.83092041521298,-1.21677901060852,-0.17928895,0.07452556,-0.08827003,109.08423,-104.97692,-12.843098,STD
6457761957000,0.49999,-1.03686027107634,9.89377805386672,-1.19149459822755,-0.20158553,0.09896017,-0.09315695,109.07381,-105.08674,-13.053958,STD
6457767004000,0.505037,-0.926781497910684,9.96078236369938,-1.1819225396871,-0.22693644,0.109650314,-0.09865474,109.060555,-105.19503,-13.260555,STU
6457772053000,0.510086,-0.854145395464065,10.0061075981437,-1.14698836283674,-0.2321288,0.1133155,-0.1001819,109.05391,-105.400055,-13.612859,STU
6457776977000,0.51501,-0.809256116244645,10.0352857550214,-1.09536567181342,-0.2443461,0.122783914,-0.105068825,109.042404,-105.60864,-13.961813,STU
6457781987000,0.52002,-0.763582824431223,10.0649735222751,-1.04284136595907,-0.25900686,0.11911872,-0.098043874,109.04661,-106.08891,-14.66673,STU
6457786980000,0.525013,-0.718064511851499,10.094560552594,-0.990495286292242,-0.2687807,0.118507855,-0.09590584,109.04975,-106.58487,-15.360017,STU
6457791979000,0.530012,-0.691440757472246,10.0959120228971,-0.930931467457301,-0.29229903,0.12980886,-0.09407325,109.046974,-107.13202,-16.092255,STU
6457797001000,0.535034,-0.696574691033305,10.0497064600235,-0.859056322551238,-0.3191771,0.12858713,-0.09743301,109.05081,-107.68905,-16.811401,STU
6457801976000,0.540009,-0.708617075472073,10.0340491564301,-0.81171765059034,-0.33964106,0.14294247,-0.09254608,109.06323,-108.26432,-17.539282,STU
6457806976000,0.545009,-0.727652654879746,10.0483258906778,-0.787923196207514,-0.3717115,0.16523905,-0.09560041,109.07662,-108.847244,-18.25553,STU
6457812639000,0.550672,-0.725627561795075,10.1175263871128,-0.76688146557784,-0.3933972,0.19914207,-0.10415252,109.08722,-109.56208,-19.100586,STU
6457816955000,0.554988,-0.70921236370135,10.2037062628078,-0.754570024156076,-0.40958515,0.21502456,-0.111177474,109.10098,-110.280785,-19.928219,STU
6457821933000,0.559966,-0.703339951380689,10.3075567933727,-0.719476050555132,-0.43676865,0.2275473,-0.11026118,109.10881,-111.00644,-20.745314,STU
6457827018000,0.565051,-0.712613999752428,10.4188457611883,-0.659194702245287,-0.44715336,0.24831672,-0.10629055,109.11241,-111.73441,-21.546595,STU
6457831965000,0.569998,-0.732480231672516,10.5132659725258,-0.617160037350847,-0.4541783,0.26450464,-0.1001819,109.119225,-112.43702,-22.30777,STU
6457836948000,0.574981,-0.770760579011331,10.5850415582072,-0.60280492521107,-0.48808134,0.26542094,-0.0888809,109.12642,-113.133896,-23.050829,STU
6457841909000,0.579942,-0.801721720349225,10.6388144312341,-0.590338660357073,-0.514654,0.25625798,-0.06872234,109.15495,-113.807785,-23.759296,STU
6457846995000,0.585028,-0.820833999315284,10.6627047612321,-0.58078250840102,-0.5369505,0.24404067,-0.06291912,109.18536,-114.47801,-24.454168,STU
6457851911000,0.589944,-0.841428075216097,10.6818881233192,-0.561864771321552,-0.56199604,0.23151793,-0.057726767,109.220055,-115.150795,-25.142822,STU
6457856976000,0.595009,-0.867050994215809,10.6935348991548,-0.522265704293123,-0.57848936,0.22785273,-0.04062254,109.256454,-115.81307,-25.812357,STU
6457861934000,0.599967,-0.892132619566366,10.7049356325394,-0.483503182214752,-0.6114761,0.22510384,-0.02076942,109.29916,-63.517708,-26.481033,STU
6457866990000,0.605023,-0.917710009193719,10.7165617132155,-0.443974478780254,-0.6414085,0.23854288,-0.01160644,109.33785,-62.85656,-27.13441,STU
6457871954000,0.609987,-0.933647927423918,10.7218418834976,-0.396468296008573,-0.67011917,0.25900686,-0.012217305,109.374695,-62.204506,-27.772123,STU
6457876971000,0.615004,-0.904815703673382,10.6971284812688,-0.305852743022718,-0.700357,0.28130344,-0.022296581,109.40567,-61.558563,-28.397797,STU
6457883000000,0.621033,-0.869718452805074,10.6693500832589,-0.193438832817581,-0.7464773,0.29871312,-0.0070249503,109.44036,-60.87153,-29.056593,STU
6457886979000,0.625012,-0.839081066332857,10.6829666236377,-0.0606767785617295,-0.79901177,0.31520647,-0.007330383,109.46708,-60.184135,-29.710003,STU
6457891910000,0.629943,-0.801113498427729,10.699841004288,0.103849406292657,-0.8555168,0.33658674,-0.0070249503,109.499756,-59.50987,-30.342663,STU
6457897059000,0.635092,-0.744600793083017,10.725653459548,0.275691263118927,-0.9260717,0.35430184,0.0027488936,109.52613,-58.8432,-30.961432,STU
6457901989000,0.640022,-0.679774276701521,10.7555734775032,0.440250908862484,-0.9923506,0.3662137,0.009162978,109.544815,-58.18083,-31.57039,STU
6457906983000,0.645016,-0.614218673595105,10.7891740567072,0.587789966986577,-1.0729848,0.35827246,0.02107485,109.58953,-57.526505,-32.15901,STU
6457911966000,0.649999,-0.548853071067482,10.8240354905488,0.727236530502237,-1.1667526,0.37415496,0.02443461,109.619385,-56.874176,-32.739075,STU
6457916970000,0.655003,-0.479223556907938,10.8653246322983,0.95469749643888,-1.2498302,0.39400807,0.04428773,109.66644,-56.30069,-33.230824,STU
6457922059000,0.660092,-0.404621643511918,10.9132828652963,1.2690913259895,-1.3481796,0.41141775,0.054061573,109.70512,-55.72334,-33.717754,STU
6457926970000,0.665003,-0.379799140333731,10.9827791710369,1.49410457467223,-1.4043792,0.3827071,0.08002335,109.767746,-55.190666,-34.147964,STU
6457932096000,0.670129,-0.374923228851808,11.0656698698848,1.69401704725864,-1.5442673,0.3484986,0.10048734,109.821014,-54.650986,-34.571587,STU
6457938459000,0.676492,-0.377840588928705,11.1377385089586,1.89159981646137,-1.6804903,0.3231477,0.12644911,109.91827,-54.129536,-34.95587,STU
6457941975000,0.680008,-0.380982808861515,11.172302993841,1.99215091993281,-1.8261817,0.29810223,0.16371189,110.020096,-53.607117,-35.32483,STU
6457947018000,0.685051,-0.369798405306415,11.2404181979914,2.16520427635786,-1.9837849,0.26053402,0.21074851,110.151344,-53.11278,-35.63954,STU
6457952048000,0.690081,-0.345115414878049,11.3243405365854,2.36266827195122,-2.1609359,0.24709499,0.2883284,110.27124,-52.622528,-35.931427,STU
6457956979000,0.695012,-0.316023330727487,11.4676067019269,2.50505613578451,-2.3499987,0.25320363,0.3454443,110.41711,-52.079697,-36.244465,STU
6457961958000,0.699991,-0.283209684486827,11.6551131399921,2.61287243556823,-2.5680776,0.2950479,0.40469822,110.53956,-51.538666,-36.53305,STU
6457966983000,0.705016,-0.27076888297745,11.9584826511674,2.76970195675514,-2.8096747,0.36560285,0.45173484,110.6604,-51.015938,-36.769188,STU
6457971975000,0.710008,-0.275539127000599,12.3544132039513,2.96528206132508,-3.0882292,0.46211955,0.48441613,110.74069,-50.47606,-36.996616,STU
6457976988000,0.715021,-0.333296203942161,12.8138840887874,3.06558588145104,-3.3896914,0.5510005,0.49693888,110.79483,-49.922512,-37.20247,STU
6457982040000,0.720073,-0.436393375266362,13.3293700735667,3.08522352577372,-3.7308595,0.72051555,0.5027421,110.767914,-49.33711,-37.416435,STU
6457987057000,0.72509,-0.593946782958199,13.8074459967846,3.1097524659164,-4.0753875,0.9505063,0.5009095,110.68812,-48.740646,-37.60545,STU
6457991973000,0.730006,-0.786613866520511,14.2524151286174,3.13727631788951,-4.377155,1.144456,0.5131268,110.538376,-48.109528,-37.805565,STU
6457997050000,0.735083,-0.971318314699647,14.5994864770318,3.16881987985866,-4.641354,1.3161092,0.5546656,110.27117,-47.448933,-38.023926,STU
6458001957000,0.73999,-1.13737273045936,14.8367068586572,3.20203068374558,-4.9104404,1.45783,0.61178154,109.91597,-46.756783,-38.257988,STU
6458006938000,0.744971,-1.26896957912957,14.8414548120673,3.17513290454995,-5.105917,1.5741998,0.66553766,109.46184,-46.005493,-38.560844,STU
6458011965000,0.749998,-1.36896908961424,14.6366943121662,3.09418095065282,-5.1645603,1.6853772,0.6963864,108.9211,-45.252636,-38.877163,STU
6458016944000,0.754977,-1.48017797333796,14.3443298304766,2.95595400444863,-5.0772066,1.7153096,0.6933321,108.32487,-44.446617,-39.27229,STU
6458022060000,0.760093,-1.60639100617259,13.9559816862182,2.75692573891806,-4.9996266,1.7690657,0.70707655,107.63462,-43.659348,-39.677315,STU
6458026946000,0.764979,-1.63610865143536,13.5456934711938,2.57391232237181,-4.7849073,1.9230038,0.752586,106.83531,-42.880627,-40.148273,STU
6458031949000,0.769982,-1.57445100985943,13.0856324090279,2.39368209505048,-4.5265117,2.118786,0.7666359,105.96401,-42.134556,-40.64251,STU
6458036940000,0.774973,-1.49525051666366,12.7087316979261,2.42814615848512,-4.2366557,2.1578815,0.77182823,105.01898,-41.394344,-41.20709,STU
6458041973000,0.780006,-1.39528642308386,12.4218779278629,2.7063071342651,-3.9464948,2.0986276,0.78984874,103.99119,-40.721676,-41.7791,STU
6458046928000,0.784961,-1.26036544318206,12.2879078171051,2.93759242807882,-3.7140608,2.0717494,0.79717916,102.8909,-40.09459,-42.372208,STU
6458051937000,0.78997,-1.01400328277958,12.5996318362855,3.04317622610837,-3.5866952,2.0350976,0.77457714,101.773544,-39.51242,-42.958122,STU
6458056843000,0.794876,-0.760728934348087,12.9423776597236,3.13264683311636,-3.4962873,1.9688187,0.74006325,100.70923,-38.941353,-43.529114,STU
6458061910000,0.799943,-0.474026038574004,13.3748617887042,3.19581856214701,-3.4574974,1.8625281,0.7076874,99.636444,-38.397087,-44.091885,STU
6458066859000,0.804892,-0.279321109414619,13.7475340946315,3.23536399922151,-3.4962873,1.745242,0.70616025,98.58926,-38.022026,-44.453808,STU
6458071901000,0.809934,-0.254911926436154,14.0257983585077,3.23048221564048,-3.6080756,1.6175711,0.7086037,97.55574,-37.65076,-44.805973,STU
6458076875000,0.814908,-0.333548139093742,13.9914565762058,3.2307456014791,-3.7271943,1.5222762,0.73548174,96.54118,-37.460636,-44.928562,STU
6458081909000,0.819942,-0.600650814447687,13.3928605607717,3.24028495054662,-3.882354,1.4712689,0.7663304,95.52814,-37.260902,-45.041916,STU
6458086861000,0.824894,-0.86340259203067,12.8040152154341,3.24966891093248,-3.9632938,1.4752395,0.7495316,94.49545,-37.104603,-45.1103,STU
6458091898000,0.829931,-1.13066444657136,12.2050624681672,3.25921394495177,-3.9541306,1.5008959,0.68752885,93.45018,-36.94275,-45.183884,STU
6458096903000,0.834936,-1.43929555018818,11.5312097804855,3.27999136621189,-3.8854084,1.5705346,0.5852089,92.373726,-36.771084,-45.284245,STU
6458101967000,0.84,-1.84541415116673,10.6779043390102,3.32562278051374,-3.7821722,1.6850718,0.47891834,91.259674,-36.597046,-45.41605,STU
6458106960000,0.844993,-2.25439238097018,9.82223839919619,3.33144795718291,-3.6596937,1.7400496,0.36957347,90.07184,-36.06893,-46.00693,STU
6458111958000,0.849991,-2.69729576373493,8.90958883736798,3.18381341840359,-3.556763,1.7895297,0.36468655,88.8038,-35.576736,-46.60804,STU
6458117009000,0.855042,-3.14303100177014,8.00718163317503,3.022724962568,-3.497509,1.8060231,0.33414328,87.31232,-34.632687,-47.84711,STU
6458121976000,0.860009,-3.55788002278732,7.37053210853122,2.71466867179,-3.4739907,1.8240436,0.32895094,85.73313,-33.75204,-49.05509,STU
6458126961000,0.864994,-3.97423242258009,6.73157541830585,2.40549601031863,-3.4385605,1.8680259,0.32834008,84.09479,-32.793346,-50.374218,STU
6458131986000,0.870019,-4.32734570322581,6.34187341229839,2.20500180685484,-3.4330628,1.9254472,0.31703907,82.3758,-31.879166,-51.664738,STU
6458136938000,0.874971,-4.65330130087977,6.04199455108138,2.04419713368768,-3.454443,1.9859229,0.29168814,80.56361,-31.011948,-52.925816,STU
6458141981000,0.880014,-4.74438735212545,5.77788507157688,2.24971867246203,-3.4910948,2.005776,0.27916542,78.90739,-30.335056,-53.89915,STU
6458146994000,0.885027,-4.64995450583543,5.54704932247842,2.73762096295487,-3.5176675,1.9941696,0.23640485,77.18673,-29.675085,-54.867245,STU
6458151977000,0.89001,-4.2516649186234,5.46258124800968,3.27301056483926,-3.5054502,1.88849,0.17715092,75.58692,-29.113522,-55.67427,STU
6458156972000,0.895005,-3.74548788773556,5.42883623007155,3.82739500870704,-3.461468,1.774869,0.13408493,73.94557,-28.570839,-56.46783,STU
6458161966000,0.899999,-3.20784522629655,5.65499315118048,4.20642523117653,-3.4037411,1.6511687,0.10751228,72.487625,-28.031927,-57.189007,STU
6458166991000,0.905024,-2.65639592841055,5.96874868091475,4.5296884997234,-3.3194418,1.559539,0.11911872,71.01991,-27.52144,-57.88525,STU
6458171977000,0.91001,-2.32594140133703,6.04217291941171,4.66440848710508,-3.238502,1.4147639,0.13439035,69.37222,-26.829123,-58.837105,STU
6458177034000,0.915067,-2.0717287609587,6.02778353317817,4.73155915653164,-3.1716123,1.3374895,0.13713925,67.668945,-26.180964,-59.7529,STU
6458182067000,0.9201,-2.00831324083851,5.9021198002038,4.65544718707298,-3.1227431,1.2525792,0.084910266,65.72866,-25.47556,-60.78999,STU
6458187117000,0.92515,-2.01770043804348,5.73315029952446,4.52402623016304,-3.0757065,1.2308935,0.07422013,63.695927,-24.836576,-61.76197,STU
6458192004000,0.930037,-2.0176678633356,5.59093470982827,4.43940878669836,-3.0017917,1.1942415,0.04886922,61.67398,-24.241627,-62.66752,STU
6458197030000,0.935063,-2.01299793059086,5.455506465179,4.37402972827205,-2.9318478,1.1264355,0.06780604,59.584946,-23.704437,-63.506863,STU
6458202014000,0.940047,-2.09980999139217,5.16215005917886,4.32368467141104,-2.845105,1.0235047,0.06963864,57.401176,-23.178154,-64.34247,STU
6458207693000,0.945726,-2.26920692328457,4.70529152741859,4.27748548380368,-2.7354546,0.9611965,0.061391957,55.13819,-22.702318,-65.11892,STU
6458211993000,0.950026,-2.32956232012325,4.38110404723757,4.27367035019125,-2.6282477,0.93370754,0.039095376,52.80351,-22.247347,-65.864815,STU
6458217031000,0.955064,-2.33468864035274,4.0222690179558,4.2993014160646,-2.4721715,0.84513205,0.008857546,50.46273,-21.834145,-66.54772,STU
6458222009000,0.960042,-2.39986609817073,3.64806268658537,4.34524244817073,-2.4123068,0.75747293,-0.046120327,48.075382,-21.378904,-67.257614,STU
6458227019000,0.965052,-2.50667350844948,3.25798298101045,4.40561192987805,-2.2870796,0.7425067,-0.042760566,45.603634,-20.976536,-67.903404,STU
6458232027000,0.97006,-2.5962735130205,2.99793232565831,4.47563748883827,-2.150551,0.64843345,-0.069027774,43.22507,-20.539051,-68.550095,STU
6458237009000,0.975042,-2.67017765856948,2.8544712891754,4.55388893439636,-2.014939,0.5494733,-0.09987647,40.782257,-20.137695,-69.14328,STU
6458241974000,0.980007,-2.65079299659777,2.82056697464759,4.57193398971913,-1.9052887,0.46792278,-0.12858713,38.389503,-19.696936,-69.74897,STU
6458247052000,0.985085,-2.43431147882353,3.01643122039216,4.46369320392157,-1.806634,0.44409904,-0.16340645,35.9633,-19.277914,-70.31292,STU
6458252007000,0.99004,-2.36682973797835,3.05433036742366,4.4340558685833,-1.7012597,0.45814893,-0.1591304,33.517933,-18.85704,-70.85716,STU
6458257021000,0.995054,-2.47819761656359,2.90119952225551,4.49902045634905,-1.5812247,0.5109888,-0.17165314,31.000814,-18.450117,-71.36797,STU
6458261970000,1.000003,-2.50757228235057,2.81486169814216,4.55446388239095,-1.4743233,0.50976706,-0.17348573,28.386202,-18.108936,-71.79169,STU
6458267019000,1.005052,-2.39772286045537,2.83927272610057,4.59596264521405,-1.3912456,0.49205196,-0.17134771,25.693928,-17.79035,-72.16928,STU
6458271932000,1.009965,-2.29083234554725,2.86302621795234,4.63634359624394,-1.2889256,0.4792238,-0.15210545,22.952522,-17.46447,-72.52844,STU
6458276975000,1.015008,-2.1811134636662,2.88740823696486,4.67779304384087,-1.16492,0.45845437,-0.13469578,20.20762,-162.83946,-72.838425,STU
6458281966000,1.019999,-2.09599740808314,2.95017260969977,4.69476611581986,-1.0412198,0.43493605,-0.1554652,17.447176,-163.13261,-73.11046,STU
6458286989000,1.025022,-2.0450786306582,3.07052595178984,4.6762501835739,-0.929126,0.408058,-0.14905111,14.710413,-163.39487,-73.324844,STU
6458291909000,1.029942,-2.04773564059517,3.11134741170691,4.66672087710088,-0.81000733,0.38545597,-0.14385876,12.039549,-163.63216,-73.48936,STU
6458296976000,1.035009,-2.16580299966311,2.98419800280741,4.6758030217668,-0.6939429,0.39003745,-0.11636983,9.3987665,-163.84683,-73.606,STU
6458301914000,1.039947,-2.24320657687345,2.88092701062035,4.69659454436725,-0.6105598,0.35521814,-0.07391469,6.811237,-164.02852,-73.66651,STU
6458306958000,1.044991,-2.14731490513151,2.87133780339454,4.77330780165757,-0.49296826,0.31306845,-0.034513887,4.2889357,-164.19252,-73.6858,STU
6458312007000,1.05004,-2.09817348324995,2.86520550008005,4.89545400290174,-0.39706242,0.28680122,-0.004276057,1.8140298,-164.36642,-73.6927,STU
6458317071000,1.055104,-2.26316219071443,2.87491075691415,5.22543106313788,-0.28924468,0.24465153,0.013744468,359.47446,-164.52481,-73.66799,STU
6458321980000,1.060013,-2.41572604230582,2.87599613294026,5.52062425749927,-0.2312125,0.19883664,0.039095376,357.27466,-164.66595,-73.61632,STU
6458327007000,1.06504,-2.5377129262645,2.8384615752071,5.70829660524315,-0.13041973,0.13897185,0.07269296,355.2145,-164.7954,-73.54194,STU
6458332173000,1.070206,-2.64968485998553,2.80762585057887,5.903824247178,-0.040011674,0.08124508,0.09407325,353.37167,-164.93112,-73.4816,STU
6458338483000,1.076516,-2.69965759442836,2.82011911572256,6.15993510638826,0.042455133,0.022296581,0.1020145,351.66058,-165.05739,-73.409065,STU
6458341936000,1.079969,-2.71674951964066,2.84430485221067,6.27931514785979,0.14935656,-0.019547688,0.12370021,350.1439,-165.18498,-73.34649,STU
6458347026000,1.085059,-2.69957648546768,2.95163687616699,6.36947400315307,0.2171626,-0.05131268,0.15241088,348.7347,-165.30492,-73.277794,STU
6458351923000,1.089956,-2.68305460956491,3.05489913968645,6.45621426137925,0.28191432,-0.08093964,0.17806722,347.47263,-165.42938,-73.22608,STU
6458356887000,1.09492,-2.59662686801296,3.14446419893531,6.52925200405046,0.35705075,-0.09101892,0.2125811,346.28745,-165.54259,-73.16158,STU
6458361882000,1.099915,-2.51302163649541,3.23727603467114,6.60019995242087,0.41691554,-0.092240654,0.25411993,345.1825,-165.64548,-73.08817,STU
6458366901000,1.104934,-2.47984327988364,3.35103049918154,6.6665568141209,0.46028697,-0.092240654,0.28619036,344.20166,-165.72237,-72.99784,STU
6458371899000,1.109932,-2.44537648506648,3.44206282468744,6.71802937889462,0.5216789,-0.105374254,0.30665436,343.57535,-165.75093,-72.90881,STU
6458376883000,1.114916,-2.40275131713634,3.40417374256797,6.68487648149434,0.56382865,-0.11575896,0.34208453,342.99472,-165.76709,-72.80903,STU
6458381948000,1.119981,-2.35128417198241,3.37711623453237,6.66331239070743,0.59437186,-0.12308934,0.35124752,342.63388,-165.75139,-72.711395,STU
6458386894000,1.124927,-2.25189319496403,3.41971232517986,6.71537422985612,0.65240407,-0.13408493,0.3830125,342.32733,-165.7237,-72.60444,STU
6458391889000,1.129922,-2.15274943821138,3.4671777403252,6.76841218723577,0.7141015,-0.13622294,0.41355577,342.07037,-165.6953,-72.504105,STU
6458396926000,1.134959,-2.06124029810298,3.54561415913279,6.82506060070461,0.77396625,-0.14172074,0.45478916,341.85577,-165.65929,-72.39877,STU
6458401934000,1.139967,-1.97025801228546,3.62359898847335,6.8813828668654,0.84971356,-0.14508049,0.4801401,341.92715,-165.58391,-72.30238,STU
6458406976000,1.145009,-1.891962848833,3.68663580123628,6.9379979337099,0.9309586,-0.14355333,0.51923543,342.02545,-165.49901,-72.1961,STU
6458412079000,1.150112,-1.81437009241853,3.74696890244657,7.00256005595204,1.0256428,-0.1414153,0.5555819,342.13455,-165.41536,-72.08826,STU
6458416956000,1.154989,-1.74662120046417,3.77858512434001,7.15160760881926,1.1267409,-0.13622294,0.5717699,342.50177,-165.2859,-71.97641,STU
6458422254000,1.160287,-1.67225033995943,3.81059791805274,7.33099705638945,1.1786644,-0.14905111,0.6258314,343.06525,-165.11192,-71.85193,STU
6458426949000,1.164982,-1.58973325476673,3.78888282880325,7.86518647423935,1.2956452,-0.18845193,0.643852,343.62018,-164.95605,-71.73812,STU
6458431958000,1.169991,-1.50169745503719,3.76571544178499,8.43510229830967,1.389413,-0.29901853,0.6795876,344.45233,-164.75824,-71.63224,STU
6458436953000,1.174986,-1.52934711529889,3.89188419294833,9.2763492662614,1.484708,-0.46975538,0.70402217,345.34506,-164.56876,-71.54144,STU
6458441907000,1.17994,-1.56780185015198,4.03128252522796,10.1367732370821,1.5512923,-0.6737844,0.72418076,346.34372,-164.37814,-71.466,STU
6458446982000,1.185015,-2.214700378967,4.68130665125862,11.1717701677233,1.5509869,-0.8744536,0.68630713,347.89813,-164.165,-71.47072,STU
6458452005000,1.190038,-2.90087954941264,5.36300099358568,12.2077664933806,1.498147,-0.97249746,0.57787853,349.4948,-163.97069,-71.49538,STU
6458456975000,1.195008,-3.8353868488501,6.4903468261753,12.3974532889997,1.2950343,-0.98624194,0.453262,351.5753,-163.75688,-71.58265,STU
6458462790000,1.200823,-5.00297101523968,7.94082545229519,12.3768792421723,0.9767735,-0.88056225,0.33353242,353.59244,-163.57,-71.67616,STU
6458466979000,1.205012,-5.53605204291846,8.51735670386266,11.577537583691,0.68752885,-0.72387534,0.27855456,355.6822,-163.37791,-71.76711,STU
6458471929000,1.209962,-6.04729983096732,9.01817119709475,10.3307182703863,0.5519168,-0.49418998,0.2489276,357.56165,-163.21353,-71.841896,STU
6458476973000,1.215006,-6.12583631531358,8.94856795151982,9.79971163101193,0.5549711,-0.21410827,0.20097467,358.02887,-163.10338,-71.792244,STU
6458482014000,1.220047,-6.09797358916891,8.73959823278184,9.44678538283955,0.6640105,-0.10751228,0.1133155,358.40497,-163.01314,-71.75201,STU
6458486984000,1.225017,-5.74459223994387,8.75871275668849,9.41589910495791,0.8368854,0.03359759,0.01863139,358.1387,-162.87079,-71.571594,STU
6458491959000,1.229992,-5.27661414125351,8.85676493395697,9.49612365594013,0.960891,-0.070554934,0.004581489,357.99384,-162.73383,-71.40947,STU
6458497031000,1.235064,-4.76201366318083,8.8493134295207,9.72542054215686,1.0635164,-0.3539964,0.028405234,357.76068,-162.63977,-71.272675,STU
6458501983000,1.240016,-4.23507662962963,8.77182299074074,10.0457154166667,1.0635164,-0.7012733,0.032375857,357.6694,-162.55771,-71.166016,STU
6458506972000,1.245005,-4.19205411361774,8.46603976236387,8.93041850864222,1.0360274,-0.8014552,0.01282817,357.64304,-162.43951,-71.02809,STU
6458511984000,1.250017,-4.30235256517135,8.08718884658807,7.3574684826656,1.1099422,-0.79443026,0.0030543262,357.8131,-162.32541,-70.916245,STU
6458516986000,1.255019,-4.21052997546205,7.43076961462839,6.31534858643335,1.16492,-0.56169057,0.03023783,358.03598,-162.17859,-70.77595,STU
6458521971000,1.260004,-4.05565055371608,6.68922611605387,5.44239250950649,1.3716979,-0.33964106,0.09162979,358.25836,-162.03912,-70.63458,STU
6458526981000,1.265014,-3.67949176978417,6.26564295755396,5.4468950557554,1.6151277,-0.27916542,0.129198,357.87836,-161.95197,-70.45619,STU
6458532994000,1.271027,-3.12711436303265,5.90447329385722,5.85586651656521,1.785559,-0.50762904,0.20677789,357.60376,-161.84824,-70.26602,STU
6458538370000,1.276403,-2.54866487464143,6.39001025670797,6.22623811064494,1.9587394,-0.66675943,0.22785273,356.91776,-161.86569,-70.1247,STU
6458541967000,1.28,-2.14533455266855,6.87064568545224,6.47495860513221,1.996613,-0.9941832,0.25778514,356.59232,-161.86905,-70.014435,STU
6458547033000,1.285066,-1.97182327541311,7.62175154899484,6.65152132192401,2.044566,-1.2082914,0.2770274,356.41068,-161.90747,-69.94975,STU
6458551982000,1.290015,-2.17136277785496,8.42489804241659,6.66149834132197,2.01219,-1.2803736,0.28038713,356.38382,-161.9498,-69.91443,STU
6458556981000,1.295014,-2.49170298521152,9.09077968955142,6.67870787687819,1.9761491,-1.2757921,0.23518312,357.31265,-161.7478,-69.777405,STU
6458561948000,1.299981,-2.8863681793946,9.65892378938731,6.70039276272793,1.9150625,-1.2605205,0.21777347,358.27646,-161.54274,-69.64474,STU
6458566984000,1.305017,-3.17861680351262,10.1243980581778,6.6480595805708,1.8802432,-1.2348641,0.20586158,359.10065,-161.278,-69.42966,STU
6458571971000,1.310004,-3.31492284511526,10.4284654659715,6.49078328608123,1.897042,-1.2061534,0.21410827,359.8852,-161.02266,-69.219376,STU
6458576976000,1.315009,-3.22300708215768,10.5312971422644,6.28359431742739,1.9587394,-1.2073752,0.23151793,0.22666542,-160.80344,-68.97863,STU
6458582037000,1.32007,-2.96922173215768,10.4929901422644,6.03938566742739,2.0567832,-1.2403619,0.2593123,0.5658406,-160.59433,-68.746544,STU
6458587048000,1.325081,-2.66729355142139,10.302353369561,5.90537266845871,2.1606305,-1.319469,0.25992316,0.8525946,-160.37927,-68.498,STU
6458591970000,1.330003,-2.33457220527944,10.0060943726552,5.85067888284664,2.2531765,-1.426065,0.2864958,1.1919525,-160.16696,-68.256966,STU
6458596968000,1.335001,-2.06302555969118,9.66151900609508,5.72619107785453,2.3576343,-1.5402967,0.27580565,1.6482537,-159.93398,-68.004265,STU
6458602291000,1.340324,-1.84552769317351,9.24723722683868,5.51905013415278,2.4275784,-1.6548339,0.23365596,2.1642153,-159.72011,-67.78007,STU
6458606974000,1.345007,-1.7031363577577,8.99252056611289,5.26017983532498,2.4630086,-1.7137824,0.15577064,2.9604614,-159.48935,-67.58151,STU
6458611951000,1.349984,-1.59199960444963,8.81192359584183,4.92213912314194,2.4932466,-1.7916678,0.12156218,3.8288238,-159.27362,-67.40809,STU
6458616980000,1.355013,-1.52435884388186,8.64352276054852,4.61165429746835,2.506991,-1.8597792,0.053450707,4.741832,-159.10948,-67.29483,STU
6458621972000,1.360005,-1.50754893333333,8.49223391666667,4.3384929,2.511267,-1.8768835,-0.015271631,5.649057,-158.96613,-67.2018,STU
6458626961000,1.364994,-1.4683696653889,8.37627682415868,4.09241458678404,2.4966063,-1.8866574,-0.06994407,6.5209126,-158.8478,-67.127785,STU
6458632079000,1.370112,-1.33182497274348,8.40904708045465,3.95587000820147,2.4862216,-1.8704693,-0.093462385,7.366857,-158.74922,-67.07034,STU
6458636912000,1.374945,-1.18549346507153,8.46394167862042,3.86770129641387,2.4810293,-1.8613064,-0.10781772,8.014429,-158.71188,-67.04217,STU
6458641973000,1.380006,-1.00503175264354,8.55892146462865,3.8392073606114,2.479502,-1.8536706,-0.118202426,8.64288,-158.6888,-67.02706,STU
6458646973000,1.385006,-0.768358454072337,8.7135482530892,3.82424181051682,2.4761422,-1.8548924,-0.12064589,9.347146,-158.62955,-66.98507,STU
6458652000000,1.390033,-0.42532010920718,8.97842585703978,3.83292631914855,2.4871378,-1.8918496,-0.13347405,10.060282,-158.5851,-66.95992,STU
6458656951000,1.394984,-0.123504304015591,9.21761296416009,3.80920843877745,2.4996605,-1.9721785,-0.13713925,10.996769,-158.46336,-66.88802,STU
6458661966000,1.399999,-0.0458856438958076,9.32262665414963,3.5809182871946,2.5173757,-2.0668626,-0.14844026,11.954769,-158.35529,-66.8325,STU
6458667180000,1.405213,0.0297269826707855,9.42523893662842,3.35979836337158,2.5427265,-2.1252003,-0.16126843,13.224784,-158.10666,-66.67536,STU
6458671974000,1.410007,0.0418835257846425,9.44549982771403,3.33953747228597,2.5631905,-2.118786,-0.1777618,14.495184,-157.8682,-66.52573,STU
6458676966000,1.414999,0.0545421539082083,9.46659752656664,3.31843977343336,2.5851817,-2.1099286,-0.19639318,15.761593,-157.6009,-66.34134,STU
6458681987000,1.42002,0.113555042410811,9.57163015135135,3.30556172237838,2.5799894,-2.1789563,-0.22540927,17.053137,-157.34654,-66.171555,STU
6458686912000,1.424945,0.184941075194595,9.69910512432432,3.29536356481081,2.584571,-2.2730296,-0.25167647,18.336014,-157.10365,-66.00865,STU
6458691968000,1.430001,0.20846711609318,9.74897660048031,3.4806622779635,2.640465,-2.3649647,-0.26419923,19.646034,-156.86493,-65.84892,STU
6458697026000,1.435059,0.227079793263208,9.79085499414025,3.68540176084534,2.7116308,-2.5289822,-0.267559,21.04954,-156.63687,-65.70723,STU
6458701978000,1.440011,0.182094771563644,9.80901038809218,3.56061815405993,2.7794368,-2.7146852,-0.2846632,22.52157,-156.39546,-65.55366,STU
6458706933000,1.444966,0.125776215100386,9.82309031144298,3.377582923964,2.831055,-2.7876835,-0.2959642,24.012852,-156.16078,-65.40274,STU
6458711960000,1.449993,0.15984450624172,9.68729189248344,3.02784582249208,2.862209,-2.8851166,-0.33750305,25.69525,-155.94014,-65.27975,STU
6458716916000,1.454949,0.214519733858117,9.51870986771623,2.64511911499472,2.9019153,-2.8414397,-0.40103304,27.313894,-155.73619,-65.159546,STU
6458721972000,1.460005,0.247021091821561,9.39587989962825,2.28018779442379,2.919325,-2.6942213,-0.52564955,28.80213,-155.58212,-65.07234,STU
6458726966000,1.464999,0.270415035840344,9.29294643650949,1.92927873185287,2.8991663,-2.4712553,-0.6310238,30.198696,-155.44667,-64.99246,STU
6458731991000,1.470024,0.182258050529521,9.26385171852952,1.65945118436688,2.8377745,-2.193617,-0.70432764,31.346209,-155.34253,-64.92118,STU
6458736938000,1.474971,0.0459165748278871,9.26824991932789,1.4307493812384,2.7293458,-1.9120082,-0.7519751,32.334362,-155.26521,-64.865715,STU
6458741982000,1.480015,-0.137822192418518,9.25339629898834,1.28204320581702,2.5955665,-1.6710218,-0.78038037,33.065464,-155.20319,-64.80718,STU
6458746981000,1.485014,-0.358927009233341,9.2218098091049,1.2083415976468,2.4578164,-1.5244142,-0.81581056,33.670673,-155.15984,-64.76109,STU
6458751977000,1.49001,-0.559473543435928,9.16455518970026,1.21514288994166,2.3845124,-1.4068227,-0.83016586,33.99,-155.1593,-64.73755,STU
6458756974000,1.495007,-0.752011471742104,9.09716706105411,1.25365044946691,2.3310618,-1.2980887,-0.8228355,34.223747,-155.16576,-64.71698,STU
6458761957000,1.49999,-0.943904459787499,8.93936027941036,1.3936302525414,2.3118196,-1.2843442,-0.83077675,34.305443,-155.26028,-64.7735,STU
6458766987000,1.50502,-1.13756737528477,8.74569733502441,1.57346004693213,2.312125,-1.3322971,-0.8402451,34.36597,-155.3576,-64.8311,STU
6458771975000,1.510008,-1.23992204331884,8.58592069519668,1.52883430267839,2.310598,-1.4059063,-0.8872818,34.29293,-155.5733,-64.997246,STU
6458776966000,1.514999,-1.29188650229294,8.44419957797984,1.35876891269025,2.3160956,-1.4223998,-0.9431759,34.222153,-155.79776,-65.1713,STU
6458781983000,1.520016,-1.27215433708526,8.37504434529321,1.24160978358411,2.3041837,-1.3888022,-0.9810496,33.969074,-156.20734,-65.517456,STU
6458786977000,1.52501,-1.20757369972029,8.35197984915123,1.15857750113812,2.291661,-1.3768903,-1.0186177,33.747448,-156.63066,-65.879875,STU
6458791972000,1.530005,-1.11650422646565,8.33627864251112,1.06160348115077,2.2568417,-1.348485,-1.035722,33.378265,-157.10841,-66.284904,STU
6458796979000,1.535012,-1.00273001448838,8.32679727048937,0.952569910633712,2.2214115,-1.3066407,-1.0296134,33.002247,-157.58469,-66.68743,STU
6458801973000,1.540006,-0.839608304071661,8.3430209218241,0.722471826254072,2.1853704,-1.2834278,-1.042747,32.721737,-158.0052,-67.04363,STU
6458806971000,1.545004,-0.630241223550489,8.38311283583062,0.37946616113355,2.150551,-1.1859949,-1.0482447,32.371624,-158.41728,-67.38412,STU
6458811962000,1.549995,-0.344488636457317,8.50660893252032,-0.0281834465528455,2.1346686,-1.0516045,-1.0458013,32.089756,-158.75493,-67.65474,STU
6458817000000,1.555033,0.0771906272439024,8.77628733821138,-0.552830895349594,2.1169536,-0.86742866,-1.0173961,31.7136,-159.08365,-67.90535,STU
6458821908000,1.559941,0.496240399380082,9.08446138075194,-0.991661704180618,2.0977113,-0.6252206,-0.9654725,31.370874,-159.24525,-67.98132,STU
6458826981000,1.565014,0.942426332851813,9.47487418052234,-1.33094892351478,2.0457878,-0.36377025,-0.9095783,30.896425,-159.39693,-68.02915,STU
6458832001000,1.570034,1.33795555028203,9.89049973751007,-1.56254360797744,1.9807305,-0.12980886,-0.80939645,30.410645,-159.31686,-67.82306,STU
6458837015000,1.575048,1.63299025946817,10.3693263842667,-1.56738023924255,1.9135354,0.0852157,-0.63407815,29.807621,-159.20078,-67.55675,STU
6458841904000,1.579937,1.85816247179986,10.7312049593108,-1.45462679160907,1.8774943,0.23151793,-0.43554693,29.177061,-158.89383,-67.07285,STU
6458846981000,1.585014,1.95282116738051,10.8731926814465,-1.07599194009734,1.8930714,0.31581733,-0.2312125,28.529757,-158.54076,-66.52428,STU
6458851924000,1.589957,1.99034526218393,10.8991178383592,-0.623453877613785,1.921782,0.267559,-0.02687807,28.031174,-158.03175,-65.82347,STU
6458857550000,1.595583,1.85915429739652,10.5711412167073,0.158646035062746,1.9688187,0.10140363,0.12980886,27.632069,-157.48938,-65.09025,STU
6458861944000,1.599977,1.73165221486371,10.2783250051107,0.793557567333901,1.9785925,-0.1459968,0.2321288,27.516584,-156.89285,-64.3485,STU
6458866984000,1.605017,1.41816276597104,9.69759808858603,1.68263444212095,1.9682078,-0.46944994,0.27855456,27.58163,-156.27893,-63.617317,STU
6458871942000,1.609975,1.147783767603,9.13278632975826,2.39176605745659,1.9724839,-0.76052725,0.31581733,27.974615,-155.7314,-63.030006,STU
6458876994000,1.615027,0.987169240187266,8.57681304170923,2.61415532967314,2.003638,-0.9410379,0.35369098,28.485634,-155.17824,-62.46112,STU
6458882023000,1.620056,0.82728593488764,8.02337090679264,2.83553214083248,2.0662518,-1.078788,0.39064834,29.263222,-154.78183,-62.127396,STU
6458886980000,1.625013,0.868179531333679,7.8985099159315,2.73204887104307,2.1230621,-1.2336423,0.4147775,30.137466,-154.38406,-61.8111,STU
6458891972000,1.630005,0.927721744747275,7.81167761203944,2.59807895303581,2.1407773,-1.3304645,0.3827071,31.031172,-153.99759,-61.509663,STU
6458896991000,1.635024,0.98758600138246,7.72437566227296,2.46338443811624,2.1395555,-1.3524556,0.3408628,31.934917,-153.76343,-61.372757,STU
6458902083000,1.640116,1.04849959745889,7.64763153124066,2.30150006407573,2.090381,-1.3994923,0.32925636,32.89584,-153.53065,-61.249035,STU
6458906979000,1.645012,1.10924146651719,7.71771824693572,1.83892735017439,2.0277672,-1.4364496,0.33567044,33.849014,-153.30649,-61.132046,STU
6458912111000,1.650144,1.13883490711229,7.79855467865934,1.3707165283469,1.9981402,-1.5189165,0.35216382,34.811497,-153.05533,-60.977753,STU
6458916986000,1.655019,0.74543049364893,7.96652478375308,1.13202172149214,1.9098701,-1.5519031,0.3494149,35.75526,-152.80307,-60.82437,STU
6458921928000,1.659961,0.346619291323613,8.13680340106041,0.890046391138042,1.8374827,-1.502423,0.3145956,36.578274,-152.50795,-60.596264,STU
6458927132000,1.665165,0.00654535971073578,8.23508352737332,0.642736468481848,1.817935,-1.4388931,0.24312437,37.393578,-152.22432,-60.380646,STU
6458931966000,1.669999,-0.303521186245389,8.32046401718113,0.413556847557756,1.7629571,-1.3564262,0.1591304,38.152626,-151.9506,-60.171417,STU
6458938368000,1.676401,-0.622970579600576,8.40563153119209,0.366039279394688,1.6975945,-1.2299771,0.08246681,38.615265,-151.81744,-60.06427,STU
6458941947000,1.67998,-0.795864767173152,8.45150197591106,0.355453928190241,1.5980235,-1.0708468,0.011911872,38.998173,-151.7044,-59.97036,STU
6458946958000,1.684991,-0.985141718831669,8.49580852446377,0.556167595381042,1.5030339,-0.9456194,-0.038789943,39.07296,-151.75388,-60.001736,STU
6458951914000,1.689947,-1.1681054329999,8.53803078363151,0.77197090596323,1.4031575,-0.86620694,-0.083383106,39.077442,-151.81604,-60.04124,STU
6458956974000,1.695007,-1.24324731806515,8.59394873060217,0.880602987119447,1.3231341,-0.8582657,-0.12889257,38.879776,-152.0248,-60.211678,STU
6458961932000,1.699965,-1.30418152961501,8.65019560098717,0.974347916294176,1.2428054,-0.8573494,-0.16798794,38.640728,-152.23383,-60.381596,STU
6458966985000,1.705018,-1.23637711953086,8.8129267633436,1.04104392750224,1.1768318,-0.8750645,-0.21624629,38.171646,-152.67656,-60.77244,STU
6458971907000,1.70994,-1.15204483077229,8.98627621797038,1.10195055875162,1.1319333,-0.8866709,-0.25961772,37.70065,-153.10928,-61.156372,STU
6458976969000,1.715002,-0.926613490686919,9.31322780746904,1.01042538680341,1.0968086,-0.89980453,-0.29535335,37.18334,-153.59265,-61.59172,STU
6458981963000,1.719996,-0.68137273745743,9.66026683939629,0.894745773916409,1.0607675,-0.86498517,-0.301462,36.651093,-154.05844,-62.008736,STU
6458986979000,1.725012,-0.411497641478148,10.0395476837037,0.764761225007407,1.010982,-0.7965683,-0.30665436,36.242535,-154.4117,-62.328823,STU
6458991904000,1.729937,-0.1407311725175,10.419494105,0.6337452076,0.95630956,-0.6826419,-0.28099802,35.79828,-154.74352,-62.62164,STU
6458997007000,1.73504,0.189196959592252,10.7296014668418,0.590976404806303,0.88178396,-0.5476407,-0.24373524,35.58407,-154.79863,-62.657127,STU
6459001958000,1.739991,0.536843017560845,10.9838497829941,0.601353891521121,0.79534656,-0.4813618,-0.20372356,35.349384,-154.84033,-62.677982,STU
6459006955000,1.744988,0.853621224890301,11.0940890065522,0.838219243355505,0.7443393,-0.376293,-0.1853976,35.197647,-154.65993,-62.473747,STU
6459011979000,1.750012,1.16409497839373,11.1705133583838,1.12958693383898,0.63621616,-0.35063666,-0.15302174,35.061306,-154.45973,-62.259163,STU
6459016943000,1.754976,1.43359710277557,11.2725940683446,1.20641188949463,0.5198463,-0.4541783,-0.1328632,35.06075,-154.12599,-61.92721,STU
6459021944000,1.759977,1.6956492540191,11.3821797495026,1.23023479876641,0.4269948,-0.6261369,-0.11881329,35.081024,-153.78561,-61.59721,STU
6459026954000,1.764987,1.75628556160794,11.4358169265509,0.970580631096774,0.36987892,-0.8020661,-0.09193522,35.32711,-153.35326,-61.21764,STU
6459031958000,1.769991,1.76104211815385,11.4738696769231,0.632864868,0.33108896,-0.95386606,-0.093767814,35.634796,-152.92743,-60.86064,STU
6459036939000,1.774972,1.48030968273026,11.4624617483553,0.139430756595395,0.31887165,-1.0329732,-0.09040806,36.049603,-152.42596,-60.443474,STU
6459041973000,1.780006,1.11027954221491,11.4360309484649,-0.406804255010965,0.32375857,-0.9819659,-0.10720685,36.45124,-151.93732,-60.03751,STU
6459046954000,1.784987,0.774200166118936,11.4904376471049,-0.874636687785603,0.31581733,-0.75808376,-0.13836098,36.687965,-151.44359,-59.593925,STU
6459051948000,1.789981,0.458777864500335,11.602706630114,-1.29163561521462,0.2968805,-0.42943826,-0.17654006,36.823013,-150.96399,-59.14747,STU
6459056899000,1.794932,0.432780459047619,11.6554302857143,-1.26961091904762,0.3136793,-0.07666359,-0.20219639,36.57708,-150.57593,-58.723152,STU
6459061902000,1.799935,0.48420906800644,11.692832690281,-1.12935112081382,0.36377025,0.13836098,-0.19364429,36.230076,-150.196,-58.28784,STU
6459066903000,1.804936,0.693551986214242,11.596190051126,-0.849975130249544,0.4364632,0.19914207,-0.17134771,35.626328,-149.87445,-57.860706,STU
6459071896000,1.809929,0.96033375529012,11.4506728192331,-0.520135818046257,0.52290064,0.1255328,-0.1572978,34.991318,-149.56206,-57.430172,STU
6459076879000,1.814912,1.10359127506936,11.3438509891003,-0.429777697031312,0.605062,-0.04062254,-0.16340645,34.418648,-149.25223,-57.009262,STU
6459081917000,1.81995,1.20876915977011,11.2482343218391,-0.41543526183908,0.66339964,-0.23823744,-0.17256944,33.90701,-148.94858,-56.600212,STU
6459086894000,1.824927,1.08496767231277,11.327654076212,-0.505410060175439,0.70249504,-0.40500367,-0.20158553,33.59509,-148.61948,-56.20149,STU
6459091895000,1.829928,0.881684078996416,11.4676943405018,-0.631897633333333,0.7287622,-0.50426924,-0.22357668,33.345627,-148.29897,-55.820988,STU
6459096921000,1.834954,0.480675373890419,11.808021509948,-0.689116776216713,0.70829827,-0.52931476,-0.24617869,33.16023,-147.97482,-55.44757,STU
6459101981000,1.840014,-0.0434156413733293,12.2727815548413,-0.703949530425467,0.6826419,-0.5345071,-0.25961772,33.008583,-147.66035,-55.089973,STU
6459106972000,1.845005,-0.473083201764936,12.8289353105505,-0.730813285919625,0.64721173,-0.48747048,-0.27672195,32.757923,-147.39423,-54.76524,STU
6459111958000,1.849991,-0.860610971462795,13.4312374801017,-0.763496376972719,0.56291234,-0.39064834,-0.2782491,32.486576,-147.12692,-54.439667,STU
6459116978000,1.855011,-1.03361932910864,13.9875714535747,-0.800970539832869,0.44990227,-0.21227567,-0.27916542,31.997652,-146.97514,-54.203438,STU
6459121973000,1.860006,-1.07803545348189,14.511681452182,-0.840945010027855,0.31031954,0.015271631,-0.26633725,31.446138,-146.81453,-53.95077,STU
6459127017000,1.86505,-1.04501146683544,15.0143240329114,-0.722333673468354,0.1518,0.16310102,-0.23915374,30.713312,-146.71278,-53.739506,STU
6459132038000,1.870071,-0.928349167405063,15.4860453939873,-0.433214123090717,0.010079277,0.20891592,-0.17898351,29.93726,-146.5882,-53.501057,STU
6459138374000,1.876407,-0.840920167151072,16.0505908208577,-0.227713316711501,-0.13652839,0.19394971,-0.0870483,29.169786,-146.36188,-53.170036,STU
6459141987000,1.88002,-0.807196006099415,16.3642252795322,-0.153520136339181,-0.29871312,0.13591751,0.0018325958,28.41395,-146.1098,-52.825047,STU
6459147841000,1.885874,-0.928455832951145,16.787605607472,-0.0620646583220692,-0.4615087,0.054061573,0.0852157,27.793926,-145.74915,-52.41585,STU
6459152016000,1.890049,-1.09883304014072,17.0491150961253,-0.0105552724881578,-0.62888575,-0.04062254,0.14905111,27.210152,-145.36258,-52.000782,STU
6459157002000,1.895035,-1.36355989636506,17.1734080242329,0.195262423078366,-0.83108217,-0.122783914,0.18142697,26.711002,-144.8909,-51.537064,STU
6459162009000,1.900042,-1.68685710148525,17.1218678234317,0.537301525892711,-1.0809261,-0.18081611,0.1459968,26.226788,-144.4132,-51.08911,STU
6459166991000,1.905024,-1.95975001828362,16.9130419218115,0.915317225934001,-1.3912456,-0.22143865,0.09773844,25.69135,-143.95839,-50.680775,STU
6459172014000,1.910047,-2.17903425760579,16.5221434105639,1.3395846645823,-1.740966,-0.22113322,0.049785517,25.139925,-143.49838,-50.28752,STU
6459177012000,1.915045,-2.27448734850596,16.0635926440238,1.67887455543332,-2.083356,-0.19975294,-0.0076358155,24.450512,-143.17505,-50.044773,STU
6459182098000,1.920131,-2.22066935182071,15.5113731572829,1.922225508652,-2.4226916,-0.16493362,-0.055588737,23.730597,-142.83542,-49.804432,STU
6459186910000,1.924943,-2.16975071240872,14.9889035996349,2.15246632400557,-2.6988027,-0.064446285,-0.11453723,22.811268,-142.65509,-49.71801,STU
6459192001000,1.930034,-2.11587980774404,14.4361412309762,2.39605651331668,-2.962391,0.06994407,-0.16523905,21.840874,-142.45175,-49.61802,STU
6459196946000,1.934979,-2.04573867927619,13.9908040470773,2.57696109893095,-3.1716123,0.13652839,-0.20616703,20.85498,-142.22614,-49.50365,STU
6459202016000,1.940049,-1.92668611876226,13.7765095276579,2.61505805155944,-3.3255503,0.2968805,-0.22785273,19.75209,-141.9856,-49.359215,STU
6459206915000,1.944948,-1.83440142582326,13.6149599397425,2.71163995231495,-3.385415,0.4538729,-0.28680122,18.540897,-141.8961,-49.35854,STU
6459212008000,1.950041,-1.81522334958223,13.6005765828173,3.01369480330286,-3.4895678,0.52381694,-0.36041048,17.28259,-141.78735,-49.3383,STU
6459217474000,1.955507,-1.76704457269373,13.8084127084871,3.60027847380074,-3.6092973,0.5225952,-0.45753807,16.038763,-141.66035,-49.302197,STU
6459222002000,1.960035,-1.66885422435424,14.45210527474,4.6403691115733,-3.7384953,0.47861293,-0.54611355,14.764713,-141.52957,-49.260605,STU
6459226946000,1.964979,-1.56164285461255,15.1549356739349,5.77601577967125,-3.887852,0.39767328,-0.61941737,13.602495,-141.3722,-49.226418,STU
6459232041000,1.970074,-1.36579658967136,15.7687745023474,6.2456065,-4.0717225,0.29168814,-0.64721173,12.450597,-141.20607,-49.190876,STU
6459236913000,1.974946,-1.16072602617121,16.3327181139746,6.54855160638298,-4.283387,0.18478674,-0.6096435,11.318561,-141.02153,-49.14518,STU
6459241978000,1.980011,-0.607044596584226,17.0641052655307,6.20567278719571,-4.489554,-0.049785517,-0.47983465,10.65697,-140.66954,-49.032387,STU
6459246964000,1.984997,0.0159831064654332,17.8173180014606,5.71747954503408,-4.600426,-0.44990227,-0.25595254,10.097985,-140.28136,-48.88552,STU
6459252005000,1.990038,0.878790210634097,18.3000557508397,3.48462521835115,-4.531093,-1.0439687,0.11453723,9.945735,-139.70735,-48.592438,STU
6459256911000,1.994944,1.78738304846412,18.6874035505344,0.797103213496183,-4.1899247,-1.539075,0.5946773,9.904198,-139.07068,-48.207664,STU
6459261966000,1.999999,2.15164287695114,18.9177104884324,-1.5236813249256,-3.5460727,-1.5992452,1.2800682,10.065524,-138.1341,-47.490437,STU
6459266972000,2.005005,2.3633457375252,19.1017998070462,-3.70514136037727,-2.6975808,-1.2950343,1.9211712,10.245211,-137.13022,-46.655926,STU
6459271972000,2.010005,2.17990385551102,18.8090211703407,-5.7120182995992,-1.9306396,-0.93645644,2.3667974,10.208063,-135.8565,-45.475945,STU
6459276979000,2.015012,1.84104492480751,18.3285487954857,-7.65413516010969,-1.4624114,-0.50640726,2.5732698,10.019719,-134.51639,-44.191856,STU
6459282007000,2.02004,1.43425289294159,17.2145473560501,-8.93125667330618,-1.3353515,0.05131268,2.605951,9.401099,-133.07675,-42.74675,STU
6459287545000,2.025578,0.97059308577886,15.8393749193324,-10.1799763678224,-1.5271631,0.6780604,2.5448647,8.638983,-131.64049,-41.288296,STU
6459291972000,2.030005,0.726579452758209,14.8271153456716,-9.58810408477612,-1.9773707,1.2577715,2.4288,7.532685,-130.28172,-39.866287,STU
6459297008000,2.035041,0.462640753522388,13.6849811124378,-8.74350074029851,-2.552195,1.4666874,2.3200662,6.4047894,-128.95477,-38.480824,STU
6459301974000,2.040007,0.295448413937367,12.7862574201885,-7.72755425801155,-3.1224377,1.6221527,2.273335,5.0474067,-127.76416,-37.208633,STU
6459306967000,2.045,0.150063816727475,11.9381801519205,-6.66140038995642,-3.3832772,1.642922,2.1978931,3.727594,-126.62041,-35.993614,STU
6459311964000,2.049997,-0.0726993289992594,11.4019571856138,-6.00648953838178,-3.7888918,1.7437148,2.16399,2.4639237,-125.54507,-34.8946,STU
6459317000000,2.055033,-0.313798677501389,10.9286883394742,-5.43499491553416,-4.0927973,1.9663752,2.1230621,1.1835865,-124.49489,-33.828514,STU
6459321978000,2.060011,-0.741518362197465,10.3467875970973,-4.48514252168847,-4.341419,2.339614,2.0302107,359.9231,-123.51654,-32.87182,STU
6459326966000,2.064999,-1.26393204565617,9.70719691271464,-3.34266773387163,-4.5659122,2.7714956,1.8680259,358.5795,-122.56416,-31.950047,STU
6459332013000,2.070046,-1.69684910399474,9.06556386806833,-2.10556351603154,-4.742147,3.0360003,1.6288722,357.17554,-121.72467,-31.157425,STU
6459338408000,2.076441,-2.19581193413053,8.25541960963644,-0.496005601883487,-4.767803,3.218038,1.3454307,355.65872,-120.948,-30.422894,STU
6459341978000,2.080011,-2.56550422679101,7.86984952882577,0.56050910652819,-4.701219,3.2922583,1.0867293,353.96902,-120.3892,-29.91357,STU
6459347098000,2.085131,-3.18387613353116,7.38138790949555,2.22855421038576,-4.512767,3.2614095,0.90194255,352.25656,-119.89767,-29.465408,STU
6459352012000,2.090045,-3.73046870472497,7.04229175594448,3.34296234047352,-4.2598686,3.0955596,0.7877107,349.90945,-119.812744,-29.382774,STU
6459357222000,2.095255,-4.27020620202061,6.79279049714257,4.11183360672518,-4.053702,2.8414397,0.7458665,347.6607,-119.72554,-29.299093,STU
6459362008000,2.100041,-4.50155126172839,6.66500553591111,4.14531581189136,-3.9382482,2.6032023,0.7449502,346.29636,-119.4675,-29.135906,STU
6459367021000,2.105054,-4.56793328395062,6.59862316711111,3.73279799758025,-3.921144,2.4801128,0.75502944,344.9788,-119.23418,-28.985043,STU
6459372009000,2.110042,-4.37467451067855,6.53062250662179,3.27708579329634,-3.9813142,2.4382687,0.7812967,343.91122,-119.02735,-28.869759,STU
6459376998000,2.115031,-3.97919883132618,6.46108835315627,2.78600051679098,-4.1135664,2.3887885,0.8240572,342.8816,-118.83801,-28.753754,STU
6459382044000,2.120077,-3.58319967365119,6.32413700752823,2.23816098766207,-4.2684207,2.3051,0.89369583,341.87955,-118.66484,-28.63098,STU
6459387077000,2.12511,-3.19513974419699,6.07214994808657,1.60315383994145,-4.364632,2.2021692,0.95142263,340.89417,-118.51024,-28.504766,STU
6459391959000,2.129992,-2.86890405115676,5.72573422890467,1.03409104141307,-4.359745,2.1468859,1.0155635,339.83282,-61.67236,-28.327017,STU
6459397110000,2.135143,-2.58950712578477,5.22850251732745,0.494239351581069,-4.286136,1.9734001,1.0219775,338.8392,-61.82994,-28.153385,STU
6459401940000,2.139973,-2.30290823098846,4.74103161270447,0.174072997550426,-4.1480803,1.9388863,1.0268645,337.68576,-62.000004,-27.955856,STU
6459407013000,2.145046,-1.9567563904566,4.19011394343201,0.178948377091821,-4.0610323,1.8536706,1.0091494,336.6066,-62.15042,-27.762703,STU
6459411934000,2.149967,-1.5473606878117,3.65763098865472,0.264591126647627,-3.8621955,1.7150042,0.9728029,335.4372,-62.286304,-27.588375,STU
6459417021000,2.155054,-0.990811841781564,3.11067774060469,0.499685058161316,-3.6697729,1.5482379,0.89858276,334.31613,-62.405575,-27.42391,STU
6459421910000,2.159943,-0.435840179323579,2.60824457878545,0.688305544854194,-3.4825428,1.4223998,0.79076505,333.20752,-62.514027,-27.269926,STU
6459426993000,2.165026,0.183682966383405,2.1350655160938,0.805380752179577,-3.31822,1.3613132,0.6918049,332.14575,-62.610058,-27.126852,STU
6459431927000,2.16996,0.686609945292522,1.81923337353739,0.918520016970167,-3.2045991,1.3093897,0.571159,330.97247,-62.7135,-26.987392,STU
6459436993000,2.175026,1.00146647260558,1.7886875869721,1.03365414122433,-3.0534098,1.2986995,0.4269948,329.83618,-62.800537,-26.868296,STU
6459441922000,2.179955,1.30780832478206,1.75896785108969,1.14567468967454,-2.9034426,1.3591752,0.25961772,329.20074,-62.87411,-26.70019,STU
6459447048000,2.185081,1.62639390689946,1.72806029050271,1.26217242376986,-2.7904325,1.3903292,0.13561209,328.58008,-62.913246,-26.560112,STU
6459451938000,2.189971,1.78623516039882,1.75293899054788,1.33838242476802,-2.687807,1.3762794,0.06688975,327.95752,-62.919632,-26.451477,STU
6459456973000,2.195006,1.38163162638105,1.99332109876604,1.27888189628825,-2.5647178,1.4227052,0.05589417,327.30807,-62.908978,-26.362976,STU
6459461949000,2.199982,0.981769226128332,2.23088641564659,1.22007859346496,-2.4523184,1.5134187,0.056505036,326.79514,-62.930176,-26.202497,STU
6459467014000,2.205047,0.574754946128332,2.47270079064659,1.16022354346496,-2.3240368,1.6349808,0.04795292,326.2592,-62.944088,-26.05009,STU
6459471985000,2.210018,0.189360079979583,2.63032070113994,1.16226995938749,-2.208278,1.7400496,0.041233405,325.70172,-62.955692,-25.899706,STU
6459477009000,2.215042,-0.125805261502339,2.36836506721395,1.48562139492982,-2.1041253,1.8002199,0.034513887,325.12158,-62.966328,-25.753859,STU
6459481962000,2.219995,-0.436516634185453,2.11011143368779,1.80440317443641,-1.9853121,1.8069394,0.03268129,324.23627,-62.985645,-25.69347,STU
6459487012000,2.225045,-0.589320947412867,1.95246526615249,1.95880435701455,-1.8622227,1.756543,0.038179077,323.3598,-63.01956,-25.625362,STU
6459491908000,2.229941,-0.699182613096749,1.82429335870351,2.06866609439617,-1.7082846,1.7327193,0.032375857,322.48352,-63.068012,-25.554771,STU
6459497043000,2.235076,-0.862908048957613,1.86022353426539,2.14477804999506,-1.6447546,1.6588045,0.024129177,321.5212,-63.08759,-25.529573,STU
6459501916000,2.239949,-1.0335145185456,1.94783223586602,2.2047208128841,-1.5131133,1.5705346,0.03634648,320.59207,-63.138416,-25.485708,STU
6459507009000,2.245042,-1.2129343256004,2.07530596304933,2.29603156359741,-1.3720033,1.4648548,0.069027774,319.79987,-63.130085,-25.468616,STU
6459511937000,2.24997,-1.38694492753363,2.211692672287,2.39479433103139,-1.2296717,1.3631458,0.116980694,319.0448,-63.146446,-25.431667,STU
6459517005000,2.255038,-1.43999008172022,2.37543534655462,2.55822494682155,-1.0809261,1.2339478,0.15607607,318.40924,-63.12542,-25.41498,STU
6459521977000,2.26001,-1.44469758016807,2.54490366857143,2.74181556756303,-0.9242391,1.1081096,0.1966986,317.80862,-63.134605,-25.374628,STU
6459527014000,2.265047,-1.33997846367883,2.6749042339562,2.98876899781022,-0.7669413,0.96944314,0.2321288,317.28625,-63.13235,-25.338888,STU
6459532047000,2.27008,-1.18986628745499,2.78748830489538,3.26084734476886,-0.6017023,0.81397796,0.25595254,316.81116,-63.15496,-25.284857,STU
6459538367000,2.2764,-1.06503614261145,2.94803500357814,3.77756348428388,-0.43890667,0.6554584,0.3032946,316.36545,-63.224087,-25.18395,STU
6459542638000,2.280671,-0.996305971147573,3.06123769604626,4.16972989581892,-0.26419923,0.49510628,0.36682457,315.97034,-63.321396,-25.061745,STU
6459547003000,2.285036,-0.966924540543348,3.19901265140483,4.6177643731278,-0.087659165,0.3463606,0.40683624,315.53873,-63.4855,-24.88006,STU
6459551953000,2.289986,-0.951376740444955,3.36485561795124,5.14638887296381,0.0711658,0.23640485,0.44318274,315.14737,-63.678955,-24.674559,STU
6459556916000,2.294949,-0.98132145283566,3.49203754253981,5.43851844246118,0.20952678,0.14019357,0.46639562,314.70947,-63.926807,-24.412405,STU
6459561898000,2.299931,-1.02352754753784,3.60927672441518,5.66830724285433,0.33353242,0.06719518,0.4804455,314.30533,-64.19053,-24.139454,STU
6459566920000,2.304953,-1.01622539336016,3.66809813062374,5.77391183726358,0.44837508,0.055588737,0.50610185,313.86493,-64.49015,-23.819532,STU
6459571918000,2.309951,-0.992148508853119,3.70662114583501,5.83651173698189,0.548557,0.058337633,0.528093,313.45044,-64.79502,-23.496939,STU
6459576886000,2.314919,-0.954178989754455,3.6692435290297,5.97319484289109,0.6606508,0.11148291,0.5564982,313.03452,-65.104805,-23.162388,STU
6459581976000,2.320009,-0.910742018308911,3.60650126605941,6.13729019378218,0.7644979,0.15393804,0.58276546,312.62616,-65.42055,-22.825518,STU
6459586906000,2.324939,-0.690306092337945,3.56331404503953,6.35896584192688,0.8979719,0.20250183,0.6062838,312.2124,-65.718834,-22.504997,STU
6459591916000,2.329949,-0.405840856745059,3.52538527567194,6.60550234775692,1.0418307,0.2321288,0.63255095,311.79523,-66.02948,-22.180307,STU
6459596949000,2.334982,-0.136600510618557,3.48375896114195,6.97057875674068,1.1172725,0.30787608,0.64812803,311.3895,-66.31112,-21.865467,STU
6459601918000,2.339951,0.122845707087629,3.44130415614592,7.3762581522502,1.2782356,0.33200526,0.66828656,310.99222,-66.61895,-21.54358,STU
6459606993000,2.345026,0.307369025896954,3.36087929996239,7.86248630312147,1.4523321,0.34697145,0.65484756,310.65942,-66.92217,-21.185822,STU
6459612627000,2.35066,0.474775845791651,3.25434770174878,8.43572800485145,1.6022996,0.20280726,0.6224717,310.36682,-67.234055,-20.824638,STU
6459617012000,2.355045,0.415325033344645,3.40840172176864,9.07013257750274,1.8008307,0.1142318,0.602924,310.09692,-67.56251,-20.417244,STU
6459622010000,2.360043,0.243338251234654,3.71415605539475,9.89662438566723,1.8481728,-0.13439035,0.5653558,309.91876,-67.86977,-20.013216,STU
6459627016000,2.365049,-0.202063983962169,4.39062244712748,10.8843775335547,1.8891008,-0.4266894,0.5137377,309.80203,-68.15916,-19.579134,STU
6459632010000,2.370043,-0.837249391838213,5.32415243984304,11.9815164732871,1.7983873,-0.7672467,0.39614612,309.7756,-68.40085,-19.16352,STU
6459637008000,2.375041,-1.47107347219983,6.66667005811229,11.5387346698847,1.5314392,-1.0687088,0.24740042,309.81134,-68.53822,-18.748032,STU
6459641982000,2.380015,-2.10061137901397,8.2740007451495,10.0742769928766,1.2400564,-1.14018,0.16890424,309.87558,-68.63129,-18.345303,STU
6459646965000,2.384998,-2.59417529065822,9.47463193325838,8.39199053495503,1.1151345,-0.8585711,0.18875736,309.8576,-68.59977,-17.991577,STU
6459651986000,2.390019,-2.92837303013083,10.1970888640638,6.44086626843827,1.2177598,-0.23762658,0.22052236,309.7549,-68.53183,-17.679255,STU
6459656970000,2.395003,-2.85439363563703,10.8614738469417,5.7811717776778,1.4401149,0.42241332,0.19822577,309.4019,-68.64559,-17.493252,STU
6459661968000,2.400001,-2.37789822794104,11.47541980425,6.38595446388437,1.7788396,0.7425067,0.21380283,308.9649,-68.81035,-17.307756,STU
6459666958000,2.404991,-1.95654357686862,12.2334886805907,7.4241474310711,2.0237966,0.54336464,0.29229903,308.5603,-69.143326,-17.190771,STU
6459671974000,2.410007,-1.61158092360676,13.2052147645393,9.09551546343684,1.998751,-0.02687807,0.3903429,308.18134,-69.481476,-17.061499,STU
6459676978000,2.415011,-1.94125405063178,13.7950232327816,9.26738292827905,1.7336355,-0.7309003,0.39553526,307.82245,-69.87801,-16.791014,STU
6459682553000,2.420586,-3.28100979364656,13.9042938280833,7.30050740082755,1.4123205,-0.9978484,0.2742785,307.5158,-70.23682,-16.532835,STU
6459686912000,2.424945,-4.36574707273992,13.7849756327164,5.92539671149032,1.3701707,-0.8713993,0.18906279,307.34207,-70.5488,-16.121988,STU
6459691975000,2.430008,-5.79749164714882,12.7007921686102,5.07983763201027,1.6255124,-0.4251622,0.2012801,307.15283,-70.84194,-15.740101,STU
6459697006000,2.435039,-6.56917317635496,11.6320064007301,4.76092625301882,1.7592919,-0.10293079,0.20372356,307.01608,-71.10188,-15.624741,STU
6459701983000,2.440016,-5.980235770205,10.5924432709913,5.52832952429093,1.9578232,-0.17928895,0.1966986,306.8699,-71.401505,-15.515816,STU
6459706940000,2.444973,-5.26353261190804,9.66148737826685,6.07400478559638,2.035403,-0.6123924,0.19975294,306.91183,-71.533554,-15.637931,STU
6459711967000,2.45,-3.92019404332875,9.21213097042641,5.59153809016506,2.105958,-1.024421,0.23945917,306.97095,-71.68646,-15.746645,STU
6459716950000,2.454983,-2.67363735817323,8.79290424461942,5.16259684454593,2.3060162,-1.2910637,0.28985557,307.08856,-71.84564,-15.758149,STU
6459721970000,2.460003,-1.9367309247874,8.53044388766404,5.03136682417848,2.5964828,-1.488984,0.29749137,307.3068,-72.017784,-15.756368,STU
6459726960000,2.464993,-1.31890378881296,8.45298096464121,4.72616838634675,2.8182268,-1.715615,0.26908615,307.47607,-72.38786,-15.575196,STU
6459732028000,2.470061,-1.06292378453424,8.9685466244243,3.85006772136384,2.9217684,-1.8551978,0.22143865,307.67984,-72.759094,-15.402584,STU
6459738389000,2.476422,-0.741635543173377,9.61564866899421,2.75044729319566,2.9422324,-1.8753563,0.17959438,307.76364,-73.238976,-15.147532,STU
6459741976000,2.480009,-0.686685910463041,9.81861440807434,2.53174568041264,3.0020971,-1.8283197,0.13561209,307.87717,-73.69269,-14.919741,STU
6459747024000,2.485057,-0.663843959576858,10.0343440590613,2.39723198377257,3.0454686,-1.711339,0.10598512,307.98267,-74.108406,-14.716258,STU
6459751981000,2.490014,-0.641413779199916,10.2461847642797,2.26514315765435,3.0586023,-1.5589281,0.0729984,308.1595,-74.582405,-14.491406,STU
6459756969000,2.495002,-0.618843325352793,10.4593502751995,2.13222827674297,3.052799,-1.4474452,0.043066,308.3187,-75.00884,-14.290547,STU
6459761963000,2.499996,-0.417435226897036,10.7890066538,2.1950610043402,3.0405817,-1.4312572,0.04642576,308.46143,-75.40512,-14.093293,STU
6459766989000,2.505022,-0.150745607935174,11.1623722232893,2.32840581080432,3.0204232,-1.4624114,0.056199603,308.59055,-75.748085,-13.917069,STU
6459771974000,2.510007,-0.0627965855563597,11.1782919181124,2.3900670757014,2.997821,-1.5289958,0.05497787,308.7408,-76.07267,-13.731705,STU
6459776979000,2.515012,-0.1055632427701,10.9311956585704,2.39957077035789,2.973081,-1.5815301,0.04520403,308.89987,-76.34679,-13.558772,STU
6459782009000,2.520042,-0.192970831794195,10.690114509528,2.43801474752272,2.9596422,-1.5806139,0.008857546,309.07,-76.630745,-13.336471,STU
6459786993000,2.525026,-0.314245228205805,10.4568946756572,2.49865190432913,2.92299,-1.5531249,-0.046731193,309.24973,-76.8616,-13.135081,STU
6459791972000,2.530005,-0.436905106315789,10.2443144939271,2.54236807229613,2.8976393,-1.5519031,-0.076358154,309.4244,-102.95628,-12.951516,STU
6459796981000,2.535014,-0.561755310087719,10.0501025175439,2.57011264035088,2.886949,-1.5812247,-0.17134771,309.6016,-102.851715,-12.814324,STU
6459801973000,2.540006,-0.647302311268431,9.88931351698874,2.56669660616357,2.8790078,-1.6392568,-0.2733622,309.76126,-102.82136,-12.720374,STU
6459806969000,2.545002,-0.682357343058888,9.77100316732302,2.5228777191959,2.8710666,-1.6627752,-0.37293324,309.92038,-102.85538,-12.66277,STU
6459811957000,2.54999,-0.67750995034566,9.68994545945353,2.48347517306046,2.8817568,-1.6853772,-0.4746423,310.0671,-102.979614,-12.66443,STU
6459816990000,2.555023,-0.550570239981345,9.7216804767914,2.4570294173269,2.8884764,-1.6743816,-0.5546656,310.21188,-103.15685,-12.695773,STU
6459821945000,2.559978,-0.428655067617913,9.74563514576507,2.45814497895939,2.9132164,-1.6777414,-0.61269784,310.35248,-103.40067,-12.764225,STU
6459826964000,2.564997,-0.309337240864859,9.7599530754642,2.49632665640949,2.9452868,-1.7867808,-0.6267477,310.52246,-103.68058,-12.850574,STU
6459832137000,2.57017,-0.190885609656008,9.74407564862819,2.46207645610218,2.9859092,-1.9248364,-0.62949663,310.70987,-103.972244,-12.9288435,STU
6459836964000,2.574997,-0.085923077823368,9.69159423954588,2.33962021546831,3.004846,-2.0097466,-0.6258314,310.91415,-104.28695,-13.016427,STU
6459841901000,2.579934,0.012440970245264,9.63002721422813,2.15422181997179,3.0088167,-2.0195205,-0.63132924,311.14792,-104.59375,-13.087559,STU
6459846983000,2.585016,0.0909082521249496,9.54665609270455,1.81092744542523,2.962391,-1.9804251,-0.64721173,311.39093,-104.9135,-13.1674595,STU
6459851907000,2.58994,0.150452732627613,9.47429443511019,1.44960095014127,2.9061913,-1.8796324,-0.67073005,311.62793,-105.23939,-13.234126,STU
6459856975000,2.595008,0.173307909124129,9.41944185496327,1.01078154995291,2.8460212,-1.7098118,-0.7257079,311.8301,-105.58207,-13.315392,STU
6459861925000,2.599958,0.211675754486788,9.37203227181809,0.604958011046636,2.8182268,-1.459968,-0.7806858,311.99115,-105.9584,-13.393461,STU
6459867557000,2.60559,0.336594658792504,9.34931987851353,0.258591940357932,2.8060095,-1.2449434,-0.8524625,312.10883,-106.3543,-13.489576,STU
6459871935000,2.609968,0.404877747185091,9.29628293540833,0.13893331568153,2.796541,-1.047023,-0.9074403,312.16983,-106.807274,-13.590566,STU
6459876968000,2.615001,0.414283559406771,9.15049240891794,0.359969841998049,2.7693577,-0.9379836,-0.9660834,312.1907,-107.27886,-13.708471,STU
6459882049000,2.620082,0.431587926543677,8.99513429563693,0.530127207268702,2.716823,-0.96486163,-1.0167851,312.20883,-107.76932,-13.8224,STU
6459887024000,2.625057,0.471141604156443,8.81934048394982,0.543311760354211,2.6236663,-0.98624194,-1.0464121,312.19202,-108.25857,-13.941338,STU
6459891990000,2.630023,0.507180431428572,8.6394792584377,0.547648614714498,2.504853,-0.9932669,-1.0552697,312.1667,-108.72373,-14.065311,STU
6459896986000,2.635019,0.502102354285714,8.40588709477818,0.446086891572914,2.4309382,-0.93370754,-1.0833695,312.12595,-109.188446,-14.199525,STU
6459902086000,2.640119,0.484964035822534,8.20387008477594,0.325831218880206,2.264783,-0.88178396,-1.1136073,312.09137,-109.61422,-14.333609,STU
6459907010000,2.645043,0.424321977779207,8.14322802186171,0.148569819944604,2.1386392,-0.8903361,-1.1539245,312.05502,-110.03711,-14.47725,STU
6459911987000,2.65002,0.352814648538206,8.06297114285714,0.0421570382059801,2.0476203,-0.8197812,-1.1826351,311.98666,-110.45874,-14.627715,STU
6459917029000,2.655062,0.230140941020129,7.88839718907563,0.292222669540747,1.9868392,-0.74006325,-1.2153164,311.91547,-110.86487,-14.787806,STU
6459921970000,2.660003,0.138607768689812,7.77170514605998,0.476638860117964,1.9804251,-0.7452556,-1.25319,311.84204,-111.30331,-14.968097,STU
6459927012000,2.665045,0.257370678796708,8.05490852908902,0.216274021444802,1.9297233,-0.6606508,-1.2696834,311.72028,-111.71615,-15.135767,STU
6459932175000,2.670208,0.383717367946903,8.35923431723061,-0.0640943127375325,1.8765781,-0.47219884,-1.2455542,311.55548,-112.1276,-15.315636,STU
6459939184000,2.677217,0.691208152495575,9.18386925486726,-0.839809694430088,1.8344283,-0.11026118,-1.1059716,311.328,-112.50292,-15.443025,STU
6459941964000,2.679997,0.810480788836459,9.50402073974209,-1.11303716219226,1.8472565,0.032070424,-1.0250319,311.11304,-112.867905,-15.544421,STU
6459947028000,2.685061,0.999996056433177,10.0157123130129,-1.25517358939039,1.8823812,0.28069258,-0.84391034,310.78918,-113.17561,-15.538807,STU
6459952154000,2.690187,1.18048696604718,10.5208520264475,-1.35888660508935,1.9394971,0.4804455,-0.5907067,310.46188,-113.44535,-15.43044,STU
6459956998000,2.695031,1.21364637934239,10.8429718434596,-0.970447486633309,2.0140228,0.5739079,-0.27305678,310.122,-113.6791,-15.2431345,STU
6459962022000,2.700055,1.23156196750162,11.1193727718828,-0.524775206629079,2.1331415,0.52870387,0.036651913,309.78806,-113.84227,-14.931153,STU
6459966998000,2.705031,1.08180297173491,10.8066408994362,0.351755375554118,2.2574525,0.34422258,0.26267207,309.49628,-113.98908,-14.566952,STU
6459971992000,2.710025,0.931502243266476,10.4927777621777,1.23145668733524,2.3212879,0.051618114,0.39553526,309.25385,-114.048744,-14.140831,STU
6459976963000,2.714996,0.742504796503721,9.83635034806579,1.99384141495911,2.3289237,-0.2828306,0.46853364,309.09656,-114.109184,-13.703966,STU
6459982022000,2.720055,0.546625085900028,9.13741577294864,2.75955297714785,2.3252585,-0.63071835,0.4877759,309.03653,-114.18278,-13.288706,STU
6459987066000,2.725099,0.36372192642639,8.53422061710003,3.24169812069029,2.3017402,-0.79901177,0.4569272,309.02103,-114.18259,-12.929278,STU
6459991971000,2.730004,0.189855961371333,7.97784964874618,3.61985655508467,2.261423,-1.1316279,0.4260785,309.14786,-114.18338,-12.626327,STU
6459997023000,2.735056,0.0447834349646027,7.58375588260046,3.68464506808256,2.2266037,-1.4065173,0.35827246,309.2905,-114.17375,-12.422363,STU
6460001949000,2.739982,-0.0728139084814039,7.32504176336624,3.52000880592282,2.1691825,-1.5564847,0.30787608,309.48492,-114.15431,-12.24882,STU
6460007317000,2.74535,-0.200890951198276,7.37881145801724,2.80125266319923,2.0967948,-1.6184875,0.2519819,309.71722,-114.15285,-12.172087,STU
6460011961000,2.749994,-0.311651672336207,7.62163300663793,1.86404657837165,2.0176878,-1.6484199,0.17898351,309.9699,-114.14611,-12.127644,STU
6460016948000,2.754981,-0.426185127517986,7.93590039172662,1.1116674992446,1.9333885,-1.6041322,0.1133155,310.20004,-114.19605,-12.136914,STU
6460021936000,2.759969,-0.535966272705835,8.3082018608713,0.634358193577138,1.8127426,-1.4746287,0.032375857,310.40137,-114.22954,-12.164527,STU
6460026957000,2.76499,-0.589108665299249,8.64613243761412,0.299311633703084,1.700038,-1.2971723,-0.03756821,310.53967,-114.418144,-12.234631,STU
6460031954000,2.769987,-0.579399724430919,8.94225411016433,0.124550944932441,1.5732834,-1.0567969,-0.08827003,310.61722,-114.57904,-12.30109,STU
6460036936000,2.774969,-0.500604385718399,9.16933107927824,0.142375374920914,1.4376713,-0.8249735,-0.1301143,310.6156,-114.78552,-12.372087,STU
6460041943000,2.779976,-0.35333169116038,9.33041096439197,0.349477607289759,1.3109168,-0.6469063,-0.16065755,310.5598,-114.96364,-12.433314,STU
6460046946000,2.784979,-0.175114172506549,9.48912638803311,0.613047089963324,1.1917981,-0.539394,-0.19272798,310.442388063387,-115.095117559488,-12.4681079092182,STU
6460051945000,2.789978,0.0456210439337735,9.64464437179084,0.954183334029131,1.0803152,-0.50885075,-0.21135938,310.32507,-115.22649,-12.502874,STU
6460056884000,2.794917,0.294517585242146,9.80847474055099,1.1575457240986,0.9828822,-0.55680364,-0.21624629,310.1976,-115.24013,-12.49272,STU
6460061886000,2.799919,0.576981995138714,9.98443586534558,1.23163474853552,0.8863655,-0.6310238,-0.23426682,310.06635,-115.229706,-12.490783,STU
6460066890000,2.804923,0.856402662478203,10.2139897108421,1.25034256408862,0.8258898,-0.68416905,-0.23915374,309.94647,-115.11153,-12.434113,STU
6460071895000,2.809928,1.13173218407016,10.513902617807,1.19626001982767,0.7690793,-0.7309003,-0.22876903,309.8444,-114.97317,-12.386579,STU
6460076888000,2.814921,1.3221737300944,10.783100915133,1.11550672566988,0.7257079,-0.7593055,-0.21746802,309.766,-114.75283,-12.280086,STU
6460081921000,2.819954,1.423289517269,11.0221014652427,1.00519852658053,0.67164636,-0.77091193,-0.20189096,309.6969,-114.519226,-12.17562,STU
6460086843000,2.824876,1.45008685232745,11.1954557191011,0.880728022953451,0.6072,-0.7669413,-0.19975294,309.62518,-114.23163,-12.013385,STU
6460091894000,2.829927,1.35788421195827,11.2731006558989,0.725439254010835,0.5888741,-0.7470882,-0.1966986,309.55417,-113.94812,-11.851196,STU
6460096869000,2.834902,1.24187999838756,11.3162232346674,0.607130378609271,0.535118,-0.7058548,-0.19333886,309.4758,-113.632545,-11.664094,STU
6460101983000,2.840016,1.08205878608312,11.306821799213,0.541321665496689,0.45814893,-0.63255095,-0.19120082,309.3839,-113.31631,-11.477182,STU
6460106921000,2.844954,0.950678903984933,11.3471305047325,0.49654087362372,0.39278635,-0.5571091,-0.19486602,309.27652,-113.029366,-11.307592,STU
6460111955000,2.849988,0.866868424328762,11.4961269864787,0.491884739646513,0.3454443,-0.47555858,-0.18387043,309.14944,-112.73451,-11.131173,STU
6460116937000,2.85497,0.812742372850552,11.6438055740221,0.462360935180542,0.33169982,-0.41630468,-0.1695151,308.988,-112.48239,-10.981274,STU
6460121986000,2.860019,0.846691524742227,11.7941518296891,0.355663588365095,0.3454443,-0.38423425,-0.1441642,308.81412,-112.229614,-10.82494,STU
6460127005000,2.865038,0.874012511783452,11.925417303939,0.209603545192003,0.40408736,-0.36774087,-0.13194689,308.61816,-111.997055,-10.679434,STU
6460132037000,2.87007,0.883551428758907,12.0064975454276,-0.0479465955997625,0.45906523,-0.35216382,-0.13561209,308.4151,-111.772606,-10.53318,STU
6460137407000,2.87544,0.848000214797984,12.0854322035534,-0.320708098187409,0.51251596,-0.32589662,-0.15241088,308.19986,-111.573296,-10.378835,STU
6460141950000,2.879983,0.729076675354916,12.1374611370975,-0.547406079970958,0.5421429,-0.28160888,-0.172264,307.9759,-111.38895,-10.228342,STU
6460146957000,2.88499,0.598006862017596,12.1948040537285,-0.797257894804818,0.54305923,-0.24312437,-0.19181168,307.74823,-111.24833,-10.083312,STU
6460151980000,2.890013,0.254678146779661,12.2479238983051,-0.898921279661017,0.52442783,-0.23090707,-0.20677789,307.5161,-111.11703,-9.945707,STU
6460157034000,2.895067,-0.122967755068291,12.3155438357327,-0.974334926932448,0.48166725,-0.2678644,-0.22602014,307.28674,-110.98741,-9.820159,STU
6460161976000,2.900009,-0.572842603156146,12.5470329352159,-0.94376091282392,0.4279111,-0.344528,-0.23854288,307.0523,-110.91647,-9.728217,STU
6460167057000,2.90509,-1.03537075028978,12.7850329583795,-0.912326965902547,0.35705075,-0.40866885,-0.2565634,306.7858,-110.89879,-9.704621,STU
6460172048000,2.910081,-1.3732475254005,13.3126346497733,-1.17949301380151,0.27152961,-0.408058,-0.27580565,306.52466,-110.86522,-9.686994,STU
6460176984000,2.915017,-1.69712014412091,13.8603600655919,-1.47002579476272,0.16371189,-0.27916542,-0.2874121,306.24774,-110.80956,-9.667155,STU
6460182113000,2.920146,-1.76463082648887,14.4133264255063,-1.44864222027271,0.033292156,-0.079107046,-0.30970868,305.87683,-110.79638,-9.729206,STU
6460187578000,2.925611,-1.80535141241921,15.0006401021179,-1.37529392829472,-0.11362094,0.058337633,-0.30085114,305.4961,-110.745804,-9.776369,STU
6460192757000,2.93079,-1.69192188856518,15.5480604536144,-0.818009901714229,-0.2669481,0.09987647,-0.2883284,305.05145,-110.71711,-9.855179,STU
6460197005000,2.935038,-1.59888295878493,15.9970740958536,-0.36090572235259,-0.34972036,0.09987647,-0.23579398,304.5977,-110.62021,-9.898052,STU
6460201959000,2.939992,-1.47114218825195,16.559511162572,0.0837174271681327,-0.4914411,0.043066,-0.17440203,304.1587,-110.46577,-9.9321165,STU
6460206930000,2.944963,-1.34118870905874,17.1274565820443,0.521708925178445,-0.63499445,0.004581489,-0.112704635,303.72723,-110.28255,-9.946775,STU
6460211961000,2.949994,-1.55844246096706,17.4029375059566,0.787177305956552,-0.8353582,0.004581489,-0.03756821,303.524691612484,-110.072498075423,-9.91678526788036,STU
6460216927000,2.95496,-1.80125748935829,17.6505136601261,1.03475346012614,-1.0595458,-0.00030543262,0.031154128,303.32477,-109.86516,-9.887183,STU
6460221979000,2.960012,-2.23071592472464,17.4441734504348,1.49919220550725,-1.294118,-0.057726767,0.09132435,302.94916,-109.47146,-9.840796,STU
6460227058000,2.965091,-2.67717558069565,17.1997955252174,1.98324838608696,-1.5512923,-0.14385876,0.112704635,302.5949,-108.87155,-9.73535,STU
6460232039000,2.970072,-3.05969703029722,16.716035358581,2.45072956370086,-1.7928895,-0.28924468,0.12217305,302.24622,-108.22368,-9.652287,STU
6460236915000,2.974948,-3.42682196299137,16.2101188024928,2.90739721079578,-2.0393736,-0.4578435,0.098043874,301.92593,-107.53794,-9.581011,STU
6460241995000,2.980028,-3.57779335258677,15.6753446155861,3.18497489142109,-2.2736404,-0.5681047,0.04886922,301.68274,-106.79845,-9.571383,STU
6460247044000,2.985077,-3.65921909375994,15.1415539815698,3.40211013823557,-2.502104,-0.64721173,0.00030543262,301.47015,-106.04037,-9.574032,STU
6460252022000,2.990055,-3.55497273900394,14.7230831970906,3.40404150142439,-2.7159069,-0.6933321,-0.03359759,301.32977,-105.25808,-9.635552,STU
6460257014000,2.995047,-3.3521328367916,14.3608694462067,3.29296251696131,-2.930626,-0.6814202,-0.049480084,301.18457,-104.47973,-9.700293,STU
6460262664000,3.000697,-3.08711245598966,14.1798709004871,3.1838659601352,-3.1172454,-0.64660084,-0.0571159,301.0647,-103.72032,-9.790261,STU
6460267019000,3.005052,-2.87150817778109,14.1135306430063,3.10508752132419,-3.3197472,-0.57971114,-0.055588737,300.92218,-102.98568,-9.87321,STU
6460272010000,3.010043,-2.6832840277467,14.1910491310427,3.07101655243707,-3.4837644,-0.39950588,-0.043676864,300.72095,-102.306984,-9.934262,STU
6460277017000,3.01505,-2.5252351621654,14.3490986967639,3.06622709588494,-3.6337318,-0.1301143,-0.022602014,300.46503,-101.68413,-9.982882,STU
6460282010000,3.020043,-2.41872525530978,14.4617370438485,3.34648130445336,-3.7665951,0.011911872,-0.028710667,300.15918,-101.13454,-10.007795,STU
6460287067000,3.0251,-2.33814299724968,14.5517993579329,3.78257338479006,-3.842037,0.26725355,-0.043982297,299.7353,-100.68161,-10.018301,STU
6460292009000,3.030042,-2.13253045948607,14.7436964470808,4.48071422339273,-3.932445,0.36926803,-0.04642576,299.2954,-100.31657,-10.005657,STU
6460297057000,3.03509,-1.84219213273604,15.0054767711923,5.3660083789111,-3.9596286,0.24098633,-0.0421497,298.84326,-100.084595,-9.994927,STU
6460302012000,3.040045,-0.833656817725381,15.8381883963939,5.30108625241794,-3.9015963,-0.22052236,0.0015271631,298.41727,-99.96192,-9.961026,STU
6460307002000,3.045035,0.699632870762829,17.0886810122053,4.56758149079057,-3.7705657,-0.93859446,0.15760323,298.09854,-80.05306,-9.890593,STU
6460312017000,3.05005,1.75799320044622,17.915770394801,3.35732923518912,-3.4419203,-1.7287487,0.41599923,297.92966,-79.99593,-9.736192,STU
6460316957000,3.05499,2.13356220485653,18.1366937155087,1.5113952341514,-2.918714,-2.2910502,0.852157,297.88602,-79.917534,-9.476751,STU
6460321976000,3.060009,2.51513727229284,18.361150020495,-0.364058764068905,-2.3170118,-2.1551325,1.3826935,298.06046,-80.03256,-8.937917,STU
6460326973000,3.065006,2.89503976521559,18.5846224564417,-2.23129200358014,-1.7015651,-1.5613716,1.8399261,298.24542,-80.19997,-8.305071,STU
6460332462000,3.070495,2.56348700414755,17.8462161800459,-5.24193788828364,-1.2263119,-0.8054258,2.118786,298.3336,-80.425934,-7.595053,STU
6460338409000,3.076442,1.64909972205658,16.3167937270642,-9.21516871234709,-1.0604621,-0.10262536,2.2379048,298.24814,-80.68442,-6.833958,STU
6460341970000,3.080003,1.3155486160952,15.5684406073013,-9.8332247185357,-1.1313224,0.43371433,2.2033908,298.12744,-81.26744,-6.0000234,STU
6460347034000,3.085067,1.00742964844695,14.634302156313,-9.34414680566761,-1.4343116,0.8854492,2.1337523,297.83344,-81.79324,-5.181687,STU
6460351982000,3.090015,0.804242713167863,13.8709581873006,-8.54833075608054,-1.9049833,1.2043208,2.0552561,297.5479,-82.449646,-4.4893484,STU
6460356978000,3.095011,0.704087205950957,13.2604865290072,-7.4036964590311,-2.4401011,1.3335189,1.9788979,297.19965,-82.97094,-3.8349707,STU
6460361976000,3.100009,0.578490876190662,12.6848058954089,-6.13172082448582,-2.96178,1.3741413,1.9144517,296.79324,-83.25878,-3.2513747,STU
6460366963000,3.104996,0.424863344324008,12.1494371780875,-4.72114085019982,-3.3560936,1.3939945,1.8625281,296.36328,-83.3861,-2.6983893,STU
6460371982000,3.110015,0.164414392056395,11.5970364437059,-3.40576905776435,-3.6325102,1.3582588,1.7938058,295.91345,-83.21215,-2.1933794,STU
6460376967000,3.115,-0.239431733180262,11.0297288852971,-2.24230755821752,-3.8359282,1.2776246,1.7052304,295.47437,-82.89338,-1.7187674,STU
6460381939000,3.119972,-0.718105097011494,10.4185297227857,-1.37675499770115,-3.98895,1.2305881,1.6594155,294.97794,-82.290665,-1.2925487,STU
6460386963000,3.124996,-1.30366953865353,9.7400184568724,-0.898079332151067,-4.0399575,1.2162327,1.5531249,294.49814,-81.62581,-0.9190653,STU
6460391909000,3.129942,-1.93707333120567,9.12354957210402,-0.524347166643026,-4.1444154,1.314582,1.3970488,293.91412,-80.7409,-0.6594984,STU
6460396983000,3.135016,-2.69334298516548,8.58745938081166,-0.323313452366036,-4.200615,1.582141,1.2299771,293.2885,-79.85434,-0.45293167,STU
6460402056000,3.140089,-3.44114572767236,7.9744119216077,-0.0288080359692953,-4.2158866,1.949271,1.1294898,292.51968,-78.88816,-0.40006968,STU
6460406978000,3.145011,-4.1513253236674,7.23726401786021,0.429662301076571,-4.1618247,2.2910502,1.0491611,291.6928,-77.93778,-0.41004878,STU
6460411956000,3.149989,-4.77186178760331,6.54409868071625,0.879219462561984,-4.0344596,2.547308,0.96577793,290.88922,-76.94044,-0.50527316,STU
6460416986000,3.155019,-5.07387637609005,6.01786086433932,1.28648161910231,-3.8508945,2.7415633,0.86590147,290.01453,-75.987335,-0.6562383,STU
6460421972000,3.160005,-5.30035482838428,5.54006760120087,1.65737300054585,-3.6725218,2.8481593,0.75777835,289.11484,-74.967026,-0.9267093,STU
6460427020000,3.165053,-5.03646987689559,5.35294937325328,1.81090609693331,-3.5271358,2.8619037,0.6939429,288.19257,-73.998535,-1.2331578,STU
6460432010000,3.170043,-4.73705785814477,5.19521481291018,1.94351863663434,-3.4465017,2.7913487,0.67256266,287.2541,-72.981804,-1.6130426,STU
6460437045000,3.175078,-4.15610339130179,5.2330004929474,1.93879543279459,-3.415653,2.6465738,0.6936375,286.33643,-71.99898,-2.0063574,STU
6460441969000,3.180002,-3.58189099204377,5.2744018082027,1.92974311956029,-3.4535267,2.4813347,0.7480045,285.4616,-70.99784,-2.3583174,STU
6460446996000,3.185029,-2.91739667737356,5.37407577450458,1.86329369304939,-3.554014,2.286163,0.7984009,284.635,-69.996315,-2.700774,STU
6460452130000,3.190163,-2.24269431254668,5.4756839741395,1.79164686174422,-3.6410623,2.098933,0.8546005,283.859,-69.016884,-2.940885,STU
6460457012000,3.195045,-1.64806429791057,5.5700698331079,1.67838396896134,-3.709479,1.9150625,0.90316427,283.13113,-68.02501,-3.1600397,STU
6460462033000,3.200066,-1.05907891781655,5.65609568305578,1.55350842331483,-3.7418551,1.713477,0.9459248,282.4826,-67.06308,-3.2465825,STU
6460467026000,3.205059,-0.751506360637942,5.60553567371575,1.32598904121068,-3.7207801,1.5421293,0.9776898,281.86996,-66.10745,-3.3142092,STU
6460471914000,3.209947,-0.450401882470702,5.5560389131201,1.10325426457838,-3.6505308,1.3912456,1.0079277,281.31586,-65.218155,-3.2498817,STU
6460477018000,3.215051,-0.258009786992244,5.12564386067222,0.755505820453892,-3.5451565,1.3063353,0.98746365,280.78925,-64.351654,-3.185407,STU
6460481992000,3.220025,-0.10292109570813,4.60564057196208,0.386029784487216,-3.4477234,1.3249667,0.94959,280.27112,-63.51087,-3.1194487,STU
6460487078000,3.225111,0.0477091365513066,3.99397283250933,0.0673874395762284,-3.4125986,1.3692545,0.840856,279.77237,-62.75462,-3.0014546,STU
6460491909000,3.229942,0.187752178645949,3.38245163318535,-0.21269865436182,-3.3600643,1.4431691,0.70280045,279.26932,-62.034245,-2.9147387,STU
6460497055000,3.235088,0.407111613149286,2.95783620220289,-0.383842809176515,-3.3084462,1.5677856,0.57940567,278.7771,-61.32997,-2.8645213,STU
6460502020000,3.240053,0.64537281425546,2.63416054341496,-0.500725668749173,-3.238502,1.672549,0.46486846,278.28925,-60.648724,-2.8593473,STU
6460507012000,3.245045,0.892907604926358,2.42838632145251,-0.435238395288979,-3.1465669,1.7592919,0.35827246,277.83206,-59.95533,-2.8978758,STU
6460512022000,3.250055,1.14633065622143,2.29680133039106,-0.25491815468969,-3.008206,1.81091,0.26542094,277.37305,-59.299023,-2.974186,STU
6460517683000,3.255716,1.27787383483613,2.25608860637698,0.0411022978511048,-2.8927524,1.8399261,0.18020524,276.93265,-58.64123,-3.0715022,STU
6460522013000,3.260046,1.32502168915418,2.26223832371348,0.299390603644767,-2.806315,1.8710803,0.14355333,276.48752,-58.01933,-3.1894414,STU
6460527010000,3.265043,1.37943227299422,2.26933535316625,0.597466045688862,-2.7192667,1.9010127,0.10293079,276.0553,-57.391964,-3.3045802,STU
6460532031000,3.270064,1.43410418443324,2.2764664688121,0.896973108827426,-2.6212227,1.9110919,0.065973446,275.62793,-56.796715,-3.43041,STU
6460538658000,3.276691,1.25712016031337,2.24398145751686,1.27105611729472,-2.5216517,1.8994855,0.035124753,275.20978,-56.22826,-3.5678911,STU
6460541982000,3.280015,1.11506356162237,2.21872696866323,1.45415129333598,-2.3435845,1.9016235,0.026572637,274.79065,-55.714775,-3.7128265,STU
6460547025000,3.285058,0.827930465474033,2.18626662472961,1.69632186269122,-2.283109,1.924531,0.0030543262,274.36273,-55.107975,-3.8488266,STU
6460552014000,3.290047,0.492739442445679,2.15833405811166,1.91047168593004,-2.146275,1.9095647,-0.004581489,273.94507,-54.57835,-3.977002,STU
6460557008000,3.295041,0.123411749167966,2.17545853788643,2.1065452087148,-2.0253236,1.8469511,-0.0027488936,273.52744,-54.009792,-4.1312637,STU
6460562003000,3.300036,-0.275917647474544,2.23250550683424,2.28646290011925,-1.8845193,1.7831156,-0.006414085,273.1186,-53.489666,-4.285175,STU
6460567016000,3.305049,-0.643530800086458,2.32967903044418,2.4655719230736,-1.752267,1.7394388,0.003970624,272.70313,-52.970413,-4.4445524,STU
6460572013000,3.310046,-0.948671068669621,2.50035085529018,2.64141545120501,-1.6264287,1.6893479,0.004276057,272.30835,-52.49265,-4.5940022,STU
6460577007000,3.31504,-1.18874412039565,2.7274860811276,2.81916381184965,-1.4871514,1.6572775,0.037873644,271.90753,-52.01105,-4.819487,STU
6460582030000,3.320063,-1.36479346375866,3.01297149071217,2.99997129257171,-1.3552046,1.5858061,0.059864793,271.53165,-51.566746,-5.028521,STU
6460587738000,3.325771,-1.54144902504462,3.3200641725461,3.19682951414832,-1.2873985,1.4575244,0.108123146,271.16348,-51.121178,-5.2848907,STU
6460592019000,3.330052,-1.6593303456276,3.53956729048186,3.33910001346421,-1.087951,1.41904,0.12644911,270.7954,-50.75374,-5.5420833,STU
6460597003000,3.335036,-1.80069893814229,3.78820806567194,3.56960323347826,-1.0073168,1.2867876,0.18295415,270.46667,-50.37591,-5.7735677,STU
6460602024000,3.340057,-1.94799533152174,4.03053427663044,3.87845040108696,-0.883922,1.0784826,0.24190263,270.16217,-50.070965,-5.9750657,STU
6460606946000,3.344979,-1.9823466055416,4.17390014600266,4.28268163056992,-0.7431176,0.8213083,0.27458394,269.8928,-49.80161,-6.1538725,STU
6460612018000,3.350051,-1.86749852207773,4.1930416056746,4.83778083805724,-0.59406644,0.5494733,0.31795537,269.66177,-49.575474,-6.2729697,STU
6460616989000,3.355022,-1.75493743712132,4.21180189668982,5.38182621668883,-0.41722095,0.28313604,0.34147367,269.48584,-49.37021,-6.3741302,STU
6460622079000,3.360112,-1.63968176976504,4.23101128740949,5.93889541347717,-0.23365596,0.003970624,0.37110063,269.36414,-49.21384,-6.4095716,STU
6460626933000,3.364966,-1.5384575247355,4.24421711355799,6.34385222242359,-0.037873644,-0.24709499,0.39400807,269.2918,-49.11343,-6.3961077,STU
6460632053000,3.370086,-1.44719267207092,4.2490205242163,6.54559562054271,0.15149458,-0.4382958,0.419359,269.26132,-49.065567,-6.3352094,STU
6460636998000,3.375031,-1.35530574087487,4.25058734348613,6.74472716291814,0.34238997,-0.5681047,0.42485678,269.2537,-48.89652,-6.1808114,STU
6460641991000,3.380024,-1.25505093556657,4.24603030904412,6.95435093758696,0.53023106,-0.6017023,0.42088616,269.2585,-48.783546,-6.010443,STU
6460647006000,3.385039,-1.13981258854901,4.21442632326764,7.22696114756087,0.7122689,-0.56321776,0.43585235,269.27066,-48.689964,-5.8135076,STU
6460652020000,3.390053,-0.977082849642379,4.09452013302417,7.70230305910996,0.88361657,-0.47128254,0.43799037,269.27594,-48.647316,-5.6308994,STU
6460657485000,3.395518,-0.792805586700777,3.96897259230699,8.2229682774783,1.0345002,-0.36835176,0.44226643,269.26147,-48.61367,-5.442859,STU
6460662000000,3.400033,-0.575522764827775,3.91366427544998,8.67728659451804,1.1551461,-0.2489276,0.42638394,269.22247,-48.61962,-5.285962,STU
6460666992000,3.405025,-0.335284482039287,3.85251275435359,9.17960266066697,1.2635747,-0.16279559,0.39003745,269.14658,-48.558094,-5.127076,STU
6460672019000,3.410052,-0.244325881909293,4.1294263566309,9.61203037254505,1.3723087,-0.14294247,0.32436943,269.0646,-48.531033,-4.993268,STU
6460676936000,3.414969,-0.191888068000607,4.48218969716542,10.0172318903624,1.457219,-0.16310102,0.2950479,268.97083,-48.52914,-4.8721886,STU
6460682081000,3.420114,-0.474137883027869,5.06930103927403,9.86181245918873,1.4795157,-0.20586158,0.22266038,268.8651,-48.4472,-4.743385,STU
6460686957000,3.42499,-0.812216341633442,5.67135864712883,9.59320255102648,1.457219,-0.24740042,0.14996742,268.76904,-48.37906,-4.6205935,STU
6460692016000,3.430049,-1.04377554981956,6.38563818746439,9.28334208926876,1.3845261,-0.28160888,0.08460484,268.68936,-48.292706,-4.493679,STU
6460696977000,3.43501,-1.24230016478633,7.10754566410256,8.97201931623932,1.3045027,-0.20219639,0.045814894,268.6034,-48.202312,-4.3936296,STU
6460702000000,3.440033,-1.00051074387786,7.96786898575064,8.66497269618321,1.2620476,0.029626964,0.01863139,268.5527,-48.22429,-4.373778,STU
6460706934000,3.444967,-0.577287003279389,8.86721942259542,8.36679186748092,1.1881329,0.23793201,0.033292156,268.4887,-48.218582,-4.36482,STU
6460712008000,3.450041,-0.157575708784547,9.45787303120357,7.38814296780584,1.2370021,0.2648101,0.13255776,268.4367,-48.401737,-4.376023,STU
6460716955000,3.454988,0.246027645780089,9.91309994056463,6.1914124581476,1.4123205,0.2764165,0.28038713,268.3338,-48.599922,-4.407113,STU
6460722013000,3.460046,-0.0419680472409112,10.1735386715463,6.05989033276781,1.6905695,0.35430184,0.34697145,268.25366,-49.013435,-4.389021,STU
6460727308000,3.465341,-0.636811699286476,10.3603492488609,6.37943447115851,1.9709567,0.37568212,0.40103304,268.16165,-49.47038,-4.3350263,STU
6460732031000,3.470064,-1.12229215398253,10.7457304507645,6.97489333093054,2.107485,0.22876903,0.42088616,268.1488,-50.204613,-4.2073092,STU
6460738575000,3.476608,-1.76843752550896,11.4083034464832,7.9824420491481,2.0748038,-0.20250183,0.40653083,268.1951,-50.94907,-4.0313935,STU
6460741978000,3.480011,-2.37501845854876,11.6521954311808,7.85633379680607,1.9263636,-0.66798115,0.3454443,268.29712,-51.641964,-3.9047658,STU
6460747018000,3.485051,-3.62276570997106,11.8834378146522,6.83019422359517,1.7794504,-0.77213365,0.24678956,268.4305,-52.303787,-3.78357,STU
6460752009000,3.490042,-4.77326670325247,11.8893018097465,5.99788356588709,1.7681495,-0.54611355,0.17592919,268.5614,-52.890182,-3.7150285,STU
6460757012000,3.495045,-5.77915868323725,11.5088354420755,5.48190795273578,1.8988746,-0.2932153,0.12308934,268.7246,-53.458553,-3.6549218,STU
6460761980000,3.500013,-5.99366226467555,11.1301161386322,5.40860221602296,2.0094411,-0.19700404,0.10751228,268.91602,-54.180553,-3.7718205,STU
6460767024000,3.505057,-5.49082355417842,10.7447629297597,5.73756214072381,2.0607538,-0.26053402,0.14446963,269.08734,-54.90292,-3.9005208,STU
6460771993000,3.510026,-4.7419404478086,10.338894776538,5.91790839505428,2.1218405,-0.344528,0.22174409,269.24274,-55.67115,-4.1501846,STU
6460777053000,3.515086,-3.68976237945316,9.89561604010856,5.93739305729795,2.277611,-0.571159,0.28221974,269.44595,-56.461857,-4.356641,STU
6460782034000,3.520067,-2.73610338117461,9.52040074154637,5.91491772127744,2.3893993,-0.8573494,0.30451632,269.6404,-57.159332,-4.4609704,STU
6460787030000,3.525063,-1.86566493252917,9.20817790982796,5.84868886029266,2.5751023,-1.142318,0.35979962,269.87872,-57.910336,-4.508022,STU
6460791993000,3.530026,-1.1478450411719,9.01292211786998,5.62640630628705,2.6929994,-1.3961325,0.3811799,270.16202,-58.62236,-4.3873158,STU
6460797030000,3.535063,-0.594727964629288,8.95198572432222,5.21391203030804,2.7641652,-1.6001616,0.38423425,270.50156,-59.36186,-4.2297587,STU
6460801955000,3.539988,-0.215676997131394,8.91975518996991,4.71174281692076,2.814867,-1.7263051,0.3484986,270.88074,-60.099407,-3.9374464,STU
6460807013000,3.545046,-0.0796383075827483,8.92947243490472,4.04126646191575,2.869234,-1.7443258,0.30176744,271.28778,-60.844334,-3.6473265,STU
6460811952000,3.549985,-0.0291852196991118,8.94889513920609,3.53202251761827,2.8961122,-1.6551393,0.2434298,271.72183,-61.643772,-3.303056,STU
6460817010000,3.555043,-0.103815574217872,8.98401509679173,3.2335010903752,2.9239066,-1.5008959,0.16523905,272.15558,-62.441734,-2.9995944,STU
6460821944000,3.559977,-0.150730011248912,9.06286459585492,2.9733890811399,2.9287934,-1.3307699,0.12583824,272.58734,-63.340996,-2.71075,STU
6460827027000,3.56506,-0.0851522040034197,9.34030948445596,2.84223345927461,2.8973339,-1.178359,0.11942416,272.994,-64.22025,-2.465629,STU
6460832065000,3.570098,0.0133147581326279,9.58766376028459,2.75591806404269,2.8887818,-1.1102476,0.1441642,273.39328,-65.154396,-2.2518868,STU
6460837039000,3.575072,0.195807831373347,9.76146656316702,2.78198848447505,2.9141326,-1.1410962,0.17073683,273.78464,-66.072075,-2.0584314,STU
6460841992000,3.580025,0.36297929401604,9.91844078223319,2.80443869111659,2.9581149,-1.2027937,0.18448131,274.16498,-67.02537,-1.8610572,STU
6460847061000,3.585094,0.350144668213625,9.87565872600687,2.78304766300344,2.9953778,-1.2577715,0.18997909,274.55435,-67.96612,-1.668547,STU
6460851918000,3.589951,0.337846822973473,9.83466593707588,2.76255126853794,3.025921,-1.3139712,0.17654006,274.94293,-68.91576,-1.4505388,STU
6460857014000,3.595047,0.241730060347709,9.81085078031838,2.63849383991317,3.0546317,-1.3759739,0.12186762,275.35452,-69.85592,-1.248623,STU
6460861938000,3.599971,0.127991039930535,9.79265264544139,2.49290790578871,3.0662382,-1.4248432,0.04795292,275.7833,-70.780876,-1.0640936,STU
6460867013000,3.605046,-0.0757204929334657,9.79449630883813,2.38866671052632,3.0717359,-1.4587462,-0.029626964,276.23322,-71.694496,-0.90544933,STU
6460871952000,3.609985,-0.305878640404767,9.80389021817279,2.30411882894737,3.0534098,-1.46852,-0.12644911,276.69904,-72.585785,-0.78166777,STU
6460877073000,3.615106,-0.494113924899905,9.81335116110581,2.08830075691134,3.043636,-1.4944818,-0.17379116,277.1699,-73.50434,-0.67645717,STU
6460882034000,3.620067,-0.657162481948522,9.82240959714013,1.83014053212583,3.0457742,-1.4941764,-0.2864958,277.6502,-74.40147,-0.6278213,STU
6460887073000,3.625106,-0.801994174541752,9.8227026904277,1.6961870299389,3.011871,-1.4489723,-0.39461896,278.13452,-75.291245,-0.628904,STU
6460892018000,3.630051,-0.932202671588595,9.81788005651731,1.63831658121181,2.9865203,-1.3542882,-0.4886922,278.61154,-76.16483,-0.6688871,STU
6460897037000,3.63507,-0.986170486293871,9.79444243533092,1.65893713976928,2.935513,-1.2592987,-0.5720753,279.0847,-77.065506,-0.76061165,STU
6460902024000,3.640057,-1.00017757445498,9.76175903460749,1.71963457055431,2.869234,-1.1600331,-0.6365216,279.53305,-77.93272,-0.884343,STU
6460907008000,3.645041,-0.99823654067086,9.72134202515723,1.7986728721174,2.8142562,-1.0876455,-0.68386364,279.95807,-78.78554,-1.0438659,STU
6460912536000,3.650569,-0.985023864620146,9.6711339113507,1.89908932047519,2.7797422,-1.0494665,-0.7049385,280.36432,-79.60099,-1.21953,STU
6460917016000,3.655049,-0.974316051901767,9.63044426774483,1.98046878658281,2.7714956,-1.0519099,-0.7113526,280.7451,-80.37761,-1.398743,STU
6460922014000,3.660047,-0.962370148337826,9.58504988409704,2.07125775345912,2.7956247,-1.1074986,-0.7021896,281.12793,-81.12796,-1.5795243,STU
6460926992000,3.665025,-0.95479145526658,9.52967013524057,1.87286981742523,2.8130345,-1.1600331,-0.68233645,281.49805,-81.85354,-1.7532637,STU
6460932022000,3.670055,-0.949972854136241,9.46702884885466,1.48256486173852,2.8313603,-1.1630874,-0.636827,281.8661,-82.55934,-1.9175695,STU
6460937104000,3.675137,-0.98817160993605,9.27387496153479,1.31114231256085,2.849381,-1.0803152,-0.61391956,282.19485,-83.215355,-2.0681574,STU
6460941993000,3.680026,-1.05073669403932,9.01020774305622,1.27985975884318,2.8597655,-1.02717,-0.61758476,282.53012,-83.84303,-2.213101,STU
6460947150000,3.685183,-1.05561248161923,8.68376299188328,1.18178170353437,2.8414397,-1.070236,-0.63255095,282.88446,-84.49643,-2.3575075,STU
6460952019000,3.690052,-1.00770383280592,8.33402992057947,1.03326494724134,2.7962356,-1.1392636,-0.6719518,283.2302,-85.08823,-2.5124896,STU
6460956993000,3.695026,-0.991876333143786,7.96818140982941,0.879813712632006,2.701857,-1.1215485,-0.68508536,283.56403,-85.59455,-2.680129,STU
6460961998000,3.700031,-1.00161067189277,7.59340916470349,0.724064191003249,2.5723536,-1.0961977,-0.7257079,283.9147,-85.986336,-2.866128,STU
6460967012000,3.705045,-0.990204057853649,7.32806878696439,0.53372525026169,2.4275784,-1.0839803,-0.79351395,284.27026,-86.26045,-3.0633047,STU
6460972016000,3.710049,-0.96441920267071,7.13819843941988,0.320414097463804,2.302962,-1.0638218,-0.88270026,284.61465,-86.38498,-3.2786999,STU
6460976982000,3.715015,-0.93883015574056,6.94976995302778,0.108722813532088,2.205529,-0.98532563,-0.9251554,284.91028,-86.39343,-3.4931567,STU
6460982724000,3.720757,-0.909242498174526,6.73189714415476,-0.136047897771962,2.1884248,-0.8206975,-1.0503827,285.1739,-86.23306,-3.7555153,STU
6460987124000,3.725157,-0.83642104661704,6.70884086410824,-0.215793654324515,2.150551,-0.7684685,-1.0894781,285.4333,-94.0119,-4.002626,STU
6460992004000,3.730037,-0.718890578776783,6.7887615288301,-0.225196090377226,2.1316142,-0.7318166,-1.1603385,285.64783,-94.37121,-4.2913923,STU
6460997007000,3.73504,-0.504926633267524,7.00887806315684,-0.368397179298036,2.1111503,-0.6789767,-1.2018774,285.86115,-94.80913,-4.583701,STU
6461001977000,3.74001,-0.205934297620899,7.35532938422575,-0.634168110178482,2.0882428,-0.5910121,-1.2189816,286.05167,-95.30263,-4.884395,STU
6461006990000,3.745023,0.103662916645289,7.84721259250123,-0.840694317414899,2.0522017,-0.43951756,-1.1820242,286.193,-95.79413,-5.148388,STU
6461011999000,3.750032,0.420782326089788,8.47671811149482,-0.987421246857425,2.0115793,-0.2648101,-1.0922271,286.30225,-96.29193,-5.3953743,STU
6461016966000,3.754999,0.668026925706069,9.04807811701706,-1.06755758032527,1.9856175,-0.105374254,-0.96944314,286.36157,-96.7525,-5.550931,STU
6461022004000,3.760037,0.845057274652915,9.56960004641016,-1.07712678270528,1.9630154,0.053145275,-0.81031275,286.3764,-97.193695,-5.6644487,STU
6461026970000,3.765003,0.964737074280487,9.95416552002769,-1.05378502128375,1.9581286,0.16279559,-0.65057147,286.33826,-97.60254,-5.706089,STU
6461032025000,3.770058,1.02219226627435,10.1935623408169,-0.991541927870636,1.9483547,0.27550024,-0.4813618,286.26105,-97.98478,-5.694706,STU
6461036965000,3.774998,1.06176654419988,10.3196392581797,-0.695671568798334,1.969735,0.35246924,-0.3866777,286.14642,-98.34495,-5.634384,STU
6461041982000,3.780015,1.08082139472536,10.3101121313702,-0.0954433444883998,2.0295997,0.28252518,-0.31703907,286.0501,-98.69795,-5.536157,STU
6461046933000,3.784966,1.11334810928875,10.2594975773074,0.486510096338906,2.0790799,0.106595986,-0.23884831,285.96155,-99.02475,-5.3984885,STU
6461052354000,3.790387,1.16983981993273,10.1413778000791,1.10791871500841,2.1056526,-0.10842858,-0.12675454,285.91284,-99.35591,-5.2399616,STU
6461056906000,3.794939,1.2025476346651,10.0153851034078,1.57119265370153,2.1056526,-0.35338554,0.009162978,285.8783,-99.59396,-5.044993,STU
6461061908000,3.799941,1.21662024148061,9.83713227967097,1.9933711520564,2.098933,-0.61453044,0.16523905,285.91904,-99.829445,-4.829077,STU
6461066841000,3.804874,1.14216079550874,9.63678846253974,2.35968833808625,2.1050417,-0.74189585,0.28160888,285.9525,-99.974815,-4.580429,STU
6461071908000,3.809941,0.886610194992051,9.3812377613275,2.63452571083068,2.1056526,-1.0424415,0.32284227,286.1145,-100.11957,-4.3368955,STU
6461076867000,3.8149,0.620307292366171,9.13863313433747,2.82348049626501,2.081218,-1.3096951,0.36713,286.2766,-100.19343,-4.063754,STU
6461081951000,3.819984,0.313093160589253,8.90574495603501,2.848255967586,2.0421226,-1.53205,0.36743546,286.51053,-100.27677,-3.8125813,STU
6461086857000,3.82489,0.0461297834672115,8.74914874048236,2.68117285989635,1.9761491,-1.6548339,0.34697145,286.7916,-100.33443,-3.6029053,STU
6461091915000,3.829948,-0.175936837060993,8.71052868746263,2.16462655062787,1.915368,-1.6526959,0.32620203,287.0962,-100.39202,-3.406007,STU
6461096878000,3.834911,-0.295842134431334,8.69962557739217,1.7445153135647,1.8701639,-1.611768,0.26297748,287.40167,-100.49153,-3.2877395,STU
6461101919000,3.839952,-0.238398387393158,8.73792118215171,1.47644453070897,1.8078557,-1.5867225,0.17379116,287.7036,-100.57821,-3.1893713,STU
6461106873000,3.844906,-0.150087197252029,8.77872353316175,1.20836707109483,1.6945401,-1.5696182,0.10293079,288.0138,-100.76574,-3.1639767,STU
6461111917000,3.84995,0.00292935828944765,8.8265411724411,0.92624274969313,1.5699236,-1.5210545,0.05222898,288.3004,-100.93807,-3.1585433,STU
6461116895000,3.854928,0.155921457982481,8.89900732636338,0.678167251161345,1.4553864,-1.4361442,0.0036651916,288.563,-101.13859,-3.1758165,STU
6461121908000,3.859941,0.314186367736649,9.02561945436564,0.492771212941509,1.3365731,-1.3603969,-0.041233405,288.8084,-101.30574,-3.2060165,STU
6461127007000,3.86504,0.469668550411371,9.22057783914953,0.31724822817333,1.212873,-1.2272283,-0.087659165,289.0172,-101.48171,-3.2312825,STU
6461132012000,3.870045,0.602597382962792,9.64890381904322,0.191704341944997,1.0925325,-1.0839803,-0.12675454,289.19733,-101.62702,-3.2635877,STU
6461139091000,3.877124,0.78147388815889,10.2504877990752,0.0268021773879781,0.9560041,-0.90133166,-0.15149458,289.32782,-101.75376,-3.2774003,STU
6461141981000,3.880014,0.726213015554855,10.4366297957125,0.137323918344262,0.70952,-0.8594874,-0.16584991,289.45483,-101.817955,-3.29996,STU
6461147048000,3.885081,0.62932483511034,10.7629901752837,0.331100271778689,0.6227771,-0.8347474,-0.18173242,289.526,-101.88599,-3.2908814,STU
6461151952000,3.889985,0.475720712618459,10.984856774953,0.369638775491146,0.45265114,-0.88178396,-0.19150625,289.60507,-101.86513,-3.2872012,STU
6461156979000,3.895012,0.294751368091799,11.1753506857256,0.350589374468296,0.3023783,-0.9804387,-0.20280726,289.69055,-101.8288,-3.2912035,STU
6461161971000,3.900004,0.135211393927276,11.4135909927467,0.0100337916033594,0.18173242,-1.0290025,-0.20433442,289.75076,-101.72518,-3.3002882,STU
6461166988000,3.905021,-0.0161100184393968,11.6749643393777,-0.476028921336133,0.105068825,-0.9990701,-0.17531833,289.8169,-101.59549,-3.3056335,STU
6461171969000,3.910002,-0.0598665360025473,11.8883333329088,-0.943925811746841,0.05681047,-0.81031275,-0.16035213,289.84363,-101.461945,-3.3358994,STU
6461176949000,3.914982,-0.0318313657076516,12.0705617153914,-1.40183356720878,0.059253927,-0.4529566,-0.13805555,289.81473,-101.32381,-3.345019,STU
6461182032000,3.920065,0.163354167630061,12.1856553364815,-1.61435148971164,0.11056661,-0.04337143,-0.12095132,289.72205,-101.29267,-3.3724182,STU
6461187043000,3.925076,0.486401321903547,12.2435151931076,-1.62399468167387,0.24312437,0.31337386,-0.10598512,289.5455,-101.28384,-3.37762,STU
6461191951000,3.929984,0.843747779029449,12.2318155305261,-1.53666902995152,0.41691554,0.48166725,-0.08277224,289.3365,-101.36776,-3.3663254,STU
6461196958000,3.934991,1.23982412246543,12.1672374580715,-1.3730722953313,0.62949663,0.4578435,-0.054367006,289.08673,-101.4936,-3.3413918,STU
6461201943000,3.939976,1.57792976654751,12.1063879504704,-1.27157562597366,0.83016586,0.2864958,-0.03390302,288.83978,-101.631836,-3.264759,STU
6461206974000,3.945007,1.8045568646096,12.051997539699,-1.29423836417686,0.99021256,0.043676864,-0.0125227375,288.62625,-101.81209,-3.1880064,STU
6461211927000,3.94996,1.95309240224696,12.0275057995065,-1.34537147363503,1.0656544,-0.16707164,-0.0143553335,288.45206,-101.95983,-3.055658,STU
6461217012000,3.955045,1.80480976585468,12.1195432850693,-1.51410681934061,1.0693196,-0.35033122,-0.006414085,288.34338,-102.129196,-2.9307852,STU
6461221911000,3.959944,1.53894595462898,12.2298576749117,-1.67338378586572,1.0085385,-0.5314528,0.009162978,288.29953,-102.28999,-2.787814,STU
6461226955000,3.964988,0.968351992,12.3956716,-1.82944372,0.93187493,-0.66767573,0.027488936,288.29703,-102.44713,-2.6541307,STU
6461231959000,3.969992,0.333498906631105,12.5469665069438,-1.95292697711763,0.82344633,-0.79168135,0.038179077,288.34998,-102.609474,-2.5538812,STU
6461237533000,3.975566,-0.535484689263313,12.6844325328796,-2.01675058436494,0.7360926,-0.86009824,0.04184427,288.42682,-102.755165,-2.4591413,STU
6461241937000,3.97997,-1.2372096301161,12.8184557800079,-2.0664033040732,0.6301075,-0.8753699,0.021685716,288.51898,-102.920746,-2.4577498,STU
6461246966000,3.984999,-2.12804111883117,13.1217177402597,-2.11852648441558,0.5271767,-0.8167268,0.0009162979,288.6093,-103.0598,-2.4566462,STU
6461251988000,3.990021,-2.9825028487768,13.4404396061613,-2.16956475457566,0.42119157,-0.67347896,-0.02565634,288.67383,-103.22175,-2.5769172,STU
6461256976000,3.995009,-3.57402601760797,13.8732617187154,-2.21284691561462,0.3115413,-0.4538729,-0.05589417,288.69846,-103.351265,-2.6911714,STU
6461261993000,4.000026,-4.10452618192201,14.2833973938677,-2.17837325296841,0.18509217,-0.20769419,-0.093767814,288.7366,-103.46104,-2.8974912,STU
6461267020000,4.005053,-4.21845567064513,14.531069858113,-1.63844691884968,0.051923547,-0.109650314,-0.15302174,288.7497,-103.540535,-3.1070833,STU
6461272058000,4.010091,-4.26319774589354,14.7683611037132,-1.06134041153466,-0.12675454,0.027488936,-0.17806722,288.70782,-103.58185,-3.3577833,STU
6461276964000,4.014997,-4.03975183563197,14.9574305544174,-0.360923184411926,-0.21502456,0.070249505,-0.22327125,288.6581,-103.61903,-3.6219,STU
6461282284000,4.020317,-3.797480585207,15.1621675459008,0.38932047588938,-0.41783184,0.03268129,-0.23671028,288.56476,-103.49925,-3.874445,STU
6461287013000,4.025046,-3.58256103889707,15.3400320380461,0.922913619569629,-0.6243043,-0.0729984,-0.2510656,288.4749,-103.365814,-4.133225,STU
6461291927000,4.02996,-3.35923377085583,15.5248546462936,1.4773810985387,-0.82894415,-0.19914207,-0.27916542,288.35425,-103.05876,-4.352737,STU
6461296974000,4.035007,-3.20943511247807,15.6376533036433,2.06839356249355,-1.0021244,-0.3371976,-0.2959642,288.2661,-102.72131,-4.5732594,STU
6461301981000,4.040014,-3.12530185429869,15.6871434859119,2.67217425126432,-1.1823297,-0.53023106,-0.27550024,288.22845,-102.3451,-4.794376,STU
6461307635000,4.045668,-3.11116342805011,15.5809799036492,3.19101928084916,-1.3109168,-0.7528914,-0.23151793,288.18616,-101.84489,-4.9707623,STU
6461311967000,4.05,-3.13178920989361,15.4365994307448,3.52515716208611,-1.421178,-0.9669997,-0.16829337,288.19632,-101.32538,-5.138165,STU
6461316979000,4.055012,-3.06769435294653,15.1561598216921,3.67161393714748,-1.5170839,-1.1365148,-0.12736541,288.22598,-100.724724,-5.2871246,STU
6461321980000,4.060013,-2.94666530006065,14.8027549791772,3.66193162100475,-1.6209309,-1.2348641,-0.109650314,288.2943,-100.12699,-5.4234743,STU
6461326962000,4.064995,-2.38964095994203,14.4575564185507,3.38925408537198,-1.7510452,-1.258077,-0.08857546,288.37027,-99.494545,-5.5442896,STU
6461332044000,4.070077,-1.55732484655072,14.1095823037681,2.95193536629952,-1.9083431,-1.2385293,-0.06505715,288.45715,-98.87824,-5.65349,STU
6461338642000,4.076675,-0.873305561948757,13.9711151913516,2.56442133402229,-2.1160371,-1.1988231,-0.044593163,288.54175,-98.27396,-5.7424474,STU
6461341977000,4.08001,-0.623856138479855,13.9771994460425,2.41231804794742,-2.3561072,-1.1221595,-0.019242255,288.604,-97.692085,-5.814645,STU
6461346968000,4.085001,-0.337606186741432,13.9907300836689,2.24589607978985,-2.6282477,-0.9877691,0.023518313,288.586,-97.10683,-5.7705355,STU
6461351982000,4.090015,-0.153701023572228,14.009592039674,2.15158585661396,-2.893974,-0.8362745,0.058948494,288.53296,-96.56055,-5.7176223,STU
6461356975000,4.095008,0.0142135050548549,14.0721931254998,2.10353054912335,-3.1435125,-0.66431594,0.083383106,288.4199,-96.053116,-5.610157,STU
6461361970000,4.100003,0.161356388161591,14.1948126164257,2.11824482657644,-3.3716707,-0.48899764,0.09743301,288.2558,-95.64414,-5.4959583,STU
6461366979000,4.105012,0.417251473732158,14.4282126381192,2.17821505791352,-3.5735617,-0.40469822,0.09682214,288.11356,-95.37369,-5.3678436,STU
6461371979000,4.110012,0.79417240152393,14.7850304382872,2.28877855497481,-3.6792414,-0.24648413,0.10262536,287.8941,-84.7039,-5.23657,STU
6461377402000,4.115435,1.34061632792587,15.3134891600436,2.35835831745119,-3.8563924,-0.04795292,0.19394971,287.65033,-84.58513,-5.07245,STU
6461382109000,4.120142,1.89454318737489,15.8540147133089,2.38962835839857,-4.0552287,-0.009162978,0.2764165,287.40216,-84.23663,-4.914281,STU
6461386996000,4.125029,2.34395405385228,16.3768612239639,2.39676392476089,-4.084245,0.01282817,0.48563787,287.14807,-83.76982,-4.662342,STU
6461391977000,4.13001,2.70302914759122,16.879566840418,2.38409069394261,-4.0527854,-0.12980886,0.70646566,286.92322,-83.14218,-4.387975,STU
6461396973000,4.135006,3.0835362484303,17.4201594796926,1.81871665396268,-3.892128,-0.4343252,0.9419542,286.7909,-82.482124,-3.988059,STU
