timestamp,rel_time,acc_x,acc_y,acc_z,gyro_x,gyro_y,gyro_z,azimuth,pitch,roll,label
29815274871000,0,0.616066262887202,-9.342503065058,1.79780409274501,-0.009468411,0.0018325958,0.028405234,57.147877,-68.77485,13.361712,STD
29815279871000,0.005,0.617262867046476,-9.34226373937816,1.79098344706297,-0.008552114,-0.005497787,0.025961773,57.128147,-68.33831,13.564963,STD
29815284913000,0.010042,0.618469522680688,-9.3420224033626,1.7841055079572,-0.01282817,-0.005497787,0.029932396,57.105114,-67.896095,13.770456,STD
29815289969000,0.015098,0.619679528806545,-9.34178039723515,1.77720847104352,-0.021380283,-0.016798794,0.03756821,57.085274,-67.447945,13.979185,STD
29815294920000,0.020049,0.620864406245058,-9.34154341694697,1.77045466768916,-0.024740042,-0.014660766,0.035124753,57.060226,-66.99614,14.186315,STD
29815299955000,0.025084,0.622069386633447,-9.34130241598736,1.76358627748734,-0.014966198,-0.016798794,0.041233405,57.03597,-66.537544,14.400426,STD
29815305072000,0.030201,0.623293991330048,-9.34105749008661,1.75660602869634,-0.021685716,-0.0061086523,0.037873644,57.006554,-66.07173,14.61102,STD
29815309950000,0.035079,0.624461398347836,-9.34082400395336,1.74995180676894,-0.026572637,-0.0067195175,0.04520403,56.977097,-65.600716,14.82844,STD
29815315091000,0.04022,0.625691746744401,-9.34057792928934,1.74293881887867,-0.03604105,-0.0070249503,0.040011674,56.943974,-65.12516,15.041476,STD
29815319916000,0.045045,0.6268464697581,-9.3403469800083,1.73635689579549,-0.040317107,-0.0018325958,0.046120327,56.9054,-64.641594,15.259909,STD
29815324888000,0.050017,0.628036372934082,-9.34010899455226,1.72957444572927,-0.044593163,-0.00580322,0.044898596,56.868496,-64.15332,15.476704,STD
29815330235000,0.055364,0.62931602142201,-9.33985305967024,1.7222804472369,-0.04062254,0.0009162979,0.04184427,56.82448,-63.66046,15.693703,STD
29815334934000,0.060063,0.630440590010895,-9.33962814139632,1.71587040442491,-0.02321288,0.007941248,0.044593163,56.77866,-63.164173,15.912885,STD
29815339947000,0.065076,0.631640305340983,-9.33938819346971,1.7090320250641,-0.030543262,0.023823744,0.051618114,56.726063,-62.658276,16.131195,STD
29815344935000,0.070064,0.632834037650275,-9.3391494421715,1.70222774893169,-0.026572637,0.026572637,0.04734206,56.67377,-62.15583,16.348312,STD
29815349968000,0.075097,0.634038539397,-9.33890853694217,1.69536208698815,-0.02321288,0.024740042,0.03848451,56.615795,-61.646572,16.565186,STD
29815354833000,0.079962,0.635202835243974,-9.33867567305568,1.68872559873952,-0.01740966,0.018325957,0.043982297,56.554756,-61.13253,16.785168,STD
29815359811000,0.08494,0.636394174344947,-9.33843740040883,1.68193496389848,-0.014660766,0.024740042,0.04428773,56.490047,-60.616486,17.000324,STD
29815364803000,0.089932,0.637588863937566,-9.33819845765007,1.67512523124953,-0.022602014,0.023518313,0.046120327,56.4259,-60.093708,17.219034,STD
29815369851000,0.09498,0.638796955496769,-9.33795683444371,1.66823910736894,-0.019547688,0.017715093,0.048563786,56.35868,-59.56956,17.437782,STD
29815374820000,0.099949,0.639986140710255,-9.33771899258308,1.66146074969013,-0.014049901,0.0009162979,0.052839845,56.291813,-59.03918,17.658926,STD
29815379803000,0.104932,0.641178676415388,-9.33748048061055,1.65466329420341,-0.009468411,0.0012217305,0.05131268,56.219803,-58.505573,17.87765,STD
29815384819000,0.109948,0.642379109707971,-9.33724038908853,1.64782082245518,-0.005192355,0.008857546,0.057726767,56.146084,-57.96689,18.100452,STD
29815389825000,0.114954,0.643577149792236,-9.33700077621787,1.64099199199832,-0.014660766,0.00061086525,0.05497787,56.075348,-57.423717,18.32225,STD
29815394797000,0.119926,0.644767052968218,-9.33676279076183,1.6342095419321,-0.016493361,-0.0030543262,0.062002823,56.01305,-56.864872,18.567036,STD
29815399806000,0.124935,0.645965811014979,-9.33652303429577,1.62737661908783,-0.014049901,-0.0076358155,0.06047566,55.951733,-56.303097,18.80927,STD
29815404935000,0.130064,0.647193287561562,-9.33627753401338,1.62038000074719,-0.022296581,-0.015577064,0.06688975,55.887047,-55.732334,19.055275,STD
29815409908000,0.135037,0.648383430058376,-9.33603950069221,1.61359618655183,-0.023823744,-0.020158553,0.070554934,55.820137,-55.160904,19.29931,STD
29815414849000,0.139978,0.64956591428857,-9.33580299905539,1.60685602448884,-0.015271631,-0.023823744,0.0729984,55.75109,-54.58557,19.544476,STD
29815419891000,0.14502,0.650772569922782,-9.33556166303984,1.59997808538307,-0.026267206,-0.01863139,0.07941248,55.6765,-54.00061,19.789652,STD
29815424855000,0.149984,0.651960558532109,-9.33532406050489,1.59320654834993,-0.029626964,-0.021685716,0.07727446,55.602665,-53.41708,20.033733,STD
29815429849000,0.154978,0.653155726766392,-9.33508502201586,1.58639408744271,-0.02565634,-0.018020526,0.08246681,55.520256,-52.82709,20.27798,STD
29815434888000,0.160017,0.654361664438108,-9.33484382959572,1.57952024072435,-0.035124753,-0.011301007,0.082161374,55.435757,-52.231125,20.518784,STD
29815439888000,0.165017,0.655558268597382,-9.33460450391587,1.57269959504231,-0.032375857,-0.009468411,0.08399397,55.347027,-51.63452,20.759901,STD
29815444849000,0.169978,0.656745539244214,-9.33436704497633,1.56593215039659,-0.036957346,-0.010995574,0.08399397,55.254513,-51.031113,20.998215,STD
29815449853000,0.174982,0.657943100686815,-9.33412752783595,1.559106048198,-0.0290161,-0.01038471,0.08735373,55.156788,-50.427303,21.235268,STD
29815454916000,0.180045,0.659154782058496,-9.33388518665254,1.55219946238036,-0.025045475,-0.005497787,0.08552113,55.055996,-49.819225,21.46865,STD
29815459879000,0.185008,0.660342531346991,-9.33364763198273,1.54542928947637,-0.01160644,-0.008246681,0.09743301,54.95064,-49.209442,21.705116,STD
29815464871000,0.19,0.66153722093961,-9.33340868922397,1.53861955682742,-0.017104227,-0.01740966,0.090713486,54.84605,-48.59647,21.934908,STD
29815469902000,0.195031,0.662741244044672,-9.33316787972491,1.53175662314215,-0.01038471,-0.016187929,0.0852157,54.73392,-47.984547,22.164251,STD
29815474900000,0.200029,0.663937369562282,-9.33292864977534,1.52493870571838,-0.011911872,-0.0290161,0.090713486,54.623436,-47.365852,22.396193,STD
29815479873000,0.205002,0.665127512059095,-9.33269061645417,1.51815489152302,-0.008552114,-0.027794369,0.09254608,54.507587,-46.748623,22.620966,STD
29815484920000,0.210049,0.666335364297467,-9.33244904111294,1.51127013177156,-0.008552114,-0.02687807,0.09407325,54.4496890649493,-46.4369112642729,22.7340676937537,STD
29815489927000,0.215056,0.667533643702563,-9.33220938037714,1.50443993718557,-0.007330383,-0.029932396,0.08979719,54.39225,-46.12767,22.846273,STD
29815494875000,0.220004,0.668717803178581,-9.33197254368437,1.49769022621862,-0.002443461,-0.041233405,0.08460484,54.27568,-45.505856,23.0703,STD
29815499874000,0.225003,0.669914168017023,-9.33173326586966,1.49087094466571,-0.006414085,-0.043676864,0.094989546,54.15165,-44.87761,23.293264,STD
29815504953000,0.230082,0.671129678522013,-9.33149015884408,1.4839425327819,0.00030543262,-0.03940081,0.09560041,54.028404,-44.252968,23.510948,STD
29815509878000,0.235007,0.672308333618898,-9.33125442304943,1.47722419678508,-0.00061086525,-0.04550946,0.092240654,53.903637,-43.62211,23.729555,STD
29815515695000,0.240824,0.673700462897797,-9.3309759915535,1.4692890575986,-0.008857546,-0.047647487,0.09407325,53.7725,-42.987835,23.944912,STD
29815519894000,0.245023,0.674705371070756,-9.33077500584757,1.46356107935482,-0.008552114,-0.044898596,0.109650314,53.636208,-42.35144,24.1596,STD
29815524880000,0.250009,0.675898624738384,-9.33053635027963,1.45675953148069,0.0027488936,-0.04734206,0.10842858,53.501564,-41.715855,24.36932,STD
29815529870000,0.254999,0.677092835689339,-9.33029750325115,1.44995252709001,0.00061086525,-0.049785517,0.10445796,53.360374,-41.07295,24.577955,STD
29815534923000,0.260052,0.678302123852701,-9.3300556407191,1.44305958256374,-0.008552114,-0.0571159,0.11026118,53.21583,-40.42765,24.78644,STD
29815539951000,0.26508,0.679505428995267,-9.32981497481545,1.43620074126587,-0.01038471,-0.04550946,0.10781772,53.067158,-39.783527,24.985615,STD
29815544878000,0.270007,0.680684562733816,-9.32957914329053,1.42947967701079,-0.015271631,-0.05009095,0.11301007,52.91768,-39.132435,25.188679,STD
29815549866000,0.274995,0.681878295043107,-9.32934039199232,1.42267540087839,-0.016187929,-0.030848695,0.116675265,52.7583,-38.480602,25.379944,STD
29815554929000,0.280058,0.683089976414788,-9.32909805080891,1.41576881506075,-0.019242255,-0.023518313,0.118202426,52.598984,-37.824814,25.571367,STD
29815559878000,0.285007,0.684274375211637,-9.32886116625101,1.40901773996466,-0.025350908,-0.02321288,0.118507855,52.43371,-37.165947,25.756802,STD
29815564876000,0.290005,0.685470500729247,-9.32862193630143,1.4021998225409,-0.02321288,-0.0143553335,0.12064589,52.26166,-36.506126,25.935465,STD
29815569910000,0.295039,0.686675241796804,-9.32838098320697,1.39533279646822,-0.03359759,-0.013744468,0.12064589,52.089245,-35.840496,26.111305,STD
29815574876000,0.300005,0.687863709047795,-9.32814328494175,1.38855853117681,-0.026572637,-0.0027488936,0.11759156,51.91071,-35.178173,26.27857,STD
29815579869000,0.304998,0.689058637961246,-9.32790429431786,1.38174743439872,-0.031154128,-0.008552114,0.12675454,51.730255,-34.50718,26.44726,STD
29815585751000,0.31088,0.704134669947524,-9.3332398966665,1.36557895971313,-0.033292156,-0.0070249503,0.12675454,51.546997,-33.838955,26.605253,STD
29815589941000,0.31507,0.719777090213404,-9.3390556602229,1.35113980383327,-0.034513887,-0.008246681,0.12522738,51.361557,-33.167347,26.762016,STD
29815594880000,0.320009,0.738215733099605,-9.3459110435654,1.33411951961118,-0.040927973,-0.004886922,0.12644911,51.20771,-32.507572,26.971317,STD
29815599867000,0.324996,0.756833573163077,-9.35283305140686,1.31693382262482,-0.043982297,-0.015577064,0.129198,51.05344,-31.847347,27.178774,STD
29815604916000,0.330045,0.775682876247189,-9.35984111589285,1.29953446748463,-0.04550946,-0.026267206,0.13041973,50.895393,-31.185081,27.380043,STD
29815609883000,0.335012,0.794226050820131,-9.36673536352641,1.28241769248338,-0.04550946,-0.020463986,0.13347405,50.73193,-30.52091,27.57524,STD
29815614867000,0.339996,0.812832691060023,-9.3736532073367,1.26524233379479,-0.043982297,-0.032070424,0.12980886,50.57209,-29.856815,27.770597,STD
29815619892000,0.345021,0.8315923955555,-9.38062795957319,1.24792568503673,-0.050396383,-0.03481932,0.13408493,50.40369,-29.188421,27.958708,STD
29815624880000,0.350009,0.850213968893498,-9.38755135542506,1.23073654195112,-0.062308256,-0.03634648,0.13744467,50.235565,-28.51915,28.142904,STD
29815629907000,0.355036,0.868981139938028,-9.39452888368234,1.21341300099455,-0.056199603,-0.0421497,0.14049901,50.064877,-27.851519,28.32371,STD
29815634919000,0.360048,0.887692311864661,-9.4014855917837,1.19614115152681,-0.058337633,-0.03390302,0.14263703,49.88881,-27.17816,28.49605,STD
29815639938000,0.365067,0.906429616712979,-9.40845201595782,1.17884517936429,-0.07391469,-0.05100725,0.13927728,49.716232,-26.502995,28.669846,STD
29815644873000,0.370002,0.924853326501075,-9.41530184725873,1.16183867953921,-0.07544186,-0.058643065,0.14508049,49.53521,-25.828634,28.83509,STD
29815649865000,0.374994,0.943489832937178,-9.42223079515218,1.14463575205657,-0.07147124,-0.06505715,0.14202617,49.35802,-25.153448,28.996578,STD
29815655642000,0.380771,0.965056959876555,-9.43024933120596,1.1247276366585,-0.08368854,-0.0693332,0.14813483,49.17532,-24.471502,29.155542,STD
29815659878000,0.385007,0.980871110770653,-9.43612894324054,1.1101299602129,-0.084910266,-0.06780604,0.15607607,48.99105,-23.79326,29.308416,STD
29815664865000,0.389994,0.999488950834125,-9.44305095108201,1.09294426322655,-0.080634214,-0.07727446,0.15668693,48.80759,-23.113562,29.45891,STD
29815669902000,0.395031,1.01829345462392,-9.45004235944325,1.07558626127743,-0.076358154,-0.083383106,0.15454891,48.62015,-22.432827,29.602722,STD
29815674877000,0.400006,1.03686649539307,-9.45694771115998,1.05844191748213,-0.08307768,-0.09315695,0.15790866,48.431183,-21.749676,29.74452,STD
29815679873000,0.405002,1.05551793492728,-9.46388221109501,1.04122520560248,-0.07971791,-0.086132,0.1600467,48.240284,-21.070744,29.876926,STD
29815684920000,0.410049,1.07435977146234,-9.4708874995602,1.0238327426608,-0.08857546,-0.08552113,0.16493362,48.048462,-20.386604,30.007998,STD
29815689934000,0.415063,1.09307840993803,-9.47784698368234,1.00655400099455,-0.08307768,-0.093462385,0.16401732,47.856796,-19.707691,30.132813,STD
29815694869000,0.419998,1.11150211972612,-9.48469681498326,0.989547501169474,-0.09010262,-0.09865474,0.1777618,47.657745,-19.021074,30.252613,STD
29815699870000,0.424999,1.13017222563297,-9.49163825497026,0.972313558793543,-0.09468412,-0.09896017,0.18448131,47.460686,-18.338135,30.365993,STD
29815704907000,0.430036,1.14897672942276,-9.4986296633315,0.95495555684442,-0.096516706,-0.10934488,0.1853976,47.262356,-17.653582,30.477926,STD
29815709884000,0.435013,1.16755723674097,-9.50553779106902,0.937804320850617,-0.09987647,-0.11178834,0.183565,47.061382,-16.967667,30.58185,STD
29815714872000,0.440001,1.18617881007896,-9.51246118692088,0.920615177765006,-0.10323623,-0.11575896,0.19517145,46.856876,-16.27993,30.683908,STD
29815719891000,0.44502,1.20491611492728,-9.51942761109501,0.903319205602479,-0.09896017,-0.12339478,0.20097467,46.655186,-15.595282,30.780426,STD
29815724940000,0.450069,1.22376541801139,-9.52643567558099,0.885919850462292,-0.098043874,-0.12217305,0.2012801,46.451023,-14.909055,30.869709,STD
29815729874000,0.455003,1.24218539452496,-9.53328411887151,0.868916796736469,-0.09743301,-0.1328632,0.1994475,46.247726,-14.224309,30.958212,STD
29815734971000,0.4601,1.26121389478635,-9.54035880785646,0.851352028832026,-0.09254608,-0.14630222,0.20952678,46.040863,-13.540116,31.04168,STU
29815739930000,0.465059,1.27972720316308,-9.54724195140687,0.834262822624819,-0.09101892,-0.16523905,0.21777347,45.836945,-12.857044,31.122826,STU
29815744872000,0.470001,1.29817704587286,-9.55410149878055,0.817232200104953,-0.08399397,-0.17379116,0.22082779,45.632145,-12.177092,31.198727,STU
29815749874000,0.475003,1.31685088505423,-9.56104432677795,0.799994811629767,-0.070249505,-0.1863139,0.21227567,45.43084,-11.501101,31.274319,STU
29815754928000,0.480057,1.33571885451097,-9.56805933131591,0.782578225993303,-0.07819075,-0.20097467,0.22296582,45.223633,-10.8197,31.34793,STU
29815759872000,0.485001,1.3541761637698,-9.57492165471038,0.765540711274926,-0.08124508,-0.23243423,0.22693644,45.02412,-10.146748,31.422337,STU
29815764871000,0.49,1.37283880312759,-9.5818603186766,0.748313661097506,-0.08674286,-0.2648101,0.21777347,44.82706,-9.473353,31.494627,STU
29815769906000,0.495035,1.39163584036833,-9.58884895101704,0.730962551346894,-0.08307768,-0.2764165,0.21777347,44.627018,-8.801291,31.564245,STU
29815774922000,0.500051,1.41036194539307,-9.59581121115998,0.713676917482133,-0.10751228,-0.3042109,0.2144137,44.43455,-8.124893,31.640404,STU
29815779870000,0.504999,1.42883418775001,-9.60267908659603,0.696625618366735,-0.11636983,-0.32803464,0.21410827,44.242023,-7.454727,31.712456,STU
29815784916000,0.510045,1.481357865625,-9.63916474431818,0.613867880113636,-0.1301143,-0.3481932,0.2125811,44.052795,-6.780265,31.784649,STU
29815789937000,0.515066,1.55672643017241,-9.69569132758621,0.486683412068966,-0.15271631,-0.3622431,0.20341812,43.86761,-6.1049385,31.855062,STU
29815794884000,0.520013,1.63466450945651,-9.7603831262449,0.376060658982263,-0.1685988,-0.3680463,0.20463985,43.734516,-5.445121,32.047634,STU
29815799877000,0.525006,1.71630216690695,-9.832949985488,0.276281286721047,-0.19517145,-0.36926803,0.19242255,43.608086,-4.784892,32.231583,STU
29815804913000,0.530042,1.80286964493761,-9.90016709648538,0.187676766811125,-0.21074851,-0.37415496,0.19242255,43.53044,-4.1445417,32.45387,STU
29815810676000,0.535805,1.90800566937804,-9.96850522144966,0.103567980193352,-0.21960606,-0.36560285,0.17806722,43.46002,-3.5087094,32.65849,STU
29815814889000,0.540018,1.98561096464429,-10.0065918761934,0.0569505910194025,-0.2507602,-0.3576616,0.17470746,43.444904,-2.8837616,32.901466,STU
29815819928000,0.545057,2.0797382017452,-10.0313621745201,0.0272262107835951,-0.26297748,-0.34697145,0.16676621,43.434116,-2.2704933,33.123474,STU
29815824939000,0.550068,2.16602663620166,-10.0501232361388,0.0237628471732523,-0.28496864,-0.3381139,0.16035213,43.508724,-1.6824368,33.381855,STU
29815829903000,0.555032,2.24076602704119,-10.0600886963631,0.0586412540182371,-0.29260445,-0.3210097,0.15577064,43.58187,-1.1029636,33.61174,STU
29815834932000,0.560061,2.295772262096,-10.0549163630978,0.0931066850981793,-0.30604348,-0.30482176,0.14202617,43.765915,-0.5630676,33.878334,STU
29815840995000,0.566124,2.33623870689084,-10.0296249011238,0.133573053834829,-0.31948254,-0.28252518,0.13469578,43.94246,-0.028109645,34.10803,STU
29815844928000,0.570057,2.35947119361179,-10.0101867567568,0.167535294717445,-0.33628133,-0.26328292,0.12736541,44.248768,0.46452713,34.376778,STU
29815849899000,0.575028,2.37746638272538,-9.9741960966736,0.239516102845398,-0.3417791,-0.23976462,0.11636983,44.544903,0.9499819,34.597492,STU
29815854895000,0.580024,2.39387557658447,-9.93942011315069,0.314613411519635,-0.3491095,-0.22418754,0.098043874,44.92716,1.4241489,34.862488,STU
29815860049000,0.585178,2.38936792113242,-9.92138958547945,0.427304882544292,-0.36468655,-0.20769419,0.08827003,45.288494,1.8958206,35.070114,STU
29815864833000,0.589962,2.38518386531507,-9.90465344958904,0.531906356619178,-0.37232238,-0.19761491,0.0693332,45.62364,2.415165,35.317497,STU
29815869983000,0.595112,2.36650087646442,-9.9182766406209,0.656887892941423,-0.38912117,-0.18081611,0.05589417,45.939716,2.931126,35.50482,STU
29815874791000,0.59992,2.34718347767056,-9.93517939923436,0.775206572893177,-0.40225476,-0.17837265,0.03481932,46.24769,3.4375126,35.64874,STU
29815879886000,0.605015,2.32671298123656,-9.9530911203524,0.900587952750537,-0.42852196,-0.19639318,0.02076942,46.405937,4.05843,35.817894,STU
29815884888000,0.610017,2.30535867800718,-9.96978744279872,1.01911894164173,-0.45081854,-0.21868975,-0.0012217305,46.358505,4.7973623,35.991894,STU
29815889829000,0.614958,2.26760172046679,-9.9745069208059,1.07575450115699,-0.49296826,-0.25167647,-0.019547688,46.3159,5.52838,36.13874,STU
29815894917000,0.620046,2.22699638252391,-9.98091804050253,1.1306917167823,-0.5143485,-0.28771752,-0.046120327,46.139385,6.331575,36.251595,STU
29815899788000,0.624917,2.16576627759235,-10.0071593770392,1.13943887462966,-0.56169057,-0.301462,-0.05681047,45.968178,7.136064,36.342766,STU
29815904863000,0.629992,2.10197182418901,-10.0344997143259,1.148552367973,-0.5766568,-0.32834008,-0.08032878,45.717133,7.9738855,36.425068,STU
29815910159000,0.635288,2.05821567932857,-10.0511576882188,1.10522365408766,-0.62125,-0.38087448,-0.10903945,45.47299,8.815151,36.500175,STU
29815915107000,0.640236,2.01828485487528,-10.0660311108277,1.05979713688398,-0.68233645,-0.43951756,-0.14477506,45.241405,9.647166,36.567837,STU
29815919842000,0.644971,1.96687198866213,-10.083168643424,0.991246585967498,-0.7351763,-0.49602258,-0.18784106,44.961586,10.511704,36.633854,STU
29815924803000,0.649932,1.9130052031746,-10.1011241448413,0.919424139695767,-0.79045963,-0.5519168,-0.23182335,44.68507,11.383247,36.707047,STU
29815929797000,0.654926,1.84768526,-10.0661815666667,0.735498761333333,-0.86345804,-0.5946773,-0.27122417,44.42044,12.253292,36.77872,STU
29815934835000,0.659964,1.78007045867868,-10.0227150743744,0.532654498574575,-0.93828905,-0.6337727,-0.31978795,44.171806,13.115977,36.85286,STU
29815939860000,0.664989,1.71654640211374,-9.99188017896326,0.33783907975843,-1.0152581,-0.659429,-0.36774087,43.934307,13.983692,36.92166,STU
29815944786000,0.669915,1.65481720120785,-9.96338970226472,0.147903105576246,-1.0998629,-0.6805039,-0.41813725,43.713768,14.849539,36.988533,STU
29815949817000,0.674946,1.62182558124626,-9.99251693409227,-0.0640768104194128,-1.171945,-0.6740898,-0.47036624,43.501457,15.715256,37.061165,STU
29815954998000,0.680127,1.59209676111444,-10.0307396141402,-0.284919629468459,-1.2513574,-0.6582073,-0.5207626,43.307198,16.581675,37.126205,STU
29815959874000,0.685003,1.56312010910055,-10.154072265804,-0.532656550114552,-1.3286319,-0.63316184,-0.5751296,43.131817,17.445162,37.189354,STU
29815964871000,0.69,1.53266485694739,-10.3469555117734,-0.816905287535002,-1.4309518,-0.602924,-0.6291912,42.97941,18.312016,37.23752,STU
29815969897000,0.695026,1.50696894302326,-10.6020568008721,-1.06722934155233,-1.5057828,-0.5510005,-0.6844745,42.84353,19.181282,37.27849,STU
29815974876000,0.700005,1.48386676899225,-10.8839034205426,-1.29825124589922,-1.6029104,-0.48624873,-0.74128497,42.736652,20.057089,37.300602,STU
29815980311000,0.70544,1.46820628812215,-11.3153368643664,-1.58398353868729,-1.6624697,-0.41080686,-0.7846564,42.637646,20.954975,37.303596,STU
29815984921000,0.71005,1.45945176740036,-11.7399313022011,-1.84224208280785,-1.7400496,-0.30085114,-0.8396343,42.58298,21.854153,37.27638,STU
29815989928000,0.715057,1.46133072180039,-12.2624916033268,-2.12900846440313,-1.8145752,-0.19181168,-0.88789266,42.53216,22.798811,37.23025,STU
29815994906000,0.720035,1.47066013675147,-12.8222569874755,-2.41822047401174,-1.892155,-0.12614368,-0.92149025,42.513783,23.741264,37.160057,STU
29815999864000,0.724993,1.47740729487786,-13.3973072777778,-2.68412263624901,-1.9843957,-0.007941248,-0.95325524,42.51466,24.751812,37.031414,STU
29816004906000,0.730035,1.4821636212766,-13.996605,-2.93620813404255,-2.03693,0.093767814,-1.0204504,42.55803,25.743082,36.889828,STU
29816009878000,0.735007,1.53347516433435,-14.4973809520379,-3.18749073345505,-2.1444426,0.18234327,-1.1099422,42.612362,26.822638,36.70218,STU
29816014876000,0.740005,1.62794846223231,-14.9177865900523,-3.44256861804994,-2.2586741,0.23243423,-1.2043208,42.715595,27.883718,36.502018,STU
29816019910000,0.745039,1.74989537458168,-15.1845089144018,-3.63223677589709,-2.3704627,0.2574797,-1.2977833,42.838383,29.013523,36.267223,STU
29816024939000,0.750068,1.89895972086275,-15.2916496216269,-3.75335157549086,-2.488665,0.26328292,-1.3952162,43.01242,30.128307,36.03561,STU
29816029880000,0.755009,2.04896306520229,-15.1415289771148,-3.90227101487536,-2.5967882,0.26816985,-1.4715744,43.193855,31.281313,35.8053,STU
29816034925000,0.760054,2.20691965454638,-14.6429780361667,-4.09478075149162,-2.69697,0.27488935,-1.5399913,43.41758,32.414932,35.58464,STU
29816039916000,0.765045,2.25748220148842,-14.2409374269098,-4.16774903564317,-2.8044822,0.23976462,-1.6087136,43.667133,33.53418,35.42603,STU
29816044945000,0.770074,2.19101954225727,-13.9371075043864,-4.11078075167077,-2.8875601,0.16126843,-1.6927075,43.941547,34.626682,35.28485,STU
29816050088000,0.775217,2.08234440103023,-13.6931375809281,-4.07580399948914,-2.93704,0.022296581,-1.772731,44.21103,35.64003,35.24319,STU
29816054840000,0.779969,1.93897848286931,-13.5381475303533,-4.06805453742018,-2.9318478,-0.106901415,-1.8454239,44.48799,36.620647,35.22172,STU
29816059797000,0.784926,1.78017462611026,-13.3879936323562,-4.04259508805513,-2.8728993,-0.22876903,-1.8964312,44.77281,37.532265,35.24375,STU
29816064811000,0.78994,1.50179358369066,-13.3827410532706,-3.79572891684533,-2.7663033,-0.30390546,-1.9010127,45.04529,38.406464,35.276505,STU
29816069815000,0.794944,1.23875205043982,-13.3800289551899,-3.47393390943806,-2.6554313,-0.32589662,-1.885741,45.3423,39.228878,35.30548,STU
29816074800000,0.799929,1.02136849398737,-13.384969589051,-2.92553453921142,-2.5292876,-0.34788775,-1.8298469,45.61335,40.01686,35.329235,STU
29816079798000,0.804927,0.856853229253965,-13.3503219254944,-2.36594187576855,-2.4126122,-0.3717115,-1.7675385,45.951813,40.77451,35.28229,STU
29816084815000,0.809944,0.80981308278833,-13.2280174464461,-1.78264371576268,-2.2928827,-0.42119157,-1.7073684,46.267525,41.505714,35.223103,STU
29816089835000,0.814964,0.842888457472178,-13.0814308759936,-1.24532748982512,-2.1725423,-0.45020768,-1.6526959,46.581245,42.20744,35.14235,STU
29816094797000,0.819926,1.08369982970986,-12.8736717782194,-0.834531576033386,-2.0787745,-0.5384777,-1.6383406,46.859295,42.88298,35.07077,STU
29816099798000,0.824927,1.38033081098481,-12.6393638086732,-0.437526261952431,-2.0482311,-0.59864795,-1.6190983,47.147163,43.51163,34.994865,STU
29816104938000,0.830067,1.84582455881173,-12.3243327226096,-0.0801775249574936,-2.0002782,-0.6392705,-1.6258179,47.41489,44.10558,34.93018,STU
29816109873000,0.835002,2.30097423122263,-12.0047710594675,0.245851678915747,-1.9715676,-0.66767573,-1.6542231,47.708366,44.62871,34.880653,STU
29816114868000,0.839997,2.79952934590997,-11.6025755668243,0.497224008369242,-1.9859229,-0.68233645,-1.6826283,47.99208,45.139164,34.834705,STU
29816119940000,0.845069,3.30576989479769,-11.1941800635838,0.752471346705202,-2.0237966,-0.713796,-1.7214183,48.32021,45.53574,34.866936,STU
29816124879000,0.850008,3.84029965,-10.7691195,1.1061212,-2.0485365,-0.77091193,-1.7446312,48.631813,45.922184,34.904045,STU
29816129878000,0.855007,4.36509558393515,-10.35316899521,1.4673739119381,-2.060143,-0.8268061,-1.7712038,48.934864,46.295174,34.951477,STU
29816134906000,0.860035,4.71550272114959,-10.0826009030951,1.76455483382461,-2.0693061,-0.91446525,-1.8029687,49.177982,46.547073,35.136192,STU
29816140311000,0.86544,5.08974170592415,-9.7954880483753,2.08054444088392,-2.0604484,-1.029308,-1.8295414,49.361095,46.686756,35.436546,STU
29816144873000,0.870002,5.29515639709539,-9.72245219674015,2.19009883797931,-2.0295997,-1.1801916,-1.8530598,49.505733,46.809906,35.748703,STU
29816150188000,0.875317,5.51481333081877,-9.64812678518859,2.29159669696412,-1.9685133,-1.3393221,-1.8585575,49.619427,46.83675,36.138046,STU
29816154923000,0.880052,5.49812661582337,-9.69818666881325,2.0996993873965,-1.8915442,-1.4856243,-1.8411479,49.685528,46.85006,36.530987,STU
29816159859000,0.884988,5.4807315524195,-9.75037158656854,1.8996560674333,-1.7971655,-1.6056592,-1.817935,49.688934,46.81501,36.959232,STU
29816164869000,0.889998,5.27087794808678,-9.80256624852071,1.49716656153846,-1.7284433,-1.7198911,-1.7852536,49.640453,46.77368,37.382538,STU
29816169877000,0.895006,5.02492593120316,-9.85459462721894,1.05729080769231,-1.6878207,-1.8252654,-1.7718146,49.552956,46.71902,37.803093,STU
29816174877000,0.900006,4.54254481271093,-9.90706946030953,0.44180683586021,-1.6756034,-1.9248364,-1.7476854,49.452637,46.66576,38.223724,STU
29816179847000,0.904976,4.01025989698452,-9.95934750823764,-0.209291718687968,-1.6988163,-2.0247128,-1.738217,49.314518,46.60669,38.640358,STU
29816184907000,0.910036,3.43208198593899,-9.99190886839847,-0.870318105837941,-1.7296649,-2.1303926,-1.7424932,49.152096,46.579582,39.034454,STU
29816190123000,0.915252,2.82731711730219,-10.0204802666826,-1.55127379752145,-1.7815884,-2.2119431,-1.7394388,48.958637,46.556545,39.414856,STU
29816194867000,0.919996,2.24872946342607,-9.95725480637929,-2.15747411789463,-1.8469511,-2.2562308,-1.7333301,48.83091,46.602036,39.721706,STU
29816199847000,0.924976,1.63149238913686,-9.86005244318761,-2.78929158472435,-1.8735237,-2.325564,-1.740966,48.660934,46.64074,40.024254,STU
29816204920000,0.930049,1.13418466868374,-9.64721558697972,-3.34869599866596,-1.9144517,-2.3451116,-1.7391334,48.38447,46.73549,40.31299,STU
29816209890000,0.935019,0.68971148657773,-9.40169652614728,-3.86936449653148,-1.9168952,-2.2925773,-1.7327193,48.106663,46.81849,40.582623,STU
29816214915000,0.940044,0.291867640805369,-9.08967453020134,-4.27928994295302,-1.9022343,-2.1847596,-1.713477,47.662403,46.929745,40.85466,STU
29816219963000,0.945092,-0.0579348584815436,-8.71452438506712,-4.57839664765101,-1.8567249,-2.0610592,-1.679574,47.23748,47.03017,41.095192,STU
29816224905000,0.950034,-0.288455982924298,-8.38621312881563,-4.79542918443223,-1.7931949,-1.9517145,-1.6389514,46.715836,47.13794,41.324516,STU
29816229914000,0.955043,-0.449528160528083,-8.07871159737485,-4.96626314771062,-1.7165314,-1.8164078,-1.5992452,46.2407,47.235775,41.51524,STU
29816235628000,0.960757,-0.529482212221247,-7.78165560433128,-4.9986081342113,-1.63437,-1.6618589,-1.5528195,45.735886,47.319878,41.692677,STU
29816239972000,0.965101,-0.553832029394205,-7.57468228972783,-4.9661417452151,-1.5567901,-1.5234979,-1.5030339,45.266388,47.398804,41.833942,STU
29816244912000,0.970041,-0.550886113051511,-7.38329686836028,-4.90028534033538,-1.4700472,-1.4153748,-1.4746287,44.7969,47.452457,41.969505,STU
29816249914000,0.975043,-0.526835900367507,-7.21975572748268,-4.81370473338689,-1.412015,-1.2889256,-1.4443909,44.378716,47.508312,42.068085,STU
29816255059000,0.980188,-0.434910494722712,-7.10100817754262,-4.6995266196551,-1.3536774,-1.153619,-1.4230106,43.98282,47.530018,42.171436,STU
29816259929000,0.985058,-0.306957008939839,-7.01875213109935,-4.57614278857535,-1.3045027,-1.0326678,-1.4083499,43.62476,47.549526,42.25076,STU
29816264906000,0.990035,-0.107622189946726,-6.95578751259202,-4.4020119505618,-1.2678508,-0.958753,-1.4117095,43.291565,47.53665,42.339787,STU
29816269948000,0.995077,0.149617666072259,-6.9090166625339,-4.18686584494382,-1.2195925,-0.9053023,-1.42973,42.99342,47.517693,42.41416,STU
29816274914000,1.000043,0.435704139775051,-6.86282883591392,-4.01790258087448,-1.1814134,-0.81061816,-1.425454,42.74712,47.469883,42.499077,STU
29816279910000,1.005039,0.757191631390593,-6.8162364775538,-3.89210326195345,-1.1484267,-0.72295904,-1.4376713,42.516617,47.408993,42.5821,STU
29816284952000,1.010081,1.08889245888704,-6.6838157154485,-3.7769208641196,-1.1142182,-0.6612616,-1.4376713,42.35123,47.312153,42.687435,STU
29816289940000,1.015069,1.42613286335133,-6.44576367437708,-3.67773247483389,-1.0833695,-0.63804877,-1.4382823,42.20267,132.78836,42.785748,STU
29816294909000,1.020038,1.70033593711807,-6.24556503496868,-3.62019822864578,-1.0320568,-0.64934975,-1.4419475,42.120064,132.9353,42.921917,STU
29816299870000,1.024999,1.91556439146988,-6.08070906838554,-3.60188092559036,-1.0030408,-0.65209866,-1.4385877,42.04683,133.07776,43.04588,STU
29816305236000,1.030365,2.13742230736253,-5.86355096130346,-3.62788851160896,-0.95264435,-0.72051555,-1.4364496,42.038868,133.28088,43.22557,STU
29816309917000,1.035046,2.32002530494908,-5.63529739307536,-3.69636458207739,-0.91415983,-0.76174897,-1.4013249,42.034203,133.46716,43.383007,STU
29816314905000,1.040034,2.44265644706398,-5.45406571827831,-3.77440333989678,-0.8680395,-0.68875057,-1.353372,42.124218,133.69818,43.583443,STU
29816319935000,1.045064,2.48487494312007,-5.34148301314636,-3.85884042997371,-0.84940815,-0.63132924,-1.3338243,42.180325,133.91785,43.767345,STU
29816324901000,1.05003,2.51914295222648,-5.2267223342434,-3.90132540866411,-0.8258898,-0.62949663,-1.312444,42.35152,134.17667,43.99001,STU
29816329920000,1.055049,2.54335510173282,-5.10566133389079,-3.88679811896031,-0.80756384,-0.6792821,-1.3023647,42.49858,134.41869,44.192547,STU
29816334912000,1.060041,2.57951059908112,-4.99239370864539,-3.9195217901986,-0.77671516,-0.7840455,-1.2825116,42.551357,134.69084,44.41407,STU
29816339974000,1.065103,2.63219871191582,-4.88701773305009,-4.01531812710206,-0.71593404,-0.8035932,-1.2519683,42.601154,134.9418,44.61247,STU
29816344842000,1.069971,2.65870126077369,-4.80297894502901,-4.1431635417118,-0.66950834,-0.81245077,-1.2501358,42.55167,135.23198,44.83762,STU
29816349906000,1.075035,2.64932081295938,-4.74200603423598,-4.33077264492263,-0.6246097,-0.88025683,-1.2464706,42.461502,135.4979,45.03314,STU
29816354882000,1.080011,2.64636381724684,-4.65948315106804,-4.47695337935127,-0.5671884,-0.9309586,-1.2293663,42.314766,135.78915,45.243336,STU
29816359926000,1.085055,2.6559178875,-4.530503003125,-4.54860890625,-0.5119051,-0.9428705,-1.2064588,42.15185,136.06302,45.43193,STU
29816364842000,1.089971,2.6483457481321,-4.43383374440593,-4.62207880213749,-0.44684792,-0.95386606,-1.1691961,41.913868,136.34734,45.614532,STU
29816369906000,1.095035,2.60165109463701,-4.40114758935105,-4.70612920768342,-0.38240165,-0.95905846,-1.1377366,41.673923,136.61194,45.774406,STU
29816375097000,1.100226,2.55538364229862,-4.3306791503876,-4.78493049376475,-0.32650748,-0.9257663,-1.094976,41.400383,136.89032,45.937294,STU
29816379875000,1.105004,2.51682794410179,-4.17260050193798,-4.8389084470846,-0.2733622,-0.87598073,-1.0421361,41.13697,137.14197,46.072582,STU
29816384873000,1.110002,2.47649697307044,-4.00724322170543,-4.89537178126053,-0.22418754,-0.84757555,-0.98990715,40.852737,137.3949,46.197754,STU
29816390112000,1.115241,2.45508603002018,-3.83788637619393,-4.93703234309515,-0.17379116,-0.8008443,-0.9260717,40.604683,137.6158,46.293873,STU
29816395059000,1.120188,2.43792689965851,-3.67855127979511,-4.97380196300512,-0.12675454,-0.7791586,-0.8885035,40.36372,137.81683,46.369457,STU
29816399873000,1.125002,2.4212290921871,-3.52349990440317,-5.00958303238992,-0.099571034,-0.75136423,-0.82558435,40.107212,138.01941,46.436584,STU
29816405263000,1.130392,2.39974526711311,-3.35742596711311,-5.05000198474924,-0.033292156,-0.8035932,-0.77366084,39.804638,138.22601,46.497314,STU
29816409925000,1.135054,2.34736811413628,-3.30504881413628,-5.08928465578258,0.047647487,-0.77366084,-0.7284568,39.55721,138.40474,46.537697,STU
29816415254000,1.140383,2.28942630286079,-3.24471468345458,-5.1318009652674,0.106901415,-0.7113526,-0.6743952,39.2663,138.60077,46.581684,STU
29816419906000,1.145035,2.31132541450059,-3.17463801098112,-5.07924356381243,0.15027285,-0.61300325,-0.63438356,39.012177,138.77475,46.610695,STU
29816424894000,1.150023,2.33480623325796,-3.09949991074518,-5.02289009896776,0.18234327,-0.59498274,-0.593761,38.725754,138.9481,46.62566,STU
29816429870000,1.154999,2.37507147944472,-3.06349598134437,-5.04380033813931,0.21685717,-0.5830709,-0.552833,38.486935,139.09882,46.626633,STU
29816434869000,1.159998,2.41704608333171,-3.03084893193376,-5.07178339116415,0.25045475,-0.5488624,-0.52412236,38.273518,139.23195,46.613876,STU
29816439989000,1.165118,2.44987517907231,-2.99932782092769,-5.11419775410641,0.29657507,-0.5296202,-0.48197266,38.04708,139.36441,46.598686,STU
29816445104000,1.170233,2.48106183882674,-2.96814116117326,-5.15875040431105,0.3286455,-0.51923543,-0.45142943,37.83883,139.48376,46.57267,STU
29816449862000,1.174991,2.48681636135025,-2.91508606499551,-5.21246979757315,0.39003745,-0.49449542,-0.40317106,37.62711,139.60338,46.544506,STU
29816454897000,1.180026,2.48200075319085,-2.84766679649456,-5.27507330706082,0.44776422,-0.46914452,-0.36132678,37.42932,139.70747,46.50316,STU
29816459869000,1.184998,2.44978382343801,-2.79114780382001,-5.37759873531887,0.51007247,-0.44257188,-0.3182608,37.22419,139.80428,46.452126,STU
29816464852000,1.189981,2.40343756795079,-2.73965196438977,-5.50118869617999,0.56382865,-0.3979787,-0.27152961,37.049023,139.87871,46.3867,STU
29816469899000,1.195028,2.40141688031964,-2.71856734185096,-5.59436081371492,0.6200282,-0.36010507,-0.22724187,36.870502,139.95538,46.318535,STU
29816474909000,1.200038,2.41033339546553,-2.70519252257945,-5.67906789381156,0.6627888,-0.2959642,-0.19181168,36.7307,140.01323,46.24197,STU
29816479903000,1.205032,2.44229355479271,-2.71995162557808,-5.6884848072731,0.6973027,-0.2510656,-0.14172074,36.574017,140.06381,46.144688,STU
29816484906000,1.210035,2.4862187940002,-2.74923515235815,-5.65920117856779,0.7290677,-0.23548855,-0.10476339,36.43955,140.10037,46.040154,STU
29816489917000,1.215046,2.55512582471443,-2.79980477539979,-5.629473707892,0.7272351,-0.21502456,-0.08032878,36.303238,140.13387,45.92325,STU
29816494896000,1.220025,2.63434983208723,-2.85922275507788,-5.59976464049844,0.72387534,-0.20341812,-0.039095376,36.18362,140.14674,45.78871,STU
29816499861000,1.22499,2.72529275620383,-2.96282525241523,-5.55141660909263,0.7425067,-0.20463985,-0.004886922,36.06259,140.16093,45.65568,STU
29816504967000,1.230096,2.8225538831218,-3.0832437674749,-5.49583887755257,0.7583892,-0.19608775,0.021991149,35.960365,140.16405,45.51265,STU
29816509869000,1.234998,2.94706507002472,-3.21842855288422,-5.43295163996704,0.79412484,-0.18509217,0.049785517,35.848473,140.16208,45.3656,STU
29816514882000,1.240011,3.09047745735476,-3.36678619138855,-5.36371812352699,0.8258898,-0.15118915,0.07238753,35.757328,140.15094,45.213882,STU
29816519902000,1.245031,3.17036661194578,-3.41580165761084,-5.38260901310364,0.87689704,-0.11789699,0.1001819,35.668064,140.13014,45.06155,STU
29816524874000,1.250003,3.22415459067118,-3.42476632853243,-5.43639713224136,0.9285152,-0.07422013,0.119729586,35.602177,140.10043,44.90908,STU
29816529864000,1.254993,3.256671928684,-3.37782410366815,-5.62346609111494,0.9923506,-0.009162978,0.15210545,35.559937,140.05531,44.762005,STU
29816534906000,1.260035,3.27416535341002,-3.29035688870573,-5.90773424291278,1.0235047,0.06627888,0.19394971,35.545437,139.99982,44.61344,STU
29816539915000,1.265044,3.27089979706991,-3.35648760706668,-6.19681484006248,1.0216721,0.13836098,0.2489276,35.542767,139.92932,44.45455,STU
29816544870000,1.269999,3.23511704278789,-3.66319724974685,-6.49330099879349,0.95722586,0.13316862,0.3051272,35.54849,139.85168,44.2844,STU
29816549859000,1.274988,3.26641301433327,-4.47261073608772,-6.96238738286665,0.786489,-0.026572637,0.3484986,35.490177,139.79184,44.071487,STU
29816554948000,1.280077,3.36184357256706,-5.77046581986489,-7.60177170451341,0.4596761,-0.31642818,0.3839288,35.3957,139.74667,43.82873,STU
29816560554000,1.285683,3.79766094989706,-7.55387353289351,-8.65259016442074,0.07727446,-0.5674938,0.33658674,35.24288,139.71721,43.524044,STU
29816564872000,1.290001,4.34330235700917,-9.1520998511604,-9.68195634989706,-0.27122417,-0.6789767,0.20372356,35.04109,139.73975,43.213295,STU
29816569886000,1.295015,5.01938898643248,-10.8703366360959,-10.8154693965082,-0.45906523,-0.72387534,0.046120327,34.801186,139.72783,42.75412,STU
29816574878000,1.300007,5.77360783708456,-12.3184366613378,-11.8261225828776,-0.47678033,-0.88025683,-0.06688975,34.49328,139.7681,42.292873,STU
29816579869000,1.304998,5.9500145887843,-13.2434233410775,-12.7690212978169,-0.33444872,-0.88331115,-0.06291912,34.236317,139.7157,41.67294,STU
29816584917000,1.310046,5.3835999726417,-13.5048456426998,-13.635586880032,-0.14080444,-0.698219,-0.03268129,34.001057,139.69467,41.106533,STU
29816589919000,1.315048,4.49594682271468,-13.3709753992877,-13.5931949914919,-0.04795292,-0.50335294,0.053145275,33.810078,139.6257,40.48206,STU
29816594871000,1.32,3.22447898448753,-12.7657379224377,-12.4671720180055,0.15454891,-0.41325033,0.12675454,33.669147,139.52124,39.902737,STU
29816599856000,1.324985,2.09419356649556,-11.9375697783742,-11.1957451815165,0.34269542,-0.34788775,0.22815818,33.599495,139.35722,39.216,STU
29816604959000,1.330088,1.1498832123158,-10.7786429710159,-9.69820217829609,0.47739118,-0.3295618,0.3408628,33.573467,139.16504,38.556038,STU
29816609851000,1.33498,0.468869684284658,-9.46232276917745,-8.60456141820702,0.6114761,-0.31245756,0.46914452,33.609077,138.85542,37.86126,STU
29816614869000,1.339998,0.153527200045102,-7.76125021862292,-8.06714706756008,0.84604836,-0.21624629,0.6065892,33.69963,138.49142,37.178455,STU
29816619859000,1.344988,0.108540323463754,-6.37135344513406,-7.46672829930487,1.1322387,-0.081855945,0.7305948,33.838566,138.05014,36.535034,STU
29816624880000,1.350009,1.11130905606933,-6.14996290507358,-6.60504174877675,1.3683381,0.105068825,0.8063421,34.034367,137.56525,35.904675,STU
29816630464000,1.355593,2.22651730201029,-5.90374805231561,-5.64673509708405,1.491733,0.53878313,0.8173377,34.30483,137.14008,35.419483,STU
29816634938000,1.360067,3.12004196038061,-5.70647633826848,-4.878922783389,1.4309518,1.0299188,0.8332202,34.656174,136.69644,34.956905,STU
29816639945000,1.365074,4.12001468377358,-5.4857030990566,-4.01963886415094,1.2858714,1.2971723,0.82558435,35.057747,136.25764,34.532288,STU
29816644866000,1.369995,4.39247189610687,-5.58484633152672,-3.13190830358779,1.2009611,1.3607023,0.829555,35.53776,135.82117,34.146725,STU
29816649849000,1.374978,4.4744356845229,-5.77154212925573,-2.22119782112595,1.1456778,1.3607023,0.8167268,36.061325,135.41864,33.798805,STU
29816654921000,1.38005,4.22306570289434,-6.13016827757636,-1.69986356525789,1.0952814,1.4300356,0.8524625,36.681206,135.19383,33.94387,STU
29816659870000,1.384999,3.82434452428643,-6.55736962533801,-1.37708919048573,1.0476339,1.2925909,0.958753,37.229248,134.97359,34.03655,STU
29816664864000,1.389993,3.25450071105357,-7.25987593915555,-1.95319075035849,1.0977248,0.98532563,0.89919364,37.7435,134.66635,34.148712,STU
29816669903000,1.395032,2.60094331428002,-8.09604535112527,-2.95755472640908,1.1530081,0.7626653,0.820392,38.2439,134.35883,34.229324,STU
29816674870000,1.399999,2.37819776393183,-9.22797215596512,-3.4993245054895,1.1786644,0.61178154,0.79534656,38.707527,133.93224,34.182285,STU
29816679878000,1.405007,2.35443606436782,-10.5158568678161,-3.83198859712644,1.1780536,0.5647449,0.7779369,39.115932,133.5257,34.133892,STU
29816684949000,1.410078,2.54295797952314,-11.5619057096774,-4.08748325553997,1.1765264,0.50976706,0.7535023,39.460148,133.05293,33.86517,STU
29816689969000,1.415098,2.83674777154879,-12.4673564009217,-4.29939725994791,1.1826351,0.53023106,0.68508536,39.794727,132.60007,33.616486,STU
29816694906000,1.420035,3.12113627626717,-13.0225885030791,-4.36399801279015,1.212873,0.62796944,0.6020077,40.1658,132.05385,33.269306,STU
29816699942000,1.425071,3.40900109764093,-13.4246855494079,-4.35942863600189,1.2614367,0.75747293,0.51068336,40.530926,131.53018,32.95183,STU
29816704945000,1.430074,3.60506601954491,-13.5723569278883,-4.19719213349456,1.2928963,0.8585711,0.42332962,40.91316,130.99565,32.639633,STU
29816709938000,1.435067,3.73121838804001,-13.5250499406398,-3.91334944159613,1.3133603,0.86498517,0.3436117,41.282555,130.48535,32.357723,STU
29816714900000,1.440029,3.71816186785998,-13.1311807533811,-3.63019261688544,1.3454307,0.818254,0.26389378,41.66018,129.98752,32.121246,STU
29816719943000,1.445072,3.65572696022275,-12.6076876650756,-3.34203120381862,1.3515394,0.77213365,0.20097467,42.020245,129.51741,31.905643,STU
29816724913000,1.450042,3.58740797524301,-11.9615726792303,-3.07583619875025,1.3582588,0.7415904,0.1685988,42.370697,129.06075,31.73001,STU
29816729905000,1.455034,3.51628004602261,-11.2645192501488,-2.81503400616941,1.3622295,0.72692966,0.1704314,42.69856,128.6218,31.560204,STU
29816734930000,1.460059,3.50903882055512,-10.7387944131272,-2.65962836584354,1.3399329,0.72265357,0.18203785,43.012997,128.21924,31.431664,STU
29816739970000,1.465099,3.52810922671869,-10.2834891069241,-2.5475899225405,1.3219124,0.7125743,0.21105394,43.315628,127.82083,31.296185,STU
29816744905000,1.470034,3.54678233275385,-9.83766932793362,-2.43788561347294,1.3170254,0.7147123,0.24037547,43.60898,127.46581,31.206137,STU
29816749911000,1.47504,3.56572408935204,-9.38543552578032,-2.32660298506519,1.3326025,0.7162395,0.28191432,43.89715,127.10926,31.103504,STU
29816754950000,1.480079,3.56585544710858,-9.15651921961054,-2.24480232262982,1.3503176,0.7049385,0.31123585,44.18636,126.7499,30.991222,STU
29816759907000,1.485036,3.55651778123525,-9.04446849665618,-2.17943939278128,1.350623,0.6826419,0.35338554,44.471397,126.386856,30.863855,STU
29816764895000,1.490024,3.53525806759727,-9.03175988733789,-2.1813872986041,1.366811,0.6637051,0.3921755,44.738148,126.09174,30.809584,STU
29816770174000,1.495303,3.50522781681022,-9.0818103053163,-2.22643267478467,1.3582588,0.65148777,0.43310347,44.997746,125.79815,30.741879,STU
29816774908000,1.500037,3.45178035325694,-9.15922176899879,-2.30514547702051,1.3515394,0.6261369,0.4859433,45.25568,125.497246,30.66447,STU
29816779906000,1.505035,3.37960783655006,-9.26026346320869,-2.41099862545235,1.3561208,0.6236934,0.52320606,45.512054,125.19894,30.58179,STU
29816784972000,1.510101,3.2953112393023,-9.35267292410317,-2.44868507013539,1.357648,0.6401868,0.5842926,45.77558,124.88078,30.467138,STU
29816789932000,1.515061,3.20612069478209,-9.43716938422769,-2.44399083868959,1.346347,0.6808093,0.63316184,46.04065,124.56679,30.34893,STU
29816794909000,1.520038,3.12498229586384,-9.50797645042549,-2.433659358302,1.3405437,0.74006325,0.68630713,46.32117,124.22926,30.195297,STU
29816799867000,1.524996,3.04980820304769,-9.56905561547596,-2.41956428335642,1.3002267,0.81092364,0.72173727,46.61294,123.89931,30.039719,STU
29816804956000,1.530085,2.96442037509889,-9.57945346390427,-2.39959916780063,1.287093,0.874759,0.76083267,46.93184,123.5318,29.84815,STU
29816809911000,1.53504,2.87525830577532,-9.55129689200949,-2.37613543955696,1.2562444,0.9275989,0.7788532,47.261875,123.17777,29.659939,STU
29816814903000,1.540032,2.81214631420373,-9.4908129928264,-2.33535320468675,1.2290609,0.96852684,0.7852673,47.612984,122.8017,29.447968,STU
29816819956000,1.545085,2.77048915021521,-9.4028704938307,-2.27981041603061,1.2082914,1.0207558,0.8026769,47.97725,122.43105,29.235502,STU
29816824907000,1.550036,2.75075911503942,-9.28785665615525,-2.21953098944815,1.1817188,1.0564915,0.79198676,48.348034,122.06145,29.01783,STU
29816829906000,1.555035,2.75559784792804,-9.13785533030119,-2.15178872900748,1.1533136,1.0885619,0.7849618,48.72618,121.69867,28.800488,STU
29816834985000,1.560114,2.76050147626181,-8.97869821144178,-2.10456834464106,1.1291844,1.1255192,0.7788532,49.114956,121.343864,28.589617,STU
29816839975000,1.565104,2.76530619504323,-8.81533616740398,-2.0805443995375,1.1221595,1.1472049,0.7470882,49.49692,121.008064,28.391306,STU
29816844896000,1.570025,2.78846131590909,-8.67175517272727,-2.07089733818182,1.1090258,1.1582005,0.7263188,49.887154,120.68874,28.207645,STU
29816849905000,1.575034,2.83112270163043,-8.54377126304348,-2.07563747565217,1.1010846,1.1636983,0.6966918,50.26995,120.38891,28.038155,STU
29816854963000,1.580092,2.85179839494876,-8.44621257293192,-2.0593560545388,1.0821478,1.1517864,0.6753115,50.648,120.112045,27.885927,STU
29816859910000,1.585039,2.84746307013177,-8.38551811603221,-2.02033813118594,1.1093313,1.1618657,0.6383542,51.022358,119.85112,27.74933,STU
29816864884000,1.590013,2.83742397269311,-8.34415413695198,-1.99335333970772,1.1218541,1.1823297,0.59986967,51.391872,119.62534,27.640219,STU
29816869946000,1.595075,2.81212232129436,-8.35427496659708,-1.99841364885177,1.1588113,1.2186762,0.55924714,51.757965,119.412,27.5442,STU
29816874865000,1.599994,2.80514485487106,-8.38670495538273,-1.95447904390094,1.1969905,1.2452488,0.50976706,52.126564,119.21456,27.465025,STU
29816879908000,1.605037,2.8298562773639,-8.46083891322145,-1.82103781657798,1.212873,1.2953397,0.49663344,52.504562,119.0237,27.390144,STU
29816884897000,1.610026,2.87905396645251,-8.52543633690818,-1.64840251488584,1.2470814,1.3353515,0.4633413,52.889103,118.84313,27.327997,STU
29816889934000,1.615063,2.96487878063655,-8.57788471552832,-1.41476801360087,1.280679,1.350623,0.43890667,53.271763,118.66921,27.267815,STU
29816894848000,1.619977,3.06355956293788,-8.61822830123863,-1.22684973706213,1.2779301,1.3384057,0.42638394,53.668777,118.49049,27.207106,STU
29816899862000,1.624991,3.18901814946778,-8.64146135484807,-1.10139115053222,1.2586879,1.3322971,0.4260785,54.06164,118.32088,27.149935,STU
29816904914000,1.630043,3.32857853397075,-8.64734771189539,-1.05260308464567,1.2244794,1.3451253,0.43035457,54.47268,118.15166,27.100523,STU
29816909882000,1.635011,3.49359269370079,-8.61612889862205,-1.16855894291339,1.2030991,1.3741413,0.46028697,54.87766,117.98361,27.043083,STU
29816914875000,1.640004,3.67854158514674,-8.57151003274107,-1.25555398572569,1.1899655,1.3735305,0.50335294,55.284107,117.83284,27.000921,STU
29816919897000,1.645026,3.95218905174686,-8.46589162786983,-1.20754571102016,1.1640037,1.318858,0.56077427,55.672985,117.67946,26.943953,STU
29816924883000,1.650012,4.21141875490519,-8.37269506430338,-1.16574141055235,1.1420126,1.239751,0.60994893,56.0411,117.56821,26.916245,STU
29816929867000,1.654996,4.41308416306678,-8.33334539818632,-1.15098534995878,1.1206323,1.1863003,0.659429,56.390648,117.44767,26.869692,STU
29816934918000,1.660047,4.6000768679617,-8.31054385371637,-1.10450582524761,1.103528,1.1505647,0.70005155,56.71501,117.39167,26.882107,STU
29816939939000,1.665068,4.73163682147743,-8.34124178522572,-0.959789917592339,1.0830641,1.1178834,0.7275405,57.013416,117.3289,26.879139,STU
29816945072000,1.670201,4.85356355698635,-8.37275841629829,-0.810838738881415,1.0699304,1.0213667,0.7724391,57.28737,117.30807,26.912455,STU
29816949859000,1.674988,4.83153581260811,-8.40359721242552,-0.661049975904286,1.0757337,0.9080512,0.80909103,57.534313,117.28017,26.932608,STU
29816956395000,1.681524,4.80145991178166,-8.44570341077263,-0.456533712102633,1.065349,0.7800749,0.82527894,57.768013,117.24566,26.946524,STU
29816959870000,1.684999,4.78546943513358,-8.46809004468576,-0.347798397428407,1.0528263,0.6435465,0.8564331,57.953537,117.19673,26.938871,STU
29816964848000,1.689977,4.76256278973669,-8.50015930040361,-0.19203310348645,1.0201449,0.47891834,0.8717047,58.109966,117.135765,26.914152,STU
29816969901000,1.69503,4.64537972759964,-8.49997183398262,-0.269743375858556,0.9981538,0.33383787,0.9053023,58.222286,117.06265,26.871614,STU
29816974860000,1.699989,4.5172937755469,-8.49522781810009,-0.378853541780042,0.9841039,0.2843578,0.91813046,58.30731,116.99379,26.828646,STU
29816979875000,1.705004,4.41720561640653,-8.4831881415608,-0.449849216348457,0.99173975,0.22357668,0.95539325,58.385418,116.87846,26.743124,STU
29816984907000,1.710036,4.32099971252269,-8.47006932486388,-0.515444267876588,0.9950995,0.15363261,0.9868528,58.439556,116.767365,26.65711,STU
29816989928000,1.715057,4.22068024929233,-8.46241147057572,-0.490977220334149,1.0134255,0.070554934,1.0112875,58.48797,116.6207,26.531773,STU
29816994860000,1.719989,4.12015257969565,-8.45738499787166,-0.425634376805363,1.0341948,-0.026267206,1.0235047,58.50575,116.47534,26.40432,STU
29816999863000,1.724992,4.00749509696327,-8.45997619550757,-0.375251465352357,1.0800097,-0.124005646,1.0326678,58.519455,116.30356,26.248478,STU
29817004917000,1.730046,3.89084343696134,-8.46464236325075,-0.328590733139882,1.1151345,-0.21746802,1.02717,58.50072,116.140175,26.09821,STU
29817009883000,1.735012,3.76624410812831,-8.45155785175958,-0.262260149679228,1.153619,-0.2770274,1.0112875,58.477142,115.95375,25.924345,STU
29817014872000,1.740001,3.63728677053877,-8.43171786297104,-0.187861693653068,1.1826351,-0.29229903,1.0009027,58.436203,115.77632,25.757109,STU
29817019894000,1.745023,3.51703839704304,-8.40603235427065,-0.0430347547339674,1.2348641,-0.2932153,0.98624194,58.393795,115.57979,25.569391,STU
29817025591000,1.75072,3.38345375260382,-8.37520557020435,0.141928653579433,1.2547172,-0.30207285,0.97524637,58.342518,115.39548,25.391064,STU
29817029872000,1.755001,3.26707864556749,-8.38024206464519,0.246538742448937,1.2742649,-0.31703907,0.9633345,58.30126,115.19546,25.194769,STU
29817034890000,1.760019,3.12540885078964,-8.39542074857865,0.357850715003159,1.2968669,-0.3549127,0.95081174,58.248047,64.99026,25.009554,STU
29817039923000,1.765052,3.00037907915509,-8.41315677861864,0.365201185958425,1.3267993,-0.40622538,0.9257663,58.196007,65.18708,24.809376,STU
29817044935000,1.770064,2.88082998786282,-8.43154883571223,0.342210984958329,1.3674219,-0.4596761,0.8894198,58.129562,65.36496,24.62395,STU
29817049939000,1.775068,2.77431023361714,-8.45625836640199,0.223822243872572,1.3982705,-0.48624873,0.86376345,58.059334,65.55726,24.418941,STU
29817054939000,1.780068,2.67353069664211,-8.48374377728882,0.0634911236200134,1.4150693,-0.47067168,0.82924956,57.984562,65.72413,24.23444,STU
29817059933000,1.785062,2.59073689379952,-8.54608990055468,-0.114360121992868,1.4245378,-0.44318274,0.7959574,57.904377,65.904564,24.03161,STU
29817064969000,1.790098,2.51908148742076,-8.63207600911252,-0.30544093631141,1.4208726,-0.40775254,0.7703011,57.830894,66.065384,23.843554,STU
29817069821000,1.79495,2.44399453616339,-8.73597273075278,-0.449161655153978,1.4013249,-0.3930918,0.73823065,57.766273,66.233406,23.6464,STU
29817074799000,1.799928,2.36243203952096,-8.8583164491018,-0.566407916407186,1.3833044,-0.34391713,0.72784597,57.722576,66.38952,23.456673,STU
29817079790000,1.804919,2.27230410509001,-8.99181274270639,-0.722038327153942,1.3503176,-0.29046643,0.70646566,57.685738,66.55655,23.25738,STU
29817084822000,1.809951,2.17757829288227,-9.13140883540244,-0.896533161906683,1.2932017,-0.2275473,0.68325275,57.666584,66.712204,23.067602,STU
29817089824000,1.814953,2.08708034517617,-9.23626877249975,-1.09530886117381,1.2415836,-0.14844026,0.66248333,57.663685,66.882355,22.86478,STU
29817094799000,1.819928,1.99823472588085,-9.32979086249877,-1.30105655586907,1.1814134,-0.05467244,0.63499445,57.684704,67.03886,22.67542,STU
29817099789000,1.824918,1.93152283945596,-9.36834074689119,-1.43955533816062,1.1328496,0.040927973,0.6200282,57.724957,67.22198,22.464354,STU
29817104917000,1.830046,1.87214994322107,-9.38530433031088,-1.5540601683506,1.087951,0.14294247,0.6047566,57.795853,67.39325,22.265156,STU
29817109867000,1.834996,1.80557664544336,-9.40590474382198,-1.62953706691267,1.0485502,0.22204952,0.6062838,57.883717,67.59491,22.043264,STU
29817114864000,1.839993,1.72530944833948,-9.43266045756457,-1.65629283653137,1.0021244,0.25167647,0.6017023,57.987015,67.78738,21.83212,STU
29817119903000,1.845032,1.67753853817724,-9.42517570762384,-1.66051229235681,0.98715824,0.2602286,0.59559363,58.1139,68.02212,21.577482,STU
29817124876000,1.850005,1.64989215120937,-9.39752927254257,-1.65129679795859,0.95233893,0.26511553,0.6017023,58.247223,68.256,21.326765,STU
29817129952000,1.855081,1.6620980841127,-9.31731472802768,-1.65808368648542,0.9334021,0.26358834,0.6059783,58.381638,68.5044,21.061312,STU
29817134890000,1.860019,1.70417545825012,-9.20043278062284,-1.67678476877904,0.9101892,0.29016098,0.6337727,58.524254,68.75666,20.793573,STU
29817139937000,1.865066,1.76614387460408,-9.04378745486012,-1.69049666454244,0.87872964,0.3387248,0.66889745,58.666737,69.019585,20.515524,STU
29817144872000,1.870001,1.84233601585586,-8.86003019099099,-1.69946044036036,0.84788096,0.41508293,0.7119634,58.82384,69.28706,20.2332,STU
29817149861000,1.87499,1.9467221703236,-8.68309519573796,-1.67662901554854,0.8023715,0.4615087,0.75777835,58.987118,69.546555,19.961336,STU
29817154981000,1.88011,2.09184825714286,-8.51378185714286,-1.60890352857143,0.77732605,0.47433686,0.78984874,59.160767,69.80868,19.686977,STU
29817159865000,1.884994,2.2342571890411,-8.38962696803653,-1.5564028766471,0.75655663,0.45204028,0.8237518,59.340057,70.051125,19.434134,STU
29817164869000,1.889998,2.38609382544031,-8.31817389562949,-1.52067657359985,0.73823065,0.408058,0.8503244,59.51354,70.29666,19.180534,STU
29817169888000,1.895017,2.54903821950701,-8.24915499872503,-1.51872765975351,0.72601336,0.37965274,0.88300574,59.687565,70.543915,18.91629,STU
29817174879000,1.900008,2.7420172601785,-8.1882141039099,-1.61521718008925,0.7189884,0.32742378,0.8940013,59.838005,70.787506,18.659155,STU
29817179850000,1.904979,2.9385772879398,-8.17082355287551,-1.72310456629124,0.7067711,0.31581733,0.91965765,59.980003,71.028625,18.401161,STU
29817184889000,1.910018,3.14540204598824,-8.22854227688628,-1.85297134374564,0.6954701,0.32620203,0.9434814,60.111004,71.26685,18.147959,STU
29817189895000,1.915024,3.34579447274363,-8.29475787826087,-1.99446264605697,0.6780604,0.3454443,0.95233893,60.223637,71.51548,17.886116,STU
29817194872000,1.920001,3.53635432629685,-8.37574593043478,-2.15643845193403,0.66889745,0.37873647,0.9560041,60.342747,71.76352,17.625042,STU
29817199846000,1.924975,3.71057035407492,-8.44064763225622,-2.28950587657993,0.6411031,0.45234573,0.95569867,60.469322,72.01714,17.362877,STU
29817204970000,1.930099,3.86025005736345,-8.47806782670861,-2.37370075241636,0.59620446,0.52473325,0.93187493,60.605804,72.261635,17.111929,STU
29817209844000,1.934973,3.99392900686602,-8.48739866338423,-2.39665545848767,0.53878313,0.6087272,0.906524,60.763844,72.508995,16.86464,STU
29817214869000,1.939998,4.10696631150059,-8.42218488616858,-2.25753264296684,0.45753807,0.6747007,0.8555168,60.938988,72.742775,16.636047,STU
29817219971000,1.9451,4.21933414839222,-8.36366876272401,-2.11860796454685,0.3827071,0.700357,0.7968737,61.12554,72.966934,16.422054,STU
29817224932000,1.950061,4.29718036701485,-8.40745714480287,-2.01400204079877,0.30818152,0.7470882,0.7486154,61.338398,73.18143,16.222826,STU
29817229882000,1.955011,4.37485397761393,-8.45114843512545,-1.90962805923195,0.23487769,0.7825184,0.70066243,61.551823,73.35622,16.059399,STU
29817234915000,1.960044,4.45382999420891,-8.49557232688172,-1.80350396847926,0.14110987,0.8323039,0.6542367,61.783424,73.52164,15.912016,STU
29817239913000,1.965042,4.50372505228671,-8.5840204009434,-1.69772074444217,0.06536258,0.91629785,0.6249151,62.03526,73.67922,15.775623,STU
29817245599000,1.970728,4.38088034000205,-8.9637218254717,-1.57487597385152,-0.0027488936,1.0241156,0.6038403,62.308617,73.82911,15.651981,STU
29817249867000,1.974996,4.21065802018421,-9.51988952723888,-1.40465363250147,-0.05497787,1.1548407,0.5864306,62.61285,73.95197,15.544332,STU
29817254991000,1.98012,3.68657413541054,-11.2988900128356,-0.880569812995297,-0.09743301,1.2263119,0.552833,62.930187,74.06621,15.449044,STU
29817259885000,1.985014,3.22778694637997,-12.8500873906278,-0.385232312305389,-0.12583824,1.2339478,0.49754974,63.275883,74.194176,15.337449,STU
29817264916000,1.990045,2.98299196080566,-13.6413002356197,0.0956151529341317,-0.14538592,1.2183707,0.4092797,63.63395,74.30377,15.246396,STU
29817270340000,1.995469,2.71600589112174,-14.4730673576289,0.619882639119617,-0.14385876,1.0393872,0.3155119,63.979992,74.51074,15.045393,STU
29817274977000,2.000106,2.42326007570441,-14.7374826068049,1.19120913967464,-0.124311075,0.9297369,0.2733622,64.33443,74.70154,14.861019,STU
29817279918000,2.005047,2.11811307164324,-14.9697555870092,1.77078542278236,-0.10903945,0.68294734,0.19883664,64.594574,74.877205,14.683355,STU
29817284932000,2.010061,1.89000956312167,-14.6113078136694,2.00819927065439,-0.0842994,0.37048978,0.13958271,64.79603,75.03603,14.524933,STU
29817290270000,2.015399,1.66485005052927,-14.2117854744731,2.23491541792974,-0.044593163,0.038179077,0.06566802,64.92467,75.17865,14.363179,STU
29817294890000,2.020019,1.64827115348009,-13.6854062613583,2.16860000284778,-0.021685716,-0.25961772,-0.010995574,64.968864,75.29709,14.231145,STU
29817299904000,2.025033,1.63027838512412,-13.1141366997658,2.09662911730211,0.004276057,-0.47219884,-0.080634214,64.946045,75.38585,14.11951,STU
29817304808000,2.029937,1.70521923394536,-12.6623393685433,2.01512080953434,0.022907447,-0.6010914,-0.15943582,64.861786,75.44548,14.040652,STU
29817309921000,2.03505,1.79401075252174,-12.2318140034783,1.93381547721739,0.064446285,-0.6792821,-0.21410827,64.73192,75.48526,13.981429,STU
29817315123000,2.040252,1.83987946069565,-12.1247869113043,1.92362243095652,0.09254608,-0.7134906,-0.2507602,64.58566,75.4969,13.950244,STU
29817319820000,2.044949,1.87164747463811,-12.0614747083333,1.92166912410016,0.12492194,-0.6914995,-0.2828306,64.444435,75.48031,13.942162,STU
29817324796000,2.049925,1.81571531704812,-12.303847375,1.98692325117371,0.15210545,-0.6337727,-0.28924468,64.306046,75.45712,13.938673,STU
29817329920000,2.055049,1.74956040697697,-12.5740868241726,2.05009828329785,0.1563815,-0.5531385,-0.28008172,64.19445,75.42311,13.941223,STU
29817334822000,2.059951,1.57693320866073,-13.0965112838204,2.05918391782466,0.15577064,-0.46181414,-0.25778514,64.10409,75.387764,13.941533,STU
29817340114000,2.065243,1.38354617842986,-13.6604793773567,2.06678187645751,0.1386664,-0.344528,-0.21563543,64.051895,75.37183,13.917628,STU
29817344795000,2.069924,1.06714678455961,-14.1589169460505,2.0277737543266,0.10934488,-0.18875736,-0.16279559,64.03721,75.36433,13.882845,STU
29817349794000,2.074923,0.729253050323891,-14.6912154732669,1.98611564654356,0.0693332,-0.03573562,-0.111177474,64.06022,75.40241,13.8056,STU
29817354916000,2.080045,0.334461032084372,-15.0462384414794,1.84181264928873,0.016187929,0.113926366,-0.05375614,64.12558,75.45765,13.710589,STU
29817359856000,2.084985,-0.0507721987760228,-15.3711337068576,1.69328900247228,-0.049785517,0.25289822,-0.004581489,64.22995,75.52691,13.602529,STU
29817364868000,2.089997,-0.360360162299789,-15.4212941894767,1.37064262634656,-0.1301143,0.3136793,0.011301007,64.356636,75.65934,13.444246,STU
29817369875000,2.095004,-0.659077780380295,-15.4350814347326,1.02596845311482,-0.17898351,0.45234573,0.043066,64.5427,75.80845,13.266351,STU
29817374909000,2.100038,-0.81456226618569,-15.2066885519952,0.653367147813713,-0.27550024,0.59437186,0.06383542,64.75056,76.02791,13.04063,STU
29817379876000,2.105005,-0.932902412807245,-14.9226719430789,0.27941232007762,-0.35216382,0.70646566,0.07666359,64.98656,76.251076,12.811082,STU
29817385435000,2.110564,-0.945148566452703,-14.4538214215251,-0.0202878577258687,-0.41905355,0.8072584,0.106901415,65.26354,76.54157,12.537699,STU
29817389961000,2.11509,-0.932597020439189,-14.0438047031853,-0.242031608667954,-0.46914452,0.8558222,0.121256754,65.55447,76.830444,12.270424,STU
29817394904000,2.120033,-0.883459211454326,-13.6167376655252,-0.442930939290966,-0.5128214,0.84635377,0.13713925,65.86281,77.15486,11.98763,STU
29817399863000,2.124992,-0.821278930266895,-13.1958249974821,-0.629471787847719,-0.56169057,0.8060367,0.14172074,66.17267,77.4781,11.710385,STU
29817404963000,2.130092,-0.685292039451329,-12.8640261666824,-0.775281061507899,-0.6032294,0.7247916,0.13744467,66.469406,77.79962,11.447979,STU
29817409911000,2.13504,-0.528399464338284,-12.5771371855075,-0.900795101939268,-0.66339964,0.6267477,0.13622294,66.74661,78.12197,11.190569,STU
29817414900000,2.140029,-0.319178521349654,-12.3279227588041,-1.03815486605297,-0.7663304,0.5198463,0.13530666,66.99685,78.4378,10.953234,STU
29817419951000,2.14508,-0.0765154841592254,-12.0998189501354,-1.18375271563158,-0.8900307,0.38453966,0.13500121,67.20887,78.7513,10.723483,STU
29817424904000,2.150033,0.207172855583199,-11.9730728998203,-1.32418309999054,-1.0403035,0.21838433,0.12980886,67.3825,79.04652,10.522703,STU
29817429918000,2.155047,0.52060107057724,-11.9003943271214,-1.46499861721691,-1.210735,0.008857546,0.11209377,67.50463,79.33534,10.332442,STU
29817434953000,2.160082,0.905597501809721,-11.928389509514,-1.66819449803516,-1.3790283,-0.23365596,0.06688975,67.58037,79.58069,10.187544,STU
29817439976000,2.165105,1.35331068562565,-12.0477795187177,-1.92687328417787,-1.5592335,-0.5009095,0.015577064,67.59104,79.80717,10.054439,STU
29817444910000,2.170039,1.81328053735803,-12.2704098251305,-2.26253108388417,-1.7345519,-0.72356987,-0.060170226,67.56375,79.9619,9.976624,STU
29817449918000,2.175047,2.29421205447662,-12.5697650364269,-2.66003566491354,-1.9168952,-0.9053023,-0.1469131,67.477646,80.07021,9.917592,STU
29817455106000,2.180235,2.74534648694412,-12.9132007284534,-3.14995625424046,-2.0955732,-1.0186177,-0.2678644,67.39312,99.93811,9.93644,STU
29817459913000,2.185042,3.13939473120819,-13.248368377804,-3.64364901149154,-2.269059,-1.0567969,-0.41599923,67.28698,100.0225,9.982316,STU
29817464909000,2.190038,3.46206318993673,-13.5464408098825,-4.26371914142814,-2.4123068,-1.069625,-0.48991394,67.125984,100.21125,10.067953,STU
29817469944000,2.195073,3.72841433596465,-13.8127916525058,-4.96107463108366,-2.4736989,-0.96486163,-0.6554584,66.995056,100.51982,10.21436,STU
29817474902000,2.200031,3.74435153987474,-14.0705682922756,-5.55714721189979,-2.5998425,-0.7693848,-0.8240572,66.87301,100.95975,10.405461,STU
29817479908000,2.205037,3.60137054510389,-14.3279341226762,-6.10047453417835,-2.6890287,-0.49235737,-0.9877691,66.80824,101.48874,10.636233,STU
29817484942000,2.210071,3.23547658136332,-14.4750176680868,-6.31498990736154,-2.7504208,-0.204029,-1.1481212,66.80029,102.15522,10.922077,STU
29817489938000,2.215067,2.72350409354008,-14.5461249099376,-6.30550899128109,-2.8017335,0.063224554,-1.2437216,66.865395,102.88405,11.231885,STU
29817494903000,2.220032,2.35897120610862,-14.505667655048,-5.97701661835226,-2.8237245,0.27977628,-1.2641857,67.01923,103.66832,11.538016,STU
29817499870000,2.224999,2.09938002951325,-14.3842461244609,-5.41596452310536,-2.83808,0.43982297,-1.2458596,67.230034,104.483765,11.856234,STU
29817504898000,2.230027,1.9528315432064,-14.1576599222198,-4.67945422174383,-2.9006937,0.5467244,-1.237613,67.531494,105.26347,12.119462,STU
29817509882000,2.235011,2.07675403407616,-13.6929504466681,-3.5589885869537,-2.947425,0.59956425,-1.2525792,67.85827,106.04571,12.3790245,STU
29817514865000,2.239994,2.28892134062921,-13.2584107469717,-2.55743439017497,-2.9709432,0.6203337,-1.3081679,68.22589,106.75958,12.614136,STU
29817519905000,2.245034,2.61373361182705,-12.8564554845222,-1.69262167200538,-2.9608638,0.6227771,-1.3878858,68.59346,107.47977,12.853801,STU
29817524943000,2.250072,2.94531240515464,-12.436026556701,-0.828739362680412,-2.8701503,0.66798115,-1.4611896,68.9386,108.14115,13.136523,STU
29817529883000,2.255012,3.34478321340206,-11.8228850093274,0.0120074391261659,-2.745534,0.7623598,-1.5167783,69.287575,108.795334,13.430462,STU
29817535210000,2.260339,3.74988041492238,-11.1262769715573,1.00988459621432,-2.5802948,0.89675015,-1.5323554,69.58671,109.40901,13.805153,STU
29817539931000,2.26506,3.8902484871307,-10.2070923614422,2.6716615136004,-2.3726006,1.0369438,-1.5131133,69.90648,109.977486,14.179607,STU
29817545080000,2.270209,4.00164382537254,-9.25709711335188,4.40162638006159,-2.1380284,1.1123856,-1.4321736,70.20692,110.48361,14.609381,STU
29817549880000,2.275009,3.62717220208623,-8.97396053477052,5.06836845834492,-1.9242256,1.0830641,-1.3332134,70.51372,110.93035,15.016996,STU
29817555156000,2.280285,3.21262133073645,-8.66656802254931,5.75286721857469,-1.7296649,0.9642508,-1.2290609,70.78049,111.22503,15.448081,STU
29817559922000,2.285051,2.8054576377639,-8.43131757285162,5.83430001385668,-1.5671748,0.87017757,-1.1404854,71.04525,111.45956,15.842143,STU
29817565258000,2.290387,2.3575855319989,-8.17915635152879,5.89431135080342,-1.4996742,0.50640726,-1.0699304,71.14118,111.654945,16.209888,STU
29817570678000,2.295807,2.00013695500872,-8.06000692539712,5.57499073947296,-1.3454307,0.38820487,-1.0433578,71.287636,111.7911,16.567406,STU
29817574864000,2.299993,1.72407058170967,-7.96798487783491,5.32837153670003,-1.3023647,0.17684549,-0.9969321,71.28694,111.933624,16.868357,STU
29817579907000,2.305036,1.50379745366048,-8.11131661194993,4.72567906710043,-1.2336423,-0.01863139,-0.9691377,71.26361,112.039154,17.154404,STU
29817584927000,2.310056,1.30799945207112,-8.30711481300288,4.06187604475017,-1.201572,-0.17348573,-0.9682214,71.198296,112.13687,17.418222,STU
29817589918000,2.315047,1.31295779399103,-8.71420230363727,3.22750701811659,-1.2165382,-0.30818152,-1.0167851,71.078636,112.252525,17.652214,STU
29817594849000,2.319978,1.36001633919283,-9.16125801624315,2.36633595049327,-1.2638801,-0.40225476,-1.1102476,70.92864,112.374504,17.886812,STU
29817599862000,2.324991,1.5353564049105,-9.65297630678664,1.49642214858428,-1.3542882,-0.4596761,-1.2525792,70.75457,112.540924,18.098215,STU
29817604955000,2.330084,1.74545121068249,-10.1618726498516,0.614023925341246,-1.459357,-0.50915617,-1.4315627,70.551025,112.742,18.335619,STU
29817609918000,2.335047,1.93805527704019,-10.6126415219245,-0.195618847064555,-1.5876387,-0.5891795,-1.6371188,70.30948,113.043724,18.590487,STU
29817614847000,2.339976,2.12491675892205,-11.0438604802071,-0.981395284177832,-1.7345519,-0.72234815,-1.8686367,70.02712,113.40526,18.888702,STU
29817619950000,2.345079,2.22305309721154,-11.2867918288462,-1.59450148596154,-1.8872682,-0.929126,-2.0546453,69.696945,113.85692,19.190403,STU
29817624933000,2.350062,2.28729311868269,-11.4565693467308,-2.12677663405769,-2.0253236,-1.2104294,-2.2033908,69.29611,114.36311,19.520348,STU
29817629914000,2.355043,2.29847310674931,-11.3809795068871,-2.5718342238292,-2.1056526,-1.5317446,-2.3185391,68.81911,114.952255,19.852175,STU
29817634961000,2.36009,2.28420689028926,-11.186006607438,-2.98080086673554,-2.137723,-1.8457294,-2.370768,68.26399,115.559006,20.171703,STU
29817640483000,2.365612,2.23758124654865,-10.7775003808526,-3.42530289896303,-2.1099286,-2.0845776,-2.3961189,67.634026,116.234024,20.496475,STU
29817644917000,2.370046,2.18865500341469,-10.3771947552111,-3.78113040041898,-2.032654,-2.2088888,-2.395508,66.957794,116.89157,20.794645,STU
29817649903000,2.375032,2.19452658863703,-9.89297837071926,-4.03232346380139,-1.917506,-2.1948388,-2.3716843,66.261635,117.5831,21.090097,STU
29817654956000,2.380085,2.22301735719753,-9.38964086448827,-4.23175904205672,-1.7730364,-2.0949624,-2.3240368,65.57383,118.22885,21.35831,STU
29817659917000,2.385046,2.30477209816597,-8.91476078161956,-4.26706267075566,-1.6331482,-2.0176878,-2.3017402,64.9203,118.864006,21.60138,STU
29817664909000,2.390038,2.41018029443776,-8.445215102726,-4.23352371513329,-1.5714508,-1.829236,-2.2354615,64.354195,119.44772,21.825079,STU
29817669937000,2.395066,2.51773042533932,-8.01037899904306,-4.0622157862904,-1.4422529,-1.6236799,-2.150551,63.810074,120.07601,22.102934,STU
29817675000000,2.400129,2.62662699752954,-7.58899689473684,-3.83021865520945,-1.3121386,-1.4144585,-2.0592268,63.34281,120.65576,22.364195,STU
29817679905000,2.405034,2.67702966305512,-7.31132033168504,-3.61467293168504,-1.2333369,-1.2492194,-1.9480493,62.930935,121.242096,22.650875,STU
29817684893000,2.410022,2.69959769231496,-7.09692356277165,-3.40027616277165,-1.1704178,-1.1001683,-1.8500054,62.592182,121.770676,22.921625,STU
29817689921000,2.41505,2.71804730992098,-6.8936949572432,-3.16997353002634,-1.1508701,-0.9990701,-1.7559321,62.27172,122.30005,23.213533,STU
29817694911000,2.42004,2.70231375010975,-6.79404873160667,-2.82907838329675,-1.153619,-0.9428705,-1.6584991,61.99909,122.78284,23.475765,STU
29817699878000,2.425007,2.67520923873378,-6.71365899474046,-2.51166176454974,-1.1484267,-0.9468411,-1.5873333,61.72738,123.26457,23.7561,STU
29817704929000,2.430058,2.61814386303578,-6.68037090857255,-2.24535638002359,-1.1771374,-0.98837996,-1.5396858,61.474545,123.72203,24.005833,STU
29817710446000,2.435575,2.56321225478604,-6.660736787378,-1.97336228225413,-1.1911873,-1.0436633,-1.4963144,61.201435,124.16226,24.256184,STU
29817714913000,2.440042,2.53109537995496,-6.67278054207958,-1.78467600942192,-1.2034045,-1.1074986,-1.4679092,60.923527,124.58616,24.480385,STU
29817719909000,2.445038,2.49534672668727,-6.68641120553323,-1.58192760691396,-1.2040154,-1.1896601,-1.4437801,60.60706,125.002975,24.701693,STU
29817724914000,2.450043,2.46077457959815,-6.70122786210201,-1.43869987517774,-1.1985176,-1.2541064,-1.4159856,60.288727,125.40024,24.898783,STU
29817729886000,2.455015,2.42672536392157,-6.70260063568627,-1.31498952156863,-1.2266175,-1.3341297,-1.3897184,59.898983,125.80725,25.092216,STU
29817734907000,2.460036,2.39372577670588,-6.64131554032353,-1.27727565838235,-1.2336423,-1.4056009,-1.3665055,59.506096,126.19096,25.263723,STU
29817739932000,2.465061,2.35646432639761,-6.57221457590433,-1.2692346890583,-1.2437216,-1.4810427,-1.3377949,59.044323,126.582535,25.422365,STU
29817745003000,2.470132,2.29355128199302,-6.45606755305431,-1.43861579142003,-1.2473868,-1.4908166,-1.3170254,58.593723,126.95918,25.569263,STU
29817749909000,2.475038,2.23209558386361,-6.34061114775498,-1.61314563694122,-1.2534955,-1.4517213,-1.258077,58.114502,127.34296,25.703403,STU
29817754960000,2.480089,2.16497160376648,-6.20156836723164,-1.86246342749529,-1.2525792,-1.41904,-1.2009611,57.6443,127.711174,25.824425,STU
29817759911000,2.48504,2.09498761440942,-6.06124160951547,-2.09711469998054,-1.2486086,-1.3616186,-1.1826351,57.175903,128.10739,25.946648,STU
29817764907000,2.490036,1.99257403779918,-5.88900093677758,-2.26004535248103,-1.2415836,-1.3014483,-1.1337659,56.7408,128.47456,26.045969,STU
29817769994000,2.495123,1.88658280399851,-5.71214951355775,-2.42332403844151,-1.212873,-1.2525792,-1.0885619,56.302532,128.87656,26.144722,STU
29817774897000,2.500026,1.76432667680863,-5.52439908136507,-2.54994640703924,-1.1795808,-1.2043208,-1.0595458,55.89519,129.25937,26.237745,STU
29817779860000,2.504989,1.64057445179468,-5.33435107096894,-2.6781183049284,-1.1438452,-1.178359,-1.0302242,55.476276,129.66385,26.31643,STU
29817784945000,2.510074,1.49367954342272,-5.16684917673142,-2.7744895259924,-1.0958922,-1.1578951,-0.98746365,55.08464,130.041,26.385069,STU
29817790254000,2.515383,1.33883649937925,-4.99717670351759,-2.86505058170263,-1.0509937,-1.1227703,-0.95081174,54.716396,130.39758,26.44878,STU
29817794953000,2.520082,1.21024835743423,-4.8685886078727,-2.88278686437087,-1.0076222,-1.0913107,-0.9236283,54.33269,130.77023,26.494516,STU
29817800222000,2.525351,1.06599102786732,-4.72455170054882,-2.90507818341999,-0.96852684,-1.0793989,-0.890947,53.934914,131.14851,26.517704,STU
29817805063000,2.530192,0.932076163874446,-4.59510053593299,-2.97203556181398,-0.9251554,-1.0659598,-0.8707884,53.555916,131.50652,26.537512,STU
29817809855000,2.534984,0.799516769481995,-4.46695965990757,-3.03831520595032,-0.8848383,-1.0277808,-0.8378017,53.172222,131.86006,26.536581,STU
29817814907000,2.540036,0.601023310562783,-4.20611926007517,-3.22551129315795,-0.84849185,-0.96669424,-0.8045095,52.80858,132.19495,26.532318,STU
29817819877000,2.545006,0.399206199191481,-3.93550096403585,-3.42274165058302,-0.81122905,-0.90194255,-0.76052725,52.470455,132.50656,26.520636,STU
29817824920000,2.550049,0.311649835264534,-3.72735638237779,-3.50145472263126,-0.77732605,-0.8542951,-0.72112644,52.12895,132.82297,26.490625,STU
29817829849000,2.554978,0.249926539356266,-3.53743847254074,-3.55368219245625,-0.7189884,-0.77854776,-0.6872234,51.82449,133.11356,26.46331,STU
29817834938000,2.560067,0.227844115580205,-3.34304642705726,-3.58186562055366,-0.6627888,-0.691194,-0.65026605,51.523674,133.43309,26.410114,STU
29817840002000,2.565131,0.214050894351536,-3.14994148348502,-3.60485429859689,-0.59712076,-0.6068946,-0.6203337,51.251583,133.72852,26.359274,STU
29817844993000,2.570122,0.272661487838906,-2.97894199387031,-3.67607328984802,-0.50518554,-0.51893,-0.6001751,50.995686,134.02917,26.314444,STU
29817849849000,2.574978,0.352761237358663,-2.81874245547112,-3.76088473203647,-0.4447099,-0.48563787,-0.5897904,50.75522,134.31465,26.266531,STU
29817854958000,2.580087,0.509401792408842,-2.72848710640469,-3.90480577940676,-0.36254853,-0.4184427,-0.57971114,50.53665,134.60576,26.243015,STU
29817859873000,2.585002,0.682812909695825,-2.6662369553089,-4.06043108750236,-0.31490102,-0.3643811,-0.58459806,50.325733,134.88808,26.220606,STU
29817864905000,2.590034,0.929230927948535,-2.61177796819157,-4.26570396233024,-0.25992316,-0.29810223,-0.5751296,50.120243,135.20331,26.231884,STU
29817869930000,2.595059,1.21424684467477,-2.56263723450424,-4.496665133575,-0.1966986,-0.21777347,-0.57757306,49.932137,135.50357,26.254663,STU
29817874913000,2.600042,1.51185737479882,-2.59253460343474,-4.65190144429833,-0.12950343,-0.10781772,-0.56779927,49.74649,135.86893,26.33576,STU
29817879908000,2.605037,1.8169947190579,-2.65825659779195,-4.77395654866536,-0.06169739,0.01740966,-0.5561928,49.588947,136.20923,26.426846,STU
29817884950000,2.610079,2.14050906713456,-2.74526641384318,-4.85356845425944,0.0036651916,0.13591751,-0.54244834,49.42447,136.65085,26.608057,STU
29817889923000,2.615052,2.4678476693514,-2.84208489874153,-4.90889319961278,0.06047566,0.2510656,-0.52412236,49.298443,137.05313,26.7924,STU
29817894890000,2.620019,2.78071542537536,-2.94855296842995,-4.99798952580292,0.14508049,0.33505958,-0.49754974,49.163967,137.4527,27.010815,STU
29817899875000,2.625004,3.08452210405688,-3.06248046673958,-5.11191712324749,0.21227567,0.40775254,-0.47555858,49.061134,137.81935,27.230791,STU
29817904921000,2.63005,3.37618390966391,-3.18892012042485,-5.18101346936272,0.2779437,0.47861293,-0.4465425,48.958706,138.17812,27.496025,STU
29817909914000,2.635043,3.65277569348758,-3.32244719191184,-5.21439526213224,0.35185838,0.57451874,-0.37415496,48.89598,138.48878,27.751925,STU
29817914901000,2.64003,3.94780550916233,-3.47052932694687,-5.15753239007169,0.43218717,0.6554584,-0.30451632,48.83014,138.77992,28.02863,STU
29817919951000,2.64508,4.26126416181872,-3.6320079742021,-5.02929918767554,0.48380527,0.6945538,-0.24984388,48.79005,139.03578,28.292118,STU
29817924908000,2.650037,4.56285481561997,-3.80277101622383,-4.8687343942029,0.5338962,0.6924158,-0.18295415,48.761395,139.24141,28.55718,STU
29817929937000,2.655066,4.86338109359903,-3.98696446796498,-4.67484640108696,0.57787853,0.70829827,-0.1282817,48.754784,139.4194,28.815554,STU
29817934935000,2.660064,5.07888444940283,-4.15960577138228,-4.46397634970836,0.6081163,0.72234815,-0.06078109,48.74757,139.56104,29.099964,STU
29817939973000,2.665102,5.22629527525229,-4.32488444891214,-4.23615981814647,0.61178154,0.7180721,-0.010995574,48.74655,139.68494,29.368431,STU
29817944904000,2.670033,5.32087889563748,-4.46282427114186,-4.02027687915918,0.6102544,0.7021896,0.035430185,48.733795,139.7825,29.674702,STU
29817949908000,2.675037,5.33606490184853,-4.56406501731277,-3.81273334950882,0.61575216,0.6973027,0.07849618,48.732025,139.86298,29.964458,STU
29817954954000,2.680083,5.27511292052742,-4.60653860614324,-3.66829577506743,0.60048056,0.64476824,0.096516706,48.69909,139.93323,30.280146,STU
29817959907000,2.685036,5.13770558831286,-4.58758589796224,-3.59248484339227,0.59773165,0.5720753,0.13194689,48.673157,139.9829,30.570028,STU
29817965474000,2.690603,4.92767019573088,-4.52786775677638,-3.55022599364956,0.5849035,0.5015204,0.16523905,48.637062,140.0144,30.860275,STU
29817969946000,2.695075,4.72037360119071,-4.45324098620523,-3.54608006435624,0.5739079,0.4111123,0.19456059,48.585342,140.0369,31.119724,STU
29817974881000,2.70001,4.45912829429426,-4.34420757017456,-3.57693771882294,0.5888741,0.30268374,0.21319197,48.520752,140.04207,31.341713,STU
29817979910000,2.705039,4.14685759337656,-4.19527843810474,-3.65860857849377,0.6282749,0.19853121,0.24037547,48.444008,140.03511,31.534933,STU
29817984885000,2.710014,3.86387789809915,-4.02808771976311,-3.79219310919859,0.6948592,0.065973446,0.25686884,48.330196,140.03394,31.681988,STU
29817989931000,2.71506,3.61461561998281,-3.82960114801796,-4.00452747817366,0.7715228,-0.05131268,0.28191432,48.204422,140.01387,31.802238,STU
29817994849000,2.719978,3.42391047837212,-3.62097645210033,-4.25358664732548,0.8729264,-0.15332718,0.3109304,48.05761,139.97966,31.850477,STU
29818000059000,2.725188,3.34349110796817,-3.3646398860683,-4.61547381414325,0.99112886,-0.23335053,0.3585779,47.900448,139.91711,31.87164,STU
29818004861000,2.72999,3.3197025494358,-3.11658618691674,-4.94689246691064,1.1246029,-0.2556471,0.41599923,47.740963,139.8486,31.826958,STU
29818009926000,2.735055,3.39859905090983,-2.83058653641354,-5.29206446777473,1.2638801,-0.22082779,0.50640726,47.59878,139.73958,31.76283,STU
29818014848000,2.739977,3.48027227152738,-2.57448303899135,-5.69260855870317,1.3686435,-0.14508049,0.6010914,47.468533,139.64185,31.652853,STU
29818019893000,2.745022,3.5730964914121,-2.35170499850144,-6.22170630188281,1.4129313,-0.018325957,0.66950834,47.378826,139.51784,31.548355,STU
29818024854000,2.749983,3.63520925976337,-2.36278876084538,-7.00676036575993,1.3365731,0.09437868,0.72021013,47.343838,139.39354,31.402584,STU
29818029924000,2.755053,3.62047944603094,-2.99126122358176,-8.51902272909293,1.1187997,0.16890424,0.72418076,47.335606,139.29086,31.272442,STU
29818035621000,2.76075,3.7316849212597,-4.26354609170669,-10.3728293437385,0.7837401,0.1994475,0.65240407,47.339672,139.2788,31.115881,STU
29818039931000,2.76506,3.96421531228297,-5.88363441180273,-11.9547975687107,0.5662721,0.20799962,0.42271876,47.322563,139.32191,31.005878,STU
29818044917000,2.770046,4.40607878207255,-7.91946427710603,-13.7263612548216,0.56505036,0.22876903,0.07574729,47.217735,139.54932,30.81627,STU
29818049948000,2.775077,5.89382768138303,-10.9479241723793,-15.1611479569301,0.7315111,0.26450464,-0.2284636,47.088287,139.81265,30.674456,STU
29818054983000,2.780112,7.17582045504786,-13.7425707475575,-16.2614910880292,0.8042041,0.40866885,-0.32436943,47.017914,140.06995,30.393213,STU
29818059852000,2.784981,7.31387267808152,-15.1875172525412,-15.5390175952827,0.8741482,0.82711154,-0.3042109,46.991356,140.31099,30.233463,STU
29818064814000,2.789943,7.44485884206777,-16.522289961331,-14.4160179015976,1.1001683,1.2959507,-0.05955936,47.11989,140.27925,30.128311,STU
29818069842000,2.794971,7.48405851562023,-16.5467903968658,-9.55032964149791,1.5204436,1.4789047,0.22693644,47.291573,140.16774,30.055649,STU
29818074821000,2.79995,7.53762925692445,-16.4098049692247,-5.06422854351236,1.7363845,1.457219,0.441961,47.638805,139.81543,30.044527,STU
29818079811000,2.80494,7.68944355455177,-15.2000358686588,-2.77752693634468,1.6044376,1.3790283,0.5036584,48.03581,139.43535,30.030857,STU
29818084838000,2.809967,7.76716753385339,-13.9807979643964,-0.724728345520552,1.4077389,1.0958922,0.44684792,48.514877,138.73488,30.208828,STU
29818089826000,2.814955,7.28942872657266,-12.767341129513,-0.538410188232823,1.3365731,0.50335294,0.35094208,48.89868,138.05463,30.289959,STU
29818094819000,2.819948,6.8442359447224,-11.5311321767269,-0.558872207701743,1.2983941,-0.049480084,0.3203988,49.24112,137.39163,30.492882,STU
29818099791000,2.82492,6.65211240001614,-10.1363156554229,-2.15349710315688,1.1667526,-0.21991149,0.3567453,49.525604,136.78601,30.648521,STU
29818105198000,2.830327,6.44317997720303,-8.6194667152195,-3.88763564091349,1.0219775,0.08368854,0.4156938,49.761272,136.26161,30.7861,STU
29818109908000,2.835037,5.99091784033401,-7.78516831857287,-3.90344053532389,0.915687,0.50823987,0.46853364,49.99202,135.7602,30.90055,STU
29818114907000,2.840036,5.38521891325911,-7.12616780698381,-3.22505751437247,0.9034697,0.68569624,0.47494772,50.24099,135.27707,31.014355,STU
29818119958000,2.845087,4.6358073532032,-6.6700686483984,-3.18215043928929,0.97066486,0.6401868,0.44440445,50.324726,135.12076,31.145247,STU
29818124906000,2.850035,3.83892492001001,-6.319061044995,-3.43354781902903,1.0858129,0.5534439,0.41996986,50.443123,134.9605,31.292822,STU
29818129909000,2.855038,3.26387929300531,-6.20262394143753,-3.70036067621804,1.2211196,0.4700608,0.4016439,50.576572,134.74518,31.41613,STU
29818134951000,2.86008,2.7933619447178,-6.19796525991317,-3.97521729204052,1.344209,0.3662137,0.40317106,50.674583,134.51834,31.522863,STU
29818139951000,2.86508,2.53863799711321,-6.36605396588247,-3.99782283876104,1.4410311,0.27977628,0.42241332,50.756012,134.25418,31.516542,STU
29818144916000,2.870045,2.41651751257448,-6.63960399202794,-3.86593282155332,1.5286902,0.26633725,0.45081854,50.826626,133.97357,31.504332,STU
29818149905000,2.875034,2.38753869176703,-7.01353146257651,-3.68687308307996,1.6148223,0.25350907,0.45906523,50.88515,133.64865,31.394852,STU
29818154977000,2.880106,2.40671876268509,-7.44508320844028,-3.48068712043435,1.6594155,0.19303341,0.45875978,50.925694,133.31839,31.273643,STU
29818159914000,2.885043,2.50601723318467,-7.97123251514292,-3.27035040184472,1.7110336,0.06811147,0.42943826,50.977055,132.91878,31.109758,STU
29818164904000,2.890033,2.65132915888911,-8.56216787861342,-3.05238243742145,1.7287487,-0.07788532,0.41386122,51.00276,132.52228,30.93333,STU
29818169947000,2.895076,2.76752413188722,-9.06207679678348,-2.89560216674278,1.7275269,-0.1881465,0.398895,51.037987,132.07187,30.73805,STU
29818174914000,2.900043,2.86669302605976,-9.50597560945101,-2.77282170389159,1.7391334,-0.27305678,0.39736784,51.033928,131.62402,30.528883,STU
29818179903000,2.905032,2.88653711035637,-9.80925777239614,-2.68977795510927,1.743104,-0.33292156,0.39095375,51.03551,131.13121,30.31154,STU
29818184949000,2.910078,2.86275066971845,-10.0376076521953,-2.62793315977555,1.7461584,-0.37415496,0.39950588,51.01578,130.6419,30.0852,STU
29818189917000,2.915046,2.77240305307684,-10.1407922685478,-2.5475498705276,1.7208074,-0.40133846,0.43035457,51.007015,130.11874,29.844479,STU
29818194897000,2.920026,2.6409919372487,-10.16999456368,-2.45507535149505,1.6933185,-0.40225476,0.46273044,50.990623,129.60262,29.603374,STU
29818199866000,2.924995,2.427774104,-10.1389947772512,-2.38472106049289,1.6643023,-0.37995818,0.5109888,50.99162,129.06097,29.339071,STU
29818204975000,2.930104,2.163424226,-10.0740668933649,-2.32443069581043,1.6221527,-0.3475823,0.5647449,50.995724,128.52806,29.070919,STU
29818209911000,2.93504,1.89432279525889,-9.9862017283219,-2.32020392785402,1.5635096,-0.27458394,0.627664,51.0345,127.974045,28.781683,STU
29818214901000,2.94003,1.6111109819921,-9.8768922970472,-2.35995308079642,1.4908166,-0.16676621,0.70249504,51.096687,127.42508,28.48846,STU
29818219944000,2.945073,1.38155099443293,-9.82645343233639,-2.40778193116178,1.4306464,-0.037873644,0.77091193,51.19566,126.851875,28.160034,STU
29818224915000,2.950044,1.1888890480308,-9.81235592952325,-2.45947169533116,1.3698653,0.12767084,0.8347474,51.340412,126.28508,27.834917,STU
29818229902000,2.955031,1.06862553969526,-9.83765834817453,-2.46629832304344,1.3219124,0.30176744,0.89919364,51.526962,125.702545,27.47381,STU
29818234949000,2.960078,0.996891875037103,-9.89026309884239,-2.44238711813595,1.2788464,0.43890667,0.95539325,51.751564,125.12596,27.116503,STU
29818239906000,2.965035,1.02689099813738,-9.95807535833251,-2.39998158334483,1.248914,0.5546656,0.9966267,52.01945,124.53239,26.7303,STU
29818244912000,2.970041,1.13083434482113,-10.0383950915542,-2.34328511824184,1.2116512,0.6056729,1.022283,52.305664,123.94746,26.34488,STU
29818249901000,2.97503,1.30342137478062,-10.054923472148,-2.22938256432659,1.20371,0.677755,1.0311406,52.631252,123.349106,25.954908,STU
29818255092000,2.980221,1.54288311087848,-10.0169890414203,-2.06104809937047,1.1902709,0.74128497,1.0454959,52.964542,122.76041,25.564425,STU
29818259871000,2.985,1.76333921506105,-9.98206539579359,-1.90607402731782,1.1911873,0.81000733,1.0525209,53.31634,122.18083,25.199276,STU
29818264866000,2.989995,1.99375943694678,-9.94556328030809,-1.74409547743228,1.1866057,0.84604836,1.0476339,53.66872,121.61369,24.839664,STU
29818269891000,2.99502,2.22727183394289,-9.8858907132927,-1.58768007998075,1.1869112,0.85062987,1.0296134,54.02263,121.05674,24.488483,STU
29818274877000,3.000006,2.46216634096888,-9.78376275949096,-1.44470089133782,1.1808025,0.84696466,1.0100657,54.37539,120.51288,24.144848,STU
29818279863000,3.004992,2.65974350227926,-9.68069892042414,-1.30669082564662,1.14018,0.8445212,1.0036516,54.732227,120.01898,23.89882,STU
29818284897000,3.010026,2.81740059008027,-9.57559402893668,-1.17292111794669,1.1081096,0.84299403,0.9767735,55.074936,119.544586,23.665228,STU
29818290673000,3.015802,2.95146219607843,-9.43458092810457,-1.05164302761933,1.0989466,0.8536842,0.9633345,55.41326,119.10942,23.482075,STU
29818294920000,3.020049,3.01993466176471,-9.31777454901961,-0.983170456788473,1.072374,0.8509353,0.93187493,55.73422,118.703156,23.31115,STU
29818299858000,3.024987,3.07889376303042,-9.17617493285419,-0.934436850295363,1.0622946,0.8597928,0.90469146,56.05646,118.32222,23.180138,STU
29818304965000,3.030094,3.11260081780053,-9.02208653086541,-0.924806306315841,1.0619892,0.8735373,0.87109387,56.367374,117.96317,23.060377,STU
29818309877000,3.035006,3.10855886365702,-8.87751855961672,-0.930901948108268,1.0638218,0.8970556,0.84513205,56.673553,117.63466,22.97235,STU
29818314909000,3.040038,3.05143281398795,-8.73470380825842,-0.959464923234219,1.0742066,0.91354895,0.8185594,56.970577,117.322845,22.89435,STU
29818319873000,3.045002,2.99528815613383,-8.59255848464097,-0.964347539428683,1.0903945,0.9419542,0.7877107,57.26185,117.04404,22.843874,STU
29818325003000,3.050132,2.93761379739777,-8.4435661612209,-0.930704114149873,1.1117748,0.98532563,0.7519751,57.552166,116.7798,22.804026,STU
29818329843000,3.054972,2.88751798423266,-8.30821245269797,-0.868617064653118,1.146594,1.0329732,0.7089091,57.83677,116.536194,22.776194,STU
29818334944000,3.060073,2.8435032839123,-8.17616835173691,-0.741463846817499,1.1765264,1.1001683,0.68844515,58.13191,116.302124,22.7556,STU
29818339891000,3.06502,2.80291435903952,-8.05440154405257,-0.654466359680162,1.2064588,1.1258247,0.6585127,58.418583,116.08385,22.748394,STU
29818344912000,3.070041,2.76574357922505,-7.94288910757561,-0.635880911552807,1.2437216,1.1746938,0.6407976,58.72456,115.871284,22.748127,STU
29818349869000,3.074998,2.7466795590604,-7.83941982281879,-0.616065043422819,1.2672399,1.2223413,0.6169739,59.034805,115.6549,22.748585,STU
29818355089000,3.080218,2.77672517420615,-7.74928297738155,-0.591027015114695,1.3255776,1.2712106,0.59986967,59.351166,115.44184,22.753448,STU
29818360425000,3.085554,2.81038593223809,-7.68319682942857,-0.539712339445714,1.3787229,1.3234396,0.61178154,59.674095,115.23169,22.754545,STU
29818364914000,3.090043,2.84314045514286,-7.66681967485714,-0.457826079211429,1.4272866,1.3582588,0.6133087,59.996143,115.03231,22.763065,STU
29818369939000,3.095068,2.88424142838428,-7.65962242620087,-0.35722742839476,1.4312572,1.3796391,0.63529986,60.31881,114.846886,22.776596,STU
29818374914000,3.100043,2.94434623551674,-7.70123331654537,-0.21852404410558,1.4410311,1.3793337,0.6768387,60.63758,114.66002,22.782564,STU
29818379910000,3.105039,3.00026008739584,-7.75818494104971,-0.0843457887589311,1.4214834,1.349096,0.7254025,60.94614,114.47995,22.786238,STU
29818384948000,3.110077,3.02336511488363,-7.92916209620726,0.0126953961727804,1.3820826,1.3087788,0.7858781,61.244606,114.29695,22.772486,STU
29818390180000,3.115309,3.04794903610566,-8.11043386578618,0.11291847099411,1.3277156,1.2770138,0.84940815,61.5405,114.108604,22.74876,STU
29818394964000,3.120093,3.07656842172051,-8.31485765232911,0.198776431458147,1.2718215,1.2168436,0.91538155,61.808617,113.91747,22.703438,STU
29818399905000,3.125034,3.10612703048367,-8.52599016263609,0.287452054922363,1.2134838,1.1395692,0.97494096,62.079655,113.69832,22.623043,STU
29818404957000,3.130086,3.18631498207969,-8.80057405763366,0.442502382181338,1.1670581,1.0158689,1.0259482,62.310783,113.477905,22.523312,STU
29818409858000,3.134987,3.27696161240089,-9.08205575421834,0.609483198422444,1.1462886,0.8680395,1.0757337,62.504406,113.254265,22.40529,STU
29818414903000,3.140032,3.42620203471825,-9.33394419490773,0.734667591177341,1.1255192,0.72021013,1.1078042,62.67779,113.010376,22.260843,STU
29818419873000,3.145002,3.58590692487911,-9.57350182443501,0.847400414428106,1.102001,0.539394,1.131017,62.78978,112.76731,22.102804,STU
29818424912000,3.150041,3.72392339807112,-9.7174502148076,1.03103532695567,1.0821478,0.3381139,1.1377366,62.86816,112.51653,21.93597,STU
29818429867000,3.154996,3.85336190006819,-9.83302021967852,1.2298158318753,1.058324,0.11209377,1.1365148,62.87832,112.27419,21.764215,STU
29818434945000,3.160074,3.75810095172282,-9.70664263262384,1.17717202572301,1.0262536,-0.13041973,1.1151345,62.82732,112.05431,21.60961,STU
29818439900000,3.165029,3.58598892976997,-9.49829663520092,1.03676495695333,0.9841039,-0.23426682,1.0983357,62.74719,111.845406,21.45722,STU
29818444909000,3.170038,3.37317075570019,-9.21582380412895,0.791247991219363,0.9615019,-0.40103304,1.0891727,62.590424,111.65083,21.317726,STU
29818449900000,3.175029,3.13984452578054,-8.89500041564121,0.489868326638869,0.93187493,-0.49602258,1.0910053,62.423122,111.46982,21.184298,STU
29818454936000,3.180065,2.94812676367938,-8.60065820319432,0.256789286165631,0.8875872,-0.5335908,1.099252,62.229385,111.27939,21.03018,STU
29818459922000,3.185051,2.77865044602189,-8.32290511712511,0.059066889184265,0.86742866,-0.5112942,1.1136073,62.027046,111.095314,20.879042,STU
29818464906000,3.190035,2.64473716358068,-8.12011954601868,-0.0158331282259263,0.86467975,-0.48533243,1.1279627,61.81103,110.90348,20.7079,STU
29818469961000,3.19509,2.52807305257556,-7.95484535915253,-0.0255551398450648,0.86651236,-0.44929138,1.1377366,61.609043,110.716644,20.5407,STU
29818474911000,3.20004,2.45064127380705,-7.88447874149378,-0.0123435498582988,0.88422745,-0.44684792,1.1362094,61.40823,110.51823,20.356613,STU
29818479934000,3.205063,2.39076049636929,-7.85952839585062,0.0126068135008299,0.9202685,-0.4868596,1.1191051,61.209583,110.3278,20.180655,STU
29818484921000,3.21005,2.38161039613409,-7.87266818840228,0.0454024156668223,0.9615019,-0.514654,1.0977248,61.030643,110.12393,19.99232,STU
29818489943000,3.215072,2.39059250269866,-7.89961450809599,0.0813308653726772,1.0100657,-0.5323691,1.0735956,60.84576,109.93198,19.816097,STU
29818494869000,3.219998,2.41973863235863,-7.96719079784004,0.101442920375751,1.0601566,-0.52870387,1.0338894,60.67471,109.7342,19.635853,STU
29818499905000,3.225034,2.46396266528782,-8.06546622133469,0.11127049145838,1.103528,-0.5342017,0.9935723,60.497765,109.550705,19.469292,STU
29818504902000,3.230031,2.45929675621885,-8.19239063069412,0.0877979191141088,1.142318,-0.5348125,0.9486737,60.3264,109.38492,19.320662,STU
29818509895000,3.235024,2.42560080445966,-8.33680210384054,0.0444745224080133,1.16492,-0.535118,0.8906415,60.154873,109.24196,19.193298,STU
29818514866000,3.239995,2.39205332274626,-8.48057727568329,0.00134201589369305,1.1835514,-0.5320636,0.8381071,60.002823,109.108795,19.075224,STU
29818519900000,3.245029,2.35808067681079,-8.62617458307746,-0.0423371307152565,1.1869112,-0.5112942,0.7806858,59.856754,109.001656,18.98048,STU
29818524869000,3.249998,2.26277658029044,-8.81582225848773,-0.125531462509765,1.1594223,-0.4636467,0.72295904,59.726223,108.91015,18.898676,STU
29818529873000,3.255002,2.13319187371057,-9.0317966024036,-0.231118999719579,1.1459832,-0.37904188,0.6722572,59.613598,108.840096,18.83554,STU
29818534903000,3.260032,2.02099903748307,-9.2137283332366,-0.325793935824144,1.1120802,-0.3408628,0.6337727,59.500942,108.75176,18.750643,STU
29818539925000,3.265054,1.91864996824337,-9.3765566518669,-0.414186251094022,1.0824533,-0.2666427,0.61941737,59.424934,71.32281,18.677193,STU
29818544865000,3.269994,1.82427242992796,-9.4816236775065,-0.558451259954973,1.065349,-0.1863139,0.58123827,59.373116,71.43232,18.566507,STU
29818549873000,3.275002,1.73309250453272,-9.54880874854913,-0.74561006658295,1.0280862,-0.0720821,0.56138515,59.35366,71.536606,18.459032,STU
29818554939000,3.280068,1.67548701322533,-9.55159708453608,-0.907638676736377,0.9923506,0.059253927,0.54183745,59.369053,71.66699,18.323765,STU
29818559911000,3.28504,1.64276129458027,-9.5095213209622,-1.0478916645891,0.9431759,0.19120082,0.5390886,59.417786,71.79082,18.193518,STU
29818564900000,3.290029,1.63593924772954,-9.43018624646485,-1.11879172029476,0.90377516,0.33841935,0.55863625,59.508648,71.94245,18.035383,STU
29818569950000,3.295079,1.65038746770564,-9.31941664379606,-1.13323988998208,0.86376345,0.4718934,0.5742133,59.632835,72.08752,17.883053,STU
29818574903000,3.300032,1.67245033914091,-9.22597113006825,-1.11092495098354,0.8206975,0.5867361,0.5861252,59.792698,72.23898,17.725348,STU
29818580073000,3.305202,1.70226490517864,-9.14149631874749,-1.0562648613609,0.81336707,0.71959925,0.5919284,59.99442,72.38881,17.568058,STU
29818584914000,3.310043,1.73386529032527,-9.05114461634695,-0.982800804503753,0.7987063,0.8335256,0.5815437,60.22212,72.54534,17.403349,STU
29818589997000,3.315126,1.76995383666018,-8.94739036947456,-0.888068446918729,0.80756384,0.9605856,0.5842926,60.48802,72.70262,17.23613,STU
29818594953000,3.320082,1.81138825947991,-8.84006854460194,-0.779816231060428,0.79779,1.0574077,0.6065892,60.772484,72.85996,17.067057,STU
29818599861000,3.32499,1.86148197620164,-8.72485268229777,-0.649572483892145,0.79351395,1.1472049,0.63621616,61.085155,73.015976,16.897482,STU
29818604895000,3.330024,1.89140631802484,-8.62403156189367,-0.557920555551028,0.8002335,1.2153164,0.6762278,61.405296,73.17279,16.723478,STU
29818609914000,3.335043,1.90073231921808,-8.54009818412883,-0.506627772963718,0.79443026,1.2632693,0.7156286,61.73701,73.33429,16.543938,STU
29818615623000,3.340752,1.91136966573045,-8.48066533567388,-0.50676569323191,0.77549344,1.3063353,0.77121735,62.075375,73.48832,16.367653,STU
29818619950000,3.345079,1.91945213376243,-8.46045916559391,-0.54717805449093,0.7464773,1.3466524,0.81489426,62.417282,73.64667,16.18634,STU
29818624877000,3.350006,1.94981038311415,-8.47161610320249,-0.597567358237125,0.7089091,1.3820826,0.8341365,62.75794,73.83008,15.9766035,STU
29818629910000,3.355039,2.01271575879932,-8.53452127677944,-0.655633909396647,0.6407976,1.3952162,0.8622363,63.093903,74.02542,15.756713,STU
29818634900000,3.360029,2.08511275685325,-8.64854020877458,-0.703404144901664,0.54458636,1.3909402,0.88208944,63.431362,74.23521,15.5248375,STU
29818639980000,3.365109,2.17343384691881,-8.83990224609178,-0.73775119563288,0.48288897,1.3561208,0.88025683,63.75509,74.443115,15.297096,STU
29818644847000,3.369976,2.27948478262545,-9.08890110709814,-0.795011438476356,0.35888332,1.2968669,0.87109387,64.06231,74.65667,15.074614,STU
29818650053000,3.375182,2.42353805668882,-9.44903466830396,-0.891046996301647,0.19150625,1.1936307,0.84849185,64.33982,74.8669,14.863296,STU
29818654866000,3.379995,2.5656175722195,-9.86799132484076,-0.973929797476727,0.028405234,1.0760391,0.8017606,64.60065,75.09686,14.638178,STU
29818659917000,3.385046,2.73152022860363,-10.4699804433121,-1.049770995561,-0.13133603,0.9407325,0.7309003,64.82246,75.316475,14.434579,STU
29818664857000,3.389986,2.89336839865889,-11.0376351221574,-1.09292308524781,-0.27030787,0.79779,0.634689,65.0127,75.5335,14.243823,STU
29818669946000,3.395075,3.0591383451895,-11.5728354599125,-1.06450539708455,-0.37904188,0.64660084,0.5510005,65.16049,75.732895,14.077252,STU
29818674852000,3.399981,3.21790622046983,-12.0322432305185,-1.01866783535134,-0.4456262,0.48380527,0.453262,65.27191,75.9143,13.933075,STU
29818679908000,3.405037,3.37825498702266,-12.3278865909655,-0.913438886991617,-0.462425,0.30665436,0.37507126,65.33669,76.07054,13.813306,STU
29818685471000,3.4106,3.53525200298892,-12.5326253164588,-0.818111798505542,-0.4633413,0.15057829,0.29779682,65.37449,76.19992,13.715793,STU
29818690002000,3.415131,3.63832211832937,-12.5455091145091,-0.766576740835313,-0.4550946,-0.00061086525,0.23732115,65.36486,76.30315,13.640054,STU
29818694921000,3.42005,3.71446800106716,-12.499207849954,-0.722505304268629,-0.40317106,-0.115453534,0.1863139,65.319534,76.36386,13.599236,STU
29818699867000,3.424996,3.7101104249126,-12.3161890144434,-0.705074999650414,-0.33444872,-0.18020524,0.12705997,65.24878,76.39891,13.579345,STU
29818704920000,3.430049,3.70131782146633,-12.1112628080798,-0.680943931162095,-0.2602286,-0.19303341,0.06505715,65.17963,76.420815,13.566398,STU
29818709921000,3.43505,3.66309850830923,-11.7863988457855,-0.61406008325187,-0.17256944,-0.14538592,0.019547688,65.11305,76.42696,13.565913,STU
29818714896000,3.440025,3.62221964286286,-11.4653626988989,-0.532715874870871,-0.077579886,-0.061391957,-0.02107485,65.06495,76.416084,13.579808,STU
29818719946000,3.445075,3.55928491513514,-11.1555302864865,-0.339070728324324,0.009773844,0.06047566,-0.04550946,65.04443,76.39623,13.601274,STU
29818724900000,3.450029,3.49987205936311,-10.8661260693972,-0.119991075944322,0.07819075,0.1908954,-0.070249505,65.06212,76.36574,13.63215,STU
29818729907000,3.455036,3.45665562251152,-10.6788549433206,0.312173603440817,0.13897185,0.25259277,-0.076358154,65.09531,76.33434,13.663445,STU
29818734949000,3.460078,3.4219833323785,-10.5061440028645,0.765500794165951,0.1908954,0.3680463,-0.07819075,65.18625,76.297,13.699269,STU
29818739957000,3.465086,3.44488059887329,-10.4374522033801,1.33335338578249,0.20280726,0.42730024,-0.08582657,65.27651,76.25725,13.737002,STU
29818744919000,3.470048,3.46318527200905,-10.3721343500519,1.88715637981522,0.21166481,0.43096542,-0.09132435,65.37929,76.206055,13.782349,STU
29818749904000,3.475033,3.35516515802772,-10.3856371345338,2.1887124569341,0.21380283,0.44684792,-0.110872045,65.498955,76.14859,13.83191,STU
29818755565000,3.480694,3.22966493986346,-10.4062120972881,2.5244992148682,0.21563543,0.49632803,-0.15241088,65.61444,76.05404,13.909834,STU
29818759915000,3.485044,3.07560609717428,-10.5286687633226,2.64695625213351,0.20525073,0.56596667,-0.1600467,65.73586,75.96224,13.980753,STU
29818764850000,3.489979,2.90082899633036,-10.6675937396169,2.78588164958278,0.20005837,0.6560693,-0.17898351,65.882225,75.85444,14.057135,STU
29818769952000,3.495081,2.26292991032657,-11.3662442006472,2.68635191977052,0.17898351,0.74097955,-0.2012801,66.04211,75.74215,14.132981,STU
29818774856000,3.499985,1.53522406625478,-12.1768537108954,2.52975705704619,0.1469131,0.82802784,-0.21777347,66.22333,75.62539,14.208383,STU
29818779911000,3.50504,1.0273224124117,-12.919947698239,2.32665136881902,0.09010262,0.9233228,-0.24465153,66.427574,75.515594,14.2713175,STU
29818784879000,3.510008,0.606030550626803,-13.620522691374,2.11363864387623,0.03848451,1.031446,-0.27000242,66.65485,75.402504,14.333961,STU
29818789945000,3.515074,0.117263792915932,-14.3908444908877,1.88821857671958,-0.021685716,1.1505647,-0.2947425,66.9565,75.39115,14.304177,STU
29818794884000,3.520013,-0.378629204404272,-15.1601738314717,1.66576192266314,-0.08827003,1.258077,-0.30970868,67.281654,75.37951,14.275304,STU
29818799861000,3.52499,-1.00284179467884,-15.7495137898342,1.45282906684205,-0.160963,1.3494014,-0.31490102,67.65506,75.44234,14.185631,STU
29818804873000,3.530002,-1.68425252629802,-16.2641451338231,1.24316426461829,-0.24404067,1.4126259,-0.30818152,68.045845,75.50952,14.095293,STU
29818809907000,3.535036,-2.43335369964471,-16.5323282710385,1.00903344455385,-0.31306845,1.4440855,-0.2938262,68.47902,75.667435,13.929385,STU
29818814888000,3.540017,-3.20328872820018,-16.687284344432,0.766915483697087,-0.40317106,1.4138476,-0.28252518,68.90526,75.830376,13.765591,STU
29818819954000,3.545083,-3.76468788306817,-16.5950864949378,0.468594977482596,-0.50243664,1.3322971,-0.2938262,69.34829,76.08084,13.530637,STU
29818825158000,3.550287,-4.25484752989104,-16.4028666615563,0.141821878931636,-0.6096435,1.17897,-0.29718593,69.75299,76.336044,13.298162,STU
29818829906000,3.555035,-4.28349068173626,-16.0669503613698,-0.267077551204566,-0.7113526,1.0742066,-0.30482176,70.168175,76.671364,12.999858,STU
29818834941000,3.56007,-4.10967539331131,-15.6324127705017,-0.754725635901672,-0.7632761,0.8051204,-0.30757064,70.48216,76.999405,12.713995,STU
29818839991000,3.56512,-3.62974884799515,-15.1908286533683,-1.35033460771134,-0.86284715,0.505491,-0.30451632,70.76537,77.378746,12.391425,STU
29818844939000,3.570068,-3.00757085631754,-14.7553037043733,-1.98687066990708,-0.9660834,0.24465153,-0.28496864,70.97418,77.74987,12.075491,STU
29818849908000,3.575037,-2.36260361135024,-14.4030638074296,-2.46455857402452,-1.0699304,0.1133155,-0.25473082,71.12716,78.10257,11.78368,STU
29818854960000,3.580089,-1.69710739059605,-14.0861608339104,-2.87200518673154,-1.1972959,0.121256754,-0.22418754,71.24055,78.444756,11.493789,STU
29818859900000,3.585029,-1.01941627149778,-13.8274856219061,-3.0604127166173,-1.3567317,0.22876903,-0.2098322,71.33643,78.715096,11.266709,STU
29818864909000,3.590038,-0.309047001798181,-13.6093008617516,-3.07056089551513,-1.5735888,0.38545597,-0.20647246,71.44829,78.96016,11.039707,STU
29818869942000,3.595071,0.352477762909342,-13.5135344784713,-2.87072681031997,-1.8286251,0.537256,-0.19364429,71.58809,100.903336,10.886041,STU
29818874935000,3.600064,0.980530369330436,-13.485201200474,-2.55906159059846,-2.097406,0.63407815,-0.21013765,71.75914,100.82674,10.744904,STU
29818879905000,3.605034,1.57479103166815,-13.4951388751115,-2.26281744950937,-2.3634377,0.65270954,-0.21868975,71.95484,100.8797,10.677741,STU
29818884949000,3.610078,2.15891837848151,-13.5286545527803,-1.97075380110021,-2.6309967,0.60994893,-0.23579398,72.163795,101.01032,10.62031,STU
29818889974000,3.615103,2.65346331127864,-13.5912817439738,-1.84621188307708,-2.8701503,0.50640726,-0.25411993,72.37047,101.274895,10.642824,STU
29818894989000,3.620118,3.09176764517409,-13.6722729244123,-1.82715518155937,-3.0784554,0.37507126,-0.28344148,72.56055,101.616135,10.669294,STU
29818899861000,3.62499,3.43383943806208,-13.6430233688231,-1.95838240469007,-3.2443054,0.23762658,-0.31703907,72.72142,102.070206,10.76346,STU
29818904954000,3.630083,3.73098725036263,-13.5345406465526,-2.20364712023015,-3.3808336,0.10445796,-0.3622431,72.84953,102.590004,10.85937,STU
29818909903000,3.635032,3.93684705813954,-13.360202244186,-2.49063779534884,-3.4914002,-0.005192355,-0.38881573,72.95427,103.19319,10.993815,STU
29818914908000,3.640037,4.06825409491397,-13.1200440994517,-2.82595282834184,-3.5866952,-0.099265605,-0.41386122,73.02998,103.84494,11.1274805,STU
29818919940000,3.645069,4.19042707216078,-12.8954716824755,-3.19471234013186,-3.633121,-0.19394971,-0.47250426,73.07371,104.58539,11.30089,STU
29818924912000,3.650041,4.29675792367078,-12.6980006977882,-3.6048449749681,-3.637397,-0.27397305,-0.55741453,73.09916,105.3552,11.475277,STU
29818929898000,3.655027,4.41421318645977,-12.5785065700731,-3.94204962755485,-3.569591,-0.29168814,-0.61453044,73.10992,106.18173,11.66431,STU
29818934945000,3.660074,4.54319336672267,-12.5307361514133,-4.21434116355999,-3.5176675,-0.26450464,-0.73884153,73.109245,107.04338,11.884323,STU
29818940732000,3.665861,4.69760688206145,-12.5198841113974,-4.1246784933003,-3.3615913,-0.14874569,-0.87017757,73.12455,107.925674,12.125732,STU
29818944911000,3.67004,4.81263396060456,-12.5357498153617,-3.84306057053518,-3.1380148,0.04642576,-0.9981538,73.167366,108.79724,12.398371,STU
29818949901000,3.67503,4.93764054573847,-12.5277940700525,-3.30031691798015,-2.8707612,0.30451632,-1.1148291,73.25332,109.685036,12.733036,STU
29818954945000,3.680074,5.05043764599144,-12.4901952165791,-2.52483602558864,-2.591596,0.57604593,-1.2269229,73.39043,110.52798,13.106114,STU
29818959899000,3.685028,5.11198628630481,-12.3919251310324,-1.65773218593759,-2.3139575,0.8213083,-1.3402383,73.57046,111.29609,13.534665,STU
29818964910000,3.690039,5.10717156345942,-12.2089610375238,-0.636988841424701,-2.0512855,1.0259482,-1.4450017,73.80463,112.00753,13.997548,STU
29818969907000,3.695036,5.01178485144644,-11.9137341931196,0.3977482455043,-1.7672331,1.185384,-1.5192219,74.07572,112.59707,14.513131,STU
29818974930000,3.700059,4.79552241409304,-11.467105449179,1.46025532565676,-1.4862351,1.2797627,-1.5763378,74.37349,113.13224,15.048288,STU
29818979869000,3.704998,4.51810585828197,-10.9644384223806,2.47833821101695,-1.2119566,1.3078625,-1.6132951,74.695,113.519806,15.600541,STU
29818984943000,3.710072,4.12502145600924,-10.3420549564715,3.47976736101695,-0.9767735,1.2641857,-1.6172657,75.011986,113.853485,16.141394,STU
29818989912000,3.715041,3.73091046933842,-9.73236862928166,4.34120444308084,-0.77213365,1.1307116,-1.600467,75.28982,114.058495,16.669281,STU
29818994981000,3.72011,3.30807912493639,-9.10999881346643,4.94932142943825,-0.6239988,0.9440922,-1.5396858,75.53353,114.21896,17.158426,STU
29818999847000,3.724976,2.88365849977679,-8.55821959975649,5.41639160280032,-0.51893,0.7351763,-1.4566082,75.70288,114.288635,17.620022,STU
29819004945000,3.730074,2.383346128125,-8.11735039431818,5.55509206534091,-0.49174652,0.51068336,-1.3603969,75.81499,114.3336,18.02975,STU
29819010400000,3.735529,1.92811369853556,-7.75016118033473,5.59156290899582,-0.52778757,0.26175576,-1.2663237,75.83651,114.3683,18.426466,STU
29819014923000,3.740052,1.66958294819099,-7.60090629923702,5.45563440228895,-0.6053675,0.004886922,-1.1551461,75.80472,114.3855,18.765135,STU
29819019920000,3.745049,1.38395876966527,-7.4360098497908,5.30546090062762,-0.7367035,-0.27152961,-1.0454959,75.69309,114.42009,19.062256,STU
29819025060000,3.750189,1.06936880517322,-7.28214963318191,5.07366772027454,-0.9007208,-0.5644395,-0.93279123,75.51794,114.4489,19.302452,STU
29819029934000,3.755063,0.51160066747146,-7.33285579111199,3.88898657046218,-1.1191051,-0.72418076,-0.88117313,75.31157,114.49741,19.514658,STU
29819035207000,3.760336,-0.0489085938543834,-7.41069811887073,2.62859865482912,-1.2385293,-1.0253373,-0.73792523,74.99657,114.52058,19.614473,STU
29819039944000,3.765073,-0.0615475248549406,-7.7435231790026,1.73966057260401,-1.6340646,-1.3121386,-0.7021896,74.640945,114.63411,19.715858,STU
29819045739000,3.770868,-0.0725628370150813,-8.15537428600295,0.649775738206013,-1.7760907,-1.6560557,-0.6591236,74.193825,114.73481,19.679142,STU
29819049904000,3.775033,0.0414573301618531,-8.58000127047807,-0.199477943361262,-2.1175644,-1.7308867,-0.6640105,73.74642,114.93245,19.639404,STU
29819054797000,3.779926,0.175407072778117,-9.07884876988664,-1.19717260456382,-2.2143865,-1.8374827,-0.74189585,73.19355,115.17114,19.546024,STU
29819069829000,3.794958,1.30760968961873,-10.2010898405768,-3.34833616387791,-2.3307564,-1.8790215,-1.2767084,71.47284,116.27087,19.359245,STU
29819074820000,3.799949,1.69947269092058,-10.5646253279336,-4.04235862374555,-2.2589796,-1.8417587,-1.5128077,70.88034,116.75758,19.365252,STU
29819079974000,3.805103,2.08734438518742,-10.6532594866989,-4.32743140120919,-2.129171,-1.7956384,-1.7357736,70.29691,117.3363,19.42997,STU
29819084824000,3.809953,2.44772914788392,-10.6579399028618,-4.47720159064893,-1.9868392,-1.7449366,-1.9343048,69.71695,117.93056,19.54577,STU
29819089822000,3.814951,2.72021115040161,-10.4519978825301,-4.39777360481928,-1.8573358,-1.7208074,-2.0845776,69.158615,118.582184,19.7331,STU
29819094795000,3.819924,2.96407638544177,-10.1890055707831,-4.25432352530121,-1.738217,-1.6887369,-2.179567,68.61531,119.2171,19.950808,STU
29819099791000,3.82492,3.14739009496051,-9.78609313416698,-4.07501429052275,-1.6563611,-1.6551393,-2.2110267,68.108734,119.87448,20.23019,STU
29819104896000,3.830025,3.31746492666416,-9.33562488153441,-3.88195639939827,-1.5980235,-1.5754215,-2.1978931,67.63137,120.49927,20.513962,STU
29819109861000,3.83499,3.36771790918567,-8.84864867478584,-3.78464655062442,-1.5757269,-1.4456125,-2.134974,67.17374,121.13158,20.838833,STU
29819114833000,3.839962,3.36280353696976,-8.33754821694705,-3.73058778914233,-1.5662584,-1.2644911,-2.0418172,66.76898,121.723495,21.149641,STU
29819119855000,3.844984,3.16342205480488,-7.92544504172633,-3.74055563257033,-1.5711454,-1.1695015,-1.930945,66.372284,122.32449,21.480556,STU
29819124854000,3.849983,2.89308120588888,-7.5537267210245,-3.77434820717959,-1.5745052,-0.95294976,-1.8686367,66.07341,122.89375,21.818539,STU
29819129829000,3.854958,2.57164998623245,-7.2971148600234,-3.65782094838143,-1.5741998,-0.7535023,-1.7669277,65.793015,123.47642,22.151358,STU
29819134851000,3.85998,2.22932214403276,-7.07671193295632,-3.48900173718799,-1.5567901,-0.602924,-1.672549,65.57173,124.02567,22.473991,STU
29819139869000,3.864998,1.95387112696572,-6.92757608719975,-3.23145762023199,-1.5351044,-0.53878313,-1.6010778,65.361984,124.58112,22.775698,STU
29819144831000,3.86996,1.70997802893656,-6.8105075733217,-2.9387860553993,-1.4914275,-0.5140431,-1.5351044,65.1984,125.0934,23.053799,STU
29819149830000,3.874959,1.56535124892523,-6.76728176457836,-2.66372823527467,-1.452943,-0.50518554,-1.491733,64.99902,125.60155,23.312346,STU
29819154893000,3.880022,1.45399864258681,-6.7494653159379,-2.39202787022782,-1.4059063,-0.5207626,-1.4706581,64.80998,126.07587,23.548431,STU
29819159869000,3.884998,1.4220446714123,-6.75062451475461,-2.13388766592462,-1.3775011,-0.5458081,-1.4608842,64.55946,126.54161,23.774189,STU
29819164870000,3.889999,1.44683949271071,-6.76550142824601,-1.88098086150342,-1.3610078,-0.5708536,-1.4682146,64.309586,126.987595,23.988094,STU
29819169902000,3.895031,1.510772683015,-6.79980147512345,-1.69806608876363,-1.350623,-0.6041457,-1.4715744,64.01694,127.41008,24.193985,STU
29819174879000,3.900008,1.59514903968136,-6.84421005948943,-1.55595847967949,-1.3466524,-0.64904433,-1.4737124,63.717762,127.821266,24.38869,STU
29819179868000,3.904997,1.68994519048816,-6.87155249670019,-1.45700384907815,-1.350623,-0.6930266,-1.4779885,63.389526,128.21883,24.590504,STU
29819184891000,3.91002,1.79576863475801,-6.88163085732244,-1.40157252363294,-1.3497068,-0.7495316,-1.4715744,63.051785,128.60306,24.775063,STU
29819189914000,3.915043,1.88389970141262,-6.84339327630149,-1.40445856368665,-1.3548992,-0.816116,-1.4712689,62.683422,128.9844,24.967901,STU
29819194885000,3.920014,1.95914427929468,-6.77285153057394,-1.44678366022918,-1.3487904,-0.8594874,-1.4718798,62.312206,129.35254,25.148064,STU
29819199864000,3.924993,2.03939113927173,-6.66304644371574,-1.57325296333203,-1.3509285,-0.9251554,-1.4651603,61.907536,129.72476,25.324915,STU
29819204904000,3.930033,2.12443502180893,-6.52130665593187,-1.76696395236883,-1.3622295,-0.9645562,-1.4495832,61.50557,130.08655,25.491028,STU
29819209868000,3.934997,2.22529035440816,-6.36844737381633,-2.02546333485714,-1.3680327,-0.97341377,-1.4135422,61.085434,130.45953,25.653978,STU
29819214866000,3.939995,2.34251048840816,-6.20238540681633,-2.34781862685714,-1.3686435,-0.93462384,-1.3768903,60.676758,130.82115,25.808498,STU
29819219895000,3.945024,2.44920121360116,-6.06106157647628,-2.66806311481123,-1.361924,-0.8940013,-1.3332134,60.2565,131.21375,25.959272,STU
29819224875000,3.950004,2.546155932091,-5.94102255730881,-2.98201186021297,-1.3435981,-0.8362745,-1.3240504,59.858204,131.59381,26.112429,STU
29819229865000,3.954994,2.63499001428571,-5.82881492436975,-3.26955408403361,-1.3338243,-0.8045095,-1.2883148,59.46132,132.01936,26.262947,STU
29819234901000,3.96003,2.71604676184874,-5.72391805651013,-3.5317966519822,-1.2990049,-0.78038037,-1.2724323,59.082825,132.42688,26.417292,STU
29819239888000,3.965017,2.77317903363309,-5.60923502054146,-3.72169815624763,-1.2620476,-0.8185594,-1.2492194,58.686634,132.87836,26.562529,STU
29819244873000,3.970002,2.80481316223022,-5.48269841177584,-3.83467711279818,-1.210124,-0.9059132,-1.2296717,58.294235,133.3045,26.692749,STU
29819249848000,3.974977,2.78596948159509,-5.38257669141104,-3.97889884539877,-1.1410962,-0.91599244,-1.2257011,57.894524,133.77203,26.839075,STU
29819254903000,3.980032,2.67398646263703,-5.32901967054209,-4.18338958451172,-1.0858129,-0.8561276,-1.1905763,57.509457,134.20844,26.962723,STU
29819259845000,3.984974,2.55404937434476,-5.25661262173791,-4.30136266820103,-1.0250319,-0.8151997,-1.1563679,57.09486,134.6673,27.089582,STU
29819264867000,3.989996,2.41398949774542,-5.14817907909817,-4.27877239596054,-0.97524637,-0.8081747,-1.1273518,56.702908,135.0972,27.205576,STU
29819269868000,3.994997,2.23670377300062,-4.96273618983261,-4.27237498587518,-0.8943067,-0.8210029,-1.0882565,56.295315,135.53015,27.296522,STU
29819274876000,4.000005,1.93936564876007,-4.53159613477991,-4.31697573297169,-0.8338311,-0.81397796,-1.0598512,55.907944,135.94095,27.380661,STU
29819279844000,4.004973,1.74109939240068,-4.14757789939069,-4.35136911140629,-0.7669413,-0.7556403,-1.0173961,55.52296,136.33327,27.448484,STU
29819284904000,4.010033,1.76708258489398,-3.85940060180356,-4.36317964223739,-0.7141015,-0.6954701,-0.97127575,55.155327,136.69955,27.505337,STU
29819289994000,4.015123,1.79321982793566,-3.56951474316354,-4.37506019597855,-0.6426302,-0.6218608,-0.93431836,54.787994,137.08322,27.54616,STU
29819294868000,4.019997,1.818247907029,-3.29193052410431,-4.38643658476724,-0.58062744,-0.5626069,-0.8897252,54.45053,137.43913,27.578411,STU
29819299919000,4.025048,1.8616000618987,-3.01589084072695,-4.39972876113452,-0.49754974,-0.49296826,-0.8524625,54.129604,137.77573,27.62117,STU
29819304907000,4.030036,1.96924082823552,-2.78656926333889,-4.41844888591163,-0.42119157,-0.41447207,-0.8002335,53.84392,138.08203,27.65945,STU
29819309871000,4.035,2.07765122281392,-2.56813452922844,-4.42318944953101,-0.3313944,-0.32986724,-0.7473936,53.556988,138.46085,27.750841,STU
29819314870000,4.039999,2.19353489973777,-2.39913742265255,-4.35559071782148,-0.23793201,-0.28710666,-0.7049385,53.295628,138.8032,27.832886,STU
29819319885000,4.045014,2.31301272472067,-2.25753825642458,-4.24218447276536,-0.17012598,-0.19547687,-0.677755,53.04002,139.18042,27.961447,STU
29819324945000,4.050074,2.44837206590184,-2.24303548068635,-3.91828884507183,-0.13194689,-0.098043874,-0.6209445,52.819572,139.51778,28.075647,STU
29819329870000,4.054999,2.57337111655295,-2.24285067671314,-3.62397618694749,-0.06627888,-0.06780604,-0.5864306,52.58317,139.84045,28.201096,STU
29819335529000,4.060658,2.68055032705429,-2.31787615763868,-3.39889985608623,0.0027488936,-0.099571034,-0.5571091,52.37072,140.13614,28.316275,STU
29819339907000,4.065036,2.76127709507692,-2.39393471084864,-3.20967406330521,0.052839845,-0.122783914,-0.5009095,52.168835,140.38496,28.45579,STU
29819344871000,4.07,2.84149228030769,-2.5732391208139,-2.91712477580149,0.105374254,-0.08674286,-0.43799037,51.98449,140.60559,28.589207,STU
29819349866000,4.074995,2.91013868871332,-2.73968020225734,-2.64782495823928,0.16249016,-0.0421497,-0.38698313,51.79429,140.79135,28.735106,STU
29819354906000,4.080035,2.90105910406321,-2.81685671918736,-2.53886989503386,0.204029,-0.089186326,-0.33292156,51.608463,140.95264,28.853354,STU
29819360211000,4.08534,2.89005517077891,-2.89826054334785,-2.44000087276246,0.258396,-0.1518,-0.2996294,51.40926,141.0786,29.010487,STU
29819364867000,4.089996,2.86416866674407,-2.97160576575714,-2.53060388466376,0.3210097,-0.22418754,-0.2443461,51.21761,141.17511,29.13789,STU
29819370315000,4.095444,2.83363625031928,-3.05562915649212,-2.63817393744146,0.3726278,-0.26542094,-0.20250183,50.995274,141.26347,29.269087,STU
29819374924000,4.100053,2.80075224201788,-3.07442000436356,-2.77440692229672,0.43096542,-0.30909783,-0.17287487,50.770885,141.32416,29.374832,STU
29819379917000,4.105046,2.76582294201848,-3.09268400965755,-2.92602945944918,0.48930305,-0.3436117,-0.13255776,50.566658,141.34962,29.443596,STU
29819384926000,4.110055,2.7397475074923,-3.08399213764269,-3.13028756689618,0.54641896,-0.36010507,-0.09773844,50.366524,141.35617,29.502407,STU
29819389906000,4.115035,2.71382303874796,-3.07535058790542,-3.33336310594311,0.6102544,-0.37048978,-0.055283304,50.153355,141.36403,29.535755,STU
29819394872000,4.120001,2.65176065437074,-3.04716612486273,-3.60885660189985,0.6969972,-0.36071593,-0.02443461,49.95083,141.34903,29.565908,STU
29819400191000,4.12532,2.57532195649472,-3.01419415599751,-3.91318210093226,0.7968737,-0.32467487,0.02107485,49.769318,141.30634,29.58873,STU
29819405661000,4.13079,2.45904489940513,-2.98628773417384,-4.19224699909438,0.904386,-0.28893927,0.057726767,49.57951,141.27626,29.595268,STU
29819409876000,4.135005,2.36944566802806,-2.96478397403001,-4.40728512446062,1.0210613,-0.25228736,0.10170906,49.388763,141.25133,29.571005,STU
29819414865000,4.139994,2.24630942649106,-2.98723562119071,-4.61080443623514,1.1575897,-0.23090707,0.1301143,49.212357,141.19421,29.547722,STU
29819419906000,4.145035,2.11707532988543,-3.02342113801264,-4.80207095534854,1.2269229,-0.1777618,0.14477506,49.06288,141.12157,29.533405,STU
29819424878000,4.150007,2.0278586748647,-3.05700831581479,-5.19476425706555,1.3643675,-0.1441642,0.17470746,48.911102,141.02448,29.464903,STU
29819429848000,4.154977,1.9419956239527,-3.09039956315895,-5.6049986565444,1.4749341,-0.08093964,0.20066923,48.784588,140.91792,29.412596,STU
29819434982000,4.160111,1.98430271003594,-3.12650046336743,-5.94776378518109,1.6071864,0.013744468,0.22968534,48.686287,140.77158,29.325403,STU
29819439930000,4.165059,2.03670636654686,-3.16143618877523,-6.27091984939637,1.749518,0.12614368,0.26145032,48.614906,140.5972,29.250711,STU
29819444890000,4.170019,2.2286010289448,-3.18911920074673,-7.00529238483421,1.8891008,0.24648413,0.29168814,48.56353,140.42142,29.133131,STU
