timestamp,rel_time,acc_x,acc_y,acc_z,gyro_x,gyro_y,gyro_z,azimuth,pitch,roll,label
4198066623000,0,6.60604430555127,7.38524294340242,-0.0353247920299474,0.014966198,0.03145956,0.0143553335,118.80125,-78.99171,3.2472937,STD
4198071603000,0.00498,6.60717893981529,7.38546987357257,-0.00922834826210461,0.020158553,0.035124753,0.020158553,118.95056,-78.90246,3.702965,STD
4198076624000,0.010001,6.60832291544574,7.38569867204332,0.017082945745594,0.020463986,0.025045475,0.028710667,119.10591,-78.79161,4.1534753,STD
4198081616000,0.014993,6.60946028376822,7.38592614903316,0.0432422725104678,0.024740042,0.015271631,0.029932396,119.26156,-78.6678,4.5970197,STD
4198086591000,0.019968,6.61059377884121,7.38615285136177,0.0693125150295478,0.0290161,0.018020526,0.03481932,119.41724,-78.52819,5.0375695,STD
4198091732000,0.025109,6.61176509505634,7.38638711802939,0.0962526390075559,0.034513887,0.024740042,0.036651913,119.576004,-78.37682,5.471618,STD
4198096718000,0.030095,6.61290109634959,7.38661432160938,0.122380524273914,0.031154128,0.016493361,0.03940081,119.7393,-78.21128,5.9016194,STD
4198101616000,0.034993,6.61401704788074,7.38683751517833,0.148047267562046,0.03848451,0.017715093,0.03390302,119.8997,-78.03956,6.322745,STD
4198106664000,0.040041,6.61516717514274,7.38706754399338,0.174500048313064,0.034513887,0.016493361,0.037873644,120.06389,-77.85239,6.7416286,STD
4198111591000,0.044968,6.61628973398186,7.38729205904324,0.20031875884402,0.0421497,0.010995574,0.04520403,120.23043,-77.660934,7.1539073,STD
4198116619000,0.049996,6.61743530447975,7.38752117649214,0.226666734599987,0.044898596,0.017715093,0.04520403,120.39537,-77.45988,7.5585766,STD
4198121618000,0.054995,6.61857426766967,7.38774897246013,0.252862743113129,0.046120327,0.009162978,0.049785517,120.56701,-77.250946,7.961541,STD
4198126620000,0.059997,6.61971391437421,7.38797690513304,0.279074472375528,0.04550946,0.007330383,0.05222898,120.73629,-77.03622,8.357182,STD
4198131615000,0.064992,6.62085196621132,7.38820451882779,0.30524951988966,0.03634648,0.0106901415,0.04917465,120.90797,-76.81454,8.7467165,STD
4198136607000,0.069984,6.6219893345338,7.38843199581763,0.331408846654534,0.027183503,0.008552114,0.042455133,121.08318,-76.588264,9.13029,STD
4198141657000,0.075034,6.62313991747221,7.38866211576929,0.357872107905057,0.013439035,-0.007941248,0.04734206,121.26251,-76.35349,9.510953,STD
4198146615000,0.079992,6.62426953929571,7.38888804343668,0.383853266178343,0.014966198,-0.008246681,0.03481932,121.44042,-76.12159,9.878359,STD
4198151595000,0.084972,6.62540417355972,7.38911497360683,0.409949709946186,-0.0009162979,-0.011301007,0.027794369,121.62475,-75.87885,10.243918,STD
4198157450000,0.090827,6.62673816625366,7.38938177604583,0.440631372247535,-0.0009162979,-0.0290161,0.029626964,121.81495,-75.63831,10.603598,STD
4198161627000,0.095004,6.62768984643856,7.38957211486525,0.462519895464057,-0.010079277,-0.03359759,0.021685716,122.00448,-75.3951,10.952585,STD
4198166616000,0.099993,6.62882653124643,7.38979945515017,0.488663501479673,-0.007330383,-0.0290161,0.022907447,122.19735,-75.1508,11.299686,STD
4198171616000,0.104993,6.62996572227456,7.39002729668646,0.514864750242568,-0.014966198,-0.03145956,0.023823744,122.39533,-74.90408,11.639737,STD
4198176622000,0.109999,6.63110628033192,7.3902554116326,0.541097440503978,-0.012217305,-0.016798794,0.024129177,122.58844,-74.65939,11.973699,STD
4198181614000,0.114991,6.63224364865441,7.39048288862244,0.567256767268852,-0.024740042,-0.012217305,0.026572637,122.7864,-74.41005,12.303985,STD
4198186608000,0.119985,6.63338147265331,7.39071045674889,0.593426574533231,-0.034513887,0.008552114,0.019547688,122.977325,-74.16421,12.625138,STD
4198191646000,0.125023,6.63452932153325,7.39094002988086,0.619826952786723,-0.027183503,0.015577064,0.022907447,123.171684,-73.91691,12.945375,STD
4198196610000,0.129987,6.63566031038598,7.39116623095809,0.645839552558525,-0.0125227375,0.021380283,0.022296581,123.362404,-73.67266,13.256712,STD
4198201611000,0.134988,6.63679972925231,7.39139411806269,0.672046041571172,-0.014966198,0.03756821,0.021991149,123.54932,-73.42709,13.563448,STD
4198206698000,0.140075,6.63795874220433,7.39162592404172,0.69870319206254,-0.014966198,0.03634648,0.02443461,123.740944,-73.18508,13.866608,STD
4198211609000,0.144986,6.63907765563216,7.39184970999867,0.724438058597455,0.004581489,0.037873644,0.025350908,123.9286,-72.94762,14.163684,STD
4198216615000,0.149992,6.64021821368952,7.39207782494481,0.750670748858865,0.0106901415,0.025045475,0.029932396,124.12194,-72.708046,14.458634,STD
4198221595000,0.154972,6.64135284795354,7.39230475511496,0.776767192626708,0.015271631,0.003970624,0.029321533,124.31886,-72.47387,14.748145,STD
4198227344000,0.160721,6.64266268979769,7.39256672731339,0.806893388454284,0.02443461,-0.008552114,0.02443461,124.518425,-72.24287,15.03342,STD
4198231618000,0.164995,6.64363647028853,7.39276148625861,0.829290215896806,0.038179077,-0.021991149,0.021991149,124.72568,-72.01441,15.315808,STD
4198236594000,0.169971,6.64477019319973,7.39298823415553,0.855365698665639,0.03604105,-0.04917465,0.02107485,124.94211,-71.78742,15.594117,STD
4198241696000,0.175073,6.64593262372483,7.39322072365917,0.882101452903296,0.023823744,-0.058643065,0.015271631,125.158936,-71.5645,15.86583,STD
4198246673000,0.18005,6.63359815316123,7.40600073075017,0.725467575153107,0.015882496,-0.06841691,0.014049901,125.35908,-71.325775,16.169235,STD
4198251581000,0.184958,6.6149664542414,7.4246322594391,0.483256257666237,0.013744468,-0.06994407,0.0143553335,125.560616,-71.0889,16.46672,STD
4198256675000,0.190052,6.59562866404222,7.4439698729561,0.231865782670697,0.0012217305,-0.06352998,0.014049901,125.78129,-70.76856,16.791088,STD
4198261625000,0.195002,6.57683752515608,7.46276084015459,-0.0124182478020018,-0.0030543262,-0.050396383,0.01160644,125.99975,-70.45467,17.109098,STD
4198266616000,0.199993,6.55882327021082,7.47262555708679,-0.0700303487093182,-0.014660766,-0.04917465,0.008552114,126.20064,-70.130684,17.446226,STD
4198271618000,0.204995,6.54133553500958,7.47699757077667,-0.0131953147595145,-0.019242255,-0.036957346,0.011301007,126.39304,-69.81146,17.777205,STU
4198276619000,0.209996,6.52917883735982,7.47507962870875,0.0610141702537648,-0.010995574,-0.019547688,0.016187929,126.53818,-69.55283,18.112942,STU
4198281614000,0.214991,6.52406983207305,7.46486151143864,0.158086351538609,0.0036651916,-0.00030543262,0.021380283,126.678795,-69.29571,18.443138,STU
4198286610000,0.219987,6.51915929169729,7.44445635018373,0.153484757395968,0.0070249503,0.013133603,0.030543262,126.80105,-69.024666,18.784882,STU
4198291639000,0.225016,6.51437612284239,7.41575733705433,0.0673876580732943,0.00580322,0.032070424,0.034208454,126.91538,-68.75763,19.119255,STU
4198296979000,0.230356,6.52690854456381,7.39699958217448,0.00524233275599324,0.009162978,0.04062254,0.028099801,127.01611,-68.47326,19.468115,STU
4198301617000,0.234994,6.54900005873868,7.38816297650453,-0.0301041139142545,0.02076942,0.043982297,0.029932396,127.11119,-68.19015,19.813025,STU
4198306621000,0.239998,6.56761168552721,7.37121940095769,-0.0803804124796247,0.019242255,0.04550946,0.035430185,127.18329,-67.90332,20.174854,STU
4198311611000,0.244988,6.58162177005766,7.34786934134662,-0.141090610380534,0.023518313,0.04184427,0.03970624,127.25508,-67.62139,20.529795,STU
4198316605000,0.249982,6.60260999396577,7.32206705395192,-0.209094404878821,0.008246681,0.032375857,0.048258353,127.29567,-67.316696,20.917343,STU
4198321593000,0.25497,6.63096249846671,7.29371464813532,-0.284700879600356,0.014966198,0.022296581,0.05100725,127.33699,-67.01865,21.296173,STU
4198326605000,0.259982,6.64851982484745,7.27615742142643,-0.354416582279684,0.008246681,0.0125227375,0.046731193,127.34198,-66.69037,21.720577,STU
4198331617000,0.264994,6.6533212576773,7.27135608886666,-0.416833950678203,-0.0021380284,-0.00030543262,0.05100725,127.35078,-66.3632,22.138103,STU
4198336571000,0.269948,6.64534770242915,7.26668976248313,-0.445896648367072,-0.02321288,-0.016493361,0.058643065,127.30569,-65.98842,22.624992,STU
4198341655000,0.275032,6.62188088172354,7.26199644734914,-0.436510003396954,-0.028405234,-0.021991149,0.0571159,127.26461,-65.62012,23.096222,STU
4198346540000,0.279917,6.59929326885833,7.25573830754333,-0.439659540229495,-0.03848451,-0.028710667,0.06291912,127.12114,-65.166794,23.68012,STU
4198351597000,0.284974,6.57584508564927,7.24635903425971,-0.463107747922921,-0.038789943,-0.03726278,0.06658431,126.99177,-64.72154,24.241873,STU
4198356545000,0.289922,6.54954551444501,7.22647988697415,-0.480349921616827,-0.04734206,-0.04153884,0.06872234,126.68607,-64.1099,25.006554,STU
4198361624000,0.295001,6.51503122529143,7.18210440912316,-0.485280541708059,-0.040317107,-0.03848451,0.07147124,126.41687,-63.51158,25.73466,STU
4198366840000,0.300217,6.49485311699093,7.16098749581424,-0.479526512129361,-0.036651913,-0.050701816,0.07666359,126.14141,-62.88703,26.479086,STU
4198371606000,0.304983,6.49912238932279,7.17806465201104,-0.458180023418296,-0.023518313,-0.042760566,0.08277224,125.89014,-62.277576,27.189608,STU
4198376630000,0.310007,6.50362277207464,7.19606625350762,-0.435677975729586,-0.013744468,-0.04734206,0.07880162,125.63534,-61.635353,27.925842,STU
4198381613000,0.31499,6.5080864279768,7.21392094703021,-0.413359563382284,-0.010995574,-0.036651913,0.08552113,125.40141,-61.005486,28.633991,STU
4198386641000,0.320018,6.51418275154056,7.23205269715123,-0.396948436246085,-0.007941248,-0.028710667,0.09132435,125.195244,-60.39516,29.310324,STU
4198391701000,0.325078,6.53865926836044,7.25163385949086,-0.450796809031215,0.015882496,-0.014966198,0.099265605,125.00583,-59.801422,29.95979,STU
4198396591000,0.329968,6.5634982550505,7.27091248585859,-0.499263603724747,0.034208454,0.005497787,0.09773844,124.836876,-59.241417,30.563799,STU
4198401612000,0.334989,6.60086062012432,7.29426384211344,-0.513274441860917,0.032986723,0.0076358155,0.10842858,124.68516,-58.693485,31.148956,STU
4198406701000,0.340078,6.63802642213818,7.31745987870903,-0.527503873282905,0.048258353,0.011301007,0.10323623,124.55905,-58.157936,31.71846,STU
4198411618000,0.344995,6.6617728293999,7.33170782224912,-0.54175171763994,0.06505715,0.004276057,0.10170906,124.44894,-57.636364,32.268238,STU
4198416722000,0.350099,6.68590546216216,7.34767577702703,-0.559337289864865,0.09193522,-0.032375857,0.10476339,124.35903,-57.124985,32.803963,STU
4198421619000,0.354996,6.70280549445045,7.3772507452973,-0.610037430846847,0.12156218,-0.062002823,0.112704635,124.280136,-56.63071,33.3182,STU
4198426598000,0.359975,6.71998851686486,7.40732094481081,-0.661586542945946,0.1572978,-0.10323623,0.115453534,124.227165,-56.149082,33.816692,STU
4198431614000,0.364991,6.72678803608068,7.4279265443227,-0.697463252564724,0.20647246,-0.15699236,0.11911872,124.19718,-55.68246,34.296852,STU
4198436573000,0.36995,6.73139303474256,7.44634653897023,-0.729698243197906,0.25442538,-0.20861048,0.1160644,124.18798,-55.23364,34.7558,STU
4198441593000,0.37497,6.73995553088101,7.47686619386241,-0.77098498706229,0.28863382,-0.26175576,0.115453534,124.21292,-54.798,35.19847,STU
4198446520000,0.379897,6.74954503193781,7.51042917219795,-0.814137546560309,0.33169982,-0.31795537,0.13622294,124.261795,-54.37269,35.62709,STU
4198451575000,0.384952,6.69472871226397,7.54269561891942,-0.859180457182651,0.36835176,-0.376293,0.13744467,124.33536,-126.02838,36.027462,STU
4198456576000,0.389953,6.62309852631333,7.57403381650776,-0.903949219389606,0.40653083,-0.41508293,0.13836098,124.42454,-126.42139,36.415592,STU
4198461581000,0.394958,6.55148899484372,7.62237556014334,-0.944403175751543,0.43401974,-0.45570546,0.14294247,124.539955,-126.80103,36.785816,STU
4198466576000,0.399953,6.48006337867808,7.67951635140354,-0.982496862567191,0.4465425,-0.49235737,0.15149458,124.668755,-127.1693,37.140274,STU
4198471554000,0.404931,6.36060974721289,7.76961202292943,-1.01117470340976,0.45906523,-0.52534413,0.14966199,124.824,-127.50279,37.454975,STU
4198476587000,0.409964,6.2129322849575,7.87917901027871,-1.03499370670093,0.4550946,-0.5531385,0.14996742,124.98964,-127.828186,37.75748,STU
4198482355000,0.415732,6.05834496162216,8.01587422492582,-1.04755873645895,0.45112398,-0.5815437,0.15821409,125.17863,-128.11594,38.017746,STU
4198486628000,0.420005,5.94905844312562,8.12111301632048,-1.05160637903066,0.44806966,-0.61544675,0.14355333,125.37664,-128.38895,38.2593,STU
4198491622000,0.424999,5.80512956582934,8.24892924396442,-1.05059476195875,0.44165558,-0.6395759,0.14202617,125.58461,-128.60764,38.443275,STU
4198496673000,0.43005,5.64910446710976,8.38131422109276,-1.0458667376405,0.43799037,-0.68203104,0.13500121,125.807304,-128.81558,38.61239,STU
4198501607000,0.434984,5.50694508330806,8.5134999963981,-1.02860537415166,0.4334089,-0.7324274,0.12370021,126.04102,-128.97043,38.725296,STU
4198506660000,0.440037,5.36933886566825,8.65110635772512,-1.00108405399052,0.4279111,-0.8032878,0.111177474,126.29274,-129.12006,38.82873,STU
4198511611000,0.444988,5.25032945385871,8.77633997101171,-0.994710135361874,0.4279111,-0.8698721,0.084910266,126.560974,-129.21399,38.872482,STU
4198516619000,0.449996,5.14904926357266,8.89143071395661,-1.01312465423306,0.41996986,-0.9370673,0.046731193,126.84844,-129.2997,38.90363,STU
4198521549000,0.454926,5.06182252535697,9.00411069581487,-1.05320731098966,0.40622538,-0.990518,0.002443461,127.1473,-129.33011,38.876434,STU
4198526582000,0.459959,4.99537255243722,9.11802500590842,-1.13389678330872,0.38606682,-1.026559,-0.039095376,127.45573,-129.35068,38.83579,STU
4198531580000,0.464957,4.94266585353481,9.23644991073934,-1.23707436733945,0.38026363,-1.0567969,-0.08399397,127.78637,-129.32758,38.745743,STU
4198536563000,0.46994,4.91691237571506,9.36521783766865,-1.38644459247706,0.35796702,-1.0900891,-0.13622294,128.1209,-129.29105,38.639954,STU
4198541586000,0.474963,4.91679426799177,9.45784861891707,-1.49667960603153,0.33964106,-1.1242975,-0.1826487,128.47089,-129.22437,38.496513,STU
4198546578000,0.479955,4.94488056114756,9.50934007490453,-1.56221411083913,0.3387248,-1.1646146,-0.23426682,128.82321,-129.14435,38.33579,STU
4198552094000,0.485471,4.98065058237393,9.57574618918137,-1.66140373382509,0.3200934,-1.2269229,-0.27855456,129.20137,-129.0414,38.14245,STU
4198556579000,0.489956,5.0137828441616,9.63786934220422,-1.76494240868769,0.32528573,-1.3084733,-0.3191771,129.5879,-128.9304,37.934208,STU
4198561528000,0.494905,5.08269286551243,9.69152290868472,-1.93557936757889,0.33292156,-1.4043792,-0.35277468,129.9939,-128.81332,37.711155,STU
4198566579000,0.499956,5.2132712065531,9.71853915284371,-2.21474648729405,0.33841935,-1.5134187,-0.38759398,130.4193,-128.6895,37.47337,STU
4198571528000,0.504905,5.32263187595776,9.74261450859391,-2.45552089671775,0.36041048,-1.6554449,-0.4120286,130.89061,-128.57275,37.223675,STU
4198576554000,0.509931,5.36000995382067,9.75756553158004,-2.57014705420377,0.3933972,-1.8148806,-0.44318274,131.3895,-128.45111,36.956944,STU
4198581506000,0.514883,5.39683769786705,9.77229642410437,-2.68308552055291,0.45081854,-1.9199494,-0.47433686,131.92053,-128.36685,36.697227,STU
4198586565000,0.519942,5.43446119486436,9.78734561337751,-2.79846429705943,0.54183745,-2.1374176,-0.50793445,132.52501,-128.28476,36.411926,STU
4198591565000,0.524942,5.49152287639238,9.87595366475027,-3.16326263196191,0.60139686,-2.3625214,-0.5170974,133.16864,-128.21153,36.116364,STU
4198596595000,0.529972,5.58672326266619,10.1053003374057,-4.00708331333094,0.7431176,-2.6047294,-0.5491679,133.86569,-128.14488,35.78836,STU
4198601601000,0.534978,5.68477987896705,10.314675606556,-4.87830860364316,0.90408057,-2.8640418,-0.59131753,134.63675,-128.112,35.442696,STU
4198606585000,0.539962,5.80513388018433,10.3935281981567,-5.96149613133641,1.094976,-3.1068606,-0.64934975,135.44992,-128.09209,35.063435,STU
4198611521000,0.544898,5.92432877384575,10.47162137475,-7.03425167641944,1.2901474,-3.1878002,-0.7098254,136.31935,-128.14877,34.64129,STU
4198616576000,0.549953,6.14378167993219,10.5006456843045,-7.93864373463014,1.4468343,-3.0112603,-0.77274454,137.13329,-128.2202,34.19777,STU
4198622207000,0.555584,6.41324816793076,10.5198931829214,-8.8962121922013,1.5509869,-2.6477954,-0.84788096,137.86072,-128.30379,33.739937,STU
4198626561000,0.559938,6.74694400247198,10.5191208623651,-9.34850088739918,1.6621643,-2.2595906,-0.9147707,138.51552,-128.54288,33.294544,STU
4198631582000,0.564959,7.2052816249293,10.5090473069027,-9.70106849156803,1.8249599,-1.8982637,-0.97035944,139.00938,-128.79796,32.85736,STU
4198636562000,0.569939,7.69811257892539,10.5361220199354,-9.75397867742548,2.0015,-1.5928311,-1.0256428,139.34229,-129.19986,32.476795,STU
4198641592000,0.574969,8.21485468790583,10.5818513763053,-9.66023344911714,2.2204952,-1.2922854,-1.0525209,139.52762,-129.6251,32.11557,STU
4198646580000,0.579957,8.7272820516423,10.6271988970951,-9.56727098414657,2.4889705,-1.0656544,-1.0323622,139.69948,-130.13687,31.790598,STU
4198651577000,0.584954,9.24063400364534,10.672628239795,-9.47414078417505,2.7791314,-0.93859446,-0.9621128,139.78766,-130.6886,31.484562,STU
4198656577000,0.589954,9.63579719948958,10.5528934153552,-9.13244975808167,3.068987,-0.9447031,-0.86498517,139.8678,-131.28882,31.181337,STU
4198661580000,0.594957,9.89054374564015,10.2370074853254,-8.49558286069757,3.2995887,-1.0363328,-0.7861836,139.92204,-131.93542,30.88607,STU
4198666578000,0.599955,10.0931359141538,9.78612783488852,-7.90093512513505,3.4941492,-1.1942415,-0.7415904,140.00978,-132.68156,30.707401,STU
4198671554000,0.604931,10.2569607313623,9.23848631283764,-7.3392512245359,3.6297612,-1.4056009,-0.7131852,140.1272,-133.45673,30.50695,STU
4198676585000,0.609962,10.2990522848423,8.6794221688708,-7.06141876805697,3.6679404,-1.5314392,-0.6933321,140.26973,-134.24245,30.351519,STU
4198681574000,0.614951,10.23586555941,8.12046486093591,-7.03225570305188,3.6270125,-1.5448782,-0.69913524,140.4163,-135.0227,30.16779,STU
4198686557000,0.619934,10.0773230012523,7.68964453940854,-6.96454682294577,3.5662313,-1.4856243,-0.70371675,140.5812,-135.80716,30.02928,STU
4198691888000,0.625265,9.83142221712744,7.33062924052596,-6.86126864767363,3.5332446,-1.2626585,-0.7333437,140.67912,-136.56761,29.899385,STU
4198696579000,0.629956,9.57107203848037,7.14052652102223,-6.57556520021541,3.4101553,-1.174083,-0.7458665,140.83485,-137.31992,29.75348,STU
4198701576000,0.634953,9.25244271007539,7.05618329657299,-6.08824986326251,3.3722816,-0.9990701,-0.754724,140.8882,-138.06508,29.649775,STU
4198706585000,0.639962,8.86004489595138,6.98315839254146,-5.55205791311425,3.3224962,-0.9025534,-0.7470882,140.95287,-138.78845,29.533802,STU
4198711582000,0.644959,8.38183657752138,6.92399879268569,-4.96046057612033,3.256828,-0.8539896,-0.72265357,140.97496,-139.48972,29.438269,STU
4198716581000,0.649958,7.89681612612827,6.87655683491686,-4.49775548598575,3.2064316,-0.82619524,-0.71929383,140.96104,-140.13889,29.346663,STU
4198721558000,0.654935,7.40772513029929,6.84032782147268,-4.15810854996675,3.1355712,-0.8313876,-0.711658,140.9412,-140.76152,29.259697,STU
4198726555000,0.659932,6.91371780809827,6.85200146633303,-3.8141223096148,3.0833423,-0.8378017,-0.73426,140.90086,-141.31906,29.15283,STU
4198731572000,0.664949,6.41338139126479,6.93458110373066,-3.46437273794359,3.0286698,-0.8698721,-0.75533485,140.86359,-141.84912,29.037863,STU
4198736561000,0.669938,5.98795561010383,7.05477323296397,-3.19062243946427,2.9651399,-0.95081174,-0.77091193,140.84554,-142.31583,28.864752,STU
4198741686000,0.675063,5.64964238045546,7.23035355972428,-3.01075971260797,2.8884764,-1.0384709,-0.7800749,140.82626,-142.75516,28.679369,STU
4198746581000,0.679958,5.33700187412692,7.42325071039182,-2.85278926663118,2.792876,-1.0613784,-0.79076505,140.81758,-143.13441,28.452446,STU
4198751574000,0.684951,5.08243952128407,7.7745469625213,-2.77642044913756,2.733622,-1.0833695,-0.8051204,140.81761,-143.49646,28.206871,STU
4198756567000,0.689944,4.87197085484502,8.11237206209054,-2.74763978951794,2.6648996,-1.1279627,-0.8396343,140.80486,-143.78996,27.91722,STU
4198761551000,0.694928,4.78796250604283,8.41106897653271,-2.85498399923731,2.6077838,-1.2076806,-0.86315256,140.79695,-144.06857,27.618256,STU
4198766546000,0.699923,4.72235180899231,8.65771519286137,-3.05147735139026,2.574186,-1.2901474,-0.88331115,140.7889,-144.29784,27.27955,STU
4198771553000,0.70493,4.72707972625715,8.70499485919937,-3.58573792659239,2.5870142,-1.3545936,-0.90377516,140.78215,-144.51894,26.927456,STU
4198776552000,0.709929,4.73328887433222,8.7006115725335,-4.16146574256678,2.6187794,-1.3884968,-0.9282097,140.77803,-144.70944,26.539715,STU
4198781577000,0.714954,4.74627293382498,8.46256920136703,-4.9318565866175,2.6584857,-1.385137,-0.94134337,140.77173,-144.90265,26.14956,STU
4198787057000,0.720434,4.76765140521394,8.17408253924625,-5.77267347877586,2.682004,-1.2257011,-0.93431836,140.74844,-145.13379,25.759247,STU
4198791568000,0.724945,4.89006836412582,7.51711122815717,-6.47453105074148,2.7504208,-1.1203269,-0.91324353,140.72995,-145.38544,25.364344,STU
4198796545000,0.729922,5.02513136667611,6.79227278539719,-7.24889264144706,2.7882943,-0.9224065,-0.86070913,140.6894,-145.72943,24.996365,STU
4198801534000,0.734911,5.04338043495198,6.37651933812943,-7.24106794300332,2.8701503,-0.7516697,-0.7837401,140.63794,-146.10565,24.660208,STU
4198806580000,0.739957,5.0390428949825,6.01650320361727,-7.08057878296383,2.9483411,-0.6389651,-0.68630713,140.57172,-146.49734,24.373123,STU
4198811542000,0.744919,5.04646498287487,5.6384316042606,-6.64814271282316,3.032335,-0.58062744,-0.59956425,140.55252,-147.09145,24.125072,STU
4198816543000,0.74992,5.06132338312306,5.242207183909,-6.03894799234747,3.1117475,-0.5369505,-0.5271767,140.52689,-147.70164,23.91303,STU
4198821538000,0.754915,5.06292001941825,4.90211175569344,-5.47583800229326,3.2012393,-0.54367006,-0.47952923,140.51283,-148.37299,23.736708,STU
4198826548000,0.759925,5.05815691349151,4.58774005004467,-4.93283233794302,3.2837062,-0.56169057,-0.44776422,140.49908,-149.05301,23.573797,STU
4198831554000,0.764931,4.95106924040604,4.25680639507304,-4.73592669782124,3.3457088,-0.56321776,-0.41996986,140.50323,-149.76155,23.466034,STU
4198836562000,0.769939,4.7919524705125,3.91719897414707,-4.71455279188413,3.4019086,-0.5225952,-0.419359,140.49669,-150.47148,23.36015,STU
4198846548000,0.779925,4.47467210626393,3.24001852179747,-4.67193301858381,3.4413095,-0.5537493,-0.4783075,140.48706,-151.89333,23.203321,STU
4198851574000,0.784951,4.23583420924434,2.99693080944572,-4.88341472046413,3.3515122,-0.48533243,-0.5140431,140.453,-152.58846,23.155075,STU
4198856561000,0.789938,3.95187840813195,2.81373349835059,-5.23148943459916,3.1994066,-0.41538838,-0.5748242,140.40065,-153.23845,23.088188,STU
4198861582000,0.794959,3.64354461630269,2.70553308862367,-5.61175575977654,3.0024028,-0.3924809,-0.62888575,140.36693,-153.92572,22.98595,STU
4198866576000,0.799953,3.31806156669375,2.66181146828847,-6.0149662978771,2.785851,-0.3735441,-0.6407976,140.31259,-154.55017,22.893627,STU
4198871558000,0.804935,3.07726181438127,2.65665106120401,-6.26733153913043,2.5442538,-0.31490102,-0.6264423,140.2328,-155.15213,22.759203,STU
4198877158000,0.810535,2.87679497983474,2.68302824003541,-6.42559455703325,2.3301454,-0.25167647,-0.5928447,140.14754,-155.69434,22.630022,STU
4198881577000,0.814954,2.74017878956705,2.65728163983764,-6.43492017071558,2.1661282,-0.20708331,-0.5626069,140.05615,-156.19989,22.43891,STU
4198886559000,0.819936,2.6015099773201,2.59511963107837,-6.36319494882742,2.1096232,-0.09132435,-0.5128214,139.95723,-156.67494,22.288382,STU
4198891598000,0.824975,2.46697189698396,2.46532435693017,-6.22141510439919,2.038152,0.026572637,-0.46211955,139.85835,-157.09201,22.109348,STU
4198896583000,0.82996,2.33857589842474,2.28190163865143,-6.0242355386034,1.9792033,0.13744467,-0.42394048,139.75217,-157.49399,21.962656,STU
4198901580000,0.834957,2.21364380568909,2.02395855287846,-5.8602512023648,1.9346102,0.22266038,-0.39736784,139.6709,-157.9392,21.862661,STU
4198906577000,0.839954,2.09305478559798,1.68074349680171,-5.73502419333204,1.8823812,0.28008172,-0.41386122,139.57532,-158.35623,21.781164,STU
4198911573000,0.84495,1.98133857439446,1.379988,-5.6652613100346,1.7767016,0.32895094,-0.44318274,139.47032,-158.77,21.727018,STU
4198916575000,0.849952,1.88278158576639,1.14255522702703,-5.67870089301412,1.6444492,0.36346483,-0.473726,139.35405,-159.15106,21.678484,STU
4198921547000,0.854924,1.79141553365875,0.930055567317496,-5.7125389380627,1.5030339,0.41722095,-0.4978552,139.22952,-159.5461,21.642406,STU
4198926643000,0.86002,1.71730253563293,0.781829571265864,-5.80782711786528,1.3417655,0.49021935,-0.5112942,139.09302,-159.89012,21.61432,STU
4198931544000,0.864921,1.66418146750572,0.679507367672868,-5.87080576002388,1.1936307,0.55924714,-0.5137377,138.94243,-160.23495,21.58634,STU
4198936571000,0.869948,1.63544244210526,0.631609045354691,-5.89475490617849,1.0387764,0.61208695,-0.5122105,138.78389,-160.52803,21.568624,STU
4198941598000,0.874975,1.64444580888408,0.562535896914544,-5.92743672012786,0.88331115,0.6301075,-0.48991394,138.63358,-160.8266,21.561047,STU
4198947112000,0.880489,1.71394766130488,0.45331869877221,-5.97708070788756,0.7296785,0.63163465,-0.4633413,138.48286,-161.07965,21.559261,STU
4198951513000,0.88489,1.76562820944705,0.359967567302591,-6.00988675196899,0.60048056,0.62796944,-0.4352415,138.34929,-161.32433,21.566744,STU
4198956620000,0.889997,1.81552493324832,0.235225799480718,-6.02984547275046,0.46975538,0.6047566,-0.398895,138.22932,-161.5271,21.56848,STU
4198961515000,0.894892,1.84965798013407,0.129211850310535,-6.08833056635565,0.33658674,0.56169057,-0.364992,138.11824,-161.72931,21.587412,STU
4198966621000,0.899998,1.85408765137241,0.0494777106652777,-6.23893952722167,0.18448131,0.51343226,-0.3323107,138.02187,-161.89198,21.598063,STU
4198971568000,0.904945,1.86255629778843,-0.0253613418277718,-6.39030355274489,0.051923547,0.46792278,-0.30573806,137.92761,-162.05261,21.617432,STU
4198976615000,0.909992,1.90512479677072,-0.0821193170936491,-6.58895651506997,-0.05131268,0.45478916,-0.27947086,137.84581,-162.18205,21.632427,STU
4198981602000,0.914979,1.94967233418676,-0.136516781976779,-6.78893922336013,-0.14355333,0.41263947,-0.27305678,137.7773,-162.31529,21.62752,STU
4198986615000,0.919992,2.02589908589858,-0.169865962220899,-7.03667599230922,-0.18448131,0.3848451,-0.25350907,137.7209,-162.43735,21.623983,STU
4198991612000,0.924989,2.09954394160433,-0.200371892282693,-7.28015913407274,-0.23640485,0.3567453,-0.2574797,137.66562,-162.556,21.604813,STU
4198996606000,0.929983,2.13655183884447,-0.188035917948586,-7.46931078060356,-0.29810223,0.32345316,-0.28802297,137.61176,-162.65886,21.574066,STU
4199001519000,0.934896,2.17295948785143,-0.175900026498152,-7.65539448893474,-0.36010507,0.33169982,-0.321926,137.55295,-162.77078,21.547232,STU
4199006643000,0.94002,2.20134678961144,-0.0760745890557681,-7.86627582307228,-0.43676865,0.32436943,-0.37934732,137.48329,-162.85522,21.500858,STU
4199011515000,0.944892,2.22483086933763,0.0507395297443125,-8.07293582275015,-0.5235115,0.30451632,-0.43127087,137.40619,-162.91667,21.449583,STU
4199016574000,0.949951,2.23509137935497,0.219225009387329,-8.3154781606826,-0.61117065,0.3182608,-0.49113566,137.30908,-162.96004,21.3898,STU
4199021568000,0.954945,2.24008319014717,0.398930323003862,-8.56506896091222,-0.6899723,0.3436117,-0.54733527,137.19965,-162.9779,21.323214,STU
4199026649000,0.960026,2.19790802660944,0.697175103540773,-8.72308402521459,-0.7324274,0.3726278,-0.61850107,137.0663,-162.98064,21.25862,STU
4199031636000,0.965013,2.14666392618026,1.01395705850566,-8.85818225409676,-0.77763146,0.38698313,-0.698219,136.9152,-162.95604,21.191053,STU
4199036578000,0.969955,2.05958755849328,1.34071658996202,-9.14581446936262,-0.82924956,0.41050145,-0.7742717,136.73369,-162.90492,21.120983,STU
4199041662000,0.975039,1.95964195233501,1.68053150479319,-9.48562948855589,-0.8750645,0.41141775,-0.8341365,136.53856,-162.83923,21.043427,STU
4199046593000,0.97997,1.89192830577953,1.99421951000846,-9.96325987595151,-0.9049969,0.4034765,-0.86406887,136.31761,-162.7281,20.962229,STU
4199051587000,0.984964,1.82900451589136,2.30883850638098,-10.4756393011935,-0.94897914,0.3735441,-0.8686504,136.095,-162.60246,20.873455,STU
4199056545000,0.989922,2.11499053802817,3.01372681014085,-11.474552284507,-0.9807441,0.31429017,-0.8194757,135.86668,-162.4541,20.75229,STU
4199061535000,0.994912,2.55597009460903,3.8956861171831,-12.6953689926178,-0.9923506,0.25534168,-0.7284568,135.65942,-162.30992,20.629755,STU
4199066521000,0.999898,3.20634536780659,4.54256192168612,-13.6199927208389,-0.9935723,0.18325958,-0.58184916,135.47609,-162.15627,20.456024,STU
4199071515000,1.004892,3.98212526717636,5.05151290153942,-14.3710662769914,-0.9783007,0.12705997,-0.41722095,135.33464,-162.0215,20.287117,STU
4199076520000,1.009897,4.89480827653827,5.35862356956478,-14.7667009682841,-0.9236283,0.08827003,-0.33475417,135.18924,-161.82756,20.120527,STU
4199081522000,1.014899,5.86772955557779,5.57429579695848,-15.0015442427214,-0.8915578,0.15363261,-0.19272798,135.10858,-161.6601,19.996374,STU
4199086506000,1.019883,6.76548648414271,5.51982768922696,-14.2896018035679,-0.7693848,0.28313604,-0.08124508,135.06807,-161.5083,19.978554,STU
4199091552000,1.024929,7.64193767641229,5.3426216211001,-13.1401570103072,-0.6740898,0.5177083,0.013133603,135.04791,-161.37502,20.022108,STU
4199096517000,1.029894,8.11659598376144,4.63325569498081,-11.7101413553784,-0.5665775,0.70921457,0.10567969,135.06067,-161.26065,20.24534,STU
4199101519000,1.034896,8.40889029790375,3.66208586480661,-10.1260974016337,-0.4792238,0.8167268,0.18417588,135.08067,-161.17732,20.50658,STU
4199106626000,1.040003,8.45521496093295,2.49056177510204,-9.07679115510204,-0.5039638,0.86651236,0.18967366,135.1302,-161.04817,20.980953,STU
4199111621000,1.044998,8.36688695364431,1.24933213836735,-8.35157831836735,-0.5934556,0.86834496,0.11362094,135.1705,-160.92708,21.450396,STU
4199116634000,1.050011,8.23430603682875,0.539646236657294,-8.27263211034908,-0.7272351,0.80909103,-0.005192355,135.20418,-160.7973,22.005508,STU
4199121574000,1.054951,8.07532124538783,0.185985501042452,-8.6133145806872,-0.8374963,0.66706485,-0.13530666,135.22145,-160.64389,22.515314,STU
4199126602000,1.059979,7.91350433620465,-0.173975263870791,-8.9600658885536,-0.93034774,0.49449542,-0.22143865,135.24107,-160.55925,22.995737,STU
4199131589000,1.064966,7.54655471101537,0.22340882226574,-9.67889963262509,-0.9443977,0.34666604,-0.23732115,135.25882,-160.4641,23.432837,STU
4199136611000,1.069988,7.08034715341232,0.976875566630765,-10.5783505030843,-0.9578367,0.28680122,-0.1695151,135.28777,-160.3498,23.842295,STU
4199141672000,1.075049,6.55588205051108,2.03511362407651,-10.4731962026111,-1.031446,0.37782016,-0.015577064,135.33365,-160.31676,24.186182,STU
4199146607000,1.079984,6.01539486717944,3.22609873504706,-9.83226451351078,-1.2315043,0.5216789,0.17012598,135.41156,-160.2637,24.535557,STU
4199151587000,1.084964,5.45308945023273,3.83124042882113,-8.43843404643298,-1.5247196,0.64721173,0.36987892,135.49379,-160.14651,24.792725,STU
4199156677000,1.090054,4.86963827601406,4.14148828272062,-6.62788357374371,-1.8014416,0.61483586,0.50946164,135.61516,-160.0011,25.054697,STU
4199161620000,1.094997,4.4491990639147,4.02088391503378,-5.09955052153716,-2.0622811,0.47036624,0.59803706,135.72267,-159.62549,25.302792,STU
4199166620000,1.099997,4.13576900690456,3.57601524949324,-3.72955748944257,-2.2724187,0.1826487,0.59681535,135.86673,-159.20917,25.506905,STU
4199171616000,1.104993,4.04656028523261,3.14872698105942,-3.23403862599724,-2.4205534,0.012217305,0.5510005,136.00583,-158.62592,25.762115,STU
4199176619000,1.109996,4.06862966816214,2.72940750707508,-3.17224427083372,-2.5534167,-0.2602286,0.5326745,136.20166,-158.01143,25.922564,STU
4199181619000,1.114996,4.20657345172634,2.49332933614663,-3.4304196993393,-2.6083946,-0.3921755,0.52442783,136.36569,-157.35504,26.13122,STU
4199186622000,1.119999,4.46186320252558,2.44227143930094,-4.01248030983589,-2.7418687,-0.36346483,0.5390886,136.54573,-156.66077,26.321463,STU
4199191615000,1.124992,4.74677807384345,2.5850891483701,-4.22426196127269,-2.924212,-0.23823744,0.6017023,136.74068,-156.00058,26.521267,STU
4199196682000,1.130059,5.05462216040406,2.8503085686707,-4.21005368973258,-3.1282408,-0.16340645,0.6753115,136.94562,-155.3205,26.729624,STU
4199202329000,1.135706,5.41462494427319,3.30794677548406,-3.95748706267219,-3.336546,-0.15271631,0.766025,137.17116,-154.64767,26.950014,STU
4199206617000,1.139994,5.69548803553608,3.72726348408631,-3.66080058637896,-3.544851,-0.22876903,0.86926126,137.42288,-153.95432,27.187702,STU
4199211613000,1.14499,6.03847813124614,4.28312792094386,-3.24527607325725,-3.7226129,-0.32406402,0.95905846,137.68341,-153.20767,27.486969,STU
4199216613000,1.14999,6.39787896406539,4.90838738012544,-2.75786917422373,-3.9300015,-0.4083634,1.0467176,137.98166,-152.44086,27.794317,STU
4199221601000,1.154978,6.74663268576664,5.53517344463154,-2.27361695275357,-4.14075,-0.4868596,1.112691,138.2716,-151.57576,28.185587,STU
4199226634000,1.160011,7.09037347484152,6.17013853922345,-1.78665117139461,-4.3527203,-0.591623,1.151481,138.59514,-150.70131,28.570591,STU
4199231611000,1.164988,7.38308144916012,6.71359753801809,-1.43009873014611,-4.5393395,-0.70157874,1.1282681,138.89702,-149.70998,29.037512,STU
4199236547000,1.169924,7.63209928850015,7.17874422824769,-1.18577928969287,-4.721683,-0.80848014,1.0531317,139.21059,-148.71014,29.489553,STU
4199241642000,1.175019,7.8098255920741,7.64681143227655,-1.01758787740642,-4.834693,-0.90408057,0.9260717,139.52756,-147.58563,29.962536,STU
4199246577000,1.179954,7.90911438017571,8.08909883735676,-0.931838293850267,-4.9189925,-1.0274754,0.77518797,139.83955,-146.45888,30.395016,STU
4199251580000,1.184957,7.97387286225661,8.55594068207688,-1.01638268994508,-4.9770246,-1.1117748,0.57696223,140.10654,-145.25507,30.819273,STU
4199256647000,1.190024,7.98840880269596,9.05500653699451,-1.34586306214678,-4.958393,-1.1450669,0.37843102,140.34627,-144.07793,31.20204,STU
4199261580000,1.194957,7.97974194122557,9.59639131929425,-1.65240700823373,-4.8673744,-1.1924089,0.2125811,140.55263,-142.86282,31.526049,STU
4199266579000,1.199956,7.93887025569152,10.2230915091064,-1.94305072709163,-4.7613893,-1.2999213,0.09896017,140.74588,-141.6851,31.801996,STU
4199272318000,1.205695,7.87571908048728,10.9668662447104,-2.30724700606967,-4.6199737,-1.3695599,0.061391957,140.91116,-140.5354,32.001404,STU
4199276584000,1.209961,7.81023292618081,11.5475104197478,-2.61284915067322,-4.474588,-1.3637567,0.06841691,141.07278,-139.45003,32.179966,STU
4199281543000,1.21492,7.72230814990083,12.1470244151131,-2.97733449853233,-4.4095306,-1.3310753,0.13255776,141.24373,-138.37242,32.276237,STU
4199286552000,1.219929,7.61765263522412,12.6512733518445,-3.35789968131694,-4.241237,-1.2131784,0.24801129,141.40857,-137.40787,32.401165,STU
4199291571000,1.224948,7.26675655681241,12.8190384558533,-3.62652743311707,-4.0915756,-1.0607675,0.38056904,141.57144,-136.46149,32.471363,STU
4199296577000,1.229954,6.56803235083216,12.5079938113775,-3.73471700156088,-3.9376373,-0.8924741,0.46944994,141.71762,-135.61124,32.578804,STU
4199301509000,1.234886,5.98179938956661,12.1667420096308,-3.7639772141252,-3.8081338,-0.75411314,0.52442783,141.86089,-134.81053,32.645042,STU
4199306588000,1.239965,5.64998156319222,11.7226912762841,-3.58830883021669,-3.6771033,-0.6411031,0.5552765,141.98138,-134.09503,32.747177,STU
4199311551000,1.244928,5.35424190749088,11.3116626458431,-3.42005292453007,-3.544851,-0.5561928,0.548557,142.11044,-133.41794,32.768402,STU
4199316576000,1.249953,5.12471830069204,10.951625366782,-3.25803626643599,-3.407101,-0.45142943,0.5366451,142.2091,-132.80275,32.81643,STU
4199321542000,1.254919,4.90271558884688,10.597499905272,-3.09721291770636,-3.2739322,-0.34391713,0.50488013,142.2892,-132.23242,32.86095,STU
4199326591000,1.259968,4.70467118856333,10.247113515858,-2.92963686222432,-3.1447344,-0.2452624,0.48991394,142.34416,-131.71272,32.920513,STU
4199331543000,1.26492,4.52634138332619,9.93726066378202,-2.77479249407077,-3.0094275,-0.1554652,0.48380527,142.37296,-131.23384,32.985054,STU
4199336558000,1.269935,4.39465730621198,9.72738950963928,-2.64722345842687,-2.8750372,-0.089186326,0.4908302,142.38092,-130.79855,33.05898,STU
4199342461000,1.275838,4.23953506039141,9.47809179408114,-2.50478974538425,-2.7033842,-0.03481932,0.51068336,142.37598,-130.41196,33.143955,STU
4199346610000,1.279987,4.12953106875418,9.28463630176611,-2.46685742871599,-2.5537221,0.0036651916,0.5458081,142.36057,-130.06781,33.240437,STU
4199351515000,1.284892,3.99948296584248,9.055930784821,-2.42201336671122,-2.404671,0.061086524,0.57604593,142.32689,-129.76328,33.34685,STU
4199356566000,1.289943,3.91244344337207,8.82598109178649,-2.39400185105377,-2.259896,0.13041973,0.6236934,142.28589,-129.50928,33.471653,STU
4199361522000,1.294899,3.83765499223951,8.60161593362222,-2.37063046007485,-2.1062634,0.20433442,0.6737844,142.23083,-129.30064,33.610405,STU
4199366579000,1.299956,3.76144228089667,8.40282950742306,-2.37666583272048,-1.9611828,0.24251351,0.70921457,142.18199,-129.13217,33.755455,STU
4199371539000,1.304916,3.68671847399469,8.21601974633763,-2.39067652822731,-1.7968601,0.3136793,0.72234815,142.10364,-129.00528,33.91681,STU
4199376619000,1.309996,3.68990519508688,8.1140455122828,-2.4198546560016,-1.7214183,0.38698313,0.7415904,142.03345,-128.91513,34.09486,STU
4199381516000,1.314893,3.71800440994608,8.04379747513481,-2.45263702443579,-1.5393804,0.45906523,0.7556403,141.94283,-128.87,34.279156,STU
4199386589000,1.319966,3.77719710612323,8.0046362342634,-2.43014779568612,-1.3536774,0.5271767,0.78038037,141.85138,-128.85808,34.476265,STU
4199391646000,1.325023,3.84637615339491,7.97696455756595,-2.38864047326921,-1.1881329,0.5839872,0.80909103,141.74379,-128.87584,34.680676,STU
4199396702000,1.330079,3.87237612270065,7.93444177299352,-2.42858616321036,-1.0323622,0.6356053,0.82863873,141.6402,-128.93423,34.89658,STU
4199401561000,1.334938,3.87715812570137,7.88662174298633,-2.50509821122187,-0.890947,0.70829827,0.84116143,141.51537,-129.01804,35.12138,STU
4199406637000,1.340014,3.8853387655159,7.88896491378974,-2.60232865582212,-0.7849618,0.79412484,0.852157,141.37431,-129.12518,35.361855,STU
4199411587000,1.344964,3.89458494456797,7.91208036141993,-2.70403667366881,-0.68539083,0.9309586,0.8732319,141.19695,-129.25356,35.614407,STU
4199416600000,1.349977,3.87552193311305,7.8977805994593,-2.80568216700711,-0.634689,1.063211,0.89858276,141.01146,-129.39462,35.86904,STU
4199421603000,1.35498,3.84193936449384,7.86419813103034,-2.90642997305497,-0.60903263,1.2330315,0.88606006,140.76901,-129.53764,36.12809,STU
4199426621000,1.359998,3.779241424473,7.8304585276049,-2.9207742429733,-0.6020077,1.4205672,0.84421575,140.50089,-129.68425,36.384895,STU
4199431620000,1.364997,3.70235006018872,7.79681859963863,-2.89194006918289,-0.59406644,1.6239853,0.7651087,140.1695,-129.81763,36.636555,STU
4199436615000,1.369992,3.64126991134328,7.81009325910448,-2.75885388948694,-0.5842926,1.7898352,0.67073005,139.8026,-129.9412,36.87411,STU
4199441686000,1.375063,3.58690727761194,7.84633501492537,-2.57311465438433,-0.59437186,1.9129245,0.57757306,139.38036,-130.04015,37.095795,STU
4199446679000,1.380056,3.55137882622599,7.91852485979182,-2.32766653999356,-0.6102544,1.9834795,0.50793445,138.91496,-130.10843,37.29108,STU
4199451608000,1.384985,3.5311172987445,8.01983175671209,-2.03387576670244,-0.6374379,2.0314324,0.462425,138.41774,-130.15515,37.46813,STU
4199456618000,1.389995,3.52112820331145,8.07605030782796,-1.81532422757911,-0.68661255,2.0546453,0.4202753,137.88866,-130.14001,37.600044,STU
4199461629000,1.395006,3.51642659218184,8.10896178211032,-1.63666285737239,-0.7339546,2.090381,0.38728857,137.34634,-130.11414,37.71985,STU
4199466598000,1.399975,3.50559373685494,8.09081778951646,-1.47359076314506,-0.79290307,2.0864103,0.36377025,136.75687,-130.04077,37.813847,STU
4199471606000,1.404983,3.49097753986185,8.04209713287282,-1.31768456013816,-0.8170323,2.0570886,0.35521814,136.17395,-129.96478,37.896896,STU
4199476617000,1.409994,3.49827143035749,8.00381476472944,-1.18717699597578,-0.86345804,2.007914,0.3463606,135.56529,-129.86581,37.9677,STU
4199481607000,1.414984,3.51694235514749,7.97114059760696,-1.07048361855831,-0.93279123,1.9367483,0.35460728,134.9872,-129.76979,38.03095,STU
4199486612000,1.419989,3.53002675941571,7.96408828949862,-0.987265551764706,-0.9981538,1.8432859,0.3576616,134.41528,-129.66597,38.08589,STU
4199491685000,1.425062,3.53961679226214,7.97367837241413,-0.924930318235294,-1.0690142,1.7464638,0.36682457,133.88214,-129.56555,38.13441,STU
4199496629000,1.430006,3.53573898113551,7.96468096855919,-0.93093754614964,-1.1569787,1.6609426,0.34972036,133.36829,-129.46066,38.176556,STU
4199501613000,1.43499,3.52268946745648,7.94293177909414,-0.983135619033992,-1.2437216,1.5928311,0.31398472,132.89247,-129.35403,38.206505,STU
4199506612000,1.439989,3.52832578090252,7.92180300559104,-1.10281276847451,-1.3359623,1.5112807,0.25961772,132.43423,-129.23248,38.217487,STU
4199511620000,1.444997,3.56347658211706,7.90171689339336,-1.32878174043556,-1.3973542,1.4440855,0.20891592,132.00377,-129.10538,38.212933,STU
4199516607000,1.449984,3.6303489392282,7.87276569934164,-1.61743670197508,-1.41904,1.4043792,0.16371189,131.60521,-128.97063,38.18856,STU
4199521609000,1.454986,3.732239572835,7.83395021987238,-1.97648014038286,-1.4144585,1.3970488,0.13530666,131.22734,-128.83179,38.15104,STU
4199527363000,1.46074,3.93393082390705,7.80234029228042,-2.46929993014967,-1.3640621,1.4462235,0.11362094,130.90211,-128.70633,38.107014,STU
4199531603000,1.46498,4.12984245368255,7.78634744312722,-2.87711574661284,-1.2883148,1.5534303,0.1160644,130.56711,-128.58762,38.063324,STU
4199536565000,1.469942,4.40400405591701,7.79200402366804,-3.27681603765737,-1.2162327,1.6624697,0.13958271,130.27661,-128.51312,38.04418,STU
4199541586000,1.474963,4.73332107420687,7.82590449682747,-3.59160441899486,-1.110553,1.7742581,0.1591304,129.954,-128.44736,38.02854,STU
4199546582000,1.479959,5.05220740995493,7.85693971314913,-3.77441038749755,-0.9877691,1.8811595,0.1957823,129.72615,-128.4771,38.084167,STU
4199551585000,1.484962,5.36204879805996,7.88510700511464,-3.81666157054674,-0.86132,1.922393,0.22418754,129.48433,-128.51245,38.141644,STU
4199556585000,1.489962,5.62700451347305,7.90595505643713,-3.76599332769461,-0.7247916,1.9065105,0.25595254,129.26689,-128.5966,38.236935,STU
4199561604000,1.494981,5.83590645219239,7.9175606819973,-3.59655071947074,-0.6188065,1.87444,0.28619036,129.04272,-128.6867,38.335556,STU
4199566608000,1.499985,6.04418405756229,7.92913162248406,-3.42761451473827,-0.51893,1.7608191,0.29901853,128.86191,-128.81715,38.468113,STU
4199571560000,1.504937,6.25029730732084,7.94058232138304,-3.26043384210933,-0.46792278,1.616044,0.31581733,128.70555,-128.95193,38.601814,STU
4199576571000,1.509948,6.40166605967378,7.95746760417522,-3.09760192119409,-0.40744713,1.4480561,0.33353242,128.50543,-129.08575,38.733585,STU
4199581593000,1.51497,6.41646741037136,7.98707025405211,-2.94958779599918,-0.36041048,1.2757921,0.34025195,128.36174,-129.21518,38.85579,STU
4199586582000,1.519959,6.28072752740919,8.07577329633062,-2.74104155598592,-0.36010507,1.0827587,0.3051272,128.1995,-129.38338,39.026886,STU
4199591597000,1.524974,5.8623988766957,8.27603732107116,-2.41616932623239,-0.3885103,0.8564331,0.25992316,128.11423,-129.54233,39.182484,STU
4199597069000,1.530446,5.43615931881786,8.51513052525729,-2.05602773350014,-0.45173484,0.61453044,0.20799962,128.04752,-129.67706,39.31601,STU
4199601626000,1.535003,5.15183651022566,8.76236767529034,-1.74286046165612,-0.54336464,0.3463606,0.1441642,128.07104,-129.78676,39.419407,STU
4199606553000,1.53993,4.8423128032843,9.0431297793363,-1.39811231026343,-0.63499445,0.058948494,0.065973446,128.10172,-129.79256,39.422813,STU
4199611480000,1.544857,4.50331733595621,9.51126613627552,-0.967641966529821,-0.7266242,-0.20769419,-0.03970624,128.21765,-129.76839,39.392315,STU
4199616483000,1.54986,4.2294369520322,9.99214897084233,-0.569680882285195,-0.784351,-0.4709771,-0.17989981,128.33463,-129.61847,39.24174,STU
4199621495000,1.554872,4.12105523210289,10.4869351263499,-0.263384762642941,-0.80573124,-0.6927212,-0.31306845,128.52776,-129.44327,39.061253,STU
4199626484000,1.559861,4.06030758537617,10.9676717389465,-0.0143734087844697,-0.8142834,-0.86590147,-0.4202753,128.73196,-129.1488,38.766506,STU
4199631478000,1.564855,4.13256069086514,11.4156394237083,0.0771468731208581,-0.8173377,-0.9645562,-0.49296826,128.98285,-128.83308,38.44714,STU
4199636509000,1.569886,4.22420621659834,11.7900915686435,0.0421293934317209,-0.81245077,-0.9789116,-0.5158757,129.19427,-128.44257,38.06003,STU
4199641505000,1.574882,4.36368518815706,11.964440453767,-0.319644816279494,-0.8176431,-0.88117313,-0.49021935,129.39755,-128.05435,37.67677,STU
4199646486000,1.579863,4.50540456783328,12.123828690105,-0.703485509226853,-0.82344633,-0.6963864,-0.43004912,129.55255,-127.643814,37.276333,STU
4199651501000,1.584878,4.67858758570368,12.11873497338,-1.35546805965638,-0.79473567,-0.4352415,-0.35979962,129.64606,-127.25551,36.902374,STU
4199656535000,1.589912,4.86473276468085,12.1116851205674,-2.0089423612766,-0.75655663,-0.27030787,-0.30451632,129.74174,-126.89379,36.547573,STU
4199661521000,1.594898,5.09695139550152,12.0971716676798,-2.65238156942249,-0.6719518,0.04520403,-0.28588495,129.69304,-126.55515,36.22439,STU
4199666634000,1.600011,5.35069651080066,12.1240222810483,-3.26966341182195,-0.6252206,0.32986724,-0.24953845,129.62712,-126.27954,35.954136,STU
4199671473000,1.60485,5.63645594202717,12.2713672434724,-3.7295576079102,-0.53969944,0.5216789,-0.23823744,129.48386,-126.015945,35.697346,STU
4199676488000,1.609865,5.94069720901347,12.4432848700475,-4.1612835862916,-0.4297437,0.6087272,-0.2144137,129.3121,-125.82768,35.50373,STU
4199681483000,1.61486,6.29131875036648,12.7275724057052,-4.32711817999208,-0.3417791,0.59956425,-0.19761491,129.1102,-125.649796,35.320694,STU
4199686459000,1.619836,6.63598553721257,13.0008463031429,-4.43884843946179,-0.26083946,0.48502702,-0.19394971,128.9273,-125.53166,35.18291,STU
4199691525000,1.624902,6.95263866752686,13.205452881715,-4.15629662600663,-0.183565,0.29046643,-0.17806722,128.77948,-125.42876,35.05467,STU
4199696484000,1.629861,7.25022800774453,13.3781883114064,-3.87721588696816,-0.14172074,0.040317107,-0.15760323,128.68964,-125.3677,34.958656,STU
4199701512000,1.634889,7.4712150736208,13.3735847997897,-3.57796234525289,-0.13408493,-0.27855456,-0.14844026,128.69025,-125.31125,34.85732,STU
4199706551000,1.639928,7.6939216426548,13.3566996769527,-3.28696071733104,-0.1160644,-0.61758476,-0.16401732,128.73984,-125.27719,34.77756,STU
4199711527000,1.644904,7.93498880574666,13.1300958388304,-3.1519630556556,-0.081855945,-0.9456194,-0.172264,128.89104,-125.24945,34.69236,STU
4199716515000,1.649892,8.17636319619327,12.8899095163494,-3.02129321093216,-0.027488936,-1.2269229,-0.17715092,129.083,-125.24681,34.632107,STU
4199721496000,1.654873,8.41382635461201,12.480169879551,-2.95145132572962,0.07422013,-1.4104879,-0.17898351,129.34386,-125.24631,34.560547,STU
4199726767000,1.660144,8.65468394523631,12.0396173662791,-2.88717030813954,0.19914207,-1.5079209,-0.18081611,129.64275,-125.27931,34.51724,STU
4199731529000,1.664906,8.74449033533383,11.5563712674419,-2.94704138372093,0.35735616,-1.5674802,-0.20799962,129.97618,-125.31061,34.456913,STU
4199736502000,1.669879,8.83827596699175,11.0517129622093,-3.00956529360465,0.539394,-1.5766432,-0.25595254,130.31416,-125.394394,34.440105,STU
4199741539000,1.674916,8.86212351910273,10.647778531394,-3.19208410836833,0.74189585,-1.5115861,-0.28863382,130.63129,-125.4828,34.414417,STU
4199746501000,1.679878,8.8767259181604,10.2632563132234,-3.38677889980539,0.929126,-1.3927728,-0.2968805,130.91692,-125.573395,34.37851,STU
4199751543000,1.68492,8.90894988195132,9.96081913368296,-3.47565974294479,1.1200215,-1.2342533,-0.29443705,131.16618,-125.70761,34.372135,STU
4199756559000,1.689936,8.94222294666535,9.66611250633287,-3.5564665797546,1.3326025,-1.1597277,-0.27214047,131.39192,-125.85785,34.363758,STU
4199761557000,1.694934,8.958114871875,9.420884659375,-3.517980131875,1.4330899,-1.0955868,-0.26175576,131.57474,-126.037125,34.372543,STU
4199766502000,1.699879,8.97243692782258,9.18218821330645,-3.47024084266129,1.6701056,-1.1374311,-0.2507602,131.7595,-126.248146,34.377033,STU
4199771539000,1.704916,8.9246394085553,9.06290776997723,-3.47568190886226,1.8942931,-1.2330315,-0.2489276,131.95804,-126.48176,34.384705,STU
4199776502000,1.709879,8.8728692100208,8.95466090187147,-3.48509465436182,2.1206186,-1.3408492,-0.25870144,132.1637,-126.73551,34.379166,STU
4199781551000,1.714928,8.82103651138354,8.88908961607317,-3.49023818174742,2.3130412,-1.4517213,-0.2751948,132.41934,-127.01517,34.36485,STU
4199786519000,1.719896,8.77011668651489,8.82891194882273,-3.49486724794707,2.4801128,-1.5424347,-0.27763826,132.69028,-127.31766,34.336082,STU
4199791587000,1.724964,8.68725892772297,8.81184779726193,-3.49133888624924,2.6096163,-1.6187929,-0.2733622,133.00484,-127.64247,34.287693,STU
4199796505000,1.729882,8.60191821139521,8.80236527541776,-3.48659772434065,2.6899452,-1.672549,-0.2761111,133.32346,-127.98108,34.221634,STU
4199801566000,1.734943,8.45863690906424,8.83402488021903,-3.40772591115674,2.7458394,-1.7415768,-0.25686884,133.6717,-128.33588,34.136505,STU
4199806531000,1.739908,8.30985731240833,8.87121990075291,-3.3193883321013,2.7736337,-1.8341229,-0.23304509,134.02629,-128.70105,34.035465,STU
4199811550000,1.744927,8.31051712847189,9.13969896917057,-3.15970904766632,2.776077,-2.0048597,-0.1863139,134.4199,-129.08096,33.915558,STU
4199816531000,1.749908,8.34238896764341,9.45385806051351,-2.98669405783144,2.7809641,-2.259896,-0.094989546,134.85802,-129.48431,33.78571,STU
4199821532000,1.754909,8.12778136982484,9.67799646178344,-2.80058309255573,2.7681358,-2.5592198,-0.014966198,135.32687,-129.86871,33.61348,STU
4199826556000,1.759933,7.82132336982484,9.86953246178344,-2.60904689255573,2.7302623,-2.9294043,0.0076358155,135.8781,-130.25925,33.403473,STU
4199831539000,1.764916,7.45100777421053,10.1984928736842,-2.46920309473684,2.6783388,-3.3319645,-0.0012217305,136.47743,-130.62012,33.147736,STU
4199836558000,1.769935,7.05280016745614,10.5826459596491,-2.34739842192982,2.588236,-3.7357464,-0.018020526,137.16183,-130.97223,32.84155,STU
4199841545000,1.774922,6.66781205104881,11.0527660512973,-2.2471582856447,2.4712553,-4.0036106,-0.029626964,137.89185,-131.26132,32.454525,STU
4199846555000,1.779932,6.2862251196441,11.5679085058157,-2.1565314747291,2.282498,-4.0900483,-0.015577064,138.65137,-131.52716,32.037636,STU
4199852376000,1.785753,5.90091583162696,11.9379082101368,-2.08991459276229,1.9859229,-4.0063596,0.00580322,139.39578,-131.69717,31.551847,STU
4199856542000,1.789919,5.64208075245819,12.1360784745058,-2.05351587280284,1.611768,-3.8713584,0.014049901,140.11244,-131.8224,31.065226,STU
4199861530000,1.794907,5.44930420174998,12.108163521221,-1.80893963807704,1.4083499,-3.4758232,0.016187929,140.8014,-131.89941,30.574862,STU
4199866522000,1.799899,5.30986809755607,11.9591111772604,-1.47236928820276,0.9755518,-3.0973923,-0.028405234,141.42232,-131.85931,30.101366,STU
4199871484000,1.804861,5.26399011173737,11.6890337966479,-1.13846198807476,0.5580254,-2.8231137,-0.109650314,142.01059,-131.75243,29.6184,STU
4199876505000,1.809882,5.25923523019875,11.360953673094,-0.80087220074162,0.22204952,-2.6325238,-0.2302962,142.48415,-131.56319,29.167786,STU
4199881495000,1.814872,5.32744341068839,11.0624486981226,-0.607067002950233,-0.009468411,-2.5234842,-0.36254853,142.92369,-131.28752,28.73052,STU
4199886485000,1.819862,5.43187781060892,10.7776276074302,-0.483644431181087,-0.14996742,-2.4312437,-0.5155703,143.28174,-130.9399,28.295364,STU
4199891520000,1.824897,5.63461140867187,10.5242001003906,-0.652969878554687,-0.1872302,-2.2779164,-0.66798115,143.60056,-130.55437,27.884962,STU
4199896499000,1.829876,5.88606423138672,10.2913730165039,-0.974270826435547,-0.09254608,-1.924531,-0.7993172,143.81113,-130.14714,27.496016,STU
4199901578000,1.834955,6.2080272704023,9.99104041187739,-1.39803037471264,0.08155051,-1.2660183,-0.9126327,143.88034,-129.7491,27.177683,STU
4199906575000,1.839952,6.56556707175287,9.65642042318008,-1.8747499183908,0.38789943,-0.4822781,-0.9804387,143.80069,-129.38698,26.915892,STU
4199911578000,1.844955,6.79865324496965,9.42131202278834,-1.88612403912827,0.8378017,0.06811147,-1.0125091,143.57266,-129.14172,26.73911,STU
4199916574000,1.849951,6.92244541465818,9.27371301074734,-1.49094088657578,1.3326025,0.23518312,-1.0418307,143.22878,-128.96036,26.60611,STU
4199921557000,1.854934,7.04857097270115,9.08480507327586,-1.10568093092672,1.8936822,0.1133155,-1.0082331,142.7556,-128.99019,26.587566,STU
4199926594000,1.859971,7.17852358250718,8.85522262984914,-0.724486836495151,2.522568,-0.16462818,-0.93034774,142.30093,-129.1348,26.568443,STU
4199931511000,1.864888,7.27570237152156,8.42226429698942,-0.508028565264443,3.157868,-0.56413406,-0.8399397,141.98767,-129.38484,26.537619,STU
4199936553000,1.86993,7.3002580192026,7.4498598283157,-0.679918222107404,3.7427714,-1.0476339,-0.77946407,141.7891,-129.75725,26.462236,STU
4199941587000,1.874964,7.35969404460014,6.62429205935342,-1.62169344221099,4.2717805,-1.6172657,-0.7761043,141.7824,-130.24643,26.34709,STU
4199946642000,1.880019,7.49052074342909,6.09129389150235,-4.13647525750976,4.7623053,-2.2226331,-0.8399397,141.90701,-130.84265,26.14778,STU
4199951527000,1.884904,7.65332320765706,5.74313802640825,-6.41925139717396,5.1999903,-2.4715607,-0.9584476,142.07751,-131.61082,25.9317,STU
4199957283000,1.89066,7.93225949522627,5.73261225111705,-8.75599945063968,5.3927183,-1.9376645,-1.1081096,142.16182,-132.40532,25.716726,STU
4199961536000,1.894913,8.09685439645727,5.80409242700877,-9.93817391818846,5.6489763,-1.3414601,-1.176221,142.42291,-133.58301,25.375233,STU
4199966575000,1.899952,8.15854211787801,6.14337553896092,-9.59007803140979,5.573229,-0.41508293,-1.2544118,142.40794,-134.70505,25.143486,STU
4199971720000,1.905097,8.1959934105325,6.48666849696555,-9.14596282517619,5.2595496,0.12064589,-1.2577715,142.38489,-136.03008,24.886944,STU
4199976591000,1.909968,7.926586010278,6.77434095521731,-7.66650385542287,4.8585167,0.36102137,-1.1948525,142.18672,-137.3062,24.74174,STU
4199981896000,1.915273,7.62199946248962,7.06350127535296,-6.05423973821168,4.4290786,0.3387248,-1.0977248,141.91788,-138.42838,24.662764,STU
4199986553000,1.91993,7.21045379330073,7.00588502777521,-4.62617672593891,4.0152173,0.14172074,-1.0155635,141.63617,-139.45024,24.604795,STU
4199991596000,1.924973,6.76479675878933,6.94349320116268,-3.07974731410907,3.6884043,-0.13316862,-0.9621128,141.3701,-140.19276,24.54545,STU
4199996624000,1.930001,6.02991414409338,6.63611133956531,-2.10118120480982,3.421151,-0.34697145,-0.9627236,141.13771,-140.8408,24.461594,STU
4200001567000,1.934944,5.25348811672369,6.28838705663111,-1.24377841227611,3.3011158,-0.4990769,-1.0158689,140.94861,-141.43443,24.333193,STU
4200006570000,1.939947,4.60379116659064,5.95315416308731,-0.82215851772831,3.3191364,-0.6954701,-1.0387764,140.81299,-141.76851,24.11932,STU
4200011584000,1.944961,3.97733484308001,5.62021221220691,-0.480454971230727,3.3426547,-0.9419542,-1.040609,140.71233,-142.06723,23.858717,STU
4200016574000,1.949951,3.44987643422354,5.23635371711177,-0.568981677527201,3.306308,-1.0955868,-0.9990701,140.65195,-142.40155,23.598154,STU
4200021565000,1.954942,2.97237077818991,4.82503706409496,-0.881015067916914,3.1597004,-1.1032226,-0.9275989,140.61368,-142.7142,23.325218,STU
4200027036000,1.960413,2.55106340072529,4.30370773718828,-1.34848290025832,2.9712486,-1.0250319,-0.82986045,140.60085,-143.05673,23.032454,STU
4200031570000,1.964947,2.2447636138003,3.84210076923994,-1.78851933505216,2.731484,-0.8680395,-0.711658,140.58948,-143.35812,22.775888,STU
4200036555000,1.969932,2.03086015996524,3.3976283495365,-2.10124354515257,2.4776695,-0.679893,-0.6026186,140.58754,-143.66833,22.4884,STU
4200041600000,1.974977,1.89089780060834,2.98707218311124,-2.31118705983005,2.2626448,-0.50610185,-0.50243664,140.57825,-143.93842,22.254955,STU
4200046614000,1.979991,1.82414900869443,2.63779766261867,-2.47156335884012,2.0809124,-0.34055737,-0.42149702,140.58713,-144.17902,21.96455,STU
4200051580000,1.984957,1.81520862166557,2.33829455712003,-2.59225863040699,1.9410243,-0.26083946,-0.37415496,140.58849,-144.38281,21.709034,STU
4200056561000,1.989938,1.79013473525394,2.07687866418176,-2.68819858794179,1.8942931,-0.07696902,-0.36102137,140.58073,-144.59322,21.465626,STU
4200061585000,1.994962,1.74250193311553,1.8672944044055,-2.75012121580042,1.8203784,0.08277224,-0.3475823,140.56604,-144.76788,21.248093,STU
4200066575000,1.999952,1.69519148672409,1.65912850944461,-2.81162478128898,1.7986927,0.1591304,-0.33841935,140.51173,-145.08366,21.124327,STU
4200071558000,2.004935,1.64794740769231,1.45125463076923,-2.87304206923077,1.7944167,0.27763826,-0.31673363,140.42369,-145.38342,21.049456,STU
4200076586000,2.009963,1.54553763290447,1.32554224464458,-2.98034910186555,1.8261817,0.4279111,-0.30909783,140.33568,-145.69986,21.001602,STU
4200081578000,2.014955,1.3558866984561,1.33579364072049,-3.15974858671599,1.8750509,0.57818395,-0.2883284,140.23346,-146.01846,20.985094,STU
4200086566000,2.019943,1.13047877628826,1.32165874307439,-3.33484832270438,1.8805487,0.7425067,-0.2761111,140.09244,-146.4479,21.035856,STU
4200091591000,2.024968,0.869444920224719,1.28436817134831,-3.50731718651685,1.8649716,0.89888823,-0.26145032,139.93274,-146.8814,21.120886,STU
4200096757000,2.030134,0.615628858444916,1.21666570768307,-3.67424645291347,1.7910569,1.0461067,-0.2406809,139.76169,-147.30766,21.201515,STU
4200101576000,2.034953,0.394017186373626,1.12290694285714,-3.81914638241758,1.6911805,1.169807,-0.23487769,139.5694,-147.71611,21.309052,STU
4200106557000,2.039934,0.160334212248003,1.00464449205428,-3.96937945531356,1.5180001,1.2641857,-0.2302962,139.37054,-148.07883,21.37451,STU
4200111588000,2.044965,-0.0875045704169859,0.830629982291781,-4.12230137231039,1.3090842,1.3267993,-0.19425514,139.16776,-148.40428,21.46233,STU
4200116571000,2.049948,-0.280952281181358,0.597209140553147,-4.30675637314488,1.0656544,1.3087788,-0.12858713,138.9835,-148.67577,21.48462,STU
4200121568000,2.054945,-0.413490130269315,0.291001018894088,-4.53069966501767,0.7846564,1.2611313,-0.045814894,138.80899,-148.88538,21.51761,STU
4200126515000,2.059892,-0.486264858926975,-0.0734659542915052,-4.82931127159463,0.4578435,1.1924089,0.058337633,138.71571,-149.08113,21.507748,STU
4200131580000,2.064957,-0.45252956858917,-0.560217971694386,-5.27750846672628,0.09560041,1.1068878,0.1600467,138.65236,-149.2018,21.490984,STU
4200136557000,2.069934,-0.371856612732831,-0.995454601801334,-5.73133352060275,-0.2968805,1.0070114,0.26053402,138.62378,-149.32361,21.45332,STU
4200141622000,2.074999,-0.199624209966312,-1.3567225805837,-6.21862534042608,-0.6844745,0.8732319,0.33750305,138.63223,-149.36093,21.395845,STU
4200146741000,2.080118,-0.0132262683588057,-1.70236464185223,-6.7335567229251,-1.0341948,0.75533485,0.40775254,138.65984,-149.46057,21.353588,STU
4200151573000,2.08495,0.30995024405253,-1.79603897739879,-7.48763507272267,-1.3182472,0.7266242,0.43066,138.70029,-149.47981,21.301868,STU
4200156640000,2.090017,0.666879851207971,-1.85085596633307,-8.15793761118427,-1.4419475,0.7742717,0.45814893,138.75993,-149.58861,21.275337,STU
4200161580000,2.094957,1.22341249274954,-1.40230730563603,-7.4186629899921,-1.676825,1.031446,0.44226643,138.783,-149.59245,21.286512,STU
4200166516000,2.099893,1.77949450057326,-0.954121842235098,-6.67998697173207,-1.967597,1.4312572,0.40591997,138.78017,-149.64641,21.361109,STU
4200171560000,2.104937,2.06554539979233,-0.956366140565665,-5.41247926858188,-2.3118196,1.7846428,0.35521814,138.73573,-149.62062,21.47884,STU
4200176525000,2.109902,2.26774075308544,-1.08802829731013,-4.02062228821203,-2.6789496,1.9651535,0.30176744,138.64626,-149.5088,21.640944,STU
4200181571000,2.114948,2.38152730057647,-1.20360864071971,-3.44730915136693,-2.9578094,1.8863518,0.22388211,138.52037,-149.20412,21.992168,STU
4200186557000,2.119934,2.46494065486069,-1.3120459751594,-3.14702117175299,-3.100141,1.6569719,0.11789699,138.37321,-148.83829,22.331253,STU
4200191626000,2.125003,2.60308817287025,-0.90981758505024,-2.9320927310616,-3.1166344,1.4785993,-0.01740966,138.19948,-148.34062,22.803871,STU
4200196664000,2.130041,2.79806141402359,0.0439700491000437,-2.81616277162516,-3.0140092,1.473407,-0.12095132,138.01863,-147.8393,23.247576,STU
4200201577000,2.134954,2.8269517982847,1.59016255933162,-2.76814560868494,-2.9752192,1.5818355,-0.16401732,137.83386,-147.31076,23.712822,STU
4200206569000,2.139946,2.77039722162855,3.48945190015181,-2.75400693991522,-3.071125,1.5222762,-0.12492194,137.67783,-146.78374,24.132559,STU
4200212244000,2.145621,3.07721053443537,5.92029395956981,-2.54134042230631,-3.29348,1.294118,0.0021380284,137.52658,-146.13039,24.564768,STU
4200216576000,2.149953,3.45729211296554,7.88267140987851,-2.3017238359291,-3.6120462,1.054048,0.22876903,137.42604,-145.46622,25.003313,STU
4200221563000,2.15494,4.29275088744489,9.75180584109641,-1.78244075991949,-4.012774,0.89736104,0.51007247,137.35713,-144.50972,25.361416,STU
4200226592000,2.159969,5.39593862438183,11.3811999131685,-1.09929521127085,-4.4516807,0.7816021,0.7812967,137.38007,-143.52997,25.715593,STU
4200231579000,2.164956,6.81953046505259,12.8040104714229,-0.845033993074022,-4.8698177,0.53023106,0.9639453,137.32512,-142.18314,26.084017,STU
4200236560000,2.169937,8.54244759051399,14.0488655697559,-0.977566056836674,-5.1639495,0.022602014,1.0772609,137.39012,-140.84216,26.403587,STU
4200241616000,2.174993,10.5711257248992,15.2703388654252,-1.92537940852371,-5.2473326,-0.6783658,1.1200215,137.48735,-139.30574,26.856178,STU
4200246775000,2.180152,12.9186331507007,16.4749188165675,-3.69905207645421,-5.0637674,-1.1829406,1.1737776,137.67508,-137.86789,27.25484,STU
4200251576000,2.184953,14.4504462079317,17.3096971184247,-5.06070792676949,-4.624555,-1.2504412,1.2253957,137.89886,-136.54048,27.82605,STU
4200256579000,2.189956,15.176197655834,17.7979293845589,-6.09435344677316,-4.382958,-1.0323622,1.303281,138.18605,-135.32738,28.341196,STU
4200261563000,2.19494,15.475770763879,17.858153288581,-6.85039324886422,-3.940081,-0.5479461,1.1374311,138.4392,-134.4927,29.001787,STU
4200266573000,2.19995,14.4347502280737,16.5678749184068,-6.74287008537231,-3.551876,-0.1441642,0.7611381,138.63818,-133.75645,29.59434,STU
4200271562000,2.204939,13.2446362347066,15.1693894870995,-6.51261734238452,-3.2082644,0.043982297,0.30665436,138.76138,-133.20024,30.142202,STU
4200276590000,2.209967,11.6415673433208,13.4611191637536,-5.9565527127965,-2.8365529,0.1001819,-0.048563786,138.77576,-132.72134,30.616495,STU
4200282189000,2.215566,10.0012528674391,11.6916360637978,-5.3905837502257,-2.4642303,0.14202617,-0.27000242,138.7475,-132.34048,30.976156,STU
4200286551000,2.219928,8.87403685148962,10.45127955161,-5.00506766114956,-2.1713204,0.25228736,-0.38637227,138.65018,-131.98506,31.271046,STU
4200291597000,2.224974,7.77434312553353,9.17159639305701,-4.58794649390117,-1.9587394,0.4560109,-0.37873647,138.53174,-131.68839,31.489616,STU
4200296632000,2.230009,7.03342374893294,8.16540921388599,-4.22206021219767,-1.8191566,0.6621779,-0.28955013,138.38069,-131.43848,31.70817,STU
4200301509000,2.234886,6.4081457371457,7.26633420671308,-3.87143960527101,-1.709201,0.8151997,-0.15607607,138.21748,-131.24637,31.909075,STU
4200306589000,2.239966,6.05010369955246,6.5696035926902,-3.51823586981601,-1.6200147,0.9221011,0.017715093,138.03424,-131.11543,32.160275,STU
4200311529000,2.244906,5.7875611125884,5.97963876280057,-3.20645568203677,-1.5717562,0.98563105,0.21288654,137.86641,-131.06471,32.460888,STU
4200316625000,2.250002,5.80136697186233,5.66210596966525,-2.9901652482414,-1.5332718,1.0320568,0.4120286,137.70586,-131.07639,32.813557,STU
4200321554000,2.254931,5.84086012220597,5.395283047629,-2.79656153918947,-1.5082263,1.0714576,0.5742133,137.57028,-131.14487,33.219666,STU
4200326588000,2.259965,6.07752742251932,5.42549598621266,-2.71599398339252,-1.4761559,1.0943651,0.7086037,137.45789,-131.26552,33.665886,STU
4200331549000,2.264926,6.32511092627322,5.53815427115039,-2.62957081881366,-1.4477507,1.1163563,0.8051204,137.35333,-131.43619,34.171104,STU
4200336570000,2.269947,6.63242555833833,5.97991918949471,-2.51432778791692,-1.4278975,1.1239921,0.86834496,137.26593,-131.638,34.694504,STU
4200341673000,2.27505,6.92927805089577,6.45247002816985,-2.3825527213303,-1.4278975,1.0784826,0.89827734,137.19391,-131.86671,35.246063,STU
4200346634000,2.280011,7.16440887622488,6.99327093133723,-2.20385325872513,-1.4443909,1.03786,0.90224797,137.12701,-132.10764,35.798824,STU
4200352047000,2.285424,7.40111991686771,7.59504212339332,-2.02210757678465,-1.4651603,0.8732319,0.88178396,137.06763,-132.26346,36.280777,STU
4200356585000,2.289962,7.55151392113902,8.12786631876607,-1.90179247207831,-1.5332718,0.80664754,0.86162543,136.99335,-132.4175,36.761612,STU
4200361564000,2.294941,7.68941310270541,8.70304302955912,-1.77865678226453,-1.563815,0.6658431,0.8341365,136.94829,-132.52345,37.186184,STU
4200366593000,2.29997,7.68458717755511,9.23388421402806,-1.70144349158317,-1.611768,0.5519168,0.7816021,136.91208,-132.61502,37.587418,STU
4200371580000,2.304957,7.64955122549498,9.7346706300595,-1.63530531691212,-1.6667458,0.44348818,0.711658,136.85455,-132.63808,37.925175,STU
4200376625000,2.310002,7.46106022383693,10.1116531254267,-1.62116849178777,-1.7241671,0.3371976,0.6417139,136.82933,-132.65157,38.23187,STU
4200381567000,2.314944,7.25529861392405,10.4572592271819,-1.62023306476635,-1.7580702,0.23457226,0.5510005,136.78728,-132.5993,38.463028,STU
4200386618000,2.319995,6.8777843164557,10.6229966369087,-1.72151736854478,-1.785559,0.14844026,0.4728097,136.77065,-132.53687,38.666317,STU
4200391629000,2.325006,6.50139444243306,10.7824466998295,-1.82374251392037,-1.8081611,0.09010262,0.3924809,136.74165,-132.38872,38.76988,STU
4200396675000,2.330052,6.04582232174305,10.7388282276602,-1.99821695927189,-1.8145752,0.07238753,0.31856623,136.72275,-132.23187,38.84901,STU
4200401895000,2.335272,5.57870487628374,10.686837207834,-2.17597597785248,-1.8197676,0.08277224,0.2742785,136.70245,-132.02187,38.85,STU
4200406694000,2.340071,5.19358543022508,10.5659279389068,-2.31031996848875,-1.8011361,0.11759156,0.23304509,136.67516,-131.8056,38.83356,STU
4200411940000,2.345317,4.76463650036373,10.4161245963449,-2.45534471172818,-1.7913623,0.18570304,0.21685717,136.64021,-131.54337,38.750908,STU
4200416601000,2.349978,4.20231170186302,9.88151963981547,-2.54246546738822,-1.7953329,0.2669481,0.20341812,136.58807,-131.28195,38.66436,STU
4200421758000,2.355135,3.58014714793293,9.29002473296664,-2.63885717237402,-1.7886134,0.35796702,0.18845193,136.51555,-130.99738,38.53699,STU
4200426617000,2.359994,3.3179116471649,8.91085684792627,-2.66926390362653,-1.7687603,0.4373795,0.1695151,136.42113,-130.71872,38.412807,STU
4200431519000,2.364896,3.1674151398918,8.59105217511521,-2.67866997830094,-1.7281377,0.5174029,0.15790866,136.29855,-130.45021,38.2957,STU
4200436614000,2.369991,3.1055957807842,8.25784536857496,-2.72096969177822,-1.6978999,0.58551437,0.15241088,136.16927,-130.16895,38.147655,STU
4200441618000,2.374995,3.08284713025729,7.93026442092471,-2.77556640553499,-1.6643023,0.61911196,0.1518,136.02823,-129.89723,38.002384,STU
4200446670000,2.380047,3.07110233732616,7.6341519327581,-2.80558532864684,-1.6175711,0.72418076,0.1459968,135.85143,-129.64581,37.873493,STU
4200451573000,2.38495,3.06633571150137,7.36722626190234,-2.81988495726322,-1.5662584,0.85154617,0.13683382,135.65959,-129.4031,37.74768,STU
4200456620000,2.389997,3.07667137158869,7.11158370583821,-2.77980821169591,-1.4526376,1.0002918,0.13194689,135.43658,-129.19681,37.649593,STU
4200461619000,2.394996,3.09533601023392,6.86894515748538,-2.70981636491228,-1.3234396,1.1392636,0.12461651,135.17732,-128.99866,37.555553,STU
4200466602000,2.399979,3.16284871666499,6.68514057023462,-2.68436136287383,-1.1731668,1.2455542,0.1142318,134.88898,-128.83438,37.486195,STU
4200471607000,2.404984,3.26420498124056,6.54034558256973,-2.68918780366529,-1.031446,1.3475688,0.11209377,134.56099,-128.68399,37.424133,STU
4200476597000,2.409974,3.38176964487057,6.41961446644295,-2.67997251016299,-0.90224797,1.4819591,0.12675454,134.19885,-128.5766,37.400246,STU
4200481598000,2.414975,3.51034319720038,6.3140007304698,-2.66160488722915,-0.79168135,1.6450601,0.15149458,133.8,-128.48302,37.38378,STU
4200486584000,2.419961,3.63962121340071,6.22824607836281,-2.62778575847398,-0.6603453,1.781283,0.17287487,133.37286,-128.42819,37.398884,STU
4200491582000,2.424959,3.77022776745831,6.16052391076301,-2.57941289706923,-0.5366451,1.8952094,0.21594086,132.9108,-128.39444,37.430973,STU
4200496580000,2.429957,3.9230202487727,6.17530483147076,-2.5544434849531,-0.42577308,1.9819523,0.23854288,132.44359,-128.40344,37.499115,STU
4200501573000,2.43495,4.09478363368589,6.26118672320894,-2.54967228535222,-0.35277468,2.067168,0.2489276,131.9522,-128.42502,37.576126,STU
4200506596000,2.439973,4.24788275623064,6.39261637780106,-2.49605358330297,-0.30787608,2.1523838,0.25381452,131.4171,-128.45824,37.66734,STU
4200511605000,2.444982,4.38334235053744,6.56303348105302,-2.3999209812352,-0.27488935,2.218357,0.24740042,130.87473,-128.49236,37.754932,STU
4200516608000,2.449985,4.50048091067982,6.76639925809565,-2.29632966045464,-0.269697,2.2632558,0.23396139,130.29817,-128.5304,37.84861,STU
4200521601000,2.454978,4.58251730338838,7.03301774855243,-2.1784022388591,-0.2864958,2.2904391,0.23426682,129.72224,-128.56873,37.93975,STU
4200526612000,2.459989,4.62331005996801,7.2553762694961,-2.06157576757649,-0.28496864,2.2687535,0.23365596,129.1335,-128.59428,38.019238,STU
4200531609000,2.464986,4.61852548992202,7.42762064127175,-1.94674593659268,-0.3173445,2.204002,0.21624629,128.56824,-128.61137,38.087513,STU
4200536583000,2.46996,4.55988543501044,7.57841917997415,-1.82375935631898,-0.35033122,2.1688771,0.18448131,127.98901,-128.60403,38.132042,STU
4200541564000,2.474941,4.44130623445361,7.70648491468629,-1.69095055263995,-0.38606682,2.068695,0.15851954,127.473694,-128.59186,38.164665,STU
4200546585000,2.479962,4.36132385227588,7.83092708905601,-1.5311841119335,-0.38759398,1.9315559,0.09560041,126.93864,-128.53897,38.15638,STU
4200551578000,2.484955,4.32820300959826,7.94921563645359,-1.34192233728478,-0.40011674,1.7938058,0.03023783,126.4556,-128.47769,38.134514,STU
4200556541000,2.489918,4.31975219272583,8.03820326655466,-1.15185665581143,-0.4364632,1.6337591,-0.021991149,125.97404,-128.37112,38.066067,STU
4200561585000,2.494962,4.34362320438822,8.0907195919154,-0.956114210624629,-0.4538729,1.4633276,-0.05009095,125.55882,-128.25613,37.981884,STU
4200566508000,2.499885,4.35929983668342,8.12298483668342,-0.796439019296483,-0.48655418,1.2974777,-0.0711658,125.14597,-128.11212,37.870068,STU
4200571570000,2.504947,4.36398468148434,8.12766968148435,-0.679320266888288,-0.54367006,1.1588113,-0.07147124,124.79631,-127.96881,37.75411,STU
4200576541000,2.509918,4.3393984671897,8.09170821386039,-0.569213154673104,-0.59895337,1.0326678,-0.07971791,124.46222,-127.82312,37.63619,STU
4200581595000,2.514972,4.25663649752565,7.97486768442969,-0.466977699046469,-0.6554584,0.93492925,-0.099571034,124.17709,-127.67679,37.514378,STU
4200586539000,2.519916,4.15954795706776,7.85140914527382,-0.37510456344643,-0.7315111,0.84574294,-0.13255776,123.91215,-127.52653,37.388813,STU
4200591635000,2.525012,4.02894521628596,7.70681356679729,-0.295810111835993,-0.81306165,0.75686204,-0.17592919,123.6897,-127.37114,37.25532,STU
4200596535000,2.529912,3.91006231139035,7.57178793044183,-0.210938204096473,-0.8933904,0.6805039,-0.2275473,123.48801,-127.21006,37.11561,STU
4200601612000,2.534989,3.80659142559789,7.44368093816376,-0.0976129755210782,-0.98349303,0.5842926,-0.26145032,123.33168,-127.045456,36.969975,STU
4200607289000,2.540666,3.72936317639752,7.32516671304348,0.0442158990351967,-1.0913107,0.48655418,-0.27030787,123.163284,-126.876175,36.819572,STU
4200611633000,2.54501,3.71812860464488,7.26524907523629,0.171541137067063,-1.1817188,0.35918877,-0.28985557,123.04545,-126.69969,36.65873,STU
4200616583000,2.54996,3.7125094539876,7.1986163730062,0.331948004654828,-1.2959507,0.21624629,-0.30115658,122.94362,-126.52647,36.500107,STU
4200621605000,2.554982,3.80347356213092,7.15313431893454,0.700857824068509,-1.4083499,0.009773844,-0.31948254,122.91454,-126.35222,36.336704,STU
4200626590000,2.559967,3.90501255596047,7.13042090003088,1.05259989518221,-1.5302174,-0.23884831,-0.33475417,122.92498,-126.19005,36.18322,STU
4200631614000,2.564991,4.06351018791435,7.21957559173358,1.33492345622812,-1.6936239,-0.52503866,-0.34208453,123.02499,-126.032776,36.03101,STU
4200636595000,2.569972,4.23090657268331,7.33698989183855,1.51839406997928,-1.8579466,-0.6612616,-0.33444872,123.11396,-54.093174,35.906727,STU
4200641782000,2.575159,4.44170465558078,7.56249513914931,1.36642310905951,-1.9358319,-0.8915578,-0.32895094,123.338005,-54.21177,35.785187,STU
4200646646000,2.580023,4.64996244460149,7.79239423655281,1.16901904381625,-2.1062634,-1.0497719,-0.3182608,123.56056,-54.29252,35.694584,STU
4200651582000,2.584959,4.90051609140165,8.09398684040047,0.765349301060071,-2.1423044,-1.1334605,-0.28710666,123.83693,-54.354584,35.6178,STU
4200656568000,2.589945,5.16575120075901,8.39704277039848,0.3150714943074,-2.1471913,-1.1569787,-0.25045475,124.13596,-54.39288,35.559624,STU
4200661624000,2.595001,5.50111050003795,8.69564993851992,-0.37402245028463,-2.0864103,-1.1151345,-0.19914207,124.43795,-54.40731,35.521008,STU
4200666693000,2.60007,5.83255158611254,8.99708244501454,-1.07103896211733,-1.9669861,-1.0170907,-0.14874569,124.73524,-54.40083,35.5053,STU
4200671612000,2.604989,6.0943985288182,9.31532752727895,-1.82435297898067,-1.7742581,-0.8081747,-0.09712757,124.97293,-54.374283,35.50761,STU
4200677174000,2.610551,6.39047348212759,9.67517285103472,-2.67613841540961,-1.5476271,-0.49846604,-0.05375614,125.13981,-54.3097,35.55781,STU
4200681618000,2.614995,6.40800828629258,10.1372210248497,-3.06480838396794,-1.3063353,-0.16218472,-0.03634648,125.2185,-54.2428,35.61059,STU
4200686540000,2.619917,6.37022315757515,10.6945526967936,-3.4190446746493,-1.0955868,0.15027285,-0.03634648,125.19513,-54.174606,35.663986,STU
4200691704000,2.625081,6.09224837187407,11.2707552886843,-3.36982997487377,-0.93279123,0.36285394,-0.06963864,125.16197,-54.16855,35.671818,STU
4200696582000,2.629959,5.74075918262548,11.8118631698842,-3.16633643706564,-0.8029824,0.48349985,-0.095294975,125.052284,-54.16757,35.67487,STU
4200701614000,2.634991,5.33377864386792,12.3638795174921,-2.77906782624803,-0.66553766,0.5348125,-0.11636983,124.914055,-54.261143,35.591957,STU
4200706592000,2.639969,4.91213969575472,12.9073258598664,-2.31994951809159,-0.52564955,0.5122105,-0.1301143,124.76166,-54.36124,35.50407,STU
4200711619000,2.644996,4.52375350593533,13.3173517335244,-2.21018431424478,-0.37934732,0.44623706,-0.13041973,124.61169,-54.573105,35.30515,STU
4200716588000,2.649965,4.15852234455587,13.6533643409742,-2.2783606519341,-0.26939157,0.37140608,-0.13316862,124.47302,-54.78289,35.10987,STU
4200721591000,2.654968,3.91084346614173,13.9491663858268,-2.60875603228346,-0.18661933,0.3200934,-0.11148291,124.342155,-55.08671,34.817738,STU
4200726600000,2.659977,3.71254149464567,14.2277338354331,-3.04785364929134,-0.13805555,0.27916542,-0.10567969,124.23257,-55.384624,34.532578,STU
4200731611000,2.664988,3.73309349263871,14.3140834697679,-3.36422377640203,-0.105068825,0.23182335,-0.09621128,124.155365,-55.746662,34.185528,STU
4200736631000,2.670008,3.85760439412292,14.3092944927782,-3.62282328332503,-0.079107046,0.20219639,-0.09193522,124.0833,-56.094433,33.851604,STU
4200741708000,2.675085,4.08382701194677,14.2163483621488,-3.80741826667324,-0.076052725,0.12064589,-0.09132435,124.07239,-56.48701,33.475975,STU
4200746924000,2.680301,4.3644873496895,14.0784793792016,-3.96005801559389,-0.04550946,0.02107485,-0.1301143,124.0728,-56.87299,33.10416,STU
4200751590000,2.684967,4.63780184297312,13.9225290974244,-4.08591024076148,-0.0030543262,-0.07269296,-0.14202617,124.10652,-57.223206,32.76591,STU
4200756585000,2.689962,4.9413532974804,13.7395058835386,-4.21536632138858,0.015882496,-0.16584991,-0.17379116,124.1671,-57.573563,32.423225,STU
4200761611000,2.694988,5.30807190356212,13.5273436794092,-4.3120344824066,0.04886922,-0.22602014,-0.1872302,124.24287,-57.861427,32.138546,STU
4200766600000,2.699977,5.73355558271069,13.2886573060382,-4.37430016069722,0.070249505,-0.2574797,-0.21288654,124.33175,-121.85258,31.850452,STU
4200771587000,2.704964,6.17236729079116,13.0187879954791,-4.34038866300737,0.092240654,-0.258396,-0.22907446,124.404205,-121.61459,31.605186,STU
4200776604000,2.709981,6.62096184039312,12.7307434120393,-4.25539190633907,0.129198,-0.28099802,-0.24037547,124.48435,-121.38283,31.360674,STU
4200781621000,2.714998,7.07847684831148,12.4229437958383,-4.1014198696464,0.18325958,-0.32406402,-0.22510384,124.535614,-121.235565,31.195637,STU
4200786582000,2.719959,7.53621651203814,12.1067729290822,-3.90794224934446,0.27000242,-0.398895,-0.21135938,124.596535,-121.093,31.02898,STU
4200791608000,2.724985,7.88337754917857,11.7962639509089,-3.68893728879168,0.41416663,-0.5170974,-0.2049453,124.6901,-121.019684,30.925373,STU
4200796599000,2.729976,8.15287049256343,11.4942461058618,-3.456615723972,0.59528816,-0.64568454,-0.21838433,124.80297,-120.95147,30.8176,STU
4200801575000,2.734952,8.35744449159622,11.2101006153158,-3.24802813550472,0.7987063,-0.7703011,-0.22876903,124.974304,-120.94505,30.763397,STU
4200806597000,2.739974,8.51050586166087,10.9374602059672,-3.05670142292392,1.0146471,-0.88056225,-0.25503623,125.17228,-120.94026,30.69605,STU
4200811583000,2.74496,8.5655337235627,10.6670050068514,-2.88219370840036,1.2473868,-0.9624182,-0.28313604,125.40628,-120.98871,30.66923,STU
4200816594000,2.749971,8.53694301052527,10.3953934817794,-2.72018018200775,1.4700472,-1.0042624,-0.32498032,125.650475,-121.03909,30.625317,STU
4200821569000,2.754946,8.47368323715257,10.1645034753049,-2.59104041945611,1.6850718,-1.0054842,-0.37873647,125.91002,-121.11676,30.592283,STU
4200826599000,2.759976,8.37735939092182,9.96704102379524,-2.48990080837832,1.8774943,-1.0030408,-0.41874814,126.16847,-121.20383,30.545967,STU
4200831612000,2.764989,8.24386331526499,9.78798538448476,-2.4781709994012,2.0616703,-1.0128145,-0.45906523,126.417534,-121.30839,30.496916,STU
4200836584000,2.769961,8.07789534239878,9.62627251756189,-2.54626060419162,2.2580633,-1.0363328,-0.47678033,126.65673,-121.430145,30.438316,STU
4200841575000,2.774952,7.90739017498921,9.46610945125108,-2.63606364255824,2.363743,-1.0259482,-0.52503866,126.87802,-121.545166,30.35592,STU
4200846610000,2.779987,7.725372155522,9.3100939594478,-2.78167821018119,2.5427265,-0.97310835,-0.54305923,127.080215,-121.6949,30.274485,STU
4200851569000,2.784946,7.60445146609014,9.19962542374606,-2.89461011758063,2.701246,-0.9236283,-0.55680364,127.269714,-121.84803,30.167501,STU
4200856595000,2.789972,7.5603780123919,9.14575789195239,-2.96806570329637,2.85213,-0.88270026,-0.53969944,127.43227,-122.03338,30.063559,STU
4200861508000,2.794885,7.54990034519666,9.13655004033799,-2.98336941781511,2.9791899,-0.90041536,-0.5216789,127.591705,-122.24026,29.93979,STU
4200866503000,2.79988,7.57877225918922,9.17985796157328,-2.93043739125842,3.0949488,-0.960891,-0.4813618,127.74124,-122.48719,29.823584,STU
4200871485000,2.804862,7.629069168031,9.30946181740513,-2.91910321615339,3.1871893,-1.071763,-0.44593164,127.91301,-122.76614,29.698061,STU
4200876474000,2.809851,7.70501407927677,9.54204259388039,-2.95707552308762,3.2528574,-1.2495248,-0.3943135,128.11595,-123.085464,29.574802,STU
4200881456000,2.814833,7.81478268529698,9.82721399863681,-2.93565775221032,3.3130276,-1.4541647,-0.33261612,128.34761,-123.43837,29.450542,STU
4200886520000,2.819897,7.97061483485881,10.1861012072055,-2.83649166403116,3.3744197,-1.7183639,-0.27305678,128.64294,-123.82603,29.314837,STU
4200891464000,2.824841,8.08391546001401,10.5531662859574,-2.74046596076469,3.4080172,-2.0069978,-0.17806722,129.01762,-124.248245,29.171204,STU
4200896583000,2.82996,8.13789014272846,10.9604288228406,-2.64233036032429,3.3872478,-2.346028,-0.10140363,129.47495,-124.69218,29.001825,STU
4200901445000,2.834822,8.1113873679236,11.2907345347051,-2.51190123993305,3.3325753,-2.7052166,-0.038179077,130.00002,-125.14096,28.812935,STU
4200906522000,2.839899,7.95820382601162,11.5444450759082,-2.3156346269174,3.2241468,-3.0283644,0.006414085,130.60019,-125.59788,28.599142,STU
4200911446000,2.844823,7.79321454271673,11.7259725616277,-2.0544011199135,3.0219505,-3.275765,0.0067195175,131.23288,-125.998764,28.335243,STU
4200916513000,2.84989,7.59289223664242,11.792746497641,-1.65375660737173,2.7305677,-3.4193182,-0.0070249503,131.90668,-126.37546,28.047924,STU
4200921486000,2.854863,7.38855686867143,11.7994849802876,-1.30905983347078,2.3313673,-3.444669,-0.026572637,132.54565,-126.63835,27.711563,STU
4200926524000,2.859901,7.16534382741627,11.6830262621945,-1.06158466990647,1.8390098,-3.3991597,-0.07971791,133.17186,-126.8227,27.354563,STU
4200931716000,2.865093,7.01153749573871,11.5509115708857,-0.817604410210803,1.3115277,-3.18047,-0.10873401,133.6547,-126.850525,27.000126,STU
4200936496000,2.869873,6.99082958259296,11.410097259839,-0.61052425814349,1.065349,-2.8777862,-0.15699236,134.07256,-126.8291,26.653402,STU
4200941527000,2.874904,6.97954072354819,11.2376322628218,-0.395961114294053,0.6267477,-2.5772405,-0.19120082,134.43591,-126.65088,26.327019,STU
4200946540000,2.879917,7.0370245574536,10.9071003929355,-0.204348531521253,0.30298916,-2.3099868,-0.18295415,134.7138,-126.45482,26.04617,STU
4200951604000,2.884981,7.08272161951656,10.5527754010743,-0.0101855376893465,0.07727446,-2.048842,-0.18784106,134.95474,-126.19502,25.809547,STU
4200956633000,2.89001,7.05397683000099,10.0784876246891,0.186236650565204,-0.045814894,-1.7641789,-0.23884831,135.10608,-125.89607,25.612143,STU
4200961571000,2.894948,7.01750911599726,9.61680059562201,0.394689292870126,-0.0729984,-1.5384641,-0.31764993,135.23239,-125.59079,25.461456,STU
4200966651000,2.900028,6.92242430411414,9.16990158262484,0.717977871703313,-0.009468411,-1.3903292,-0.40408736,135.29486,-125.27943,25.33088,STU
4200971556000,2.904933,6.83199723815075,8.74934908732589,1.001182624228,0.124311075,-1.3707817,-0.49846604,135.36,-124.984856,25.212698,STU
4200976596000,2.909973,6.75570832695841,8.44896100474168,0.943965883577991,0.31948254,-1.3765849,-0.5876524,135.38434,-124.7081,25.096281,STU
4200981663000,2.91504,6.68566109735335,8.15851802646652,0.869297164404503,0.55924714,-1.1725558,-0.66675943,135.40898,-124.471245,25.005384,STU
4200986611000,2.919988,6.69970000898677,8.01812891013233,0.583839079522023,0.8958339,-0.72173727,-0.7675522,135.35028,-124.27309,24.920834,STU
4200991835000,2.925212,6.68451724632214,7.90882072420327,0.334939128499569,1.3622295,-0.42760566,-0.838718,135.30269,-124.16145,24.832579,STU
4200996603000,2.92998,6.35414466186046,8.21952840930233,0.661378741302326,1.8790215,-0.48349985,-0.904386,135.21758,-124.10657,24.735239,STU
4201002105000,2.935482,5.97291354614987,8.57806735297158,1.03807143208269,2.3976462,-0.8573494,-0.9954049,135.14607,-124.14789,24.60305,STU
4201006616000,2.939993,5.74739860441492,8.96126249790496,1.01707646113439,2.9361238,-1.464244,-1.0781772,135.15363,-124.280685,24.422165,STU
4201011514000,2.944891,5.52688428727644,9.40229073173224,0.902025569647419,3.5097263,-2.196977,-1.17897,135.28708,-124.49989,24.1533,STU
4201016613000,2.94999,5.55253597062471,9.45536985552985,0.161016206682092,4.096157,-2.7708848,-1.2596041,135.6139,-124.77423,23.77109,STU
4201021583000,2.95496,5.66266270713559,9.37167376760759,-0.768452540564553,4.6550984,-3.0445523,-1.3213016,136.03188,-125.15225,23.315653,STU
4201026548000,2.959925,5.90035627390101,8.91486216764013,-4.00628873562865,5.1401258,-3.0384438,-1.3771957,136.52731,-125.61104,22.756815,STU
4201031590000,2.964967,6.23186351152782,8.18752512265601,-8.92447128920996,5.326745,-2.3539693,-1.3991868,136.88187,-126.134125,22.24779,STU
4201036590000,2.969967,6.35540753715953,7.8128967911284,-10.3483884653697,5.5619283,-0.7629707,-1.412015,136.9343,-126.85978,21.836779,STU
4201041609000,2.974986,6.36475884226654,7.63054519420233,-9.8480908348249,5.4507504,0.3717115,-1.4019357,136.90486,-127.560104,21.468908,STU
4201046582000,2.979959,6.4433420209694,7.55034926613268,-8.66614113267612,5.14318,0.8854492,-1.3927728,136.7118,-128.84517,21.142538,STU
4201051599000,2.984976,6.57162472230438,7.54048146906962,-6.98859656962415,4.781853,0.9978484,-1.352761,136.32204,-130.09686,20.943172,STU
4201056555000,2.989932,6.66960204597876,7.43288973174507,-5.33797544506829,4.4318275,0.81581056,-1.2858714,135.88559,-131.24725,20.814548,STU
4201061584000,2.994961,6.75242970141629,7.26723477699545,-3.66680872878098,4.1856484,0.4841107,-1.2241739,135.45941,-132.33228,20.690916,STU
4201066575000,2.999952,6.50780437355991,6.84487377258065,-2.53047820823733,3.9883392,0.12950343,-1.1673635,135.09923,-133.18942,20.612923,STU
4201071968000,3.005345,6.06153947426075,6.24489527392473,-1.59332200772849,3.830125,-0.16829337,-1.1053606,134.81378,-133.9972,20.502731,STU
4201076613000,3.00999,5.60801837441071,5.66735604923314,-0.9737971764035,3.7278051,-0.39706242,-1.102001,134.60359,-134.59358,20.389303,STU
4201081615000,3.014992,5.0754868159753,5.00662263869274,-0.426473012607308,3.6694674,-0.5299256,-1.1407908,134.44022,-135.15663,20.24383,STU
4201086591000,3.019968,4.55094335597637,4.48910238016273,-0.303566402293685,3.6413677,-0.6291912,-1.1578951,134.3429,-135.59648,20.019026,STU
4201091698000,3.025075,4.01561899877954,4.03905082479659,-0.422000997132894,3.5585954,-0.72295904,-1.1496484,134.26685,-136.0016,19.769785,STU
4201096641000,3.030018,3.48291669694824,3.69575345142116,-0.707876656471527,3.4352007,-0.7330383,-1.0919216,134.22008,-136.38893,19.494764,STU
4201101616000,3.034993,2.93647896108507,3.41540706616136,-1.11651705369901,3.256828,-0.66767573,-0.9642508,134.18687,-136.7485,19.236977,STU
4201106599000,3.039976,2.41267009371717,3.10332567196512,-1.43820943305916,3.0433307,-0.605062,-0.80878556,134.18474,-137.11873,18.931532,STU
4201111620000,3.044997,1.90279886348231,2.76499998421366,-1.69552759751263,2.7586675,-0.5338962,-0.6704246,134.18178,-137.43623,18.667728,STU
4201116597000,3.049974,1.52886319644071,2.45688470516897,-1.88355547435513,2.4309382,-0.45356745,-0.55924714,134.18732,-137.80148,18.39705,STU
4201121596000,3.054973,1.26081983523295,2.16969535388922,-2.017577104979,2.0912971,-0.36377025,-0.47616947,134.19205,-138.09955,18.167364,STU
4201126598000,3.059975,1.10618171449574,1.97551696806822,-2.09360932696266,1.8164078,-0.31398472,-0.4465425,134.20154,-138.42978,17.917372,STU
4201131615000,3.064992,1.04496354586886,1.85778976609821,-2.12186394197785,1.6862935,-0.2012801,-0.4016439,134.1949,-138.71793,17.71928,STU
4201136600000,3.069977,1.05851452570552,1.80284930974354,-2.20068751339737,1.4941764,-0.09285152,-0.36987892,134.1784,-138.9902,17.519968,STU
4201141774000,3.075151,1.14683095034162,1.80775577208635,-2.33316209911872,1.3622295,0.014049901,-0.3295618,134.14719,-139.24782,17.354204,STU
4201146621000,3.079998,1.22977488092348,1.83818369545228,-2.45992522337546,1.2831224,0.12705997,-0.26847526,134.09753,-139.49976,17.223728,STU
4201151594000,3.084971,1.31508268990944,1.89505558460543,-2.59262623208279,1.2620476,0.26633725,-0.23090707,134.02278,-139.73186,17.123833,STU
4201156597000,3.089974,1.34953006903618,1.92908881238553,-2.74536459105087,1.282817,0.41141775,-0.18509217,133.95233,-140.00058,17.082756,STU
4201161605000,3.094982,1.32778711210445,1.93778599515822,-2.91930833731979,1.3316863,0.5323691,-0.15821409,133.8626,-140.27008,17.068306,STU
4201166570000,3.099947,1.26535173495219,1.92624705958956,-3.12503950339529,1.4049901,0.6291912,-0.15027285,133.76047,-140.57172,17.095776,STU
4201171605000,3.104982,1.08919895720425,1.85889453487697,-3.42553541201246,1.4456125,0.7134906,-0.16371189,133.6388,-140.874,17.145332,STU
4201176601000,3.109978,0.880686067964498,1.76961418891056,-3.6969930180435,1.4727961,0.8191703,-0.17867808,133.50475,-141.21735,17.210379,STU
4201181618000,3.114995,0.622949194435775,1.64777492732859,-3.93129915104847,1.4498887,0.93859446,-0.19914207,133.34871,-141.55115,17.290419,STU
4201186565000,3.119942,0.386916920820007,1.52161662663142,-4.12729976957707,1.3814718,1.0415252,-0.22449298,133.17659,-141.91473,17.347254,STU
4201191679000,3.125056,0.176546765847431,1.38002134703453,-4.26484951441434,1.244027,1.1404854,-0.23823744,132.9822,-142.2476,17.424253,STU
4201197113000,3.13049,-0.0448764929449192,1.22245726062604,-4.4087094792402,1.0277808,1.1850786,-0.22937989,132.78987,-142.57281,17.448572,STU
4201201615000,3.134992,-0.185041589077745,0.946131768391232,-4.48079437753112,0.7486154,1.1575897,-0.1777618,132.60133,-142.84337,17.479883,STU
4201206585000,3.139962,-0.339777379344325,0.641081191668215,-4.5603727748003,0.43982297,1.0690142,-0.0983493,132.43835,-143.08252,17.45446,STU
4201211620000,3.144997,-0.332090896427648,0.220787533995027,-4.79979251422178,0.12889257,0.95905846,-0.0061086523,132.30048,-143.25134,17.425749,STU
4201216518000,3.149895,-0.280775220218797,-0.217728306514172,-5.07503113053207,-0.20525073,0.8533788,0.08307768,132.19658,-143.3389,17.388525,STU
4201221711000,3.155088,-0.0826959376751561,-0.575407516591022,-5.61205893404023,-0.53786683,0.8054258,0.18478674,132.12857,-143.41536,17.33093,STU
4201226524000,3.159901,0.141123844112576,-0.876879060380537,-6.1784601287583,-0.872621,0.75655663,0.24373524,132.08957,-143.4081,17.255465,STU
4201231600000,3.164977,0.424060777506694,-1.04038717105028,-6.75458933338292,-1.0390818,0.7122689,0.33444872,132.07036,-143.49017,17.216887,STU
4201236580000,3.169957,0.717320215114549,-1.14917698241595,-7.31272820455222,-1.382388,0.6417139,0.40500367,132.07321,-143.4412,17.16541,STU
4201241719000,3.175096,0.979370906811623,-0.982598601917375,-7.91976361972722,-1.7162259,0.59681535,0.4373795,132.07993,-143.48407,17.144117,STU
4201246560000,3.179937,1.21305610568788,-0.735167140007907,-8.50168578997826,-2.064419,0.6264423,0.44684792,132.09692,-143.4372,17.129412,STU
4201251592000,3.184969,1.50248750394737,-0.457040524210526,-8.57779494078947,-2.4544566,0.8210029,0.46792278,132.09764,-143.38536,17.178131,STU
4201257210000,3.190587,1.84675374414203,-0.13701842480173,-8.42263313239005,-2.8805351,1.1377366,0.5122105,132.07838,-143.2359,17.264444,STU
4201261623000,3.195,2.14523891769156,-0.0911281823689614,-7.80335007063655,-3.2806518,1.4309518,0.56077427,132.03665,-143.03275,17.400593,STU
4201266618000,3.199995,2.50712491326056,-0.215203350773803,-6.67633345154004,-3.5537086,1.5891659,0.57971114,131.96683,-142.75482,17.576391,STU
4201271596000,3.204973,2.88187736373898,-0.402623209920784,-5.58359217656204,-3.6780195,1.5964963,0.54336464,131.87547,-142.36313,17.851898,STU
4201276608000,3.209985,3.26685752557679,-0.626006809203882,-4.49994392944846,-3.6074648,1.5509869,0.47067168,131.76396,-141.95772,18.14152,STU
4201281567000,3.214944,3.60881305709104,-0.358263575807037,-3.26595141566921,-3.4556646,1.5717562,0.3830125,131.63829,-141.46141,18.577238,STU
4201286641000,3.220018,3.93487944075082,0.214555918443961,-1.90440369695321,-3.3560936,1.5882497,0.34972036,131.52129,-140.98111,18.993128,STU
4201291751000,3.225128,4.07303415377153,2.55239833997228,-0.978952143139972,-3.418402,1.4844025,0.3652974,131.4328,-140.42874,19.538208,STU
4201296624000,3.230001,3.97602146449218,6.89949628823995,-0.63247783938824,-3.6410623,1.1957687,0.43157628,131.38661,-139.88011,20.049154,STU
4201301510000,3.234887,4.40961195046172,10.4698989777799,-0.393124420998461,-4.0381246,0.8222246,0.54702985,131.42221,-139.057,20.688225,STU
4201306615000,3.239992,5.72167404597922,12.9247248497499,-0.317880718180069,-4.518265,0.5342017,0.7107417,131.5266,-138.20062,21.3118,STU
4201311524000,3.244901,7.28474532235617,14.9232167161619,-0.664368341497599,-5.0084844,0.3051272,0.94897914,131.55443,-136.67642,21.803598,STU
4201316616000,3.249993,9.59323693501911,16.1706628912085,-1.97872712957954,-5.3976054,-0.053145275,1.1749994,131.69101,-135.14636,22.235619,STU
4201321528000,3.254905,11.6030406955831,17.2118085422333,-3.29418301672457,-5.5381045,-0.3359759,1.2620476,131.81052,-133.41895,22.795448,STU
4201327217000,3.260594,13.2577932084367,17.9148068833747,-4.96515863771712,-5.489235,-1.1523973,1.575116,132.21652,-131.83936,23.271732,STU
4201331541000,3.264918,14.0597001966383,18.2892292707574,-5.93513019927096,-4.8994446,-1.2415836,1.6533068,132.54524,-130.59955,23.999884,STU
4201336646000,3.270023,13.7181267969826,18.2793288996557,-6.23215063669502,-4.6401324,-1.1478158,1.5506815,133.05127,-129.4498,24.61125,STU
4201341612000,3.274989,13.1092044470515,17.8814141088188,-6.37831428537276,-4.1395283,-0.91721416,1.1670581,133.59637,-128.72028,25.246334,STU
4201346689000,3.280066,11.8133786401629,16.529622625819,-6.18028116681424,-3.6911533,-0.68966687,0.6930266,134.08594,-128.08069,25.802572,STU
4201351806000,3.285183,10.4965239376331,15.1500363170064,-5.96677013827198,-3.2904255,-0.5198463,0.226631,134.47322,-127.513115,26.19523,STU
4201356608000,3.289985,9.13008734824054,13.6483548380489,-5.59834531979515,-2.9043589,-0.36651915,-0.11759156,134.75119,-127.0091,26.506733,STU
4201361660000,3.295037,7.72945985262518,12.0892826949118,-5.20934820277721,-2.6190848,-0.17654006,-0.35002577,134.94644,-126.53354,26.657911,STU
4201366619000,3.299996,6.82449512933306,10.8232951315629,-4.80981585767282,-2.4275784,0.06780604,-0.43035457,135.05595,-126.10014,26.784025,STU
4201371571000,3.304948,5.95368414683816,9.58704048981779,-4.40831804844587,-2.3328943,0.33505958,-0.39492437,135.09425,-125.678894,26.825504,STU
4201376617000,3.309994,5.44044453736724,8.64531666578973,-3.97041635473059,-2.2547035,0.57360244,-0.2910773,135.07071,-125.30783,26.89291,STU
4201381789000,3.315166,4.94362224987566,7.69832305397394,-3.51816508894857,-2.1978931,0.7620544,-0.14538592,135.00113,-124.979004,26.975565,STU
4201386650000,3.320027,4.84174602790212,7.03612666824828,-3.05046019994032,-2.1267273,0.8762862,0.024129177,134.90442,-124.713165,27.111902,STU
4201391866000,3.325243,4.75039356274293,6.35363837493783,-2.56598985318228,-2.0570886,0.9239337,0.20372356,134.79616,-124.500694,27.299671,STU
4201397081000,3.330458,4.88379573166621,6.02243284592429,-2.29918522713457,-2.012801,0.9642508,0.3848451,134.6826,-124.351616,27.543385,STU
4201401554000,3.334931,4.99821718930644,5.73835186197845,-2.07034206465875,-1.964848,1.0067059,0.54428095,134.57259,-124.2655,27.864353,STU
4201406625000,3.340002,5.33335841287088,5.74324279807653,-1.95885770415388,-1.9172006,1.0635164,0.66767573,134.46774,-124.23583,28.226389,STU
4201411515000,3.344892,5.69270922349089,5.80553031127481,-1.87740488309802,-1.8512272,1.1227703,0.7779369,134.37003,-124.26511,28.62757,STU
4201416601000,3.349978,6.07124637523917,6.07123395807541,-1.78681728414932,-1.783421,1.1545353,0.8579602,134.24281,-124.32004,29.073364,STU
4201421531000,3.354908,6.43878827900957,6.35463973832302,-1.69825294603264,-1.7369953,1.207986,0.88361657,134.10039,-124.40932,29.536077,STU
4201426667000,3.360044,6.8715694338131,6.80780311023718,-1.58900443328603,-1.7110336,1.2287555,0.9062186,133.94638,-124.53392,30.037802,STU
4201431518000,3.364895,7.29536225390229,7.28339272129536,-1.48070185102372,-1.6691893,1.2168436,0.91324353,133.79018,-124.68315,30.536892,STU
4201436659000,3.370036,7.62142548841803,7.7112951185132,-1.33815279824026,-1.6578883,1.1658363,0.9117164,133.63153,-124.8469,31.053745,STU
4201441625000,3.375002,7.90324041515532,8.10412810073622,-1.19297536850422,-1.6639969,1.0998629,0.86254174,133.48077,-125.01598,31.548456,STU
4201446683000,3.38006,8.15046325966966,8.5681984286013,-1.04860327489024,-1.6691893,0.9868528,0.77457714,133.34799,-125.17171,32.023766,STU
4201451592000,3.384969,8.36178888448672,9.064567298871,-0.91099598914907,-1.6621643,0.8527679,0.66920286,133.24106,-125.32245,32.46471,STU
4201456612000,3.389989,8.43099354732794,9.51943239528693,-0.843391648909485,-1.6740762,0.67073005,0.59315014,133.16711,-125.44701,32.870968,STU
4201461628000,3.395005,8.4215209139223,9.94571474669691,-0.814972838670874,-1.6780468,0.46883908,0.56291234,133.14229,-125.56947,33.242565,STU
4201466664000,3.400041,8.23843570727143,10.2180894478796,-0.8973369607485,-1.670411,0.29749137,0.55833083,133.18103,-125.67308,33.57522,STU
4201471596000,3.404973,7.95983232893318,10.3958190058985,-1.04144196549578,-1.6316211,0.15454891,0.5653558,133.27611,-125.785385,33.886963,STU
4201476613000,3.40999,7.51683944226555,10.3627207259021,-1.32012082857574,-1.575116,0.05131268,0.5647449,133.37509,-125.8345,34.120445,STU
4201481616000,3.414993,6.99191320689517,10.2182452092673,-1.66686111305659,-1.4972308,0.02443461,0.56505036,133.4961,-125.90209,34.350845,STU
4201486659000,3.420036,6.46272532259588,10.0017937305876,-2.00836476722086,-1.3863586,0.028099801,0.5448918,133.62007,-125.926254,34.508846,STU
4201491682000,3.425059,5.93560474650482,9.75186650321179,-2.34463131953524,-1.2626585,0.06627888,0.5510005,133.74155,-125.97339,34.67519,STU
4201496707000,3.430084,5.36612433834016,9.45061516393443,-2.82602144514344,-1.1560625,0.18936823,0.54519725,133.83685,-125.96652,34.76017,STU
4201501614000,3.434991,4.77870681529713,9.11838713114754,-3.40380908123975,-1.0772609,0.39278635,0.54519725,133.88972,-125.976326,34.856316,STU
4201506599000,3.439976,4.30117037374333,8.77157705578957,-3.8854529460264,-1.0280862,0.63132924,0.53969944,133.88211,-125.94353,34.891468,STU
4201511607000,3.444984,3.90161058851446,8.41691146148086,-4.29848103072171,-0.9987647,0.8863655,0.528093,133.79903,-125.91759,34.936222,STU
4201516606000,3.449983,3.64568893533873,8.08891084762386,-4.42630510510617,-1.0036516,1.0158689,0.50854534,133.67792,-125.84985,34.91623,STU
4201521599000,3.454976,3.55624363159252,7.79156548017189,-4.22324002229019,-1.0170907,1.221425,0.4886922,133.44638,-125.783035,34.90728,STU
4201526658000,3.460035,3.46561599457027,7.49028965122346,-4.01749072247725,-1.0537425,1.3408492,0.4529566,133.20656,-125.6871,34.85247,STU
4201531606000,3.464983,3.37697682714864,7.19562414388271,-3.81625578761375,-1.0809261,1.3900238,0.39584067,132.92445,-125.5811,34.790634,STU
4201536586000,3.469963,3.35231778636364,6.94405537272727,-3.53514759090909,-1.108415,1.3686435,0.33567044,132.62022,-125.459236,34.71525,STU
4201541687000,3.475064,3.39212771040384,6.73173543913437,-3.16801092167693,-1.108415,1.3203852,0.28527406,132.31404,-125.32651,34.62668,STU
4201546514000,3.479891,3.42974290976895,6.55502140697203,-2.86139995389137,-1.0861185,1.2702943,0.25228736,131.99599,-125.210464,34.56409,STU
4201551594000,3.484971,3.46918364264289,6.43176911674098,-2.64447576864613,-1.0418307,1.2751812,0.22632557,131.68199,-125.08595,34.4883,STU
4201556547000,3.489924,3.5171557342151,6.33645021753234,-2.42747544113729,-0.9691377,1.284955,0.22327125,131.36206,-124.986496,34.44361,STU
4201561631000,3.495008,3.58766430583124,6.29414513346206,-2.19244704905387,-0.8561276,1.2687671,0.22815818,131.05722,-124.888824,34.39207,STU
4201566549000,3.499926,3.64665799455253,6.2578951118955,-2.03991837971095,-0.7535023,1.2513574,0.24831672,130.73174,-124.81302,34.364048,STU
4201571596000,3.504973,3.67800307211414,6.23550586429498,-2.12052010124143,-0.64599,1.2483032,0.26328292,130.41533,-124.744385,34.334618,STU
4201576589000,3.509966,3.69744692363748,6.2267584336089,-2.19572198015922,-0.5561928,1.2922854,0.28802297,130.07944,-124.70396,34.334957,STU
4201582260000,3.515637,3.58658738187385,6.37087551377832,-2.22897980796081,-0.4529566,1.3949108,0.30543262,129.733,-124.6718,34.337303,STU
4201586642000,3.520019,3.50413704100156,6.49335967683881,-2.23142596056338,-0.36957347,1.5265522,0.30604348,129.34332,-124.648254,34.344997,STU
4201591724000,3.525101,3.42797230573161,6.70281298464398,-2.09337718838028,-0.33567044,1.6600263,0.30482176,128.92679,-124.630905,34.357075,STU
4201596551000,3.529928,3.35563668780893,6.90719486962977,-1.95608219660057,-0.34238997,1.8014416,0.29046643,128.45406,-124.57843,34.333076,STU
4201601604000,3.534981,3.28000260194393,7.18609539466641,-1.73863428611898,-0.3915646,1.8875736,0.27214047,127.965614,-124.52432,34.30678,STU
4201606754000,3.540131,3.20253610699507,7.46247893812808,-1.51085205219212,-0.46731192,1.9107865,0.2742785,127.45374,-124.43473,34.246876,STU
4201611615000,3.544992,3.12456576277833,7.62300611176355,-1.21731683164532,-0.5540548,1.921782,0.24923302,126.93151,-124.333145,34.174473,STU
4201616916000,3.550293,3.04187137605919,7.79660335833104,-0.911944185791747,-0.62949663,1.8096883,0.20922135,126.411736,-124.201225,34.071754,STU
4201621603000,3.55498,2.99649401390497,7.93273527249334,-0.8170641821294,-0.68752885,1.7293595,0.18051068,125.89347,-124.06775,33.96559,STU
4201626579000,3.559956,2.94831868766657,8.07726106828417,-0.716333885943388,-0.7150178,1.5876387,0.12980886,125.38283,-123.91812,33.842,STU
4201631612000,3.564989,2.98809669782196,8.16600074732741,-0.679099817574183,-0.7632761,1.4740179,0.08582657,124.90362,-123.764824,33.710987,STU
4201636590000,3.569967,3.04525322942352,8.24220955559996,-0.655284596073534,-0.7703011,1.3860532,0.054061573,124.476456,-123.605225,33.568222,STU
4201641717000,3.575094,3.18463912497775,8.31597507416197,-0.606659913527143,-0.7449502,1.3081679,0.029321533,124.0591,-123.41811,33.394924,STU
4201646545000,3.579922,3.33094380449916,8.38455578057945,-0.556367697844359,-0.72021013,1.244638,0.018936822,123.67794,-123.23099,33.217857,STU
4201652242000,3.585619,3.46343855814413,8.4476327591313,-0.46606811721619,-0.69027776,1.1850786,0.013744468,123.31362,-123.040634,33.034428,STU
4201656532000,3.589909,3.55672022497532,8.4922457946693,-0.393065047462981,-0.66859204,1.1346822,0.025961773,122.977936,-122.85787,32.85579,STU
4201661618000,3.594995,3.6009281865512,8.41971393774834,-0.323569218875191,-0.65087694,1.0818423,0.03176499,122.65855,-122.69417,32.694,STU
4201666516000,3.599893,3.62482383932756,8.31457236688742,-0.26144047674376,-0.6609562,1.0195341,0.024129177,122.368645,-57.46458,32.535114,STU
4201671590000,3.604967,3.67122511381141,8.22541637177878,-0.105234878073545,-0.68936145,0.9502009,0.003970624,122.08414,-57.60556,32.39201,STU
4201676525000,3.609902,3.72140140837757,8.1433098984654,0.0681015313222662,-0.732122,0.8491027,-0.028405234,121.83994,-57.746952,32.24677,STU
4201681613000,3.61499,3.81251736460784,8.08940188186275,0.573247010843137,-0.8222246,0.711658,-0.06719518,121.62182,-57.876778,32.110786,STU
4201686603000,3.61998,3.91559011970588,8.04723589264706,1.18231316288235,-0.94897914,0.46578476,-0.102319926,121.48181,-58.008663,31.97137,STU
4201691697000,3.625074,4.00575931995208,8.09505581533301,1.72727604735985,-1.1582005,0.11942416,-0.17104226,121.39747,-58.13452,31.833986,STU
4201696519000,3.629896,4.08541695776713,8.17471331451845,2.21407337496885,-1.4416419,-0.28619036,-0.26267207,121.42145,-58.267433,31.68703,STU
4201701610000,3.634987,4.3084252620889,8.48994580735499,2.0920579662647,-1.7751744,-0.6200282,-0.3454443,121.47713,-58.356644,31.571064,STU
4201706617000,3.639994,4.614272422942,8.94393759318318,1.57594110687662,-2.107485,-0.8170323,-0.38240165,121.62584,-58.44234,31.450243,STU
4201711618000,3.644995,5.00991982527146,9.47493855490678,0.824138031165745,-2.3374758,-0.8558222,-0.38026363,121.784836,-58.49328,31.343433,STU
4201716621000,3.649998,5.46146384265519,10.0540929483712,-0.0740422051259987,-2.4275784,-0.86284715,-0.37323865,122.00115,-58.530975,31.236076,STU
4201722129000,3.655506,5.84921931271212,10.6741622676392,-1.14716691555225,-2.510656,-0.7431176,-0.321926,122.19914,-58.554504,31.134375,STU
4201726672000,3.660049,6.12985688246502,11.1793098751613,-2.06247666101419,-2.427273,-0.68875057,-0.3032946,122.422,-58.57027,31.03577,STU
4201731611000,3.664988,6.24700334750075,11.7927362802977,-3.094511623685,-2.3408356,-0.58368176,-0.27916542,122.62479,-58.576786,30.959398,STU
4201736623000,3.67,6.266312981052,12.4492639218546,-4.16136953268631,-2.0888536,-0.47494772,-0.2687807,122.804634,-58.580997,30.891665,STU
4201741576000,3.674953,6.10278338410691,13.0519750571047,-5.15296954856125,-1.7553213,-0.35063666,-0.24098633,122.97922,-58.669487,30.773834,STU
4201746595000,3.679972,5.84157843811136,13.6386158978174,-6.12499460608463,-1.3775011,-0.17562376,-0.21410827,123.095505,-58.76257,30.661003,STU
4201751564000,3.684941,5.48498250405028,14.1857787541899,-6.82800914804469,-0.99173975,0.022907447,-0.16310102,123.198456,-58.972305,30.481054,STU
4201756561000,3.689938,4.98370488973464,14.6870560195531,-7.15742012182761,-0.63285637,0.19364429,-0.1142318,123.24237,-59.181614,30.31174,STU
4201761545000,3.694922,4.49295572770524,15.049815109001,-7.17429567683482,-0.3472769,0.26145032,-0.069027774,123.25658,-59.52281,30.051046,STU
4201766576000,3.699953,4.01162303841741,15.2070828751731,-6.71679136609298,-0.13469578,0.18784106,-0.042760566,123.2474,-59.846977,29.808289,STU
4201771578000,3.704955,3.60405332865598,15.2478639364261,-6.1789435106911,0.024129177,0.017715093,-0.02565634,123.23,-60.269146,29.4733,STU
4201776552000,3.709929,3.31304133008782,15.1023573436426,-5.51052517884689,0.14049901,-0.21960606,-0.03940081,123.24582,-60.667664,29.154135,STU
4201781546000,3.714923,3.16090744013366,14.9196915337923,-4.90638211913974,0.22418754,-0.4700608,-0.0693332,123.306206,-61.101444,28.783955,STU
4201786594000,3.719971,3.36981953271192,14.6403323829958,-4.4691242120195,0.2593123,-0.66706485,-0.11148291,123.41519,-61.513065,28.423653,STU
4201791797000,3.725174,3.58514631909954,14.3523954452791,-4.01844020038189,0.25320363,-0.7984009,-0.1459968,123.55297,-61.912537,28.056923,STU
4201796568000,3.729945,3.78259473306367,14.0883656298176,-3.60517604133461,0.21624629,-0.8206975,-0.18478674,123.70969,-62.300316,27.690039,STU
4201801554000,3.734931,4.14445847160883,13.7933734001873,-3.24131472082019,0.1423316,-0.7837401,-0.21838433,123.872,-62.67648,27.322916,STU
4201806561000,3.739938,4.86769513943218,13.4530264745662,-3.0333252044164,0.09712757,-0.77091193,-0.2434298,124.03903,-116.96089,26.958612,STU
4201811554000,3.744931,5.60987250414692,13.10186842891,-2.84260689840047,0.09590584,-0.7593055,-0.24709499,124.14455,-116.706924,26.697493,STU
4201816558000,3.749935,6.40952455011848,12.7186039265403,-2.69592517209716,0.14172074,-0.7840455,-0.25992316,124.25105,-116.455246,26.433949,STU
4201821559000,3.754936,7.14243258023941,12.3256057617329,-2.59590799298879,0.26297748,-0.79626286,-0.27183503,124.25543,-116.31084,26.276953,STU
4201826558000,3.759935,7.674573233232,11.9026217833935,-2.63684180534866,0.47983465,-0.8374963,-0.28496864,124.27422,-116.17151,26.119442,STU
4201831549000,3.764926,8.16993991505755,11.4133553876153,-2.68800735180253,0.7846564,-0.8888089,-0.28405234,124.41354,-116.144684,26.066988,STU
4201836562000,3.769939,8.44850163911348,10.513737656901,-2.8021720490916,1.1496484,-0.95264435,-0.2947425,124.562256,-116.12165,26.006037,STU
4201851906000,3.785283,8.42808975426092,9.04198609751059,-3.09404468950522,2.1093178,-1.0384709,-0.3915646,125.28922,-116.431046,26.076052,STU
4201856583000,3.78996,8.25690314812519,8.88930651709534,-3.1079246206177,2.3603833,-1.0070114,-0.43279803,125.56438,-116.61307,26.118374,STU
4201861741000,3.795118,8.07205443239043,8.73644146409698,-3.12044337115325,2.5763242,-0.9822713,-0.47342056,125.837776,-116.816696,26.14354,STU
4201866495000,3.799872,7.94468309304735,8.76474626090561,-3.10157367081132,2.7528641,-0.97158116,-0.5021312,126.09243,-117.04489,26.1559,STU
4201871470000,3.804847,7.82516056865849,8.80697133478433,-3.07190784487535,2.888171,-0.979217,-0.54183745,126.33435,-117.28284,26.136759,STU
4201876502000,3.809879,7.83469588009497,8.96906814444005,-2.94795128531856,3.0030136,-1.0051788,-0.5656612,126.56476,-117.55257,26.108997,STU
4201881495000,3.814872,7.8467792063899,9.13474091213884,-2.82798655981659,3.0808988,-1.0735956,-0.5708536,126.788765,-117.8331,26.052986,STU
4201886498000,3.819875,7.88930100631101,9.35679991322355,-2.74294261463367,3.1209106,-1.1951579,-0.56169057,127.02298,-118.141624,25.985685,STU
4201891591000,3.824968,7.94093144554455,9.58864137156735,-2.68187445475434,3.1004465,-1.3594806,-0.5271767,127.28179,-118.46443,25.906523,STU
4201896500000,3.829877,8.09901582673267,9.88724484606763,-2.95413086864375,3.0567696,-1.5344934,-0.48197266,127.568146,-118.813324,25.81973,STU
4201901551000,3.834928,8.26167302970297,10.194485862507,-3.2342626972352,2.9886582,-1.6022996,-0.42424592,127.84819,-119.17005,25.731918,STU
4201907278000,3.840655,8.50077130583194,10.6410845008374,-3.43221111037336,2.9104674,-1.7266107,-0.398895,128.18489,-119.537,25.626678,STU
4201911529000,3.844906,8.68124574987686,10.9779700738843,-3.57258012706137,2.8780916,-1.8490891,-0.33017266,128.53433,-119.93752,25.53859,STU
4201916577000,3.849954,8.80418699679455,11.3410060739257,-3.55691313565061,2.82403,-2.0302107,-0.24709499,128.93169,-120.3546,25.43591,STU
4201921524000,3.854901,8.91333839171592,11.6921890598017,-3.51894735119703,2.7543914,-2.284636,-0.16340645,129.37828,-120.78856,25.328657,STU
4201926614000,3.859991,8.73848985295807,11.8895788735401,-3.26522900703619,2.6688702,-2.59465,-0.09162979,129.912,-121.234726,25.206818,STU
4201931674000,3.865051,8.52973651579552,12.0658597600038,-2.986891078834,2.5549438,-2.9083295,-0.026572637,130.51208,-121.685616,25.073036,STU
4201936590000,3.869967,8.21393030342005,12.1258525042385,-2.64420929090909,2.3866506,-3.1874948,-0.016493361,131.17204,-122.09451,24.900972,STU
4201941620000,3.874997,7.86659711429407,12.1634017997662,-2.2781015030303,2.1884248,-3.349374,-0.038789943,131.87189,-122.48477,24.709936,STU
4201946587000,3.879964,7.48957241054078,12.0542867507116,-1.96813203475317,1.9236146,-3.3783903,-0.06291912,132.57297,-122.772675,24.470892,STU
4201951598000,3.884975,7.09864900049073,11.8988596848562,-1.67140701483953,1.6123788,-3.2494977,-0.07391469,133.25238,-123.011795,24.226929,STU
4201956560000,3.889937,6.77675043258257,11.6287792692344,-1.30074458426233,1.2669345,-2.9236012,-0.111177474,133.82399,-123.10562,23.950735,STU
4201961646000,3.895023,6.47252932348822,11.3061202910949,-0.89050706379294,0.89766645,-2.4901922,-0.16249016,134.30774,-123.13063,23.700191,STU
4201966608000,3.899985,6.28683645614305,10.8940507316323,-0.388625608162722,0.56077427,-2.0683897,-0.18753563,134.64796,-123.03494,23.455399,STU
4201971601000,3.904978,6.16924145725996,10.4187717737473,0.179749372171329,0.2556471,-1.7446312,-0.2180789,134.87909,-122.86699,23.243477,STU
4201977250000,3.910627,6.05342041675015,9.87808168833901,0.729452954337808,0.038179077,-1.4993688,-0.26633725,134.95876,-122.58677,23.048737,STU
4201981617000,3.914994,5.96962581526748,9.45910824343819,1.12328786129834,-0.07880162,-1.31672,-0.34422258,134.9627,-122.2663,22.877838,STU
4201986618000,3.919995,5.94663686344633,9.04059731779661,1.37891137067797,-0.11026118,-1.1982121,-0.42363504,134.92229,-121.883804,22.731644,STU
4201991643000,3.92502,5.96023114451977,8.65089721186441,1.53751030711864,-0.10445796,-1.1221595,-0.5152648,134.84407,-121.48396,22.587055,STU
4201996664000,3.930041,5.94430432534418,8.32941763902795,1.54827634541093,-0.02565634,-0.9315695,-0.6096435,134.82343,-121.10933,22.473246,STU
4202001612000,3.934989,5.90476646126408,8.06747966364205,1.43954739981227,0.14385876,-0.8210029,-0.6737844,134.80225,-120.75315,22.351017,STU
4202006622000,3.939999,5.81229937054052,7.98726210121312,1.47134831944584,0.42455134,-0.6224717,-0.7067711,134.75305,-120.44818,22.263943,STU
4202011722000,3.945099,5.68608434649343,8.01881576570239,1.5905514383892,0.6249151,-0.48472157,-0.79045963,134.68144,-120.14541,22.158075,STU
4202016512000,3.949889,5.56754121606489,8.04845146235015,1.70250887755366,1.1258247,-0.6178902,-0.87781334,134.64908,-119.96651,22.035986,STU
4202021573000,3.95495,5.24330163636364,8.37535268181818,1.92755001818182,1.6862935,-1.1023064,-1.0317514,134.66806,-119.81121,21.857681,STU
4202026584000,3.959961,4.87895717235259,8.76335635850917,2.17360088921317,2.2742512,-1.853976,-1.2043208,134.79399,-119.73871,21.615501,STU
4202031612000,3.964989,4.94191113592233,9.05052112829403,1.82643389084605,2.932764,-2.7608054,-1.3368785,135.14929,-119.761986,21.26756,STU
4202036572000,3.969949,5.10661615672677,9.30934354953438,1.34173019994056,3.608381,-3.5781431,-1.3930782,135.66992,-119.89182,20.829695,STU
4202041670000,3.975047,5.62494160073088,8.58884539495877,-3.27708792333208,4.294688,-4.068057,-1.3973542,136.35812,-120.103386,20.268324,STU
4202047231000,3.980608,6.29364366972451,7.51093762036169,-9.53494088735945,4.9577823,-4.0989056,-1.3793337,137.11694,-120.46134,19.659798,STU
4202051594000,3.984971,6.52502497836476,7.12876107324295,-10.9946017608436,5.475796,-3.147483,-1.3494014,137.72653,-120.9879,19.09674,STU
4202056596000,3.989973,6.6768141773778,6.86997285569581,-11.3330169023947,5.7693167,-0.8570439,-1.2730432,137.95364,-121.63971,18.714735,STU
4202061617000,3.994994,6.82917994471975,6.6102016361228,-11.6727175072983,5.647449,0.8717047,-1.1618657,138.10211,-123.12038,18.346554,STU
4202066571000,3.999948,6.97951255005974,6.3538967921147,-12.0078851624851,5.233588,1.6636915,-1.0793989,137.874,-124.61988,18.16875,STU
4202071586000,4.004963,7.14524784717738,6.13650793270717,-8.97827056903434,4.817283,1.8377881,-1.0201449,137.373,-126.096306,18.16615,STU
4202076655000,4.010032,7.31623060804227,5.92752904684473,-5.05516793536836,4.4403796,1.4682146,-0.9801333,136.81688,-127.47511,18.21673,STU
4202081610000,4.014987,7.11270187187028,5.82142349378588,-3.29588455255313,4.0903535,0.84238315,-1.0216721,136.29095,-128.86557,18.279139,STU
4202086639000,4.020016,6.79256132358747,5.74381370073522,-2.14628878389566,3.765679,0.23365596,-1.1194105,135.849,-130.14618,18.281015,STU
4202091651000,4.025028,6.42772844201632,5.70142037109557,-1.65568253240093,3.503923,-0.20891592,-1.2574661,135.53331,-130.94386,18.329271,STU
4202096695000,4.030072,6.04770326272339,5.66857871857032,-1.34603246977467,3.3628132,-0.45937067,-1.3674219,135.30087,-131.67291,18.292385,STU
4202101610000,4.034987,5.56802323432506,5.61852847271083,-1.14349229201427,3.3396003,-0.50854534,-1.4230106,135.11496,-132.1834,18.166286,STU
4202106609000,4.039986,5.03870470469394,5.56078447049955,-0.975072746155392,3.3664784,-0.5152648,-1.428203,134.96275,-132.65833,17.993277,STU
4202111613000,4.04499,4.42485752853323,5.38292783371298,-0.959979782905814,3.4691038,-0.5332854,-1.3744467,134.83716,-133.0594,17.744839,STU
4202116854000,4.050231,3.74880346161236,5.14929145558087,-1.00471865001981,3.5439348,-0.6224717,-1.269378,134.73445,-133.46329,17.495964,STU
4202121590000,4.054967,3.12545407656174,4.80944683666309,-1.17917265237306,3.5146132,-0.7357872,-1.1154399,134.67374,-133.7836,17.157272,STU
4202126663000,4.06004,2.45312134273463,4.39752477390118,-1.41590950471689,3.3603697,-0.80909103,-0.9468411,134.64183,-134.10504,16.841045,STU
4202131607000,4.064984,1.95907992253197,3.95493221572742,-1.5753636132494,3.1309898,-0.8045095,-0.7800749,134.66446,-134.36896,16.430496,STU
4202136615000,4.069992,1.54215576601719,3.48529360501599,-1.69996163243405,2.8182268,-0.71868294,-0.6588182,134.69946,-134.58884,16.05809,STU
4202141666000,4.075043,1.2633149486737,3.01257110821418,-1.75239033621931,2.4901922,-0.6169739,-0.52473325,134.77243,-134.84665,15.658249,STU
4202146640000,4.080017,1.06133229090819,2.54754119980278,-1.76648214270782,2.1642957,-0.49480084,-0.42149702,134.82901,-135.0351,15.306737,STU
4202151578000,4.084955,0.946351700569938,2.120384825966,-1.79173891465417,1.9089539,-0.3827071,-0.33261612,134.88516,-135.27829,14.984521,STU
4202156612000,4.089989,0.881153182389876,1.70590845193199,-1.82433819805835,1.7040086,-0.26053402,-0.28405234,134.91716,-135.45506,14.706128,STU
4202161599000,4.094976,0.879274526357063,1.35299821410531,-1.88993048148488,1.5754215,-0.15302174,-0.2657264,134.93604,-135.71542,14.488328,STU
4202166617000,4.099994,0.92821678879723,1.0446619428455,-1.98292078267644,1.498147,-0.04337143,-0.25900686,134.93127,-135.9361,14.303608,STU
4202171590000,4.104967,0.967371920640674,0.891847629461207,-2.16108783904781,1.4584408,0.058643065,-0.25870144,134.90303,-136.25372,14.182645,STU
4202176710000,4.110087,1.00099582032719,0.843813477737069,-2.40606193309169,1.4480561,0.16646078,-0.25686884,134.85023,-136.55637,14.085609,STU
4202181608000,4.114985,0.98897265622386,0.912579447966541,-2.64520132589126,1.4511104,0.29840767,-0.25411993,134.76974,-136.9347,14.045047,STU
4202186645000,4.120022,0.940936043213503,1.07590396731328,-2.89499178376817,1.4388931,0.46120325,-0.25503623,134.65974,-137.30347,14.031499,STU
4202191680000,4.125057,0.821849460328406,1.28100596481794,-3.20480106098819,1.4602734,0.61575216,-0.2489276,134.52808,-137.72542,14.045033,STU
4202196710000,4.130087,0.645012521594404,1.51997478206171,-3.56325431180673,1.4501941,0.6817256,-0.24862215,134.38058,-138.13208,14.07131,STU
4202201605000,4.134982,0.458108730113636,1.76616582709517,-3.8746243415483,1.4361442,0.8237518,-0.25137106,134.19571,-138.54507,14.119335,STU
4202206604000,4.139981,0.254098261960227,2.02967938692294,-4.1593890213956,1.4175128,0.9941832,-0.26206118,133.99194,-138.94946,14.183915,STU
4202211600000,4.144977,0.0474460689238158,2.26842066359965,-4.38396996665575,1.3607023,1.1976013,-0.2843578,133.76381,-139.3265,14.216697,STU
4202216612000,4.149989,-0.167349520353635,2.44130484980354,-4.44683686886051,1.2507466,1.3811663,-0.3032946,133.50647,-139.6785,14.277051,STU
4202221563000,4.15494,-0.306109855890502,2.46946953084197,-4.52810487353795,1.1010846,1.4743233,-0.30024028,133.2541,-139.96289,14.269103,STU
4202226617000,4.159994,-0.350275183432601,2.3088684198175,-4.63651076287847,0.89369583,1.527774,-0.26328292,132.97917,-140.19943,14.29093,STU
4202232447000,4.165824,-0.373453535735552,2.05971794676007,-4.7798246709282,0.6630942,1.5589281,-0.19883664,132.72728,-140.32533,14.245513,STU
4202236618000,4.169995,-0.29183822979568,1.65552783701109,-4.94694176363106,0.4260785,1.5173893,-0.13652839,132.48746,-140.3983,14.200813,STU
4202242002000,4.175379,-0.179283767209955,1.1322082844985,-5.17821408456213,0.14110987,1.3955216,-0.06994407,132.27734,-140.48366,14.172498,STU
4202246581000,4.179958,0.0381719274242141,0.660370456276198,-5.6377430826628,-0.20066923,1.2260065,0.014966198,132.10301,-140.4976,14.137165,STU
4202251514000,4.184891,0.272439003561003,0.152055102133234,-6.13279801772081,-0.61086524,1.0012082,0.09865474,131.92719,-140.55974,14.137117,STU
4202256602000,4.189979,0.515671894436385,-0.142176434436385,-7.07044683073907,-1.0680978,0.7855727,0.1863139,131.80359,-140.52429,14.114911,STU
