timestamp,rel_time,acc_x,acc_y,acc_z,gyro_x,gyro_y,gyro_z,azimuth,pitch,roll,label
120248603772000,0,3.25751787498144,9.3677272039983,-1.2988959808039,0.43279803,0.13713925,-0.0061086523,206.40689,-55.201538,-31.055132,STD
120248608804000,0.005032,3.24826961151059,9.37040432233131,-1.2857537133999,0.44012842,0.055588737,0.004886922,206.62134,-55.829174,-30.496157,STD
120248613776000,0.010004,3.23913162145155,9.37304951953952,-1.27276815029721,0.44409904,-0.028710667,0.016187929,206.85995,-56.460266,-29.92868,STD
120248618766000,0.014994,3.22996054936897,9.37570429308516,-1.25973557590413,0.46609017,-0.09254608,0.032986723,207.11604,-57.099384,-29.351103,STD
120248623776000,0.020004,3.22075271948245,9.37836970700574,-1.24665076674394,0.46028697,-0.14905111,0.054367006,207.39436,-57.740158,-28.762892,STD
120248628773000,0.025001,3.21156878216849,9.38102820468261,-1.23359991018237,0.4437936,-0.18661933,0.071776666,207.68483,-58.385868,-28.167892,STD
120248633769000,0.029997,3.20238668274472,9.38368617034074,-1.22055166535915,0.42485678,-0.19272798,0.08460484,207.98071,-59.034904,-27.56697,STD
120248638761000,0.034989,3.19321193488175,9.38634200792388,-1.20751386748936,0.36713,-0.1966986,0.095294975,208.28535,-59.6807,-26.96026,STD
120248643772000,0.04,3.18400226710503,9.38900795386321,-1.19442644659081,0.31306845,-0.17989981,0.10354166,208.58365,-60.326607,-26.353182,STD
120248648746000,0.044974,3.1748606012656,9.39165421510891,-1.18143566001141,0.25350907,-0.16737708,0.100792766,208.88358,-60.96357,-25.747452,STD
120248653825000,0.050053,3.16552595695549,9.39435633832301,-1.16817064090471,0.19364429,-0.15760323,0.10751228,209.177,-61.596928,-25.140043,STD
120248658863000,0.055091,3.15626666614346,9.39703664876849,-1.15501270307057,0.12217305,-0.15454891,0.09132435,209.46977,-62.213074,-24.54277,STD
120248663853000,0.060081,3.14709559406088,9.39969142231414,-1.14198012867748,0.07360926,-0.16432275,0.09040806,209.76111,-62.828255,-23.942163,STD
120248668818000,0.065046,3.13797046923322,9.40233289539112,-1.12901284774328,0.021380283,-0.18661933,0.09101892,210.0555,-63.4279,-23.34827,STD
120248673808000,0.070036,3.12879939715063,9.40498766893676,-1.1159802733502,0.00061086525,-0.20158553,0.07513642,210.35083,-64.018684,-22.762646,STD
120248678834000,0.075062,3.11956216102096,9.40766159515729,-1.10285367637633,-0.03176499,-0.24037547,0.06963864,210.65813,-64.60135,-22.174866,STD
120248683822000,0.08005,3.11039476471878,9.41031530466544,-1.08982632545995,-0.03145956,-0.26145032,0.056505036,210.96478,-65.17717,-21.597906,STD
120248688801000,0.085029,3.10124390942836,9.41296422600488,-1.07682248018878,-0.027488936,-0.29229903,0.04428773,211.28465,-65.74532,-21.0235,STD
120248693840000,0.090068,3.09198278072613,9.41564506846911,-1.06366193061629,-0.018325957,-0.31948254,0.02687807,211.6091,-66.30691,-20.457632,STD
120248698830000,0.095058,3.08281170864355,9.41829984201476,-1.0506293562232,-0.010995574,-0.33292156,0.021380283,211.9367,-66.86586,-19.89545,STD
120248703856000,0.100084,3.07357447251388,9.42097376823528,-1.03750275924933,-0.0036651916,-0.33353242,0.015577064,212.2676,-67.41875,-19.342108,STD
120248709067000,0.105295,3.06499944266864,9.42323181465326,-1.02547087526223,0.007941248,-0.35094208,-0.00580322,212.6066,-67.96503,-18.797812,STD
120248713855000,0.110083,3.07138509930618,9.41798644933627,-1.03687381942545,0.026572637,-0.34972036,-0.021380283,212.93813,-68.51018,-18.259657,STD
120248718873000,0.115101,3.07807750218988,9.41248911367197,-1.04882452406434,0.027794369,-0.3463606,-0.022296581,213.26137,-69.01033,-17.721361,STD
120248723841000,0.120069,3.08470322110703,9.40704655417013,-1.06065615033895,0.03726278,-0.33414328,-0.03848451,213.58101,-69.50332,-17.198439,STD
120248728860000,0.125088,3.09139695767006,9.40154812298258,-1.07260923654513,0.04153884,-0.32375857,-0.05131268,213.89758,-69.99253,-16.681126,STD
120248733847000,0.130075,3.0980480164945,9.396084748539,-1.08448611259817,0.054061573,-0.3145956,-0.06383542,214.20952,-70.47682,-16.175112,STD
120248738827000,0.135055,3.10468973956362,9.39062904275817,-1.09634631768021,0.06658431,-0.28771752,-0.06963864,214.51132,-70.95643,-15.67854,STD
120248743941000,0.140169,3.11151017566311,9.38502653686195,-1.10852565277851,0.06841691,-0.27000242,-0.07696902,214.81192,-71.428955,-15.191909,STD
120248748870000,0.145098,3.11808388108634,9.37962670276682,-1.12026439792899,0.061391957,-0.2507602,-0.0842994,215.10278,-71.8965,-14.714469,STD
120248753864000,0.150092,3.12474427566609,9.3741556596605,-1.13215794495302,0.06872234,-0.21899518,-0.092240654,215.38358,-72.36058,-14.246895,STD
120248758854000,0.155082,3.13139933552852,9.36868899864718,-1.14404196570792,0.076358154,-0.1908954,-0.08979719,215.6581,-72.81991,-13.78528,STD
120248763858000,0.160086,3.13807306690159,9.36320700030836,-1.15595932840481,0.07269296,-0.15210545,-0.09101892,215.91957,-73.27136,-13.335123,STD
120248768857000,0.165085,3.144740129878,9.3577304795858,-1.16786478326528,0.092240654,-0.121256754,-0.092240654,216.17386,-73.72404,-12.891306,STD
120248773844000,0.170072,3.15139118870243,9.35226710514222,-1.17974165931832,0.07788532,-0.077579886,-0.08979719,216.41216,-74.165955,-12.45541,STD
120248778861000,0.175089,3.1580822579068,9.34677086500117,-1.19168998238992,0.07819075,-0.04184427,-0.089491755,216.64325,-74.608086,-12.0275755,STD
120248783846000,0.180074,3.16473064937258,9.34130968160409,-1.20356209530839,0.09040806,0.0018325958,-0.07849618,216.8583,-75.04767,-11.604537,STD
120248788828000,0.185056,3.17137503980036,9.33585178477676,-1.215427063525,0.09315695,0.04153884,-0.069027774,217.06396,-75.48008,-11.189341,STD
120248793860000,0.190088,3.1780861141947,9.33033911178697,-1.22741111010589,0.09743301,0.06505715,-0.06291912,217.26132,-75.91121,-10.779314,STD
120248798849000,0.195077,3.1847398403778,9.32487354629689,-1.2392927492935,0.093767814,0.108123146,-0.056199603,217.44138,-76.337944,-10.3752,STD
120248803865000,0.200093,3.19142957590284,9.31937840167909,-1.25123869079782,0.09773844,0.1459968,-0.047647487,217.61613,-76.76284,-9.975693,STD
120248808877000,0.205105,3.19811397671055,9.31388763915428,-1.263175106033,0.103847094,0.1777618,-0.035124753,217.78036,-77.18385,-9.580834,STD
120248813940000,0.210168,3.20486639516415,9.30834100494377,-1.27523298119974,0.099571034,0.20158553,-0.022602014,217.9364,-77.59936,-9.190907,STD
120248818841000,0.215069,3.21140275756611,9.30297184549962,-1.28690504246622,0.0888809,0.23457226,-0.022602014,218.005884849066,-77.8029457092378,-8.99835880787481,STD
120248823845000,0.220073,3.21807648893918,9.29748984716081,-1.29882240516311,0.071776666,0.24740042,0.003970624,218.07683,-78.01081,-8.801764,STD
120248828856000,0.225084,3.22475955606756,9.29200018015925,-1.310756438831,0.058643065,0.2611449,0.022602014,218.22049,-78.4187,-8.417095,STD
120248833848000,0.230076,3.23141728328865,9.28653132809943,-1.32264522272047,0.046731193,0.27091873,0.0290161,218.3528,-78.817665,-8.03633,STD
120248838869000,0.235097,3.23811368721035,9.28103070586538,-1.33460307206122,0.0125227375,0.26939157,0.040927973,218.48474,-79.207565,-7.6551876,STD
120248843868000,0.240096,3.24478075018676,9.27555418514282,-1.34650852692168,-0.015577064,0.26542094,0.047647487,218.61575,-79.58937,-7.2803288,STD
120248848840000,0.245068,3.25141180382123,9.27010724354798,-1.35834967946544,-0.029932396,0.26542094,0.05222898,218.7468,-79.96175,-6.909198,STD
120248853881000,0.250109,3.25813488132955,9.26458471084895,-1.37035516015189,-0.061086524,0.26847526,0.06780604,218.87837,-80.3209,-6.5394077,STD
120248858850000,0.255078,3.26476193392602,9.25914105582385,-1.38218916799379,-0.08857546,0.26145032,0.06963864,219.01402,-80.66836,-6.1782417,STD
120248863863000,0.260091,3.27144766841307,9.2536491977758,-1.39412796479626,-0.11209377,0.26419923,0.07941248,219.1459,-81.00663,-5.817272,STD
120248868845000,0.265073,3.27809205884085,9.24819130094847,-1.40599293301287,-0.13255776,0.26175576,0.07544186,219.28229,-81.329346,-5.465675,STD
120248873845000,0.270073,3.28476045549659,9.24271368470265,-1.41790076944062,-0.14782938,0.267559,0.09193522,219.415,-81.64514,-5.1122475,STD
120248878859000,0.275087,3.29144752366297,9.23722073113135,-1.42984194781037,-0.16554448,0.26542094,0.100792766,219.55147,-81.945114,-4.7680793,STD
120248883853000,0.280081,3.29810791824272,9.23174968802503,-1.4417354948344,-0.17928895,0.25534168,0.092240654,219.68892,-82.233505,-4.4304585,STD
120248888855000,0.285083,3.30477898225713,9.22626988073271,-1.45364809439673,-0.19394971,0.24678956,0.09743301,219.8261,-82.512024,-4.0927324,STD
120248893870000,0.290098,3.31146738410283,9.22077583163816,-1.46559165433376,-0.21227567,0.24648413,0.10781772,219.96404,-82.776245,-3.762088,STD
120248898854000,0.295082,3.31811444188928,9.21531574376433,-1.47746138568494,-0.21013765,0.23273966,0.10354166,220.10855,-83.03078,-3.4396057,STD
120248904462000,0.30069,3.32559371557836,9.20917204938302,-1.49081721502231,-0.21746802,0.22235495,0.100792766,220.25177,-83.270096,-3.1199656,STD
120248908802000,0.30503,3.33138188387554,9.20441747848166,-1.50115321704159,-0.22357668,0.204029,0.10445796,220.40094,-83.50006,-2.80508,STD
120248913833000,0.310061,3.33349894103893,9.20870131340485,-1.49258548051962,-0.22785273,0.19486602,0.08552113,220.55089,-83.71497,-2.5032651,STD
120248918850000,0.315078,3.33445972091765,9.21542680516117,-1.47889432398316,-0.22021692,0.1704314,0.081855945,220.7094,-83.92289,-2.200917,STD
120248923844000,0.320072,3.33541609618461,9.22212146448568,-1.46526593336266,-0.21868975,0.14508049,0.08124508,220.87633,-84.13466,-1.8471056,STD
120248928874000,0.325102,3.3363793656265,9.22886438326868,-1.45153930043893,-0.21319197,0.13041973,0.07819075,221.0474,-84.33345,-1.5018759,STD
120248933852000,0.33008,3.33733267681571,9.23553759394497,-1.43795457306431,-0.2144137,0.09987647,0.073303826,221.2301,-84.51464,-1.1632507,STD
120248938822000,0.33505,3.33828445596605,9.24220008029715,-1.42439167731263,-0.19853121,0.08002335,0.059864793,221.4139,-84.685135,-0.8346649,STD
120248943882000,0.34011,3.33925347055371,9.24898321529555,-1.41058317580287,-0.16737708,0.06169739,0.05009095,221.60538,-84.84303,-0.5122744,STD
120248948848000,0.345076,3.34020448368461,9.25564033948568,-1.39703119586266,-0.15210545,0.034513887,0.04153884,221.80461,-84.98345,-0.19885282,STD
120248953873000,0.350101,3.3411667956022,9.26237655556611,-1.38331820770327,-0.13164146,0.008857546,0.032375857,222.00803,-85.11665,0.10604899,STD
120248958893000,0.355121,3.3421281499955,9.26910606894397,-1.36961886430821,-0.11636983,-0.01160644,0.018936822,222.21696,-85.23507,0.4020607,STD
120248963854000,0.360082,3.3430782056021,9.27575649043153,-1.35608052913234,-0.08582657,-0.018325957,0.0070249503,222.4282,-85.34578,0.6906546,STD
120248968846000,0.365074,3.34403419785934,9.28244846867501,-1.34245759641757,-0.06963864,-0.022907447,-0.00030543262,222.64346,-85.43866,0.9718424,STD
120248974578000,0.370806,3.34513190371241,9.2901324468985,-1.32681523858083,-0.04734206,-0.03145956,-0.0067195175,222.86055,-85.52357,1.2450451,STD
120248978861000,0.375089,3.34595211902446,9.29587398191789,-1.31512713344915,-0.03023783,-0.030848695,-0.018325957,223.0751,-85.59343,1.5096378,STD
120248983850000,0.380078,3.34690753676712,9.30256193853983,-1.30151238759299,-0.014660766,-0.02107485,-0.023518313,223.2879,-85.64947,1.7694813,STD
120248988854000,0.385082,3.34786582708267,9.30927000326948,-1.28785670744381,0.011911872,-0.014049901,-0.022907447,223.49988,-85.69375,2.0231416,STD
120248993872000,0.3901,3.34882679846625,9.31599683556631,-1.27416282195449,0.040011674,-0.01160644,-0.032375857,223.7091,-85.72462,2.2678869,STD
120248998852000,0.39508,3.34978049266517,9.32267272732363,-1.26057263667413,0.048563786,-0.013744468,-0.03726278,223.91612,-85.73673,2.5097036,STD
120249003843000,0.400071,3.35073629341755,9.32936336502659,-1.24695243291223,0.07880162,0.00030543262,-0.033292156,224.11641,-85.74044,2.7468426,STD
120249008948000,0.405176,3.35171392572388,9.33620682434811,-1.23302112852344,0.106595986,0.004886922,-0.03756821,224.31877,-85.72809,2.9763517,STD
120249013937000,0.410165,3.35266934346655,9.34289478097005,-1.21940638266727,0.124311075,-0.008857546,-0.034208454,224.52087,-85.698235,3.2052143,STD
120249018845000,0.415073,3.35360924931561,9.34947415381039,-1.20601268199338,0.14996742,-0.01985312,-0.028405234,224.71964,-85.65635,3.429515,STD
120249023840000,0.420068,3.35456581608743,9.35617015367541,-1.19238156242001,0.16982053,-0.032375857,-0.027794369,224.92146,-85.59834,3.6496584,STD
120249028853000,0.425081,3.35552582994671,9.36289028326968,-1.17870132169503,0.18845193,-0.045814894,-0.02443461,225.12523,-85.5244,3.8685932,STD
120249033849000,0.430077,3.35648258822338,9.36958762367521,-1.16506747316879,0.19822577,-0.070249505,-0.013133603,225.33423,-85.43295,4.0865,STD
120249038852000,0.43508,3.35744068703407,9.37629434786434,-1.15141452197248,0.20433442,-0.09193522,-0.010079277,225.54489,-85.328964,4.299431,STD
120249044352000,0.44058,3.3584939637598,9.38366732068869,-1.13640528120101,0.20616703,-0.11575896,0.00061086525,225.76135,-85.2063,4.5143313,STD
120249048850000,0.445078,3.35935535261658,9.38969707191849,-1.12413045120281,0.20372356,-0.13713925,0.0106901415,225.98158,-85.070366,4.726441,STD
120249053859000,0.450087,3.36031460045643,9.39641183935071,-1.11046112628929,0.19242255,-0.16035213,0.01740966,226.20726,-84.92083,4.9371743,JUM
120249058870000,0.455098,3.36127423130599,9.40312928786394,-1.09678634347004,0.19394971,-0.18906279,0.008246681,226.43866,-84.76419,5.1427217,JUM
120249063859000,0.460087,3.36222964904865,9.40981724448588,-1.08317159761388,0.19394971,-0.22296582,0.0012217305,226.67601,-84.59641,5.3472624,JUM
120249068855000,0.465083,3.36318640732533,9.41651458489142,-1.06953774908765,0.18936823,-0.2434298,-0.0067195175,226.91537,-84.424736,5.545448,JUM
120249073843000,0.470071,3.36414163356313,9.42320120097284,-1.05592573218435,0.1704314,-0.24953845,-0.017715093,227.15776,-84.25005,5.7374415,JUM
120249078859000,0.475087,3.36510222193699,9.42992535218865,-1.04223730460076,0.1282817,-0.22082779,-0.031154128,227.39323,-84.07366,5.9232173,JUM
120249083850000,0.480078,3.36605802268937,9.43661598989162,-1.02861710083887,0.090713486,-0.16310102,-0.03023783,227.61923,-83.89309,6.106899,JUM
120249088827000,0.485055,3.36701114237372,9.4432878600274,-1.01503510241711,0.021380283,-0.13164146,-0.023518313,227.84172,-96.28709,6.285418,JUM
120249093900000,0.490128,3.36798264652456,9.45008842205247,-1.00119112452008,-0.007941248,-0.062002823,-0.025045475,228.03409,-96.46576,6.4588757,JUM
120249098849000,0.495077,3.36893040407285,9.45672275705387,-0.987685536778615,-0.0693332,-0.004276057,-0.010995574,228.21848,-96.64902,6.6356635,JUM
120249103871000,0.500099,3.36989214147586,9.46345495151276,-0.973980735477824,-0.13194689,0.03634648,-0.0106901415,228.3857,-96.82583,6.805011,JUM
120249108835000,0.505063,3.37084277159704,9.47010939462186,-0.960434213443349,-0.15332718,0.043676864,-0.00580322,228.5442,-97.00543,6.9763865,JUM
120249113875000,0.510103,3.35241449391168,9.44708125553235,-0.944242499833408,-0.14905111,0.03573562,-0.011301007,228.6938,-97.17877,7.1415195,JUM
120249118849000,0.515077,3.3294367287707,9.41699695313044,-0.927660607591128,-0.12889257,-0.013133603,-0.015882496,228.8516,-97.35098,7.3047357,JUM
120249123827000,0.520055,3.30644048533045,9.38688845748172,-0.911065380493809,-0.07696902,-0.049480084,-0.025045475,228.97488,-97.54652,7.4990497,JUM
120249128861000,0.525089,3.28318554570043,9.35644125637774,-0.894283465425929,-0.02443461,-0.09682214,-0.038789943,229.11394,-97.73531,7.6853914,JUM
120249133849000,0.530077,3.26014310651201,9.32627227761201,-0.877654901191009,0.025045475,-0.12370021,-0.05131268,229.2559,-97.91899,7.8646426,JUM
120249138868000,0.535096,3.23695746050425,9.29591580118355,-0.860922991829529,0.07086037,-0.1518,-0.059253927,229.41003,-98.09772,8.036701,JUM
120249143857000,0.540085,3.21391040174101,9.26574077410612,-0.844291093880849,0.11942416,-0.14446963,-0.0729984,229.55965,-98.26953,8.199548,JUM
120249148849000,0.545077,3.19084948425332,9.23554760209359,-0.82764919479089,0.14996742,-0.1301143,-0.0870483,229.7133,-98.436935,8.356229,JUM
120249153843000,0.550071,3.16777932761599,9.20534233345766,-0.81100062827341,0.16523905,-0.111177474,-0.095294975,229.86153,-98.600586,8.507255,JUM
120249158880000,0.555108,3.14451052926152,9.17487698741857,-0.79420871206425,0.18417588,-0.08735373,-0.10934488,230.00232,-98.757545,8.649496,JUM
120249163867000,0.560095,3.12147270964792,9.14471405696454,-0.77758348154309,0.18509217,-0.05681047,-0.10842858,230.13406,-98.91392,8.790756,JUM
120249168843000,0.565071,3.0984857053573,9.11461765793923,-0.760994921873291,0.18753563,-0.030848695,-0.110872045,230.25865,-99.064095,8.924277,JUM
120249173841000,0.570069,3.07539707042071,9.08438819605649,-0.744333020500771,0.19364429,-0.01740966,-0.10415252,230.37682,-99.21509,9.057937,JUM
120249178856000,0.575084,3.05222990271222,9.05405591287483,-0.727614445994331,0.20066923,-0.026572637,-0.11026118,230.49277,-99.35971,9.184411,JUM
120249183840000,0.580068,3.02920594182306,9.02391112735591,-0.710999216614451,0.19547687,-0.036651913,-0.1001819,230.6043,-99.50812,9.314715,JUM
120249188825000,0.585053,3.00617736135909,8.99376029352529,-0.694380653520812,0.2098322,-0.0711658,-0.09682214,230.72438,-99.65226,9.438331,JUM
120249193886000,0.590114,2.98279769320901,8.96314978800537,-0.677508728181411,0.22235495,-0.14110987,-0.08368854,230.85675,-99.79941,9.564465,JUM
120249198850000,0.595078,2.9598661238162,8.93312596872047,-0.660960173076732,0.24129178,-0.2125811,-0.06627888,230.99838,-99.947914,9.689771,JUM
120249203858000,0.600086,2.93673129313143,8.90283602372072,-0.644264934566612,0.26725355,-0.30940324,-0.05222898,231.16608,-100.09854,9.814262,JUM
120249208871000,0.605099,2.91357336457258,8.87251583716247,-0.627553027487692,0.29077184,-0.39064834,-0.036651913,231.34818,-100.253815,9.941011,JUM
120249213856000,0.610084,2.89054478410861,8.84236500333184,-0.610934464394052,0.321926,-0.47983465,-0.01863139,231.55835,-100.414505,10.068772,JUM
120249218844000,0.615072,2.86750234492018,8.81219602456611,-0.594305900159133,0.32345316,-0.5540548,0.0070249503,231.78511,-100.57979,10.199955,JUM
120249223840000,0.620068,2.84442294913322,8.78197865930678,-0.577650666214133,0.33017266,-0.6001751,0.03634648,232.02652,-100.75249,10.3341875,JUM
120249229481000,0.625709,2.81836392758914,8.74786013300015,-0.558845186893928,0.31764993,-0.63255095,0.049785517,232.28189,-100.92517,10.467996,JUM
120249233853000,0.630081,2.79816714648814,8.72141691424238,-0.544270190335173,0.2751948,-0.6102544,0.07971791,232.53157,-101.10694,10.612601,JUM
120249238829000,0.635057,2.77518014219752,8.69132051521707,-0.527681630665374,0.20708331,-0.5693264,0.100792766,232.78125,-101.28496,10.755856,JUM
120249243917000,0.640145,2.75167574552738,8.66054670528122,-0.510719695054453,0.13408493,-0.48838675,0.11636983,233.00931,-101.46339,10.904481,JUM
120249248847000,0.645075,2.72890124167835,8.63072852859416,-0.494284486217614,0.03848451,-0.37690386,0.13347405,233.2133,-101.63749,11.057966,JUM
120249253882000,0.65011,2.70564168247352,8.60027527917848,-0.477499237435974,-0.058948494,-0.23396139,0.14813483,233.38156,-101.80572,11.214131,JUM
120249258877000,0.655105,2.68256690626138,8.57006396223084,-0.460847337204734,-0.17684549,-0.05131268,0.15485434,233.50331,-101.96311,11.372255,JUM
120249263858000,0.660086,2.65955680409667,8.53993732164702,-0.444242108966135,-0.28191432,0.1572978,0.1337795,233.57364,-102.106316,11.525887,JUM
120249268843000,0.665071,2.6365282236327,8.5097864878164,-0.427623545872495,-0.40225476,0.3915646,0.12308934,233.58258,-102.23955,11.683877,JUM
120249273839000,0.670067,2.61344882784574,8.47956912255706,-0.410968311927495,-0.52626044,0.6542367,0.099265605,233.52179,-102.35152,11.831639,JUM
120249278867000,0.675095,2.59022160566463,8.44915821132329,-0.394206399142175,-0.6453791,0.91324353,0.07971791,233.3948,-102.449974,11.976237,JUM
120249283848000,0.680076,2.56721150349993,8.41903157073947,-0.377601170903576,-0.73426,1.047023,0.052839845,233.22978,-102.53068,12.108257,JUM
120249288823000,0.685051,2.54422911878413,8.38894122002586,-0.361015944947536,-0.8200866,1.3148874,0.042760566,232.95374,-102.60092,12.239176,JUM
120249293883000,0.690111,2.52085407020886,8.35833676281764,-0.344147353321896,-0.8597928,1.5567901,0.028099801,232.65015,-102.65881,12.355475,JUM
120249299315000,0.695543,2.49576053980158,8.32548233365657,-0.326038620177532,-0.91599244,1.8933768,0.007330383,232.24611,-102.70551,12.46418,JUM
120249303878000,0.700106,2.47468141991049,8.29788388736387,-0.310826884290616,-0.97402465,1.9908098,0.003970624,231.8487,-102.750694,12.565105,JUM
120249308865000,0.705093,2.45164360029688,8.26772095690984,-0.294201653769456,-0.99296147,2.1563544,-0.024740042,231.34134,-102.78221,12.648331,JUM
120249313925000,0.710153,2.38477542142721,8.19243874485518,-0.180870804338796,-1.0091494,2.284636,-0.04795292,230.82605,-102.812065,12.722923,JUM
120249318881000,0.715109,2.28981395683117,8.08843357183689,-0.00451376358422254,-1.010982,2.3805418,-0.06536258,230.28198,-102.83568,12.782421,JUM
120249323828000,0.720056,2.18379426802111,8.03265381286724,0.280598249622548,-0.9819659,2.4336872,-0.095294975,229.67276,-102.832245,12.811605,JUM
120249328833000,0.725061,2.06445375402848,8.02788009660392,0.686355957320984,-0.9483683,2.424524,-0.1142318,229.06493,-102.83076,12.8274145,JUM
120249333848000,0.730076,1.96667516101695,7.99702609932012,1.13782242644451,-0.8894198,2.3338106,-0.16584991,228.443,-77.15527,12.843275,JUM
120249338834000,0.735062,1.89351617457627,7.9375844616298,1.63621804962176,-0.82619524,2.2067506,-0.22937989,227.84558,-77.145386,12.837823,JUM
120249343839000,0.740067,1.88047398441732,7.86493295125154,2.14834067848789,-0.7620544,2.05098,-0.30604348,227.24127,-77.139145,12.805368,JUM
120249348830000,0.745058,1.96383090365203,7.77176939286007,2.67790231616742,-0.7302894,1.885741,-0.3717115,226.68741,-77.13973,12.747072,JUM
120249353841000,0.750069,2.0876063431458,7.65896503662837,3.1168721270107,-0.7125743,1.738828,-0.45265114,226.11977,-77.12772,12.66376,JUM
120249358847000,0.755075,2.26330325796355,7.52125670021791,3.43502588855983,-0.7449502,1.640784,-0.52381694,225.59583,-77.11489,12.555024,JUM
120249363827000,0.760055,2.46142024755411,7.38243485769345,3.62394927615377,-0.8378017,1.6316211,-0.5879578,225.03246,-77.05468,12.438672,JUM
120249369275000,0.765503,2.71406854212867,7.22775236021346,3.63426144265244,-0.96944314,1.7363845,-0.6462954,224.47447,-76.981834,12.293952,JUM
120249373790000,0.770018,2.90666440086376,7.07295433014331,3.52589769975461,-1.153619,1.926669,-0.68936145,223.86362,-76.84039,12.15129,JUM
120249378822000,0.77505,3.09586918138987,6.86009870509423,3.22789992346879,-1.3524556,2.1688771,-0.73884153,223.21915,-76.6666,11.977375,JUM
120249383794000,0.780022,3.23529116914807,6.63549769575234,2.75292212651116,-1.5360206,2.298686,-0.7648033,222.55347,-76.36195,11.861291,JUM
120249388866000,0.785094,3.28658076192945,6.37904985356371,1.92296347484233,-1.6102408,2.5729644,-0.7825184,221.7894,-76.02324,11.707828,JUM
120249403778000,0.800006,3.3933745384187,5.62431279655893,-0.465482340310293,-1.5793921,3.195436,-0.7125743,219.3229,-74.37646,11.599096,JUM
120249408825000,0.805053,3.19148153818996,5.36473602461462,-0.994249749109896,-1.402852,3.2104023,-0.6966918,218.4676,-73.7915,11.596407,JUM
120249413794000,0.810022,2.92628600029674,5.19923828534507,-1.52616008558438,-1.171945,3.1285462,-0.729984,217.67525,-73.32005,11.606368,JUM
120249418766000,0.814994,2.33376523590504,5.47726722352829,-2.11412300087106,-0.9447031,3.0106494,-0.8017606,216.90517,-72.8957,11.594099,JUM
120249423771000,0.819999,1.740079260193,5.78055608507238,-2.61226467843788,-0.7125743,2.8903089,-0.8539896,216.20695,-72.65653,11.530433,JUM
120249428768000,0.824996,1.18205601218335,6.37706361706876,-1.93397783576598,-0.53023106,2.77455,-0.8414669,215.54993,-72.45721,11.466644,JUM
120249433743000,0.829971,0.632508025822018,6.96851756786168,-1.29216922317183,-0.39858958,2.6087,-0.79443026,214.96684,-72.49893,11.285035,JUM
120249438767000,0.834995,0.148408243964052,7.53721733818501,-1.03836931176028,-0.2950479,2.4425447,-0.77824235,214.42102,-72.57665,11.10666,JUM
120249443963000,0.840191,-0.308200234780165,8.13995071988034,-0.765169592117306,-0.23335053,2.313652,-0.7996226,213.84337,-72.694336,10.78535,JUM
120249448763000,0.844991,-0.208186806441846,8.86921522899102,-0.385952002125465,-0.14905111,2.2061398,-0.8213083,213.30843,-72.834145,10.4793625,JUM
120249454865000,0.851093,-0.0516538231966738,9.80108009495262,0.100630552652292,0.0012217305,2.0412061,-0.8002335,212.78404,-73.03041,10.079909,JUM
120249458851000,0.855079,0.50569930675498,10.4839302264552,0.488193990822471,0.21410827,1.7983873,-0.75777835,212.31424,-73.25574,9.695591,JUM
120249463765000,0.859993,1.192812523158,11.3257580102495,0.965987953483852,0.4098906,1.4544702,-0.6945538,211.89786,-73.46162,9.33493,JUM
120249468818000,0.865046,1.5245942647093,11.8383701947674,0.813666684174419,0.43768495,1.1722504,-0.6258314,211.53107,-73.66424,9.004323,JUM
120249473791000,0.870019,1.7368782866376,12.2352488444767,0.467551406517442,0.31856623,1.0848967,-0.5717699,211.20387,-73.864525,8.701738,JUM
120249478837000,0.875065,1.41412874479985,12.6941666767471,0.608252096384608,0.116675265,1.0965031,-0.5510005,210.9385,-73.932465,8.534015,JUM
120249483758000,0.879986,0.879679430619366,13.1646647412038,0.946279883972085,-0.09315695,1.183246,-0.5644395,210.67708,-73.96369,8.374501,JUM
120249488805000,0.885033,0.356029984106869,13.9285854892005,1.79592624104821,-0.19486602,1.1374311,-0.59406644,210.4873,-74.01964,8.269244,JUM
120249493826000,0.890054,-0.150958472594943,14.8490397938377,2.92803628029481,-0.3921755,0.8078693,-0.573297,210.35225,-73.994255,8.187829,JUM
120249498822000,0.89505,-0.236349030963345,15.6404051666974,3.55875111759072,-0.54611355,0.23579398,-0.45845437,210.24399,-73.95898,8.024563,JUM
120249503860000,0.900088,-0.134147619167434,16.3824768616688,3.97200023623135,-0.6579019,-0.44501534,-0.23396139,210.25165,-73.86546,7.9321184,JUM
120249508865000,0.905093,0.582411020016851,16.4749614382307,3.65713374605582,-0.7174612,-1.03786,0.043066,210.29973,-73.627975,7.8043685,JUM
120249513863000,0.910091,1.84771741741338,15.9910192315956,2.69429118043181,-0.7501425,-1.434617,0.23335053,210.47499,-73.35467,7.7576165,JUM
120249518842000,0.91507,3.23945923229325,15.5957315514036,1.65597386484456,-0.7846564,-1.6557503,0.32834008,210.73788,-73.00575,7.8016667,JUM
120249523841000,0.920069,4.71510405756829,15.2506573706373,0.566266881609825,-0.80970186,-1.7153096,0.38545597,211.05354,-72.6432,7.910121,JUM
120249528855000,0.925083,6.11579827962752,15.0321030768753,-0.257052802755199,-0.8197812,-1.6698002,0.44868052,211.50179,-72.30341,8.272107,JUM
120249533859000,0.930087,7.43967458890843,14.9329363780652,-0.827261749088153,-0.79412484,-1.5931365,0.5137377,211.94997,-71.967316,8.645566,JUM
120249538826000,0.935054,8.49479587261917,14.9991237713182,-1.04892171527594,-0.7247916,-1.5577064,0.5873469,212.52638,-71.63622,9.314422,JUM
120249543885000,0.940113,9.38114938341295,15.186243527391,-1.02430075157028,-0.59864795,-1.5961909,0.6918049,213.09323,-71.30711,9.991886,JUM
120249548842000,0.94507,9.90382797492793,15.4513721008124,-1.05115805870534,-0.44532076,-1.7385225,0.79809546,213.75992,-70.890305,10.9121275,JUM
120249554652000,0.95088,10.2683860608893,15.8207900408841,-1.11920885742989,-0.2941316,-1.9147571,0.91446525,214.43909,-70.46962,11.840972,JUM
120249558820000,0.955048,10.4241559290964,16.1482659435798,-1.36366400808474,-0.1731803,-2.0528126,1.0320568,215.17432,-69.924736,12.926239,JUM
120249563855000,0.960083,10.4085208718115,16.6642309970817,-2.0359813758971,-0.118202426,-2.1084013,1.1340714,215.9295,-69.3675,14.007465,JUM
120249568843000,0.965071,10.3334793545036,17.2352265167108,-2.67243886023719,-0.1255328,-2.0619757,1.2547172,216.70616,-68.76846,15.130816,JUM
120249573838000,0.970066,10.1928257746741,17.8728539571695,-3.27724754003724,-0.15485434,-1.9911152,1.3775011,217.48438,-68.14578,16.24339,JUM
120249578793000,0.975021,10.0448491973154,18.3668574281879,-3.7194958674976,-0.122783914,-1.9608774,1.4407257,218.29984,-67.60669,17.303127,JUM
120249583847000,0.980075,9.88242924026846,18.6824169771812,-3.95616504467881,-0.06566802,-1.9425515,1.5476271,219.08835,-67.018005,18.366472,JUM
120249588803000,0.985031,9.64941229165857,18.939405390628,-4.11796905821505,0.13805555,-1.9776763,1.6197093,219.91522,-66.54581,19.34967,JUM
120249593896000,0.990124,9.2653220577484,19.1006281033444,-4.14642009312658,0.42913285,-2.0460932,1.6362026,220.74738,-66.06703,20.312595,JUM
120249598810000,0.995038,8.81947741143654,19.2326460948396,-4.13291950543933,0.74006325,-2.1181753,1.5992452,221.60402,-65.651695,21.210764,JUM
120249603882000,1.00011,8.16912034112506,19.3094240548582,-4.01549400451883,1.0073168,-2.176513,1.5198327,222.4847,-65.25583,22.07107,JUM
120249608892000,1.00512,7.51039204325165,19.3409664721898,-3.86089098716453,1.1957687,-2.2061398,1.4092661,223.37123,-64.93962,22.825254,JUM
120249613857000,1.010085,6.76599621711396,19.1236584062622,-3.4910050048133,1.3246613,-2.2204952,1.3072516,224.28091,-64.6414,23.531668,JUM
120249618871000,1.015099,6.02693496940864,18.858481302273,-3.11538723985044,1.4242324,-2.2406538,1.2198979,225.16983,-64.4354,24.099695,JUM
120249624707000,1.020935,5.31751458790711,18.0060767386598,-2.65343898429598,1.500285,-2.2275202,1.1395692,226.0624,-64.239685,24.616152,JUM
120249628891000,1.025119,4.82033101542421,17.3874658244042,-2.32328233475691,1.6029104,-2.1804836,1.0680978,226.89745,-64.11395,25.009724,JUM
120249633849000,1.030077,4.40390330184938,16.54103124347,-1.94759208253575,1.7363845,-2.101682,0.9999864,227.72496,-63.993782,25.362194,JUM
120249639441000,1.035669,3.93184632452973,15.5190019205974,-1.52244522613669,1.8668042,-2.0033326,0.9086621,228.48521,-63.905624,25.63614,JUM
120249643859000,1.040087,3.53189988983836,13.9472124953209,-1.1704923702902,1.9727893,-1.8490891,0.8002335,229.2077,-63.826424,25.868645,JUM
120249648838000,1.045066,3.08116804322715,12.1758364092069,-0.773848352802722,2.068695,-1.6374242,0.6927212,229.84395,-63.75673,26.053783,JUM
120249653880000,1.050108,2.88511673790897,11.2045713703162,-0.597774091080241,2.1374176,-1.3603969,0.59620446,230.41325,-63.69872,26.197824,JUM
120249658845000,1.055073,2.74171408857613,10.4049928780388,-0.467408037982087,2.2030854,-1.0274754,0.4990769,230.89908,-63.65536,26.29987,JUM
120249663853000,1.060081,2.60010434168214,9.63746654099231,-0.222881182541788,2.2632558,-0.6560693,0.41996986,231.25662,-63.574997,26.411959,JUM
120249668814000,1.065042,2.46144270247634,8.89793772543557,0.0796534266472097,2.284636,-0.28863382,0.34238997,231.51004,-63.508297,26.491142,JUM
120249673833000,1.070061,2.30072581357702,8.11979040844212,0.481074079025239,2.3081543,-0.1255328,0.25870144,231.70674,-116.57536,26.571547,JUM
120249678862000,1.07509,2.10686311579634,7.29194451687337,1.03646421181462,2.2968533,0.16768251,0.22021692,231.74507,-116.65991,26.641449,JUM
120249683845000,1.080073,1.91642479217164,6.55268774175123,1.63174453499565,2.296548,0.3747658,0.14263703,231.73062,-116.750626,26.710152,JUM
120249688816000,1.085044,1.72778473456074,5.88094508234271,2.26207843290809,2.2797492,0.49846604,0.071776666,231.64954,-116.838486,26.770891,JUM
120249694525000,1.090753,1.52784649014085,5.11908015906503,2.99320992334432,2.2525656,0.5897904,0.0030543262,231.47862,-116.94913,26.859049,JUM
120249698851000,1.095079,1.38714181690141,4.54798463673959,3.55189046089302,2.1975877,0.5852089,-0.015271631,231.29895,-117.054794,26.941502,JUM
120249703888000,1.100116,1.2594812017663,3.93964702857143,4.18667442464092,2.1670444,0.537256,-0.053145275,231.08455,-117.25943,27.145433,JUM
120249708872000,1.1051,1.17146823111413,3.39767262857143,4.7981328175757,2.0732768,0.45448375,-0.07788532,230.87752,-117.45206,27.340405,JUM
120249713845000,1.110073,1.05981566016565,2.92194332972575,5.30675685080066,1.9385809,0.32834008,-0.08307768,230.63353,-117.65292,27.554522,JUM
120249718854000,1.115082,0.914130264273882,2.53344886692435,5.6775922606571,1.7608191,0.17287487,-0.069027774,230.41637,-117.84065,27.756645,JUM
120249723808000,1.120036,0.755313511651328,2.14389479130435,5.97355270210515,1.5494597,0.007941248,-0.048258353,230.07312,-117.861755,27.783533,JUM
120249728858000,1.125086,0.545551758345499,1.7294874,6.04517861557178,1.3014483,-0.14966199,-0.022602014,229.77536,-117.88295,27.813734,JUM
120249733787000,1.130015,0.35546547718391,1.42501055117034,5.96529753686074,1.0192287,-0.26908615,0.0012217305,229.43523,-117.86592,27.809364,JUM
120249738834000,1.135062,0.18909106956963,1.30617171907947,5.59452033705744,0.72021013,-0.31337386,0.03268129,229.12007,-117.85445,27.81319,JUM
120249743879000,1.140107,0.0207304418099689,1.19144113395639,5.13895015600147,0.41416663,-0.26908615,0.07238753,228.79831,-117.83493,27.809761,JUM
120249748948000,1.145176,-0.152739281271028,1.08469052056075,4.50289450687191,0.116675265,-0.13316862,0.10873401,228.459,-117.823135,27.812849,JUM
120249753791000,1.150019,-0.302594128286311,1.00079893825944,3.88116092862119,-0.14080444,0.0870483,0.14385876,228.11664,-117.8174,27.815851,JUM
120249758902000,1.15513,-0.3488694,1.03976758571429,3.12614334285714,-0.3830125,0.3830125,0.16401732,227.70244,-62.1773,27.821241,JUM
120249764106000,1.160334,-0.39598669876698,1.07944530853859,2.35738742105787,-0.60048056,0.7367035,0.16615535,227.28311,-62.161953,27.824665,JUM
120249768845000,1.165073,-0.438893862267503,1.1155776545156,1.65732317943474,-0.77213365,1.0839803,0.15668693,226.76619,-62.134777,27.822481,JUM
120249773850000,1.170078,-0.465518375184244,1.16031844857785,0.956717463645782,-0.91599244,1.25319,0.14538592,226.18016,-62.098637,27.80657,JUM
120249778856000,1.175084,-0.353056645120712,1.25403658142899,0.544357825889942,-0.9630291,1.5635096,0.12767084,225.4339,-62.05271,27.769333,JUM
120249783864000,1.180092,-0.239792604509403,1.34042427288662,0.147684261800256,-1.0412198,1.8051068,0.08979719,224.81386,-61.69235,28.001942,JUM
120249788833000,1.185061,-0.11815299779989,1.33608000419938,-0.0521522429724302,-1.0830641,1.9776763,0.04886922,224.11293,-61.34526,28.18583,JUM
120249793937000,1.190165,0.00679136779587365,1.33161770849005,-0.257417994705131,-1.1157454,2.0717494,0.0143553335,223.44867,-61.249897,28.149445,JUM
120249798850000,1.195078,0.162646100233333,1.24322915666667,-0.2638410255,-1.094976,2.0680842,-0.022602014,222.76396,-61.162514,28.087479,JUM
120249803972000,1.2002,0.329616273818182,1.13459040363636,-0.242032019818182,-1.0641272,1.9764545,-0.059253927,222.08151,-61.078583,28.004324,JUM
120249808861000,1.205089,0.491569214103769,0.960179545534368,-0.158979235820843,-1.006095,1.7843374,-0.100792766,221.48018,-61.013523,27.914597,JUM
120249813801000,1.210029,0.655211579620399,0.783949306421286,-0.0750600799716186,-0.92179567,1.5180001,-0.14385876,220.93419,-60.91597,27.855537,JUM
120249818880000,1.215108,0.810138735812724,0.524047660171795,0.00832569278837078,-0.8145888,1.1979067,-0.19028452,220.4727,-60.834763,27.788374,JUM
120249823810000,1.220038,0.957207886086464,0.252192559416651,0.0885452343779498,-0.6743952,0.8436049,-0.25350907,220.11333,-60.777973,27.713634,JUM
120249828857000,1.225085,1.09789229889316,-0.0557028503742613,0.13646477998124,-0.5335908,0.48349985,-0.31520647,219.76956,-60.497093,27.824495,JUM
120249833881000,1.230109,1.23328455132727,-0.37613106332239,0.168056296124191,-0.3924809,0.15118915,-0.3830125,219.54283,-60.26381,27.916231,JUM
120249838820000,1.235048,1.18948441212607,-0.74483975220521,0.125343967640741,-0.269697,-0.112704635,-0.4373795,219.50708,-60.219307,27.90434,JUM
120249843922000,1.24015,0.996130978353041,-1.17067760655674,0.0194599578324775,-0.16829337,-0.25595254,-0.5015204,219.54344,-60.205307,27.883642,JUM
120249848847000,1.245075,0.809485415567438,-1.58174217587883,-0.0827506945206576,-0.13225232,-0.24801129,-0.573297,219.63759,-60.182854,27.890133,JUM
120249853865000,1.250093,0.619315378195223,-2.00056897970792,-0.186891416045131,-0.15363261,-0.080634214,-0.63194007,219.7292,-60.17578,27.883984,JUM
120249858815000,1.255043,0.388870760092281,-2.20641987255455,-0.306791555352296,-0.21655174,0.2669481,-0.70249504,219.76195,-60.186527,27.84794,JUM
120249863857000,1.260085,0.0533674860851156,-1.92858131374444,-0.469300962936706,-0.3417791,0.77671516,-0.7669413,219.69295,-60.200226,27.781467,JUM
120249868845000,1.265073,-0.210554992547307,-1.55753917540514,-0.594180223338185,-0.50610185,1.3811663,-0.8313876,219.50568,-60.21478,27.685072,JUM
120249873841000,1.270069,-0.396273474934498,-1.07467108241339,-0.677753534352256,-0.68600166,1.6978999,-0.84879726,219.24986,-60.216,27.572523,JUM
120249879666000,1.275894,-0.604339857281256,-0.522639150577198,-0.639362689373853,-0.7535023,2.271197,-0.86315256,218.72478,-60.298347,27.320675,JUM
120249883848000,1.280076,-0.747288797044667,-0.13463490500102,-0.508666531960024,-0.8359691,2.7183504,-0.84391034,218.14201,-60.351612,27.057936,JUM
120249888805000,1.285033,-0.896330441187171,0.277276291248444,-0.280506462539014,-0.85918194,2.9981265,-0.7877107,217.41624,-60.452835,26.70706,JUM
120249893912000,1.29014,-1.02275805215893,0.63782907820584,0.0519513019310675,-0.8185594,3.098614,-0.7498371,216.61311,-60.547333,26.33077,JUM
120249898779000,1.295007,-1.13809819029873,0.994587683801637,0.480764560504782,-0.7443393,3.0341678,-0.71868294,215.55563,-60.424026,26.04056,JUM
120249903911000,1.300139,-1.24954531552795,1.39676637846791,1.15429269805383,-0.6569856,2.8625145,-0.711658,214.5307,-60.322865,25.718958,JUM
120249908836000,1.305064,-1.27531164921413,1.88971945135345,1.89136682882022,-0.5839872,2.5793786,-0.73853606,213.53897,-60.310707,25.274044,JUM
120249913855000,1.310083,-1.13074523901232,2.61721476058989,2.83338012424566,-0.52839845,2.232407,-0.78984874,212.64336,-60.319546,24.818151,JUM
120249918790000,1.315018,-0.988598350320171,3.33253441611526,3.75962750677695,-0.49693888,1.8637499,-0.84299403,211.76755,-60.3844,24.230968,JUM
120249923837000,1.320065,-0.843225432948482,4.06408827658873,4.70689610650044,-0.5039638,1.4483615,-0.8970556,211.03078,-60.459316,23.647747,JUM
120249928808000,1.325036,-0.582293869100556,4.80975214346471,5.71951285750379,-0.4896085,0.99021256,-0.945314,210.4295,-60.53828,23.082104,JUM
120249933849000,1.330077,0.178000882364831,5.67169075922183,7.08153807478524,-0.47861293,0.5546656,-1.0064005,209.95917,-60.62423,22.526258,JUM
120249938850000,1.335078,0.932262745502779,6.5267899493431,8.43275571248105,-0.56596667,0.19058995,-1.0876455,209.42796,-60.716183,21.740149,JUM
120249943871000,1.340099,2.48563780987849,8.40810623871382,10.5965756230366,-0.8136725,-0.15363261,-1.1759156,209.04665,-60.764057,20.986984,JUM
120249949282000,1.34551,4.33873233747901,10.6656053186802,13.110027617801,-1.2311989,-0.6301075,-1.2168436,208.82938,-60.737633,20.288185,JUM
120249953886000,1.350114,5.17433896404382,12.6351087832669,12.8018998516932,-1.7253889,-1.0195341,-1.1954633,208.6375,-60.48075,19.643066,JUM
120249958882000,1.35511,5.97017912280876,14.7795890366534,12.1013693403386,-2.2250767,-0.9459248,-1.2647965,208.49905,-60.125816,18.993584,JUM
120249963853000,1.360081,5.06219527586207,15.4040189683908,9.17903897586207,-2.6111436,-0.8078693,-1.5372424,208.4662,-59.47581,18.499004,JUM
120249968852000,1.36508,3.7196992627824,15.6506962382085,5.67811266623068,-2.4853053,-0.7519751,-1.885741,208.51038,-58.847908,18.013222,JUM
120249973826000,1.370054,3.42220167397528,14.7148966370588,0.906511575878012,-1.8445076,-0.3118467,-2.0179935,208.52745,-58.392284,17.640034,JUM
120249978847000,1.375075,3.42647704632346,13.4237331164755,-4.28806953253312,-1.5589281,0.55924714,-2.1423044,208.4813,-57.95792,17.138458,JUM
120249983846000,1.380074,3.9473895428131,13.0732135529449,-8.52609993004465,-1.4010195,1.5580118,-2.0882428,208.49136,-58.04675,16.489847,JUM
120249988828000,1.385056,4.93144879088879,13.565243521263,-11.90943725303,-1.6392568,2.685669,-1.8774943,208.22845,-58.078133,15.738028,JUM
120249993863000,1.390091,6.51664658323365,14.6793146642743,-11.4637105962919,-1.954158,3.8750236,-1.5262468,208.07004,-58.49533,15.20706,JUM
120249998855000,1.395083,8.41331224830542,16.1232586259968,-8.89511013696172,-2.0442605,4.241543,-0.9969321,207.76118,-58.840046,14.738393,JUM
120250003843000,1.400071,10.4876924024119,17.0718803736549,-5.09504761042672,-1.5280794,2.9089403,-0.2929099,207.70476,-59.388653,14.762733,JUM
120250008896000,1.405124,12.6918002214286,17.7497220428571,-0.538695355714286,-0.21410827,0.5207626,0.39278635,207.741,-60.0085,14.987489,JUM
120250013847000,1.410075,14.2992328216624,18.2645703031145,1.92653775969054,1.1945469,-1.5008959,0.8741482,207.95134,-60.39629,15.634252,JUM
120250019088000,1.415316,15.3845195765721,18.6429276685182,2.30489481319183,1.9428569,-2.6074784,1.1276573,208.50053,-60.814003,16.537424,JUM
120250023829000,1.420057,15.8763758580376,18.9061765824635,2.71593444070981,1.8854356,-2.8411343,1.2809844,209.16972,-60.66253,17.888844,JUM
120250028858000,1.425086,15.8512392572025,19.0972145388309,3.22872141271399,1.4046847,-1.8784106,1.4172074,209.77878,-60.496075,19.186712,JUM
120250033846000,1.430074,14.6197253528218,19.2330792943565,3.04867608390175,0.7449502,-0.14294247,1.4828753,210.26547,-60.127884,20.480759,JUM
120250038840000,1.435068,12.4012173950467,19.3253152099066,2.30593699624442,0.23396139,1.5149459,1.4575244,210.48048,-59.67248,21.595299,JUM
120250043889000,1.440117,10.3291797057768,19.3887257531102,1.62293486388273,-0.11148291,2.2018638,1.4544702,210.43427,-59.10794,22.545012,JUM
120250048850000,1.445078,8.41391238186903,19.4299634376507,0.999785754257884,-0.33322698,1.9734001,1.5238034,210.16888,-58.48723,23.365023,JUM
120250053842000,1.45007,6.57269952289252,19.462457699158,0.536407439354928,-0.50243664,1.1881329,1.5748106,209.80122,-58.080673,23.861845,JUM
120250058836000,1.455064,4.81503156560674,19.4861459305597,0.233197856777018,-0.5119051,0.17195857,1.509448,209.57942,-57.684364,24.374268,JUM
120250063798000,1.460026,3.53809638780728,19.5024588783409,-0.149826047938142,-0.27977628,-0.31612277,1.3353515,209.3759,-57.5172,24.667734,JUM
120250068849000,1.465077,2.7554546159292,19.5111065768302,-0.629788689687852,0.077579886,-1.0720685,1.1691961,209.55978,-57.384323,25.073824,JUM
120250073806000,1.470034,2.19113933731216,19.518761021848,-1.13756196317809,0.25870144,-1.4905112,1.097114,209.74048,-57.42304,25.28082,JUM
120250078860000,1.475088,2.26335670440158,19.5239200554194,-1.77204407489076,0.5644395,-1.6154331,0.99112886,210.08696,-57.584446,25.478958,JUM
120250083790000,1.480018,2.59090888122942,19.4943350474005,-2.09880872895919,0.806953,-1.5906931,0.8863655,210.51361,-57.857754,25.602972,JUM
120250089157000,1.485385,3.43208156015368,19.3968817672887,-1.90390286498353,0.9621128,-1.6022996,0.7629707,211.00862,-58.184246,25.705286,JUM
120250093834000,1.490062,4.17465056843354,19.2845562832278,-1.58576466225475,1.0790935,-1.6920967,0.6395759,211.57896,-58.56856,25.803234,JUM
120250098849000,1.495077,4.98682753708465,19.1183213326741,-0.996817553779668,1.1478158,-1.8634444,0.5708536,212.18988,-58.96902,25.884214,JUM
120250103775000,1.500003,5.70418796807845,18.6265492504264,-0.354300120180026,1.183246,-2.076331,0.600786,212.87492,-59.2954,26.044636,JUM
120250108868000,1.505096,6.28186808010233,17.4480814570779,0.440587533678226,1.1994339,-2.302351,0.6786713,213.62161,-59.614117,26.204834,JUM
120250113783000,1.510011,6.66971837388,16.3008152642,1.024719252125,1.2318097,-2.4642303,0.7696902,214.4114,-59.811344,26.45727,JUM
120250118844000,1.515072,6.47099861376,15.0842632184,0.9810978605,1.2513574,-2.563496,0.8707884,215.24577,-59.967506,26.733187,JUM
120250123861000,1.520089,6.2479614286848,13.9139461517468,0.881984680764541,1.2739595,-2.562885,0.91354895,216.07259,-59.95131,27.119083,JUM
120250128857000,1.525085,5.94235635526952,12.8628497363786,0.604161830049356,1.3130548,-2.4058928,0.890947,216.87816,-59.91715,27.496313,JUM
120250133804000,1.530032,5.65738128464494,11.878057905532,0.356342925101273,1.3460416,-2.0937407,0.80878556,217.63312,-59.823254,27.892717,JUM
120250138842000,1.53507,5.46038782136738,11.1711987967336,0.248189644976383,1.3628404,-1.6887369,0.70188415,218.31099,-59.733982,28.248705,JUM
120250143878000,1.540106,5.26347256113201,10.4646202989352,0.140079299857497,1.3539828,-1.25319,0.600786,218.89854,-59.631718,28.584867,JUM
120250148946000,1.545174,5.03090060694338,9.89899479067384,0.14767127085319,1.3161092,-0.8179486,0.53023106,219.36069,-59.540215,28.8703,JUM
120250154137000,1.550365,4.77615688153557,9.38950760585874,0.211357153438381,1.2739595,-0.4260785,0.4859433,219.70044,-59.46064,29.109114,JUM
120250158971000,1.555199,4.51678244249144,8.98420442833676,0.332344685351129,1.2385293,-0.087964594,0.44501534,219.92532,-59.365803,29.333212,JUM
120250163845000,1.560073,4.21646274243669,8.69666444969199,0.562376828398357,1.1673635,0.06688975,0.38423425,220.08698,-59.27794,29.52662,JUM
120250169031000,1.565259,3.89691863811088,8.39071813675564,0.807134049129363,1.0989466,0.39370266,0.32498032,220.06157,-59.18625,29.68736,JUM
120250173867000,1.570095,3.4020086157969,8.0278359393512,1.28807376156559,1.0122037,0.4465425,0.2932153,220.0782,-59.094864,29.8426,JUM
120250178875000,1.575103,2.61281130854098,7.54304333129604,2.14115852351512,0.9779953,0.4578435,0.26175576,220.00708,-59.017746,29.967371,JUM
120250183849000,1.580077,1.8289719702241,7.06154204685786,2.98845157581884,0.9431759,0.37965274,0.2507602,219.8879,-58.94492,30.064196,JUM
120250188843000,1.585071,1.28908168720908,6.50019470762535,3.61106689110691,0.9398162,0.20463985,0.2611449,219.79909,-58.87507,30.15999,JUM
120250193850000,1.590078,0.79006393499527,5.92405603394513,4.19627860879849,0.9465357,-0.08155051,0.2666427,219.77469,-58.80826,30.25728,JUM
120250198849000,1.595077,0.335864369778584,5.29223740018149,4.59559312372051,0.97158116,-0.44012842,0.26053402,219.6753,-58.719627,30.319513,JUM
120250203768000,1.599996,-0.0958905976333939,4.65101718248639,4.92475265097096,0.9990701,-0.8197812,0.26419923,219.67137,-58.63173,30.393536,JUM
120250208839000,1.605067,-0.518289166860927,3.96264590869757,5.08810847505519,1.0195341,-1.1643091,0.2602286,219.64995,-58.52917,30.460405,JUM
120250213771000,1.609999,-0.909289242728477,3.26927225094923,5.09332191479029,1.0015136,-1.4153748,0.25503623,219.71301,-58.43036,30.53416,JUM
120250218764000,1.614992,-1.16664501209098,2.55769707189745,4.82452460381085,0.9297369,-1.5696182,0.23487769,219.78133,-58.441597,30.514538,JUM
120250223785000,1.620013,-1.36811914876297,1.8381468485435,4.44076462494014,0.7987063,-1.564426,0.20861048,219.87387,-58.450233,30.493965,JUM
120250228779000,1.625007,-1.48120418220416,1.21432522552846,3.9488972704607,0.65668017,-1.4010195,0.1695151,219.95169,-58.514378,30.421095,JUM
120250233764000,1.629992,-1.55787241145237,0.629729592240289,3.41221916537188,0.46211955,-1.0793989,0.15515977,219.97137,-58.56535,30.33917,JUM
120250238759000,1.634987,-1.60065766717619,0.128519328929002,2.93177507711183,0.25350907,-0.6621779,0.16310102,219.95549,-58.61407,30.255323,JUM
120250243773000,1.640001,-1.6296307616251,-0.339879359073813,2.47303421331456,0.018325957,-0.21868975,0.17379116,219.82275,-58.649403,30.15023,JUM
120250248764000,1.644992,-1.60824331208511,-0.688060282598582,2.17977096465248,-0.20830505,0.21960606,0.19303341,219.62662,-58.655197,30.064602,JUM
120250253799000,1.650027,-1.5672057052766,-0.993562695156501,1.94722428800946,-0.41416663,0.59589905,0.20769419,219.30292,-58.64142,29.958662,JUM
120250258849000,1.655077,-1.49380468243367,-1.25045429244688,1.80026248243367,-0.6252206,0.8677341,0.2312125,218.92914,-58.58894,29.875679,JUM
120250263825000,1.660053,-1.40176142973468,-1.47329588089865,1.70821922973468,-0.77091193,0.9560041,0.23976462,218.49055,-58.5216,29.7771,JUM
120250268815000,1.665043,-1.33182164624779,-1.65283970839004,1.67883825565396,-0.8426886,1.03786,0.24587326,218.00113,-58.412937,29.699226,JUM
120250274233000,1.670461,-1.26893986448215,-1.82213677817656,1.68367531190454,-0.9673051,0.97585726,0.24617869,217.52739,-58.28002,29.618368,JUM
120250278804000,1.675032,-1.19669229306585,-1.95271556331781,1.62451679273767,-1.0454959,0.8014552,0.23182335,217.08008,-58.11768,29.562439,JUM
120250283802000,1.68003,-1.10041528889477,-2.08446312903875,1.5029036958501,-1.1145236,0.54550266,0.2098322,216.67697,-57.938892,29.507725,JUM
120250288784000,1.685012,-0.973300354015106,-2.13852235984894,1.18360459286424,-1.1606439,0.25442538,0.16982053,216.34363,-57.73467,29.474775,JUM
120250293804000,1.690032,-0.825184360971974,-2.14330029028026,0.734478832975552,-1.1829406,0.0021380284,0.12492194,216.07884,-57.525074,29.44518,JUM
120250298807000,1.695035,-0.639884935455055,-2.04849532231359,0.187421577705102,-1.1792754,-0.1685988,0.08124508,215.90216,-57.297955,29.446985,JUM
120250303837000,1.700065,-0.428330768346104,-1.88645379241263,-0.429236353055504,-1.1554517,-0.26816985,0.037873644,215.78362,-57.075428,29.447817,JUM
120250308855000,1.705083,-0.199902625597975,-1.67292220961013,-1.01615687346835,-1.1221595,-0.32498032,0.002443461,215.77841,-56.85675,29.496271,JUM
120250313852000,1.71008,0.0472488122329114,-1.40154022516456,-1.56861304886076,-1.0626001,-0.35308012,-0.025961773,215.79648,-56.6492,29.540564,JUM
120250318839000,1.715067,0.244887757198844,-1.13045697460761,-2.02052365106403,-0.9789116,-0.35185838,-0.06352998,215.93253,-56.46957,29.638342,JUM
120250323838000,1.720066,0.392406552785749,-0.858469206827155,-2.37088081645643,-0.8720101,-0.3359759,-0.10293079,216.07518,-56.30654,29.730824,JUM
120250328824000,1.725052,0.508955752421525,-0.60474528911435,-2.65646883699552,-0.763887,-0.27885997,-0.13744467,216.2877,-56.164352,29.87606,JUM
120250333852000,1.73008,0.582567927130045,-0.374093767707909,-2.85276796271912,-0.6462954,-0.20738874,-0.17715092,216.49612,-56.047882,30.009207,JUM
120250338810000,1.735038,0.636527813048986,-0.180825133762763,-2.94118780541479,-0.5314528,-0.122478485,-0.21288654,216.70099,-55.92998,30.18948,JUM
120250344635000,1.740863,0.673173311148649,-0.00283277783183184,-2.89407215953453,-0.4129449,-0.030543262,-0.24770586,216.88855,-55.835876,30.355507,JUM
120250348784000,1.745012,0.686595778330531,0.10302336679636,-2.8260927920087,-0.312763,0.06841691,-0.28619036,216.99184,-55.70088,30.573606,JUM
120250353808000,1.750036,0.677078649817031,0.188677581056473,-2.67381853703887,-0.21624629,0.17715092,-0.33414328,217.0816,-55.59149,30.771067,JUM
120250358853000,1.755081,0.647144475062601,0.251578307901091,-2.50205065355035,-0.1328632,0.2321288,-0.39522982,217.17126,-55.515247,30.93843,JUM
120250363815000,1.760043,0.570649911201037,0.260077709802361,-2.28956593883026,-0.09468412,0.37018433,-0.42485678,217.21329,-55.447502,31.086811,JUM
120250368899000,1.765127,0.485139408617945,0.267783326490593,-2.06938036287988,-0.070249505,0.539394,-0.48716503,217.22281,-55.40201,31.190113,JUM
120250373825000,1.770053,0.314461589620633,0.262906805446558,-1.82555481987802,-0.028099801,0.73731434,-0.5479461,217.1912,-55.369564,31.273144,JUM
120250378826000,1.775054,0.1026962948125,0.245151277535937,-1.5324536500625,-0.025350908,0.96852684,-0.59956425,217.05908,-55.346325,31.29657,JUM
120250383859000,1.780087,-0.382128604175781,0.136889411235254,-0.915831703371094,-0.026572637,1.2415836,-0.6627888,216.865,-55.347565,31.280634,JUM
120250388841000,1.785069,-0.829458034732811,0.0344054442635296,-0.324103042697413,-0.050701816,1.5378532,-0.7296785,216.57748,-55.421818,31.148373,JUM
120250393865000,1.790093,-0.903151863949966,-0.0147237699420524,0.0566483811827774,-0.09682214,1.813659,-0.8042041,216.22046,-55.51159,30.976337,JUM
120250398782000,1.79501,-0.975276178890402,-0.0628066414087815,0.429290648543227,-0.16707164,2.0638082,-0.87109387,215.62582,-55.63392,30.64028,JUM
120250403784000,1.800012,-0.956890621430787,-0.0410714617411351,0.905948279706399,-0.24495697,2.2296581,-0.9431759,214.9867,-55.772007,30.258293,JUM
120250408786000,1.805014,-0.902415805998139,0.0084511141025535,1.42098301304662,-0.3145956,2.3044891,-0.9941832,214.31177,-55.915318,29.841043,JUM
120250413766000,1.809994,-0.737657402345591,0.179788534568883,1.92240238069241,-0.37934732,2.283109,-1.0476339,213.6116,-56.17128,29.265694,JUM
120250418713000,1.814941,-0.543551208855884,0.383600012397624,2.41737311531292,-0.42455134,2.1719313,-1.0830641,212.92793,-56.422955,28.675303,JUM
120250423783000,1.820011,-0.329600514049611,0.707679442227626,2.95791785098249,-0.4370741,1.9926424,-1.102001,212.21397,-56.66018,28.030317,JUM
120250428758000,1.824986,-0.116404782264591,1.05064650521401,3.49554195190661,-0.44318274,1.765706,-1.1087204,211.56213,-56.886833,27.386417,JUM
120250433761000,1.829989,0.186500102775498,1.47820458479376,3.95303781315411,-0.39950588,1.5112807,-1.1166617,210.92868,-57.08208,26.729494,JUM
120250438738000,1.834966,0.514170161348245,1.9281395814488,4.38341043197209,-0.35369098,1.1954633,-1.1447614,210.39703,-57.26901,26.089148,JUM
120250443769000,1.839997,1.15679483930166,2.28854710884833,4.53312315761333,-0.34880406,0.79443026,-1.1887437,209.92029,-57.415924,25.443842,JUM
120250448739000,1.844967,1.86028781360976,2.62376860483087,4.61810877719472,-0.3943135,0.3475823,-1.239751,209.56688,-57.55216,24.827116,JUM
120250453815000,1.850043,2.72568580691508,2.93246048434253,4.5092382155679,-0.5723807,-0.09896017,-1.2904528,209.31998,-57.61701,24.251316,JUM
120250458892000,1.85512,3.62721211675027,3.23296931492297,4.35245118745073,-0.81306165,-0.30634892,-1.325883,209.14879,-57.650185,23.69423,JUM
120250463852000,1.86008,4.60668604031108,3.94409079288183,4.57125070460143,-1.0567969,-0.7104363,-1.3399329,209.235,-57.557194,23.360458,JUM
120250468820000,1.865048,5.65505767686325,4.94107174816375,5.04404589526896,-1.1759156,-1.1059716,-1.3335189,209.38571,-57.432663,23.054281,JUM
120250473821000,1.870049,6.37011418137584,6.39840614261745,6.33950407919463,-1.4110987,-1.5812247,-1.3008375,209.79689,-57.1276,23.072641,JUM
120250478825000,1.875053,6.96110295352349,8.02261974328859,7.93557521744967,-1.5754215,-2.0766363,-1.2660183,210.32346,-56.81239,23.14705,JUM
120250483824000,1.880052,7.1573805529439,9.46431832110563,8.2273563220561,-1.6624697,-2.6322184,-1.2886202,211.04259,-56.387363,23.43551,JUM
120250488802000,1.88503,6.62098194810419,10.5640578560419,6.09890707689581,-1.6212363,-2.7742445,-1.3588698,211.77943,-55.974125,23.725641,JUM
120250493822000,1.89005,6.0800576820746,11.6730760290793,3.9524998429254,-1.5100589,-1.8249599,-1.5216653,212.23015,-55.555504,23.768347,JUM
120250498825000,1.895053,5.54096523128853,12.7783385628853,1.81336131871147,-1.611768,-0.37048978,-1.6325374,212.57942,-55.130135,23.752724,JUM
120250503842000,1.90007,5.1707166740043,13.4067395701874,-1.26162362597618,-1.9150625,1.0341948,-1.4844025,212.67308,-54.683113,23.641682,JUM
120250508887000,1.905115,5.00092548516205,13.4680532616166,-5.45923594591956,-2.2739458,2.2128594,-1.2144,212.43355,-54.209904,23.375847,JUM
120250513846000,1.910074,5.37424034956406,14.0919417479151,-7.56192891278431,-2.5583036,3.397938,-0.9434814,212.1675,-54.27588,22.907522,JUM
120250518853000,1.915081,6.51939486887794,15.5233838294162,-6.80758123007961,-2.588236,4.1123447,-0.65087694,211.6654,-54.250996,22.423264,JUM
120250523815000,1.920043,7.86934364223838,16.755356235852,-5.83697748223206,-1.9822577,3.8108828,-0.27122417,211.46266,-54.559177,22.26603,JUM
120250528858000,1.925086,9.75760971988618,17.5595242083465,-4.31516743819159,-0.48288897,2.8414397,0.20189096,211.1764,-54.9648,22.194519,JUM
120250533845000,1.930073,10.8311621582382,18.1714267709806,-3.65525467219503,1.3686435,2.2091942,0.6169739,210.84909,-55.43859,22.281164,JUM
120250538836000,1.935064,10.7358609265905,18.5136449945623,-4.24005702664492,2.3854287,2.2504275,0.7797695,210.55505,-55.9728,22.44482,JUM
120250543822000,1.94005,10.3896326315237,18.8273473955686,-4.36809799170429,2.3157902,2.525317,0.6282749,210.3518,-56.381157,22.858467,JUM
120250548849000,1.945077,8.97917494055445,19.0245073596556,-2.56837434722251,1.7073684,2.645352,0.4098906,210.14778,-56.811153,23.268932,JUM
120250553795000,1.950023,7.53343173541134,19.1904621186212,-0.857002423535748,1.138042,2.5815165,0.29260445,209.95833,-57.27084,23.602655,JUM
120250558926000,1.955154,5.88268727207486,19.2897055517032,0.763969182590548,0.8405506,2.2385156,0.19272798,209.82333,-57.66257,23.875114,JUM
120250563833000,1.960061,4.30400805133971,19.3846163928908,2.3141753161438,0.7611381,1.6939293,0.1337795,209.5394,-58.05709,23.830011,JUM
120250568834000,1.965062,3.25290804443748,19.4584731656743,3.18275715917685,0.61636305,1.0974194,0.05100725,209.38155,-58.390816,23.795036,JUM
120250573892000,1.97012,3.39458831488562,19.4837732045336,2.52495572614645,0.33108896,0.6197228,0.09285152,209.33641,-58.650936,23.822144,JUM
120250578830000,1.975058,3.70535265565512,19.5022271435683,2.07978424972123,0.028099801,0.32375857,0.21471913,209.05345,-59.006706,23.438475,JUM
120250583869000,1.980097,4.27710150632218,19.5118360610315,1.91642738507567,-0.14782938,0.059864793,0.33017266,208.90616,-59.305,23.133207,JUM
120250588848000,1.985076,4.88959425030675,19.5189951423313,1.81666738196319,-0.07422013,-0.2910773,0.38789943,208.9241,-59.587757,22.938354,JUM
120250593883000,1.990111,5.58108161265337,19.5226933961656,1.8092718009816,0.13744467,-0.7180721,0.43890667,209.0333,-59.82709,22.818884,JUM
120250598834000,1.995062,6.26103274095092,19.526329951227,1.80199960208589,0.35460728,-1.1478158,0.49968776,209.29863,-60.011227,22.843893,JUM
120250603827000,2.000055,7.05217593956321,19.5303853202819,1.6202818981728,0.42424592,-1.5158621,0.6246097,209.65923,-60.170513,22.938839,JUM
120250608842000,2.00507,7.87541190532498,19.5345638324197,1.39044435653876,0.35369098,-1.829236,0.79504114,210.11914,-60.308094,23.0992,JUM
120250613869000,2.010097,8.28741506722819,19.5061913361409,1.10294506138873,0.23518312,-2.0787745,0.9630291,210.73013,-60.327602,23.435076,JUM
120250618865000,2.015093,8.27512866878948,19.4447593439474,0.758925661347645,0.11484267,-2.2708917,1.0778717,211.40277,-60.29953,23.816414,JUM
120250623822000,2.02005,8.26293818098711,19.3838069049355,0.417591761026655,0.048563786,-2.4318545,1.1725558,212.2159,-60.143406,24.369417,JUM
120250628831000,2.025059,8.25061981233629,19.3222150616815,0.0726771944122028,0.04795292,-2.5534167,1.2632693,213.05951,-59.947697,24.947054,JUM
120250634552000,2.03078,8.01621626299646,18.935764683838,-0.171316763578451,0.09621128,-2.6627617,1.3435981,213.936,-59.725464,25.541191,JUM
120250638828000,2.035056,7.75051389587102,18.5170811443177,-0.292090731525757,0.18448131,-2.7397306,1.4010195,214.83002,-59.4896,26.141695,JUM
120250643868000,2.040096,7.40099705032693,17.9084367749158,-0.343579096710917,0.29718593,-2.7910433,1.4404203,215.80222,-59.266304,26.764841,JUM
120250648852000,2.04508,7.02743509138102,17.2180574794928,-0.324664564893996,0.4352415,-2.8389962,1.466382,216.7933,-59.040977,27.384033,JUM
120250653841000,2.050069,6.6690405647553,16.5042994744554,-0.295715365863046,0.6081163,-2.8576276,1.4520267,217.78854,-58.832005,27.979376,JUM
120250658848000,2.055076,6.32241760042005,15.768896532871,-0.258242619835889,0.6936375,-2.8231137,1.430341,218.78279,-58.616737,28.558226,JUM
120250663846000,2.060074,5.99472691096546,15.0331818895799,-0.224630696912257,0.85918194,-2.688418,1.3710871,219.73903,-58.42945,29.094437,JUM
120250668935000,2.065163,5.67995271036265,14.2823871260166,-0.19431910632284,1.0076222,-2.4587326,1.3139712,220.6577,-58.245552,29.597927,JUM
120250673819000,2.070047,5.37785854731605,13.5618366003253,-0.165228556423309,1.1459832,-2.1444426,1.2476922,221.48865,-58.074383,30.056349,JUM
120250678859000,2.075087,5.06611518495838,12.8182709472778,-0.135208824340255,1.2620476,-1.7950275,1.1695015,222.24045,-57.92459,30.465067,JUM
120250683878000,2.080106,4.7143171011656,12.0838116255382,-0.0532813584154153,1.368949,-1.4410311,1.1120802,222.89253,-57.789158,30.830618,JUM
120250688868000,2.085096,4.27773417792712,11.3662094875564,0.137410027019847,1.4379768,-1.1203269,1.0735956,223.44539,-57.667168,31.152483,JUM
120250693848000,2.090076,3.82828781698282,10.6563132376601,0.317572581897904,1.486846,-0.80756384,1.039998,223.85477,-57.52557,31.458591,JUM
120250698850000,2.095078,3.35729613880226,9.95220461376502,0.484084820108253,1.5143349,-0.5161811,1.0183123,224.1688,-57.387913,31.737118,JUM
120250704393000,2.100621,2.79053852027148,9.15561564956582,0.652059261375387,1.518611,-0.23426682,0.99387777,224.3428,-57.253025,31.982492,JUM
120250708901000,2.105129,2.28638115015471,8.49202356133347,0.77271229306318,1.5115861,0.04184427,0.95233893,224.4259,-57.126114,32.201473,JUM
120250713830000,2.110058,1.79322094344828,7.78028664508854,0.939535626803355,1.4727961,0.27550024,0.8854492,224.39844,-57.0113,32.384712,JUM
120250718844000,2.115072,1.38150930068966,7.07769192782852,1.16329198892824,1.4410311,0.441961,0.8179486,224.30551,-56.90734,32.54538,JUM
120250723815000,2.120043,0.987990362139377,6.37150159699216,1.44153971762338,1.416902,0.52320606,0.75319684,224.11865,-56.827644,32.665943,JUM
120250728863000,2.125091,0.634705360385512,5.62397128104215,1.90234619980936,1.4080443,0.505491,0.6792821,223.91493,-56.76963,32.75931,JUM
120250733781000,2.130009,0.319388448359352,4.93283846172815,2.38451825114845,1.4046847,0.39706242,0.61422503,223.66945,-56.716587,32.835964,JUM
120250738844000,2.135072,0.0493981109118027,4.29161129890623,2.94378386636174,1.4199562,0.21930063,0.5516113,223.45845,-56.68585,32.891438,JUM
120250743824000,2.140052,-0.17886289454218,3.66114917151006,3.47203372698889,1.4361442,-0.0067195175,0.50976706,223.25385,-56.611137,32.97301,JUM
120250748850000,2.145078,-0.337813154710297,3.02534810066046,3.96333480822576,1.4611896,-0.20922135,0.49296826,223.10245,-56.5512,33.043858,JUM
120250753774000,2.150002,-0.481112541073512,2.4193748596266,4.37135631213536,1.4758505,-0.28771752,0.49449542,222.90524,-56.413994,33.165043,JUM
120250758865000,2.155093,-0.604376225145858,1.82676107386231,4.64632897447491,1.4666874,-0.42730024,0.51343226,222.79112,-56.284065,33.285652,JUM
120250763783000,2.160011,-0.765709562003194,1.15431031100071,4.83271657820263,1.4526376,-0.47036624,0.52656585,222.53044,-56.267082,33.3048,JUM
120250768845000,2.165073,-1.04095612635735,0.203849575301632,4.81981436111604,1.3756685,-0.38759398,0.5311473,222.27216,-56.245502,33.32443,JUM
120250774081000,2.170309,-1.3184749440474,-0.730792421376481,4.80159266244303,1.2321151,-0.23090707,0.5137377,221.94565,-56.224777,33.335384,JUM
120250778859000,2.175087,-1.49783618587056,-1.08534375893345,4.73485354102097,0.9978484,-0.0076358155,0.49938235,221.56544,-56.195683,33.34138,JUM
120250783828000,2.180056,-1.68436737268915,-1.45406824539654,4.66544653090246,0.71685034,0.21746802,0.4654793,221.1276,-56.140236,33.36085,JUM
120250788856000,2.185084,-1.73392268038835,-1.56035371401942,4.50873832512621,0.38698313,0.4089743,0.4098906,220.6227,-56.08179,33.36057,JUM
120250793878000,2.190106,-1.75726961708738,-1.61638641085437,4.3359709935534,0.045814894,0.528093,0.3387248,220.06412,-56.02197,33.33625,JUM
120250798850000,2.195078,-1.76593291721419,-1.55964775045992,4.1137608977661,-0.24709499,0.57696223,0.2678644,219.4693,-55.95494,33.29329,JUM
120250803779000,2.200007,-1.77070437654908,-1.47376143260892,3.87995919106439,-0.5195409,0.5476407,0.21594086,218.85942,-55.879864,33.226376,JUM
120250808876000,2.205104,-1.77952432548251,-1.35407845835344,3.49467387313028,-0.72173727,0.4746423,0.16462818,218.27675,-55.80434,33.138947,JUM
120250813790000,2.210018,-1.78898565256333,-1.23108179906514,3.0878385869421,-0.86590147,0.3915646,0.10842858,217.70761,-55.72226,33.028534,JUM
120250818847000,2.215075,-1.78510890623099,-1.04173032456677,2.56214302423413,-0.9575313,0.31581733,0.055588737,217.19891,-55.644657,32.90067,JUM
120250823802000,2.22003,-1.77812433025709,-0.841506354632519,2.02200399032431,-0.9779953,0.2574797,-0.00061086525,216.71394,-55.568226,32.751034,JUM
120250828858000,2.225086,-1.77099738452066,-0.637201129206162,1.47085505885144,-0.9334021,0.22418754,-0.037873644,216.31337,-55.509968,32.593414,JUM
120250833781000,2.230009,-1.76405791579825,-0.438270230318909,0.934204309318026,-0.8390234,0.2180789,-0.0852157,215.92628,-55.464554,32.411953,JUM
120250838828000,2.235056,-1.73196793839133,-0.161866057715345,0.497059772361951,-0.6979135,0.2565634,-0.12614368,215.53677,-55.428425,32.214134,JUM
120250843905000,2.240133,-1.69036376246435,0.143231439975281,0.0995084697788552,-0.5491679,0.34055737,-0.18387043,215.1389,-55.41239,31.988815,JUM
120250848912000,2.24514,-1.5707493230032,0.424316782284345,-0.158109100710863,-0.42302418,0.45845437,-0.24190263,214.90413,-55.48003,31.768944,JUM
120250853813000,2.250041,-1.41197341011088,0.688943329868446,-0.338937244553467,-0.36743546,0.5002986,-0.25900686,214.6675,-55.559284,31.539652,JUM
120250858859000,2.255087,-1.17585738302698,0.914407141822448,-0.502641900156433,-0.35185838,0.57451874,-0.28008172,214.40924,-55.626972,31.327747,JUM
120250863856000,2.260084,-0.871731940858428,1.09220357746774,-0.643007473816973,-0.35277468,0.6169739,-0.28710666,214.14658,-55.70072,31.11005,JUM
120250868869000,2.265097,-0.525167550948276,1.19440595073892,-0.773315341841133,-0.40653083,0.6420194,-0.29138273,213.91055,-55.798195,30.888306,JUM
120250873842000,2.27007,-0.134153922313218,1.20906895147783,-0.890619424307266,-0.4810564,0.6374379,-0.28527406,213.66933,-55.89197,30.663986,JUM
120250878852000,2.27508,0.209423449080171,1.15186355460437,-1.02794862282847,-0.5522222,0.63041294,-0.28191432,213.5004,-56.006683,30.453737,JUM
120250883849000,2.280077,0.504548656065642,1.02681048264869,-1.18301443309815,-0.6377433,0.61391956,-0.2855795,213.33607,-56.110874,30.242968,JUM
120250888856000,2.285084,0.714104113205879,0.850868236339259,-1.32228223210845,-0.7122689,0.5925393,-0.29749137,213.22751,-56.158867,30.110163,JUM
120250893873000,2.290101,0.866800397140729,0.640910847174496,-1.4511196790148,-0.7870999,0.55833083,-0.31703907,213.12991,-56.19898,29.976444,JUM
120250898847000,2.295075,0.942254147905809,0.433058978163555,-1.52484484220601,-0.8530733,0.528093,-0.34513888,213.06514,-56.161522,29.933945,JUM
120250903842000,2.30007,0.964918871657349,0.224543585914906,-1.56110840967497,-0.90469146,0.48991394,-0.38026363,213.0175,-56.123096,29.888432,JUM
120250908853000,2.305081,0.981575979053353,0.0106046665580237,-1.61810655718289,-0.9407325,0.46609017,-0.4071417,212.94247,-55.969936,29.95088,JUM
120250913857000,2.310085,0.991524558501142,-0.208264237116463,-1.69769524470625,-0.97066486,0.4596761,-0.44165558,212.88416,-55.82647,30.001783,JUM
120250918841000,2.315069,0.989704451863652,-0.381859168767307,-1.6919312724812,-0.97249746,0.4746423,-0.46761733,212.79352,-55.633266,30.101866,JUM
120250923873000,2.320101,0.97816070924879,-0.520384027108705,-1.61574262667082,-0.96791595,0.46822822,-0.49602258,212.72588,-55.45476,30.190523,JUM
120250928853000,2.325081,0.966736258091793,-0.657477388503809,-1.54034130390936,-0.9407325,0.46273044,-0.49602258,212.74525,-55.313416,30.269423,JUM
120250933848000,2.330076,0.955277395937335,-0.794983681710344,-1.46471286872994,-0.9129381,0.4370741,-0.505491,212.77963,-55.183575,30.341919,JUM
120250938809000,2.335037,0.954798675281113,-0.917887725938632,-1.32698739977511,-0.893085,0.3830125,-0.5131268,212.83879,-55.054905,30.41866,JUM
120250943874000,2.340102,0.973287928306651,-1.01957858137984,-1.07738259735468,-0.8677341,0.32559118,-0.52198434,212.91046,-54.93423,30.49701,JUM
120250948803000,2.345031,1.00447558340572,-1.11240112196748,-0.844736089154631,-0.86284715,0.28863382,-0.52839845,213.01402,-54.822372,30.560593,JUM
120250953839000,2.350067,1.07267103950106,-1.19033877881022,-0.635278615408545,-0.86742866,0.23182335,-0.5317582,213.14351,-54.713028,30.632467,JUM
120250959385000,2.355613,1.21856850423558,-1.22318887503025,-0.268900050665591,-0.86926126,0.15699236,-0.5335908,213.25726,-54.590633,30.695402,JUM
120250963854000,2.360082,1.43610146891489,-1.17484821220653,0.217959461456232,-0.88208944,0.09010262,-0.5448918,213.38837,-54.46751,30.76238,JUM
120250968780000,2.365008,1.67587935748286,-1.12156423255345,0.754605233824123,-0.8888089,-0.0027488936,-0.55680364,213.52493,-54.32066,30.842213,JUM
120250973835000,2.370063,1.84651684332087,-0.834853382510329,1.3756839214637,-0.890947,-0.11881329,-0.5522222,213.6896,-54.168907,30.93521,JUM
120250978792000,2.37502,1.9959474270903,-0.498634544648829,2.00142457023411,-0.88606006,-0.2406809,-0.5494733,213.88704,-54.018284,31.03714,JUM
120250983849000,2.380077,2.24548609133858,-0.0748661069116361,3.00236946812482,-0.8793405,-0.37201694,-0.55833083,214.02846,-53.799484,31.14685,JUM
120250988814000,2.385042,2.51819751259842,0.364245428740157,4.08859268845144,-0.88056225,-0.5103779,-0.5742133,214.21007,-53.57742,31.271454,JUM
120250993977000,2.390205,3.07501571319507,0.88516238866847,5.39122408391945,-0.8668178,-0.70157874,-0.6197228,214.34013,-53.35367,31.335958,JUM
120250998785000,2.395013,3.68858380881675,1.39262477428113,6.66449323025749,-0.86101454,-1.0235047,-0.7021896,214.55986,-53.137325,31.416092,JUM
120251003843000,2.400071,4.45663422040892,2.37807206561199,8.06887469895458,-0.81153446,-1.4501941,-0.8051204,214.68391,-52.900043,31.404537,JUM
120251008835000,2.405063,5.26160685166065,3.52361012256453,9.47978828874087,-0.73456544,-1.9422461,-0.92485,214.94263,-52.68582,31.410471,JUM
120251013853000,2.410081,5.56919142451545,5.51229757988476,9.62867384756417,-0.6227771,-2.3512204,-1.0659598,215.13814,-52.404243,31.377388,JUM
120251018847000,2.415075,5.49403185531692,8.12785247153484,8.81193954834992,-0.41538838,-2.3328943,-1.2534955,215.38344,-52.18383,31.313763,JUM
120251023834000,2.420062,4.34400339020774,9.43256065782008,6.12032023061682,0.04734206,-1.5717562,-1.5464053,215.39279,-52.012608,31.065342,JUM
120251029491000,2.425719,2.40542792303469,10.1415540675391,1.96056352522193,0.6930266,-0.10751228,-1.8759671,215.24365,-51.955433,30.688759,JUM
120251033878000,2.430106,1.57914332313935,10.5257088405766,-1.21611845833956,0.9841039,1.070236,-2.0705278,215.09618,-52.303234,30.051308,JUM
120251038835000,2.435063,1.28006573198078,10.8045097875067,-4.75942755264282,0.6356053,1.6649132,-2.0182989,214.71881,-52.644848,29.329184,JUM
120251043850000,2.440078,1.69519651918028,12.215308954304,-8.17454007124962,-0.07941248,1.9285016,-1.8912388,214.64688,-53.57136,28.354347,JUM
120251048849000,2.445077,2.58753535211945,14.3741931548251,-11.4656389099108,-0.763887,2.6340508,-1.7876972,214.24663,-54.398415,27.297499,JUM
120251053848000,2.450076,3.86171725211214,15.8442910969881,-13.7341510159121,-1.0363328,3.6163223,-1.4932601,214.09229,-55.3621,26.482231,JUM
120251058855000,2.455083,5.3877222863137,16.8661696226558,-15.337364625592,-1.4074335,4.8588223,-0.98471475,213.58678,-56.090073,25.658722,JUM
120251063847000,2.460075,6.10065298237598,17.6306525540843,-14.8081007584856,-1.4950926,6.432411,-0.22968534,213.07706,-56.920113,25.141052,JUM
120251068845000,2.465073,5.98460607767624,18.1350096637449,-12.0943890274151,-0.6243043,7.8065524,0.57757306,212.12958,-57.66611,24.67251,JUM
120251073815000,2.470043,5.68809049623735,18.5606829281197,-9.27327532174326,1.7617353,7.937583,1.144456,211.25298,-58.393326,24.697008,JUM
120251078854000,2.475082,5.03706141521922,18.845508579258,-6.17580090645025,4.480391,6.8899493,1.1801916,210.21739,-59.17636,24.745909,JUM
120251083844000,2.480072,4.20221478188882,19.0604905738195,-3.4096236433951,5.6541686,5.237559,0.70157874,208.98398,-59.995556,24.556797,JUM
120251088838000,2.485066,3.13495499209006,19.1938982341104,-1.0082894695796,5.261077,3.6722164,0.2275473,207.99997,-60.894363,24.478327,JUM
120251093869000,2.490097,2.23122837014213,19.2983465096909,2.47091885645165,4.601648,3.285844,0.033292156,206.80124,-61.923134,24.088217,JUM
120251099134000,2.495362,1.50955543241229,19.3685084826558,7.4975713801968,4.5301766,4.5885143,-0.09254608,205.58235,-62.980915,23.633312,JUM
120251103840000,2.500068,1.63130777868179,19.4166849644045,10.948085180618,4.1868706,5.2488594,-0.38423425,204.35991,-64.036644,22.872124,JUM
120251108863000,2.505091,2.73677527729317,19.4496139565813,13.3048481928418,2.7968466,3.6465602,-0.6753115,203.45328,-64.92391,22.186335,JUM
120251113834000,2.510062,4.06051966502203,19.4761114202643,14.3282870806167,1.0757337,0.9825767,-0.7672467,202.371,-65.472466,21.342796,JUM
120251118848000,2.515076,5.76547987161234,19.493034443348,13.2536967611454,-0.22876903,-1.2168436,-0.5681047,201.70027,-65.83756,20.627148,JUM
120251123852000,2.52008,7.41643114136619,19.5090744677484,11.9522090816306,-0.929126,-2.62275,-0.1704314,201.5484,-65.72017,20.21928,JUM
120251128856000,2.525084,8.68360823535657,19.518674489383,8.91386338090945,-1.2046263,-3.3405166,0.26297748,201.85597,-65.39577,20.01653,JUM
120251133809000,2.530037,9.85503384423466,19.5276228846932,6.03941976665061,-1.2391402,-3.5317173,0.6414085,202.57834,-64.80502,20.263777,JUM
120251138825000,2.535053,10.3779323958193,19.5322499163857,4.19307858233311,-1.1490375,-3.4461963,0.926988,203.38783,-64.138824,20.640985,JUM
120251143941000,2.540169,10.8609791784481,19.5344711151673,2.40309039223178,-0.9669997,-3.3487632,1.1276573,204.43811,-63.491047,21.316338,JUM
120251148851000,2.545079,10.5687330748007,19.4990473870613,2.08575232988009,-0.72356987,-3.1041117,1.2235631,205.38658,-62.854927,22.006842,JUM
120251153958000,2.550186,10.2647614146525,19.462202381066,1.75568196645238,-0.58276546,-2.7843237,1.3848315,206.3772,-62.2776,22.815336,JUM
120251158871000,2.555099,9.97233674923096,19.4267570091343,1.43815001119091,-0.2828306,-2.5274549,1.4895949,207.30342,-61.766033,23.597458,JUM
120251163788000,2.560016,9.67967400144391,19.3912827787683,1.12035953204972,-0.03848451,-2.4065037,1.543351,208.1529,-61.25164,24.373466,JUM
120251168850000,2.565078,9.37838076790759,19.3547624301588,0.793197562268818,0.12003502,-2.410169,1.6084082,208.94983,-60.749043,25.148794,JUM
120251173803000,2.570031,9.08357527883106,19.3190284738841,0.473080368210183,0.22113322,-2.4184155,1.6716328,209.70552,-60.266502,25.907572,JUM
120251178857000,2.575085,8.55398165249898,18.7688634526833,0.354017199195002,0.27152961,-2.3823745,1.6920967,210.43823,-59.801167,26.646801,JUM
120251183829000,2.580057,7.92001346118394,17.9739646980746,0.339387165577632,0.33841935,-2.269059,1.7278323,211.14256,-59.33514,27.38166,JUM
120251188832000,2.58506,7.39339409688488,17.2173352384741,0.637181237772453,0.4654793,-2.1688771,1.7675385,211.87042,-58.988667,28.032825,JUM
120251193898000,2.590126,6.90511740080514,16.468644242979,1.06500465128343,0.5534439,-2.1465805,1.7821994,212.59026,-58.639393,28.667116,JUM
120251198850000,2.595078,6.49927266119158,15.7468406824859,1.42459995516179,0.57971114,-2.1062634,1.7925841,213.24847,-58.296032,29.269186,JUM
120251203819000,2.600047,6.13265346086287,15.0282671355932,1.75211294684129,0.56321776,-1.9767599,1.8347337,213.87277,-57.94267,29.861963,JUM
120251208860000,2.605088,5.74668098591617,14.315206819669,1.93115920622399,0.5299256,-1.7980819,1.8759671,214.40974,-57.575153,30.425085,JUM
120251213854000,2.610082,5.35780955130191,13.6161642857419,2.03763591719098,0.4801401,-1.616044,1.8680259,214.90778,-57.20707,30.965809,JUM
120251218846000,2.615074,4.78955218574221,12.8202125845078,2.06903155442856,0.3827071,-1.4391985,1.7736472,215.30402,-56.827133,31.474152,JUM
120251223893000,2.620121,4.10339724573604,11.9550604237218,2.05411515397593,0.26145032,-1.25319,1.6481144,215.64232,-56.456276,31.950071,JUM
120251228865000,2.625093,3.34837128634298,11.137185912655,1.9890849168905,0.17440203,-1.0803152,1.5030339,215.89415,-56.10287,32.38018,JUM
120251233847000,2.630075,2.55482010704545,10.3337769096591,1.90036491534091,0.10720685,-0.97005403,1.3206906,216.1162,-55.792065,32.749302,JUM
120251238834000,2.635062,1.52878313915693,9.23233308201466,1.98296954410825,0.05100725,-0.93828905,1.1453724,216.28177,-55.52609,33.055035,JUM
120251243890000,2.640118,0.404950826698365,8.00840247588799,2.12856728348055,0.0009162979,-0.9230174,1.0626001,216.42136,-55.285748,33.324036,JUM
120251248933000,2.645161,-0.13621434112681,7.34027377768288,2.06087692331972,-0.025350908,-0.9434814,0.89736104,216.56757,-55.144604,33.486908,JUM
120251253861000,2.650089,-0.320225589382287,7.01606353067211,1.86810318874861,-0.08582657,-0.9728029,0.73273283,216.71478,-55.024475,33.620968,JUM
120251258867000,2.655095,-0.375014391602909,6.74510977836442,1.66476569512067,-0.1563815,-0.95203346,0.5888741,216.78302,-54.959576,33.6754,JUM
120251263859000,2.660087,-0.274250516496997,6.54358201763094,1.45316160685004,-0.20708331,-0.88789266,0.49266282,216.84908,-54.92779,33.691372,JUM
120251268844000,2.665072,-0.185967425961873,6.31797803486549,1.24376440581092,-0.21471913,-0.8213083,0.43371433,216.93001,-54.93101,33.675327,JUM
120251273828000,2.670056,-0.107447621564738,6.07318101833753,1.03591783638959,-0.21563543,-0.7724391,0.40194935,216.9945,-54.95293,33.63354,JUM
120251278854000,2.675082,-0.06463710717967,5.75275318445712,0.801721525641679,-0.23151793,-0.7699956,0.38056904,217.08774,-54.97801,33.595535,JUM
120251284426000,2.680654,-0.0592019895060094,5.31250899908332,0.513660391092891,-0.26297748,-0.83169305,0.35521814,217.18413,-55.014206,33.54494,JUM
120251288822000,2.68505,-0.107520983686687,4.88613303488489,0.263690042029029,-0.32070425,-0.91538155,0.33383787,217.3255,-55.038258,33.51456,JUM
120251293881000,2.690109,-0.204516106976977,4.33326054904905,-0.0418446067167167,-0.3817908,-0.9831876,0.3042109,217.48055,-55.07111,33.474304,JUM
120251298848000,2.695076,-0.309905851439793,3.82905606081693,-0.315490333288975,-0.43951756,-1.0219775,0.27091873,217.69511,-55.09224,33.45666,JUM
120251303843000,2.700071,-0.42484346488587,3.35604363969134,-0.567468936019776,-0.5335908,-1.0461067,0.24251351,217.9255,-55.11467,33.4325,JUM
120251308861000,2.705089,-0.546342106588533,2.84301322058917,-0.811516809629395,-0.6206391,-1.0598512,0.21166481,218.21503,-55.130417,33.42711,JUM
120251313861000,2.710089,-0.677794408351811,2.26664541359941,-1.03903043015521,-0.7351763,-1.0711522,0.18661933,218.51045,-55.145046,33.41444,JUM
120251318916000,2.715144,-0.791529490266694,1.74055248538236,-1.20802047130013,-0.8191703,-1.0662653,0.17073683,218.84883,-55.14971,33.419987,JUM
120251323839000,2.720067,-0.882022053156885,1.28808974552985,-1.30803858413981,-0.9049969,-1.0491611,0.15607607,219.18643,-55.153988,33.417118,JUM
120251328817000,2.725045,-0.942464221607991,0.862000889661527,-1.38242986641451,-0.97158116,-1.003957,0.15668693,219.54195,-55.13263,33.442997,JUM
120251333857000,2.730085,-0.970550991465425,0.46410502652507,-1.42924110877703,-1.0177015,-0.9633345,0.1518,219.89314,-55.113457,33.46153,JUM
120251338822000,2.73505,-0.978828375782345,0.108618262959365,-1.46136163574031,-1.054048,-0.9410379,0.14385876,220.22946,-55.0522,33.51764,JUM
120251343870000,2.740098,-0.960764387178888,-0.202985360080336,-1.47490960950958,-1.0619892,-0.8735373,0.14110987,220.5351,-54.990135,33.56955,JUM
120251348813000,2.745041,-0.932197543404591,-0.485004740222638,-1.48970709989164,-1.0913107,-0.83077675,0.1423316,220.71735,-54.794937,33.73445,JUM
120251354457000,2.750685,-0.868300607871146,-0.740592537956852,-1.51100606913605,-1.1096367,-0.7290677,0.1414153,220.85779,-54.603565,33.89088,JUM
120251358844000,2.755072,-0.814880301477295,-0.906688865576046,-1.5336933442098,-1.112691,-0.70249504,0.15027285,221.03462,-54.392136,34.073044,JUM
120251363861000,2.760089,-0.743424562264525,-1.00672693031925,-1.57656680763434,-1.1206323,-0.63621616,0.1432479,221.16565,-54.18521,34.242966,JUM
120251368843000,2.765071,-0.678004698878539,-1.09475236863927,-1.61938114235616,-1.1255192,-0.58123827,0.13133603,221.40498,-54.023624,34.38215,JUM
120251373863000,2.770091,-0.629709612376256,-1.14743793338813,-1.66328578728767,-1.1206323,-0.52687126,0.11575896,221.62259,-53.864586,34.516434,JUM
120251378976000,2.775204,-0.581298486146543,-1.19840459520711,-1.70914141269428,-1.1148291,-0.46883908,0.090713486,221.84987,-53.70266,34.656384,JUM
120251383875000,2.780103,-0.544179832267055,-1.21516785720083,-1.76661546096011,-1.0906999,-0.4196644,0.06658431,222.06311,-53.54589,34.79161,JUM
120251388821000,2.785049,-0.506705069644489,-1.23209194248781,-1.82464090344282,-1.033584,-0.3631594,0.03940081,222.27298,-53.39036,34.930496,JUM
120251393836000,2.790064,-0.468707509079958,-1.2492521300564,-1.88347583956308,-0.9596693,-0.30573806,0.005497787,222.442113974327,-53.2598110730582,35.0522780440756,JUM
120251408764000,2.804992,-0.355601310853176,-1.3003323454151,-2.05860802827757,-0.6411031,-0.05681047,-0.083383106,222.94557,-52.87121,35.414783,JUM
120251413775000,2.810003,-0.317634057415716,-1.3174788458949,-2.11739603723043,-0.49266282,0.08674286,-0.12095132,223.0512,-52.766907,35.52318,JUM
120251418766000,2.814994,-0.274191312797466,-1.36302178138982,-2.18215446881806,-0.3484986,0.24037547,-0.16493362,223.14151,-52.677948,35.625458,JUM
120251423771000,2.819999,-0.20776418683726,-1.52434479237775,-2.27230560690952,-0.1908954,0.43127087,-0.21288654,223.17462,-52.61202,35.70756,JUM
120251428771000,2.824999,-0.136263138246645,-1.70514005034298,-2.36413183874143,-0.053450707,0.66981375,-0.25961772,223.1718,-52.5595,35.781868,JUM
120251433768000,2.829996,-0.0411139110283328,-1.97631535265931,-2.46403840618352,0.08582657,0.8323039,-0.30665436,223.1354,-52.531113,35.838184,JUM
120251438757000,2.834985,0.0612131574321637,-2.26298454528265,-2.53750460417154,0.21197024,1.2461652,-0.32375857,222.96677,-52.49558,35.89227,JUM
120251443846000,2.840074,0.203717167174561,-2.63824507406433,-2.47575291239766,0.2706133,1.8170186,-0.34574974,222.6941,-52.47785,35.915962,JUM
120251448752000,2.84498,0.334275818561255,-2.99949717624868,-2.37094583182562,0.3640757,2.5170703,-0.35643986,222.27896,-52.434635,35.956722,JUM
120251453779000,2.850007,0.413038623312482,-3.36551255762679,-1.8983690323453,0.43035457,3.250414,-0.35246924,221.65845,-52.39457,35.962067,JUM
120251458965000,2.855193,0.480569350182102,-3.74233403720083,-1.38182068199792,0.42852196,3.9409971,-0.34391713,220.82281,-52.298733,35.986233,JUM
120251463774000,2.860002,0.379929165317378,-4.08259370626431,-0.55752963833923,0.3735441,4.4868054,-0.3484986,219.7881,-52.20648,35.97043,JUM
120251468771000,2.864999,0.269657439974575,-4.42035281918639,0.315549506874633,0.2678644,4.863404,-0.38637227,218.49016,-52.06056,35.92999,JUM
120251473777000,2.870005,0.114946965916292,-4.63600988932134,1.31882350647956,0.14202617,4.987715,-0.46700647,217.1002,-51.921154,35.84668,JUM
120251478819000,2.875047,-0.0442289831661207,-4.81585758717829,2.30902145306504,0.01740966,4.8774533,-0.6001751,215.49858,-51.759415,35.670746,JUM
120251483792000,2.88002,-0.240346933866168,-4.55733861399158,3.04892100851661,-0.087964594,4.5732427,-0.77396625,213.9416,-51.61601,35.445156,JUM
120251488792000,2.88502,-0.43752967134862,-4.29741605900796,3.79283771417876,-0.18570304,4.138001,-0.9443977,212.26561,-51.460857,35.08883,JUM
120251493798000,2.890026,-0.482435575891975,-3.63431955173868,4.13584841479424,-0.21777347,3.6532795,-1.0635164,210.7389,-51.321445,34.700085,JUM
120251499055000,2.895283,-0.515127003034756,-2.91179217320335,4.44715338530658,-0.23976462,3.2162056,-1.1301007,209.37172,-51.18994,34.288918,JUM
120251503839000,2.900067,-0.471974106419893,-2.30765142233211,4.31769461435434,-0.2489276,2.8496864,-1.1554517,208.00061,-51.100807,33.71656,JUM
120251508844000,2.905072,-0.426827733602713,-1.67560199546953,4.18225541104832,-0.25534168,2.5891523,-1.1597277,206.72287,-51.083397,33.018074,JUM
120251513886000,2.910114,-0.404840193538282,-1.15690041189804,3.66146212060512,-0.26939157,2.4382687,-1.1743884,205.56323,-51.050274,32.315434,JUM
120251518782000,2.91501,-0.386594036612511,-0.668815890368713,3.10495462968188,-0.28069258,2.3487768,-1.1835514,204.4957,-50.994057,31.616106,JUM
120251523835000,2.920063,-0.270068301994255,-0.243668227636438,2.54148882347148,-0.29260445,2.2922719,-1.1835514,203.54216,-51.01141,30.855892,JUM
120251528798000,2.925026,-0.133544776292573,0.156150680698605,1.9905188939167,-0.32070425,2.2305744,-1.1801916,202.6457,-51.00456,30.092897,JUM
120251533849000,2.930077,0.118526870042247,0.444138292178876,1.74968819816629,-0.36010507,2.1862867,-1.1725558,201.89767,-51.087147,29.329536,JUM
120251538829000,2.935057,0.384318772010787,0.709930185194607,1.5610616446382,-0.4092797,2.0189097,-1.1704178,201.22362,-51.14706,28.5823,JUM
120251543880000,2.940108,0.737526811176471,0.965710851679144,1.54773482588235,-0.4382958,1.7577647,-1.169807,200.71521,-51.27181,27.89526,JUM
120251548796000,2.945024,1.12524103164706,1.20740283176898,1.62829881223529,-0.5039638,1.4123205,-1.1936307,200.29343,-51.37367,27.233978,JUM
120251553844000,2.950072,1.64002813495575,1.72166411615044,2.85102815154867,-0.5476407,0.86070913,-1.2348641,200.09074,-51.48767,26.699463,JUM
120251558889000,2.955117,2.18906203026951,2.31442650276549,4.41067351443081,-0.5412266,-0.041233405,-1.3219124,200.09749,-51.60596,26.24603,JUM
120251563865000,2.960093,2.34038349920778,2.74904010989771,4.80145209423385,-0.3640757,-1.0519099,-1.4819591,200.34021,-51.738575,25.931879,JUM
120251568818000,2.965046,2.39270743425592,3.14384710746089,4.90134290882471,-0.013439035,-1.7553213,-1.7027869,200.76645,-51.93375,25.668886,JUM
120251573970000,2.970198,1.49937965881675,3.12205229944552,2.18022503989465,0.34025195,-2.0415115,-1.9758437,201.2261,-52.03795,25.388477,JUM
120251578853000,2.975081,0.423312400094076,2.99672720063765,-1.08254899087885,0.550695,-2.057394,-2.2666154,201.83826,-52.2278,25.11527,JUM
120251583846000,2.980074,-0.231627085873407,3.81345662498081,-4.10836820540347,0.6209445,-1.885741,-2.5497515,202.51262,-52.5456,24.760195,JUM
120251588859000,2.985087,-0.629589621000154,5.18421636747173,-6.96534641996111,0.5522222,-1.3799446,-2.7962356,203.1272,-52.91684,24.306484,JUM
120251593924000,2.990152,-1.03168023349107,6.5691950420611,-9.85196015559535,0.4175264,-0.21471913,-3.0039299,203.90776,-53.877934,23.690264,JUM
120251598857000,2.995085,-1.42329188036525,7.91807950440055,-12.6633452608044,0.32345316,1.9208658,-3.1370986,204.27805,-54.852325,22.835194,JUM
120251603844000,3.000072,-1.73498644703514,10.1526292822108,-13.0531104855417,0.54336464,4.7180176,-3.2443054,204.14508,-55.883095,21.702833,JUM
120251609588000,3.005816,-2.0571486318082,13.1074599908492,-12.4289209174597,1.314582,7.190495,-3.2653801,203.50095,-57.00339,20.336517,JUM
120251613863000,3.010091,-0.876754491082803,14.6730766431131,-10.8403290864849,2.5271494,8.615949,-3.128852,202.8803,-59.286312,18.815338,JUM
120251618847000,3.015075,1.46038278789809,16.069659116043,-8.22767591052946,3.5503488,8.959866,-2.5008824,201.6999,-61.534042,17.27082,JUM
120251623831000,3.020059,4.12396872942921,17.1220246612305,-5.21005980059303,3.7901134,8.607091,-1.2901474,200.09123,-63.92991,15.528538,JUM
120251628810000,3.025038,7.07795675526845,17.8643085127608,-1.8319093991274,3.3716707,8.156883,0.16065755,198.22183,-66.15161,14.083788,JUM
120251633866000,3.030094,8.57880370987505,18.3197723172914,0.386887550340992,3.2415564,6.761973,1.4001031,196.58862,-67.706825,13.550232,JUM
120251638847000,3.035075,9.21329316678758,18.6004862993954,1.89043544237969,3.5598173,5.202434,1.8793269,195.04259,-69.05596,13.286492,JUM
120251643897000,3.040125,9.37867546482942,18.8707736285143,3.86817971372375,4.728708,3.9587123,2.1792617,193.76349,-69.52217,13.938229,JUM
120251648877000,3.045105,7.18987664496055,19.0668641030114,8.04968671294588,5.3285775,4.3789873,1.3353515,192.49246,-69.98842,14.336113,JUM
120251653775000,3.050003,5.57155189988187,19.2211436349675,11.4648689190786,4.353026,5.4266214,0.6010914,191.32478,-69.91359,14.915562,JUM
120251658867000,3.055095,4.91386155040362,19.3075557471943,13.6779725264816,2.330451,4.8905873,0.45234573,190.50781,-69.78735,15.446999,JUM
120251663809000,3.060037,4.61128081756384,19.1014158250965,14.8684661186846,0.5647449,2.457511,0.44501534,189.73094,-69.52258,15.352389,JUM
120251668847000,3.065075,5.01903509158552,18.272610677935,14.0396618971156,-0.31887165,-0.48930305,0.41630468,189.31505,-69.14326,15.270223,JUM
120251673806000,3.070034,5.45941487362091,17.4715108310725,12.9395296745343,-0.6243043,-2.7033842,0.43157628,189.20721,-68.583755,15.164021,JUM
120251678808000,3.075036,6.13953782686743,16.7523998254657,10.1107376407126,-0.78954333,-3.8887682,0.56321776,189.65036,-67.8962,15.245555,JUM
120251683780000,3.080008,6.8155816740369,16.0376017607162,7.29891157270754,-0.88453287,-4.2308526,0.77121735,190.5009,-67.17534,15.5901,JUM
120251688841000,3.085069,7.5291059795659,15.8432854730153,4.4015932856668,-0.93309665,-4.0011673,0.96852684,191.48682,-66.44131,16.025524,JUM
120251693844000,3.090072,8.23646086737388,15.6933828164842,1.53469736103833,-0.89888823,-3.4006867,1.1053606,192.42159,-65.71027,16.503452,JUM
120251698864000,3.095092,8.62010422321154,16.072507554498,0.17176504171528,-0.8005389,-2.747061,1.2305881,193.39865,-65.04218,17.19031,JUM
120251703777000,3.100005,8.9571794663801,16.5058893635247,-0.983920637140518,-0.7058548,-2.2296581,1.3411547,194.20781,-64.378944,17.862425,JUM
120251708914000,3.105142,8.78783682092458,16.9251256403893,-1.22344520175182,-0.59773165,-1.9306396,1.4453071,194.97528,-63.89284,18.667923,JUM
120251713790000,3.110018,8.58787146773723,17.3205125316788,-1.37796400455474,-0.48075095,-1.7663169,1.53205,195.62454,-63.40954,19.4493,JUM
120251718848000,3.115076,8.25208022142499,17.3214370973043,-1.50423613349033,-0.3399465,-1.681712,1.6050484,196.2605,-63.003105,20.263556,JUM
120251723792000,3.12002,7.90571405503557,17.2645000927949,-1.62285457910612,-0.2003638,-1.6374242,1.6820174,196.85725,-62.592487,21.073526,JUM
120251728833000,3.125061,7.46441992645959,17.0542742772505,-1.56450643738855,-0.0580322,-1.6142114,1.7492126,197.43077,-62.239475,21.837646,JUM
120251733868000,3.130096,7.01139682718819,16.8231402153197,-1.48129812682389,-0.00030543262,-1.5879441,1.7852536,197.99208,-61.877914,22.59238,JUM
120251738856000,3.135084,6.54132105607839,16.4647432698965,-1.17821872704934,0.124311075,-1.577254,1.8869628,198.53806,-61.54461,23.331861,JUM
120251743836000,3.140064,6.06686324807998,16.0756874581178,-0.822375383436132,0.22937989,-1.5961909,2.0073032,199.08743,-61.194805,24.070343,JUM
120251748783000,3.145011,5.55631934443146,15.5433211853583,-0.365988398477414,0.32070425,-1.6340646,2.1355848,199.60341,-60.85881,24.780596,JUM
120251753829000,3.150057,5.02471150383567,14.9599638933022,0.127983498409268,0.40744713,-1.6847663,2.2464569,200.12901,-60.502815,25.506016,JUM
120251758845000,3.155073,4.42761848803335,14.3318965062285,0.521437629642962,0.44440445,-1.7272215,2.3399193,200.61101,-60.126392,26.209078,JUM
120251763834000,3.160062,3.80900279637077,13.6898486633644,0.877610306383521,0.43279803,-1.7424932,2.4123068,201.10217,-59.725662,26.923641,JUM
120251768882000,3.16511,3.1643629274538,13.0768310913531,1.16092300175237,0.4147775,-1.704925,2.4535403,201.52513,-59.30769,27.602356,JUM
120251773910000,3.170138,2.51421845391171,12.4820176802643,1.40991444386671,0.37323865,-1.63437,2.473088,201.94627,-58.86999,28.28022,JUM
120251778893000,3.175121,1.76935543835125,11.8337748587814,1.55510960190476,0.28344148,-1.50731,2.424524,202.2791,-58.44026,28.892128,JUM
120251783873000,3.180101,0.963491481362007,11.1500119340502,1.63813805904762,0.18173242,-1.3384057,2.3270912,202.58386,-58.015015,29.47642,JUM
120251788821000,3.185049,0.264640871453254,10.5555063937416,1.71723141415819,0.07574729,-1.1582005,2.1713204,202.78683,-57.62812,29.970016,JUM
120251793946000,3.190174,-0.404347545229411,9.98545271261279,1.79732156701862,-0.055283304,-1.0210613,2.0082195,202.95978,-57.262196,30.416275,JUM
120251798877000,3.195105,-0.963574179679316,9.46556825847141,1.87359399367183,-0.19242255,-0.9465357,1.8597792,203.05083,-56.957256,30.761045,JUM
120251803841000,3.200069,-1.46666207526456,8.96248025676109,1.94981943722074,-0.3475823,-0.9324858,1.6927075,203.13089,-56.69365,31.041788,JUM
120251808889000,3.205117,-1.86981168211788,8.34875571828172,2.01697505014985,-0.49968776,-0.9309586,1.5326608,203.143,-56.481297,31.233984,JUM
120251813865000,3.210093,-2.22210040251748,7.7013062372028,2.0788636648951,-0.6282749,-0.9941832,1.3585643,203.18344,-56.311947,31.37125,JUM
120251818952000,3.21518,-2.48196829760725,7.01155253186279,2.09087055779045,-0.73823065,-1.0748174,1.2073752,203.1885,-56.17423,31.444847,JUM
120251823835000,3.220063,-2.69176829350407,6.33844410329937,2.08212880572016,-0.8170323,-1.1655309,1.0430524,203.22745,-56.083183,31.464323,JUM
120251828857000,3.225085,-2.89654843529904,5.51584002969469,1.95159273748432,-0.8622363,-1.2315043,0.8689558,203.24564,-56.005455,31.44419,JUM
120251833848000,3.230076,-3.09145815294856,4.59626654454203,1.72669699372647,-0.86132,-1.3634512,0.7858781,203.3134,-55.949436,31.4082,JUM
120251838844000,3.235072,-3.24976914776579,3.68404573497689,1.4385573366718,-0.8191703,-1.4953982,0.6047566,203.39063,-55.932564,31.323122,JUM
120251843870000,3.240098,-3.38882831635208,2.7708901681433,1.11408586263482,-0.713796,-1.636508,0.4279111,203.51225,-55.948036,31.220833,JUM
120251848845000,3.245073,-3.45825036239316,1.5498773444765,0.666785178632479,-0.57604593,-1.7534887,0.27152961,203.6905,-55.98006,31.12236,JUM
120251853845000,3.250073,-3.47685331499611,0.0848937440491454,0.122648426495727,-0.42546764,-1.8506162,0.12767084,203.91107,-56.071274,30.983337,JUM
120251858825000,3.255053,-3.43648501293581,-0.841738697360396,-0.214327203292221,-0.28680122,-1.9199494,0.12767084,204.075275674326,-56.1477162537463,30.9085812797203,JUM
120251863855000,3.260083,-3.33824296282412,-1.25809772650481,-0.354672947295329,-0.17623462,-1.9315559,-0.09743301,204.24113,-56.224926,30.833075,JUM
120251868849000,3.265077,-3.18992589948348,-1.57510513663386,-0.506891308868531,-0.124005646,-1.9159788,-0.16982053,204.56049,-56.372147,30.682516,JUM
120251873837000,3.270065,-2.98043276754702,-1.77528756208946,-0.67448592136244,-0.12705997,-1.8613064,-0.22510384,205.06201,-56.550907,30.57191,JUM
120251878855000,3.275083,-2.75230403258914,-1.94699996552746,-0.873242491260184,-0.17379116,-1.7669277,-0.24465153,205.57837,-56.706745,30.491425,JUM
120251883851000,3.280079,-2.49917884596339,-2.07356263813353,-1.11624267676436,-0.24129178,-1.6245961,-0.24465153,206.06241,-56.871986,30.389898,JUM
120251888843000,3.285071,-2.30248416519778,-2.15327869124305,-1.31385565759285,-0.31490102,-1.4162911,-0.21746802,206.52722,-56.994354,30.329556,JUM
120251893872000,3.2901,-2.15892612781761,-2.18819817443003,-1.46905344167405,-0.41538838,-1.1820242,-0.16829337,206.93442,-57.102512,30.261492,JUM
120251899106000,3.295334,-2.01068930805416,-2.22256119142208,-1.62256125669533,-0.5103779,-0.9193522,-0.11484267,207.30052,-57.16028,30.240606,JUM
120251903846000,3.300074,-1.88956668605593,-2.23153323055638,-1.67190751877656,-0.6081163,-0.6478226,-0.05955936,207.58324,-57.19442,30.216967,JUM
120251909147000,3.305375,-1.75557022254955,-2.24042595235497,-1.72601259343517,-0.68386364,-0.38423425,-0.012217305,207.81015,-57.184692,30.229555,JUM
120251913855000,3.310083,-1.65717935810147,-2.2322267207856,-1.75880956252046,-0.73761976,-0.13500121,0.02443461,207.95015,-57.15534,30.237772,JUM
120251918782000,3.31501,-1.55421168836152,-2.22364608910711,-1.79313213403346,-0.7855727,0.09132435,0.054367006,208.02309,-57.090405,30.265589,JUM
120251923828000,3.320056,-1.45698956142422,-2.1879344526409,-1.79667472807121,-0.80573124,0.19120082,0.06352998,208.05498,-57.01838,30.29004,JUM
120251928794000,3.325022,-1.36343514261827,-2.14583496417822,-1.79199700713091,-0.8191703,0.3912592,0.062308256,207.97989,-56.936485,30.297964,JUM
120251934530000,3.330758,-1.26596480451848,-2.08161424782692,-1.73684919121195,-0.820392,0.5363397,0.05131268,207.90036,-56.83848,30.323519,JUM
120251938840000,3.335068,-1.19484010846257,-2.03024635906567,-1.68548134371051,-0.81489426,0.6533204,0.03573562,207.76608,-56.740932,30.335484,JUM
120251943866000,3.340094,-1.1146351405001,-1.97082789790941,-1.63949672025005,-0.7703011,0.7480045,0.005497787,207.60002,-56.64312,30.344202,JUM
120251948817000,3.345045,-1.03689003094896,-1.91251909111498,-1.60062416547448,-0.72265357,0.8155051,-0.03604105,207.40784,-56.55306,30.338657,JUM
120251953843000,3.350071,-0.948317972482205,-1.861204924238,-1.5483829499635,-0.65179324,0.86315256,-0.0888809,207.19606,-56.47379,30.320835,JUM
120251958845000,3.355073,-0.856515916826063,-1.8131181666545,-1.49155309989962,-0.5674938,0.90377516,-0.13836098,206.96889,-56.41144,30.287357,JUM
120251963849000,3.360077,-0.759085029642629,-1.76339112478131,-1.39107765567527,-0.48380527,0.9447031,-0.19822577,206.7318,-56.36637,30.238882,JUM
120251968854000,3.365082,-0.656819366035844,-1.71225827429059,-1.25301905011735,-0.40286562,0.9737192,-0.25809056,206.49084,-56.34388,30.173975,JUM
120251973836000,3.370064,-0.567617125619691,-1.69798297185131,-1.12580881276829,-0.32284227,1.0094548,-0.30573806,206.24162,-56.33189,30.101114,JUM
120251978859000,3.375087,-0.484140852481505,-1.70237645677231,-1.00279112028952,-0.2565634,1.0574077,-0.35063666,205.98546,-56.34289,30.008837,JUM
120251983847000,3.380075,-0.399317349860784,-1.73376507813236,-0.894886832801457,-0.20525073,1.1255192,-0.39003745,205.70885,-56.360462,29.904505,JUM
120251988855000,3.385083,-0.312004119447419,-1.79539796243307,-0.802437506350396,-0.16676621,1.2205088,-0.42302418,205.41315,-56.394466,29.783138,JUM
120251993861000,3.390089,-0.207837814221347,-1.86618634296442,-0.637117580152653,-0.13316862,1.3332134,-0.44806966,205.08984,-56.42492,29.653261,JUM
120251998810000,3.395038,-0.094060327373138,-1.94203797771144,-0.427066847809061,-0.12217305,1.4712689,-0.4804455,204.73366,-56.467293,29.501804,JUM
120252004545000,3.400773,0.0377872957981041,-2.02993636633017,-0.183655865794411,-0.1160644,1.6038266,-0.5122105,204.34312,-56.497204,29.350464,JUM
120252008903000,3.405131,0.127452532541022,-2.07418161208395,0.0333492967890608,-0.12644911,1.7015651,-0.54305923,203.9249,-56.533585,29.180887,JUM
120252013841000,3.410069,0.212669256754293,-2.08921995242739,0.329101476198855,-0.1518,1.7519615,-0.5702427,203.4847,-56.575077,28.99511,JUM
120252018844000,3.415072,0.303808043045056,-2.04756307036589,0.630905097338978,-0.1957823,1.7626517,-0.6020077,202.99928,-56.55774,28.823757,JUM
120252023913000,3.420141,0.40167083863421,-1.93991393186171,0.939172875854249,-0.24312437,1.7479908,-0.63407815,202.51117,-56.540516,28.64112,JUM
120252028897000,3.425125,0.49917396161656,-1.7768209441104,1.19222040956136,-0.2883284,1.679574,-0.65209866,202.00677,-56.486294,28.456623,JUM
120252033929000,3.430157,0.598927580644653,-1.55356288429768,1.39647774649581,-0.3200934,1.5818355,-0.689056,201.52402,-56.435368,28.260231,JUM
120252038948000,3.435176,0.675608465029615,-1.30333830772458,1.52981997621751,-0.36285394,1.4892895,-0.72692966,201.02975,-56.35143,28.052837,JUM
120252043866000,3.440094,0.72597730535538,-1.02824696769497,1.58406333961007,-0.40133846,1.4364496,-0.75655663,200.55974,-56.264122,27.84092,JUM
120252049116000,3.445344,0.780407456482673,-0.727670347694127,1.63841491308363,-0.43554693,1.4862351,-0.7828238,200.07428,-56.16778,27.601053,JUM
120252053796000,3.450024,0.836210877192364,-0.383549205731064,1.64771552690392,-0.47891834,1.6062702,-0.79626286,199.58998,-56.060623,27.352259,JUM
120252058779000,3.455007,0.896284639456412,-0.020482062954701,1.66807076396215,-0.5479461,1.7440202,-0.8210029,199.0949,-55.971615,27.055979,JUM
120252063775000,3.460003,0.963713660901953,0.307030466591504,1.80292886720354,-0.61911196,1.8790215,-0.84635377,198.57277,-55.87025,26.740704,JUM
120252068739000,3.464967,1.05039168699396,0.641638481278828,2.001116611165,-0.68661255,2.0702224,-0.8784242,198.01208,-55.791454,26.367435,JUM
120252073973000,3.470201,1.35303697421558,1.09312569401168,2.89912968332179,-0.7504479,2.293799,-0.9483683,197.4193,-55.706882,25.955122,JUM
120252078774000,3.475002,1.65572344529915,1.51804661025641,3.77227964615385,-0.7669413,2.4489589,-1.0341948,196.79495,-55.63449,25.48605,JUM
120252083766000,3.479994,2.27733293182397,2.09183997195854,5.28500761211129,-0.70066243,2.3970351,-1.1588113,196.19324,-55.581055,24.982796,JUM
120252088735000,3.484963,2.89607843233315,2.66298965430987,6.79076587790507,-0.46944994,2.1056526,-1.3720033,195.57095,-55.497917,24.408289,JUM
120252093787000,3.490015,2.73618483710063,3.03143717139752,6.45182680993262,-0.07941248,1.7250835,-1.6762142,195.03789,-55.49319,23.795065,JUM
120252098977000,3.495205,2.41312430454371,3.35586123833014,5.76385830827624,0.25961772,1.3765849,-1.9963076,194.62674,-55.560276,23.157444,JUM
120252103798000,3.500026,1.67926639980817,3.40647204964831,4.52810891038641,0.45081854,1.0439687,-2.300213,194.24059,-55.489094,22.509964,JUM
120252108807000,3.505035,0.916790928988764,3.45905648314607,3.24417015617978,0.58184916,0.5708536,-2.5650232,194.09947,-55.67092,21.803864,JUM
120252113804000,3.510032,0.190639487986062,3.45032582963337,2.22697267987072,0.7351763,-0.15332718,-2.773023,194.16599,-55.929832,21.127504,JUM
120252118755000,3.514983,-0.522904667623472,3.4311702951217,1.26440642059388,0.83658,-0.589485,-2.8735101,194.31348,-56.218437,20.452303,JUM
120252123804000,3.520032,-0.849608765654497,3.61844868340754,0.184433340457109,0.8063421,-1.428203,-2.918714,194.81462,-56.845284,19.762932,JUM
120252128753000,3.524981,-1.10752495316118,3.83416044820421,-0.889435905728703,0.65270954,-2.051591,-2.9880474,195.36847,-57.459114,19.086878,JUM
120252133803000,3.530031,-0.983587493246779,5.09153193779673,-2.08046267005135,0.36285394,-2.557082,-3.0430253,196.09404,-58.213924,18.374044,JUM
120252138764000,3.534992,-0.790249377763783,6.51855125859897,-3.26811097699835,-0.13622294,-2.8976393,-2.9993484,196.89746,-58.840908,17.743614,JUM
120252143902000,3.54013,0.362668768265908,9.43750211059158,-6.33739895791828,-0.7263188,-2.7424796,-2.617863,197.84657,-59.574017,17.092968,JUM
120252148748000,3.544976,1.69767640292742,12.5650995753202,-9.71029840093515,-1.17897,-1.430341,-1.5818355,198.46042,-60.08793,16.528471,JUM
120252153841000,3.550069,3.12984902372523,14.3434189992074,-12.0458452595332,-1.2113458,1.8497,0.04520403,198.50926,-60.70082,15.981391,JUM
120252158876000,3.555104,4.55243300179657,15.7532628974901,-14.0756810107442,-0.44593164,6.2964935,1.6933185,197.7415,-61.21346,15.429293,JUM
120252163849000,3.560077,5.1207654674844,16.8344245251137,-14.3110060456804,1.0751228,9.750325,2.898861,196.57361,-62.2166,15.348901,JUM
120252168850000,3.565078,5.02960681431744,17.6751075905678,-13.1462045584223,2.2617285,9.963212,3.481321,194.94588,-63.069866,15.406772,JUM
120252173836000,3.570064,4.70406683664374,18.211587343862,-9.46184821329329,2.5567765,9.112887,3.2168164,192.89198,-64.001656,15.764397,JUM
120252178860000,3.575088,4.25653922652844,18.598513227788,-4.46445662379614,3.0329459,6.848716,2.0317378,191.18376,-65.11539,16.140842,JUM
120252183843000,3.580071,4.39185815983216,18.9211482483311,0.324752976463856,4.883562,4.1099014,0.75625116,189.78413,-66.4606,16.388762,JUM
120252188861000,3.585089,4.91431039300019,19.2052883110814,5.03598659570856,6.7396765,1.6875153,0.15454891,188.96678,-67.808586,16.656813,JUM
120252193852000,3.59008,5.71646756999795,18.7828177472809,8.93050897670839,7.344433,1.3594806,0.056505036,188.00488,-69.033615,16.43275,JUM
120252198848000,3.595076,6.79650639733224,17.6684139652165,12.0528036209111,7.0576315,4.7174067,0.36102137,186.67322,-70.30375,16.146378,JUM
120252203843000,3.600071,7.3685074668431,16.4426299465028,14.2420222568998,4.814229,6.3911777,0.61575216,185.77826,-70.70195,15.958999,JUM
120252208858000,3.605086,7.53192877856333,15.1216414999055,15.685575786673,1.5549575,3.3597589,0.3286455,185.34074,-70.93975,15.786813,JUM
120252213799000,3.610027,7.73921090594575,14.566763745644,15.1223411593318,-0.59315014,-0.79779,-0.086132,184.63655,-70.75563,15.786734,JUM
120252218846000,3.615074,8.01270200655649,14.9965356953476,11.8968820608946,-1.8811595,-2.5118778,-0.39003745,184.14915,-70.2587,15.7533455,JUM
120252223795000,3.620023,8.44668609075342,15.5588511964897,8.50823454015411,-2.3258693,-4.6337185,-0.4392121,184.87865,-69.498474,16.029665,JUM
120252228862000,3.62509,9.55804013741438,16.7013647986944,4.13032907895976,-2.7821858,-5.1444016,-0.3304781,185.64615,-68.54465,16.283813,JUM
120252233778000,3.630006,10.4655064373333,17.610309697679,0.626436719772839,-2.7311785,-4.7024407,0.07452556,186.9681,-67.64319,16.750128,JUM
120252238868000,3.635096,11.0528652906667,18.1398949144691,-1.46783365049877,-2.4727826,-3.8063014,0.65576386,188.24124,-66.65833,17.314127,JUM
120252243817000,3.640045,11.3056037030276,18.5739560080143,-2.86051465636687,-2.2033908,-2.8417451,1.2183707,189.46701,-65.86667,18.113781,JUM
120252248853000,3.645081,10.8570526589987,18.8364069960423,-2.85097102031265,-2.0244074,-2.1038198,1.6765196,190.44801,-65.02435,18.977102,JUM
120252253793000,3.650021,10.2587365002971,19.0222434438063,-2.66446041171403,-1.8973475,-1.7369953,1.9691241,191.3162,-64.256546,19.963778,JUM
120252258856000,3.655084,9.24568203851867,19.0318455468858,-2.0259000522527,-1.7467692,-1.7052304,2.1181753,192.04472,-63.467346,20.977087,JUM
120252263805000,3.660033,8.24787050658509,18.8793883959462,-1.46279684442369,-1.5402967,-1.8677205,2.1374176,192.69275,-62.744877,21.926044,JUM
120252268848000,3.665076,7.21031753474687,18.2794122381842,-1.05679784929946,-1.3045027,-2.0952678,2.0711386,193.35208,-62.04786,22.870977,JUM
120252273855000,3.670083,6.18750007196409,17.68385064689,-0.696575295957053,-1.0958922,-2.3383923,1.9978348,193.99274,-61.456474,23.680826,JUM
120252278862000,3.67509,5.21108061782673,17.0891220231396,-0.607809880081451,-0.9285152,-2.493552,1.958434,194.68378,-60.90991,24.474955,JUM
120252284171000,3.680399,4.18928527955202,16.4668147765334,-0.514369772251291,-0.7809912,-2.549446,1.9599612,195.35088,-60.45283,25.155958,JUM
120252288872000,3.6851,3.59841248044448,16.1083521123458,-0.447404202063173,-0.659429,-2.5702155,1.983174,196.06102,-60.02433,25.82779,JUM
120252293915000,3.690143,2.96455340239741,15.7238111177706,-0.375566854592703,-0.52870387,-2.545781,2.0409007,196.71883,-59.669697,26.410763,JUM
120252298847000,3.695075,2.42100641940207,15.2309425816264,-0.305498721966356,-0.4016439,-2.5127943,2.0861049,197.38498,-59.330105,26.985966,JUM
120252303778000,3.700006,1.9106184356925,14.6876265807548,-0.235526172970452,-0.2611449,-2.488665,2.130698,198.04747,-58.99591,27.563637,JUM
120252308845000,3.705073,1.396880463289,14.0577467882626,-0.165687648876926,-0.11056661,-2.4382687,2.140472,198.6526,-58.7147,28.070724,JUM
120252313856000,3.710084,0.905538954718176,13.3232666301457,-0.0998377561937936,0.02565634,-2.38268,2.1218405,199.25325,-58.444706,28.568901,JUM
120252318844000,3.715072,0.502971490379285,12.6239793725782,-0.0314707308755589,0.13500121,-2.3554964,2.1093178,199.80971,-58.199142,29.027792,JUM
120252323835000,3.720063,0.18687173347038,11.9561634895678,0.0397630144495157,0.18661933,-2.3167064,2.060143,200.35481,-57.976837,29.4559,JUM
120252329332000,3.72556,-0.158006664221799,11.1794568468383,0.181794998709882,0.26297748,-2.2736404,1.9792033,200.86145,-57.779144,29.847712,JUM
120252333853000,3.730081,-0.437754721286304,10.49155133238,0.374408413463616,0.31856623,-2.235767,1.8839084,201.36635,-57.60159,30.209333,JUM
120252338836000,3.735064,-0.736490668947051,9.7648127106328,0.520754030348687,0.355829,-2.2351558,1.7540996,201.84348,-57.443233,30.53466,JUM
120252343852000,3.74008,-1.02599633604649,9.06999932724925,0.591062566035299,0.39370266,-2.237294,1.59558,202.32025,-57.324306,30.813429,JUM
120252349079000,3.745307,-1.32291483055716,8.35204358106806,0.643454549749374,0.4364632,-2.2256875,1.42973,202.76085,-57.220306,31.053974,JUM
120252353866000,3.750094,-1.57480590304608,7.72010623836514,0.603682258145363,0.48838675,-2.2317963,1.2858714,203.21622,-57.15821,31.24898,JUM
120252358890000,3.755118,-1.82911719944751,7.00789426519337,0.560587114917127,0.5448918,-2.2250767,1.1636983,203.6194,-57.104877,31.41539,JUM
120252363921000,3.760149,-1.95792025891107,5.68122315171984,0.500479038433434,0.59528816,-2.200642,1.0543534,204.02353,-57.091454,31.53752,JUM
120252368855000,3.765083,-2.0842399359918,4.38013086909642,0.441529873382641,0.6010914,-2.1310034,0.958753,204.40352,-57.08416,31.640032,JUM
120252373869000,3.770097,-2.09174854774447,3.42339309643712,0.343849644990901,0.5552765,-2.0299053,0.8750645,204.7657,-57.103745,31.706812,JUM
120252379120000,3.775348,-2.07248294508189,2.50346481898286,0.233072932602241,0.47952923,-1.8750509,0.77579886,205.08748,-57.152447,31.731562,JUM
120252383884000,3.780112,-2.0468760105521,1.63358969403204,0.228784915431166,0.35216382,-1.7266107,0.6780604,205.31644,-57.0746,31.84893,JUM
120252388798000,3.785026,-2.01806058334524,0.72590315529952,0.252797781466476,0.18020524,-1.5809193,0.55863625,205.49738,-57.024063,31.921766,JUM
120252423749000,3.819977,-1.33145062400109,-2.13917862054198,0.25857377,-1.0577132,-0.679893,0.0571159,206.83575,-56.574566,32.23421,JUM
120252428759000,3.824987,-1.23061285362724,-2.53185279793294,0.25857377,-1.1869112,-0.5369505,0.040011674,206.9841,-56.502945,32.240387,JUM
120252433732000,3.82996,-1.14375138714741,-2.66616299583208,0.216656307240392,-1.2935071,-0.40011674,0.04520403,207.0959,-56.37983,32.282257,JUM
120252438898000,3.835126,-1.06043712372647,-2.6721140401696,0.151195118420521,-1.3536774,-0.30268374,0.050701816,207.17168,-56.2511,32.315,JUM
120252446509000,3.842737,-0.937691312867625,-2.68088163568894,0.0547520080627894,-1.4049901,-0.21563543,0.06536258,207.21915,-56.075535,32.381332,JUM
120252448765000,3.844993,-0.892370764804767,-2.65605938571844,-0.0523119526960566,-1.4138476,-0.1994475,0.07147124,207.2554,-55.893883,32.44662,JUM
120252453760000,3.849988,-0.785769522943513,-2.58190195378355,-0.344306668890224,-1.4019357,-0.16554448,0.07819075,207.25311,-55.699646,32.51159,JUM
120252458816000,3.855044,-0.699726316933469,-2.52187887878227,-0.575928801258444,-1.3625349,-0.124005646,0.06841691,207.26503,-55.484898,32.601524,JUM
120252463768000,3.859996,-0.669008199935227,-2.49993739937078,-0.646141581197372,-1.3057245,-0.096516706,0.05222898,207.26807,-55.267036,32.691933,JUM
120252468736000,3.864964,-0.630809764205068,-2.47697102616273,-0.711535339901636,-1.2095132,-0.0729984,0.016187929,207.30641,-55.053818,32.801373,JUM
120252473770000,3.869998,-0.532875094561103,-2.44604424645568,-0.737307611472255,-1.1029172,-0.08246681,-0.025045475,207.34703,-54.848526,32.90744,JUM
120252478759000,3.874987,-0.434514272393145,-2.40495177492604,-0.761362458776905,-0.9923506,-0.11728613,-0.07238753,207.40291,-54.6588,33.012146,JUM
120252483753000,3.879981,-0.332060113233704,-2.33177023994695,-0.780877556846884,-0.8744536,-0.15699236,-0.12736541,207.46667,-54.490005,33.106575,JUM
120252488769000,3.884997,-0.222067440751206,-2.25223829240918,-0.81380417660825,-0.768163,-0.19486602,-0.17379116,207.55293,-54.32725,33.210205,JUM
120252493790000,3.890018,-0.0942443729979325,-2.15755460076794,-0.880082800304224,-0.675617,-0.23854288,-0.22693644,207.65898,-54.188694,33.302425,JUM
120252498752000,3.89498,0.0215328616238723,-2.06022976960444,-0.94689430759889,-0.58459806,-0.25167647,-0.27488935,207.7801,-54.060883,33.39877,JUM
120252503790000,3.900018,0.107630128973927,-1.95021652140379,-1.01864205536334,-0.5015204,-0.27550024,-0.3155119,207.92308,-53.951485,33.488922,JUM
120252508815000,3.905043,0.191811685773873,-1.83890499458337,-1.08974578086318,-0.40653083,-0.2724459,-0.3567453,208.08345,-53.85309,33.586514,JUM
120252513789000,3.910017,0.269999930562904,-1.72392227035821,-1.15873540579318,-0.33292156,-0.24678956,-0.37323865,208.24585,-53.762875,33.68267,JUM
120252518792000,3.91502,0.343971253554105,-1.61448335117366,-1.21306067870848,-0.29168814,-0.19425514,-0.39003745,208.41594,-53.68537,33.77855,JUM
120252523782000,3.92001,0.39517129752021,-1.53535600696406,-1.19444249150677,-0.21533,-0.1160644,-0.4071417,208.57082,-53.62089,33.868984,JUM
120252528796000,3.925024,0.442000174748988,-1.46182822286231,-1.1740350982864,-0.16279559,-0.016187929,-0.4120286,208.71176,-53.5537,33.9664,JUM
120252533789000,3.930017,0.454352795696203,-1.43300541772152,-1.1410947556962,-0.1142318,0.121256754,-0.41508293,208.81598,-53.495342,34.05432,JUM
120252538779000,3.935007,0.4666979946801,-1.40419993050891,-1.10817420502024,-0.09254608,0.26297748,-0.42088616,208.88521,-53.438816,34.13576,JUM
120252543822000,3.94005,0.490433742284516,-1.42361800034213,-1.05899232890409,-0.07574729,0.42149702,-0.4269948,208.90393,-53.38516,34.20832,JUM
120252549195000,3.945423,0.515072293669506,-1.45774984524702,-1.00167361245315,-0.082161374,0.59986967,-0.4269948,208.86943,-53.32918,34.272434,JUM
120252553842000,3.95007,0.484746288330494,-1.48807583475298,-0.944812342546849,-0.10903945,0.79351395,-0.4251622,208.77525,-53.273766,34.320835,JUM
120252558848000,3.955076,0.452077473454855,-1.5207446325724,-0.883558303994889,-0.15332718,1.0064005,-0.4202753,208.61436,-53.20691,34.361904,JUM
120252563856000,3.960084,0.389016134163736,-1.49895454481243,-0.771000299902306,-0.20433442,1.2293663,-0.4196644,208.38666,-53.13583,34.39005,JUM
120252568850000,3.965078,0.309585529845643,-1.44755835178781,-0.63082863374365,-0.25961772,1.4544702,-0.43035457,208.08904,-53.060314,34.402763,JUM
120252573826000,3.970054,0.19646733108946,-1.30925727136109,-0.496150406265131,-0.32895094,1.6972891,-0.464563,207.70595,-52.988316,34.38038,JUM
120252578860000,3.975088,0.0588746008857396,-1.10998498674343,-0.363302259456746,-0.40133846,1.9734001,-0.50915617,207.24057,-52.91466,34.333317,JUM
120252583844000,3.980072,-0.0835577609746395,-0.814476206812531,-0.195945945668822,-0.4746423,2.2989914,-0.5751296,206.65779,-52.871033,34.20687,JUM
120252588841000,3.985069,-0.231097736801591,-0.443246616827449,-0.000812434703132747,-0.5357288,2.6762006,-0.6432411,205.97438,-52.831455,34.03917,JUM
120252593870000,3.990098,-0.382458453354602,0.0179037334068059,0.350703342979505,-0.5928447,3.1126637,-0.7296785,205.14542,-52.860943,33.736145,JUM
120252598851000,3.995079,-0.534640243979118,0.543622646473318,0.821083451983759,-0.6215554,3.628845,-0.81000733,204.1812,-52.899723,33.36981,JUM
120252603842000,4.00007,-0.653762110136572,1.19072379433421,1.51687523395766,-0.6395759,4.220773,-0.9062186,203.02895,-53.036964,32.808376,JUM
120252608861000,4.005089,-0.738162453329431,1.96908253501902,2.45465675426788,-0.65393126,4.5414777,-1.0290025,201.8277,-53.192623,32.17987,JUM
120252613848000,4.010076,-0.659933098909513,2.94163513457077,4.02174773781903,-0.602924,5.1633387,-1.0928379,200.24323,-53.412716,31.28752,JUM
120252618910000,4.015138,-0.369366253735499,4.1882604907966,6.440013562471,-0.53786683,5.652336,-1.2339478,198.66768,-53.675972,30.291721,JUM
120252623822000,4.02005,-0.0573091474406027,5.097180882712,8.53914101931621,-0.30573806,5.497482,-1.4181237,196.99995,-54.051777,29.018053,JUM
120252628861000,4.025089,0.315551803560943,5.50266727575816,10.2589623287618,0.19730948,4.252233,-1.6578883,195.60161,-54.509766,27.735989,JUM
120252633845000,4.030073,0.585480749168854,5.54519952366579,10.9102430550088,0.795652,2.4990497,-1.9306396,194.17674,-54.95527,26.17711,JUM
120252638839000,4.035067,0.622093366666667,4.73972128333333,9.07961054166667,1.0601566,0.84238315,-2.1948388,193.20477,-55.424732,24.72232,JUM
120252643831000,4.040059,0.490966845272622,4.12013776073086,6.96973177030162,0.89827734,-0.4288274,-2.402533,192.54811,-55.711666,23.366,JUM
120252648852000,4.04508,0.165564679300077,3.7110607171307,4.52456690177881,0.5580254,-1.2895365,-2.563496,192.34473,-56.001114,22.171562,JUM
120252654469000,4.050697,-0.041256217547543,3.76491797922493,2.24539088580204,0.2782491,-1.8060231,-2.644741,192.60658,-56.34737,21.290913,JUM
120252658841000,4.055069,-0.0621660254428686,4.26257140311626,0.877889525254694,0.13622294,-1.8567249,-2.755613,193.0167,-56.654488,20.440502,JUM
120252663806000,4.060034,-0.15557409987719,4.89653493549696,-0.954475451327678,0.344528,-0.80939645,-3.041498,193.45148,-57.281437,19.578815,JUM
120252668849000,4.065077,-0.360406144197492,5.64907021724138,-3.2566096242163,1.0387764,0.84849185,-3.425427,193.73163,-57.994614,18.612228,JUM
120252673797000,4.070025,-0.493964310416005,6.58371273947285,-5.42892111883137,1.5525141,1.5436565,-3.6926804,194.18874,-59.012215,17.609077,JUM
120252678858000,4.075086,-0.386222965214354,8.25113861079708,-7.33748239863449,1.5787812,1.5815301,-3.6603045,194.35814,-60.054726,16.470337,JUM
120252683777000,4.080005,0.0553047609602582,10.1725088918701,-9.10414108654428,1.3622295,1.707063,-3.248276,194.47311,-61.579433,15.253912,JUM
120252688898000,4.085126,1.22770239961469,12.809166850111,-10.756380547206,0.9841039,2.2043073,-2.4309382,194.37538,-62.97074,14.11818,JUM
120252693852000,4.09008,2.54006442321951,14.8849537290732,-12.3342158332683,0.5858198,3.8298197,-1.2571607,193.93086,-64.53143,13.068667,JUM
120252698851000,4.095079,4.18414334653658,16.1273544675122,-13.889552020878,0.7275405,6.481891,-0.050396383,192.92772,-65.95735,12.122488,JUM
120252703784000,4.100012,5.87625332884521,17.1726457798526,-13.2766731248157,2.0344868,7.608632,0.7703011,191.94711,-67.62985,11.6616535,JUM
120252708857000,4.105085,7.78615551412285,17.8076876591646,-7.41804765395577,3.7589593,7.994699,1.1746938,190.32965,-69.22408,11.254677,JUM
120252713805000,4.110033,10.1013102606993,18.3800349046154,-1.13171330167832,4.240321,6.1324763,1.3154984,189.14282,-70.59258,11.541931,JUM
120252718845000,4.115073,13.7376578075524,18.8300784738462,6.88805194587413,4.0069704,4.012163,1.4407257,187.8711,-71.91686,11.908736,JUM
120252724540000,4.120768,16.4512693570995,19.2393062982913,13.691146284977,3.0549371,1.7095064,1.2195925,187.1219,-72.19668,12.659216,JUM
120252728861000,4.125089,15.0047691633273,19.3003246350941,13.1778722765634,1.2635747,1.1166617,1.2021828,186.4587,-72.112114,13.459954,JUM
120252733783000,4.130011,13.3570778988637,19.3698299009454,12.5932079235406,0.6450737,-0.21319197,1.3420709,186.65993,-70.90057,14.885136,JUM
120252738843000,4.135071,11.8488838658445,19.4129936621164,9.38094400630766,-0.55680364,-1.6276505,1.5140295,186.96074,-69.45317,16.153023,JUM
120252743847000,4.140075,10.4006564491621,19.4490868140651,5.59570151291659,-1.5048665,-2.5488353,1.5790867,187.436,-68.09043,17.337517,JUM
120252748856000,4.145084,9.49948565654119,19.4227426958628,2.52429526103243,-2.003638,-2.706744,1.5906931,187.97809,-66.85587,18.243778,JUM
120252753782000,4.15001,8.8489126187104,19.3699933693627,-0.18789171830041,-2.0631974,-2.3499987,1.5812247,188.60281,-65.6095,19.144844,JUM
120252758871000,4.155099,8.52897818393386,19.3722176321323,-1.75487526166173,-1.8497,-1.949271,1.6230689,189.27888,-64.71574,19.932247,JUM
120252763863000,4.160091,8.50457919158926,19.4210156168215,-2.27701405451669,-1.5775595,-1.7788396,1.7244726,189.90273,-63.84071,20.709799,JUM
120252768844000,4.165072,8.43640142410539,19.454781387731,-2.34024502564884,-1.4141531,-1.8310685,1.8527542,190.50966,-63.23207,21.4517,JUM
