timestamp,rel_time,acc_x,acc_y,acc_z,gyro_x,gyro_y,gyro_z,azimuth,pitch,roll,label
2660745423000,0,2.58766205209642,-9.3450293544244,-1.15308974973094,-0.026572637,0.0009162979,0.0030543262,337.20892,20.329144,13.292832,STD
2660750448000,0.005025,2.58981648338382,-9.34048110115255,-1.16338312827327,-0.03726278,0.0021380284,0.00580322,336.89877,20.766502,13.553412,STD
2660755404000,0.009981,2.59194133143563,-9.33599530150771,-1.17353516490128,-0.032070424,0.0012217305,0.007330383,336.5836,21.193895,13.813622,STD
2660760388000,0.014965,2.5940781842787,-9.33148415836206,-1.18374455766844,-0.03481932,-0.010995574,0.009468411,336.26123,21.622358,14.074966,STD
2660765385000,0.019962,2.59622061077485,-9.32696124859103,-1.19398058007163,-0.024740042,-0.0021380284,0.01038471,335.93594,22.041548,14.329722,STD
2660770421000,0.024998,2.59837975823024,-9.32240303894385,-1.20429649138291,-0.03481932,-0.002443461,0.0061086523,335.60394,22.462503,14.58922,STD
2660775403000,0.02998,2.60051575358822,-9.31789370604826,-1.21450178728298,-0.040927973,-0.004886922,0.009162978,335.26532,22.875929,14.844751,STD
2660780394000,0.034971,2.6026556076291,-9.3133762270274,-1.22472551908493,-0.024129177,-0.007941248,0.018325957,334.92096,23.28169,15.098959,STD
2660785851000,0.040428,2.60271943722795,-9.31058673310424,-1.22816790126002,-0.026572637,-0.009162978,0.014049901,334.57422,23.689257,15.353194,STD
2660790390000,0.044967,2.561979797053,-9.34679994616266,-1.09236929762054,-0.033292156,-0.009162978,0.022602014,334.2162,24.09095,15.603942,STD
2660795478000,0.050055,2.51820626869245,-9.38453026335175,-0.933041985064457,-0.027794369,-0.0070249503,0.008857546,333.88696,24.551346,15.870173,STD
2660800453000,0.05503,2.50897013803431,-9.37067626025007,-0.651339811927886,-0.029321533,-0.005192355,0.014660766,333.54526,25.014006,16.131363,STD
2660805731000,0.060308,2.50011292211595,-9.35616337868436,-0.374303037200859,-0.030543262,-0.004581489,0.015271631,333.23535,25.476337,16.390167,STD
2660810389000,0.064966,2.51317427962132,-9.34745565547531,-0.613760606515714,-0.028710667,-0.0061086523,0.01740966,332.91858,25.93394,16.646694,STD
2660815375000,0.069952,2.52715537204763,-9.33813476498146,-0.870079936829982,-0.0290161,-0.0067195175,0.019242255,332.63864,26.445076,16.867573,STD
2660820475000,0.075052,2.55998766727053,-9.34644736634461,-1.04013609623188,-0.032070424,-0.010995574,0.020158553,332.35428,26.951595,17.088043,STD
2660825329000,0.079906,2.59273736491546,-9.35580460426731,-1.19452741492754,-0.024129177,-0.01282817,0.01985312,332.06662,27.450184,17.306355,STD
2660830371000,0.084948,2.60394762155915,-9.3608573255634,-1.27142465676564,-0.022296581,-0.008552114,0.01985312,331.7816,28.034286,17.517952,STD
2660835399000,0.089976,2.6132622845633,-9.36551451117129,-1.34128467792823,-0.024129177,-0.013133603,0.01863139,331.49295,28.612509,17.730139,STD
2660840388000,0.094965,2.61031948506017,-9.37026629327907,-1.32128807376042,-0.020158553,-0.013133603,0.0125227375,331.20862,29.243586,17.939312,STD
2660845355000,0.099932,2.60556910151795,-9.37501665201977,-1.28803536416338,-0.025045475,-0.0143553335,0.015271631,330.91983,29.873846,18.145748,STD
2660850560000,0.105137,2.60059109742348,-9.37999463012433,-1.25318930951216,-0.018325957,-0.019547688,0.01863139,330.63754,30.532967,18.347929,STD
2660855338000,0.109915,2.59602147137864,-9.38456423231138,-1.22120190334049,-0.019242255,-0.009162978,0.015577064,330.3576,31.190363,18.543621,STD
2660860392000,0.114969,2.58406079926471,-9.3815196605846,-1.1374779390886,-0.022296581,-0.0106901415,0.013744468,330.08612,31.865196,18.735771,STD
2660865350000,0.119927,2.57112989779412,-9.37720931508714,-1.04696248393246,-0.020158553,-0.009468411,0.014966198,329.81662,32.53373,18.920834,STD
2660870388000,0.124965,2.57343734238245,-9.37912067119123,-0.99800850184602,-0.015882496,-0.008857546,0.01282817,329.57315,33.2139,19.099714,STD
2660875370000,0.129947,2.58379951286785,-9.38430175643392,-0.972103616625041,-0.011911872,-0.01985312,0.013439035,329.3274,33.887733,19.27613,STD
2660880363000,0.13494,2.58194996153696,-9.38905907801695,-0.91043746098763,-0.0015271631,-0.0067195175,0.011301007,329.12296,34.564487,19.441465,STD
2660885420000,0.139997,2.57723286956268,-9.39377621924613,-0.839681751239895,-0.01038471,-0.0012217305,0.01863139,328.914,35.238735,19.604866,STD
2660890370000,0.144947,2.57982472690217,-9.4021749477657,-0.786969450573672,-0.01863139,-0.018325957,0.013439035,328.7515,35.92591,19.781826,STD
2660895394000,0.149971,2.58466715298913,-9.41185939543076,-0.738545665002013,-0.013744468,-0.012217305,0.016493361,328.59265,36.604134,19.944529,STD
2660900544000,0.155121,2.58205829118151,-9.41768074724125,-0.665282864849696,-0.009773844,-0.013744468,0.0106901415,328.50616,37.306164,20.126316,STD
2660905372000,0.159949,2.5776597682363,-9.42207931611492,-0.590508709636606,-0.009773844,-0.004886922,0.016798794,328.42188,37.996914,20.295746,STD
2660910387000,0.164964,2.58254879242949,-9.4299658258288,-0.520317719643741,-0.007330383,0.009162978,0.024740042,328.4515,38.727314,20.491905,STD
2660915418000,0.169995,2.59208484008906,-9.43950207263731,-0.453565336239485,0.004276057,-0.0030543262,0.009468411,328.48346,39.434917,20.687342,STD
2660920403000,0.17498,2.58582075028704,-9.44906103545171,-0.402474728435895,-0.0061086523,-0.0106901415,0.022296581,328.71045,40.22592,20.92087,STD
2660925416000,0.179993,2.57131505997583,-9.45873109175144,-0.358958081605398,-0.0021380284,0.0021380284,0.019547688,328.9438,40.97758,21.147512,STD
2660930390000,0.184967,2.569667102285,-9.45880225183186,-0.320100981461627,0.00061086525,-0.009162978,0.02321288,329.52454,41.874454,21.481424,STD
2660936054000,0.190631,2.57489701882954,-9.45357293598149,-0.278262937867335,0.009162978,-0.013439035,0.03848451,330.0851,42.716824,21.789833,STD
2660940390000,0.194967,2.59311312250174,-9.46926075698518,-0.214469247531073,0.02076942,-0.006414085,0.04337143,330.58664,43.540882,22.025017,STD
2660945392000,0.199969,2.62169216414438,-9.49783935099931,-0.123969036863876,0.02565634,-0.013133603,0.05009095,331.06647,44.32407,22.245127,STD
2660950547000,0.205124,2.65880733584687,-9.54828780354081,-0.0506354451548472,0.034208454,-0.02321288,0.03940081,331.54987,45.061394,22.45675,STD
2660955402000,0.209979,2.69867522157773,-9.60926230343993,0.00564870257036214,0.049480084,-0.03756821,0.04886922,332.01343,45.76263,22.650969,STD
2660960397000,0.214974,2.73969274767981,-9.67199507934026,0.0635558741228689,0.04917465,-0.034208454,0.057726767,332.49005,46.4318,22.836962,STD
2660965388000,0.219965,2.78067742691415,-9.73467761878342,0.121416673566024,0.054367006,-0.05497787,0.06383542,332.9452,47.063274,23.015545,STD
2660970412000,0.224989,2.82288636528958,-9.81756327376952,0.105433845649733,0.074830994,-0.06291912,0.057726767,333.39523,47.659233,23.18008,STD
2660975395000,0.229972,2.86533469939711,-9.91189257679383,0.0441197563299071,0.07544186,-0.09407325,0.060170226,333.8228,48.231815,23.337477,STD
2660980414000,0.234991,2.86811898379583,-9.97350205620822,-0.0939465953639862,0.073303826,-0.11636983,0.063224554,334.2712,48.774704,23.499126,STD
2660985415000,0.239992,2.84386661555601,-10.0123058960401,-0.283115206410573,0.06627888,-0.11789699,0.0580322,334.7093,49.29,23.652218,STD
2660990387000,0.244964,2.79648390746966,-10.0239742075293,-0.472037319454943,0.06505715,-0.089186326,0.06536258,335.10745,49.787766,23.782383,STD
2660995438000,0.250015,2.7339373654267,-10.0191630973742,-0.66448787487965,0.09040806,-0.025045475,0.069027774,335.51056,50.25606,23.899626,STD
2661000547000,0.255124,2.70111443688761,-9.98693368379211,-0.773901711199444,0.10354166,0.048258353,0.076358154,335.8694,50.72267,23.982,STD
2661006217000,0.260794,2.68492634178674,-9.93297317897247,-0.838654373328033,0.13072516,0.12003502,0.08032878,336.24246,51.161617,24.047728,STD
2661010386000,0.264963,2.65114320431704,-9.8939694846721,-0.885458847215755,0.13958271,0.18478674,0.08368854,336.5929,51.60313,24.07683,STD
2661015373000,0.26995,2.60017744798215,-9.84763702289484,-0.941057849728366,0.15363261,0.21533,0.090713486,336.9516,52.02359,24.09371,STD
2661020394000,0.274971,2.55285268353751,-9.78954660149843,-0.95430839626911,0.16584991,0.23487769,0.09132435,337.30264,52.425068,24.094831,STD
2661025388000,0.279965,2.50927266413891,-9.72175571863926,-0.930097305279943,0.18417588,0.2678644,0.093767814,337.66452,52.81127,24.083963,STD
2661030397000,0.284974,2.45872597570956,-9.69693612879082,-0.893336965967146,0.19394971,0.27672195,0.10262536,338.0255,53.192852,24.06378,STD
2661035467000,0.290044,2.40209183836509,-9.70637486421073,-0.846141766093507,0.21899518,0.28221974,0.10903945,338.3947,53.556217,24.036554,STD
2661040483000,0.29506,2.37751708495927,-9.71335093651897,-0.81372982274091,0.23762658,0.25686884,0.118202426,338.7646,53.90791,24.004488,STD
2661045399000,0.299976,2.38219417107093,-9.71802812030598,-0.795021483178025,0.24465153,0.22174409,0.12705997,339.13217,54.24832,23.968826,STD
2661050440000,0.305017,2.41892377756435,-9.7158857341529,-0.81731038149443,0.24129178,0.17745635,0.13652839,339.50723,54.58535,23.923111,STD
2661055407000,0.309984,2.48745234882828,-9.70674840049942,-0.881270419504418,0.23976462,0.12644911,0.14721853,339.8687,54.913467,23.877827,STD
2661060367000,0.314944,2.55677103767843,-9.69940555749405,-0.955465902354282,0.2452624,0.09132435,0.15271631,340.22272,55.22921,23.834166,STD
2661065387000,0.319964,2.62825533010508,-9.69464033941316,-1.04601268437252,0.2519819,0.06169739,0.16249016,340.56168,55.53953,23.79006,STD
2661070363000,0.32494,2.68122349401118,-9.66942233014743,-1.15338155398068,0.25534168,0.036957346,0.1740966,340.85992,55.837563,23.753933,STD
2661075499000,0.330076,2.70622926019319,-9.60940815709202,-1.29341424148449,0.27397305,0.032375857,0.16401732,341.1577,56.121193,23.720005,STD
2661080338000,0.334915,2.69692031542874,-9.54056025772895,-1.38665292836866,0.30970868,0.048258353,0.16615535,341.42532,56.39482,23.689863,STD
2661085462000,0.340039,2.63967184508069,-9.44991686710091,-1.42958931849115,0.34422258,0.06169739,0.1704314,341.693,56.656662,23.66062,STD
2661090290000,0.344867,2.58148682107232,-9.35827808416459,-1.42788156477556,0.39492437,0.052534413,0.1731803,341.9306,56.90146,23.636992,STD
2661095410000,0.349987,2.51161396036694,-9.24910142581047,-1.34490760538832,0.44532076,0.04917465,0.17654006,342.1743,57.135223,23.6081,STD
2661100450000,0.355027,2.44374658277441,-9.14223379314383,-1.24403056390929,0.4908302,0.03023783,0.17073683,342.40973,57.357,23.577276,STD
2661105407000,0.359984,2.3830986667199,-9.04115384509741,-1.01660052248483,0.5381723,0.0012217305,0.16737708,342.64154,57.565697,23.545027,STD
2661110393000,0.36497,2.3156827575365,-8.9450493890554,-0.803967513272745,0.58184916,-0.0067195175,0.15699236,342.89548,57.75202,23.511084,STD
2661115386000,0.369963,2.22784332176351,-8.86645610296819,-0.642158078661897,0.62858033,-0.0067195175,0.1563815,343.14288,57.926884,23.476309,STD
2661120432000,0.375009,2.14250403185285,-8.7911095209511,-0.49606052847555,0.6591236,-0.0067195175,0.14721853,343.295167100769,57.9929945119345,23.4588412628583,STD
2661125399000,0.379976,2.07421435549574,-8.73562440960072,-0.432039004800359,0.7153232,0.04917465,0.15577064,343.44507,58.05807,23.441647,STD
2661130915000,0.385492,1.99656418811339,-8.67587438000644,-0.360593051248792,0.73914695,0.14782938,0.15302174,343.7591,58.18974,23.40126,STD
2661135403000,0.38998,1.89964647145925,-8.66202919156018,-0.295981224082465,0.77091193,0.17898351,0.1518,344.1054,58.289978,23.355316,STD
2661140426000,0.395003,1.78824261209538,-8.64510280520973,-0.227482634050948,0.782213,0.2669481,0.160963,344.51837,58.38857,23.283129,STD
2661145516000,0.400093,1.64352658077954,-8.61242482972611,-0.199473088408351,0.7867944,0.3408628,0.16401732,344.93384,58.48076,23.208908,JUM
2661150743000,0.40532,1.49864322584169,-8.57734934223855,-0.169491121443639,0.77946407,0.39706242,0.16035213,345.39258,58.58158,23.1085,JUM
2661155440000,0.410017,1.42269746129705,-8.52374084715463,-0.124817111511967,0.7770206,0.42638394,0.1777618,345.8577,58.685963,22.994715,JUM
2661160723000,0.4153,1.33716343600484,-8.46689510024213,-0.0740219915588378,0.7593055,0.44898596,0.19822577,346.3638,58.80527,22.853466,JUM
2661165404000,0.419981,1.25901111478935,-8.48860405946731,-0.0175786581305569,0.7302894,0.47067168,0.22449298,346.87012,58.93234,22.701208,JUM
2661170398000,0.424975,1.17563305622276,-8.51176461113802,0.0426388182934625,0.6918049,0.52564955,0.23518312,347.41205,59.06624,22.534006,JUM
2661175415000,0.429992,1.09187099778693,-8.53503182934625,0.103133627908862,0.66950834,0.5907067,0.25625798,347.95303,59.21036,22.35212,JUM
2661180354000,0.434931,1.00941119977724,-8.55793730886199,0.162687916266538,0.6560693,0.6973027,0.27183503,348.51535,59.360996,22.157305,JUM
2661185432000,0.440009,0.999939555068546,-8.64860216393126,0.294883909650512,0.65668017,0.7987063,0.25350907,349.08765,59.500317,21.961817,JUM
2661190324000,0.444901,1.00446260059857,-8.74810888221664,0.435098415539679,0.6942484,0.83658,0.22204952,349.66623,59.635735,21.759943,JUM
2661195390000,0.449967,1.04969262802062,-8.82016006016454,0.745063052849638,0.7296785,0.7367035,0.22724187,350.28152,59.783707,21.529337,JUM
2661200417000,0.454994,1.10695413916146,-8.88219311061552,1.10294747505798,0.70646566,0.63285637,0.2602286,350.8986,59.93578,21.294262,JUM
2661205392000,0.459969,1.15409151202512,-8.9603294050242,1.19125799700402,0.65484756,0.5671884,0.28710666,351.52985,60.07711,21.069586,JUM
2661210356000,0.464933,1.19814109641717,-9.04353428343457,1.19615238959127,0.60994893,0.5644395,0.3191771,352.13577,60.230103,20.837149,JUM
2661215415000,0.469992,1.21394903980726,-9.12510090641216,1.08439504187546,0.60994893,0.605062,0.3463606,352.79153,60.33102,20.636583,JUM
2661220422000,0.474999,1.22283544410675,-9.20507835952557,0.946655663884359,0.63407815,0.63163465,0.36560285,353.4267,60.44252,20.42779,JUM
2661225399000,0.479976,1.24893345793168,-9.20233833874686,0.735204568294216,0.6597345,0.7156286,0.38362336,354.06604,60.562088,20.198473,JUM
2661230366000,0.484943,1.28382200108969,-9.15748181139983,0.486000872975692,0.7247916,0.82711154,0.419359,354.70465,60.676838,19.951445,JUM
2661235424000,0.490001,1.2770575455209,-9.00003349569364,0.210560204783222,0.79901177,0.9419542,0.4538729,355.31662,60.81539,19.667742,JUM
2661240398000,0.494975,1.2561964912559,-8.80764853749209,-0.0675870563330252,0.88147855,1.0827587,0.48747048,355.95416,60.945004,19.360352,JUM
2661245372000,0.499949,1.2353354369909,-8.61526357929055,-0.345734317449273,0.94714653,1.2672399,0.50823987,356.548,61.072773,19.016794,JUM
2661250541000,0.505118,1.21365654887353,-8.41533638810763,-0.634786024869836,1.0012082,1.4278975,0.49480084,357.16858,61.184555,18.6626,JUM
2661255392000,0.509969,1.24870976581743,-8.14381786504033,-0.986034271257132,0.999681,1.5796975,0.4810564,357.82898,61.29745,18.285778,JUM
2661261108000,0.515685,1.32409579914421,-7.77227224237655,-1.4491198965178,0.99204516,1.7033978,0.46273044,358.52054,61.396416,17.900837,JUM
2661265379000,0.519956,1.35544445981232,-7.42279121664627,-1.59257881815585,0.9728029,1.7831156,0.46211955,359.1555,61.52244,17.498793,JUM
2661270449000,0.525026,1.38020699347205,-6.97211274204406,-1.66191396411669,0.99204516,1.7928895,0.4633413,359.8026,61.63878,17.096905,JUM
2661275383000,0.52996,1.3306010649831,-6.22610896927819,-0.97075952491549,1.0341948,1.7562376,0.49480084,0.3949711,61.759335,16.710535,JUM
2661280400000,0.534977,1.23983850700935,-5.29937534345794,0.147053214953271,1.0781772,1.6551393,0.539394,0.9677858,61.87855,16.328083,JUM
2661285418000,0.539995,1.14633174559353,-4.90044007423561,1.02450734406475,1.1313224,1.4773777,0.5852089,1.4773347,61.95344,15.986513,JUM
2661290426000,0.545003,1.05144554789568,-4.80555392157374,1.76203172104317,1.1872166,1.2425,0.6188065,1.9377421,62.024624,15.655693,JUM
2661295379000,0.549956,0.989770447489853,-4.87859038346507,2.47701930442213,1.239751,0.9718866,0.6603453,2.4180489,61.886154,15.445545,JUM
2661300517000,0.555094,0.974002791518906,-5.2044554381756,3.1970760328135,1.3038919,0.7119634,0.6618725,2.8308594,61.73492,15.262443,JUM
2661305400000,0.559977,1.00800825086231,-5.60993664387993,3.53627356981449,1.391551,0.45845437,0.65209866,3.294243,61.43713,15.167605,JUM
2661310431000,0.565008,1.08436468571828,-6.10849927001025,3.59466384264007,1.4822645,0.23151793,0.61850107,3.68209,61.13136,15.102187,JUM
2661315373000,0.56995,1.20354983041564,-6.56974601525078,3.4826364976909,1.5253305,0.15088372,0.5589417,3.9318466,60.79963,14.960318,JUM
2661320443000,0.57502,1.39649504854473,-6.99735447631833,3.09674595252927,1.452943,0.06261369,0.52473325,4.1154156,60.47762,14.851135,JUM
2661325396000,0.579973,1.49664696285548,-7.34643088537435,2.67363819692397,1.3875804,0.022907447,0.45753807,4.355375,60.14267,14.788349,JUM
2661330940000,0.585517,1.5223259042368,-7.66998586854324,2.15492325925711,1.2385293,0.03970624,0.43035457,4.5805807,59.856182,14.72745,JUM
2661335441000,0.590018,1.47241557832805,-7.92447884303694,1.72568904766193,1.0867293,0.052534413,0.4370741,4.9315944,59.57832,14.800821,JUM
2661340472000,0.595049,1.34423549984652,-8.20055837849176,1.23761878050752,1.0732902,0.11789699,0.47861293,5.2824383,59.32122,14.848872,JUM
2661345385000,0.599962,1.21751972810858,-8.36470756518778,0.942141412414867,1.0528263,0.24587326,0.52381694,5.517925,59.21457,14.759385,JUM
2661350529000,0.605106,1.0833140293345,-8.43181129042615,0.81272872247519,1.0488557,0.38881573,0.58032197,5.7643743,59.119358,14.644195,JUM
2661355390000,0.609967,1.00028243500296,-8.4404252474857,0.819163514080063,1.029308,0.49235737,0.63255095,5.9933786,59.139103,14.410259,JUM
2661360403000,0.61498,0.967146984455729,-8.38362146263064,0.980107159268389,0.9993755,0.54275376,0.6985244,6.2357264,59.172318,14.149661,JUM
2661365353000,0.61993,0.953896979426957,-8.32587236185557,1.15756819072215,0.9764681,0.5317582,0.77854776,6.492519,59.258167,13.826472,JUM
2661370400000,0.624977,0.96802840727512,-8.26463598596628,1.3648288701686,0.98624194,0.50640726,0.8567385,6.749645,59.349728,13.486937,JUM
2661375286000,0.629863,0.997974638291232,-8.1923272162294,1.56065517199844,1.0274754,0.48349985,0.9184359,7.013396,59.42325,13.147366,JUM
2661380389000,0.634966,1.05993853622354,-8.09223166965766,1.75607976551253,1.1053606,0.45937067,0.9447031,7.2638326,59.48775,12.805541,JUM
2661385426000,0.640003,1.12522833681414,-7.97438689028303,1.93601502494125,1.2046263,0.4156938,0.9306532,7.490703,59.468,12.482864,JUM
2661390389000,0.644966,1.19807449726167,-7.81898185617656,2.08656380386227,1.2925909,0.38606682,0.91232723,7.711047,59.43256,12.16114,JUM
2661395292000,0.649869,1.25064737139764,-7.67502204341877,2.24721501386387,1.3652838,0.36743546,0.8680395,7.9253864,59.311592,11.894944,JUM
2661400416000,0.654993,1.26764473720991,-7.5432918482681,2.43843601154312,1.393689,0.33108896,0.80481493,8.130896,59.17737,11.648182,JUM
2661405392000,0.659969,1.28114795854133,-7.41210878411669,2.6259925434792,1.3848315,0.25350907,0.73364913,8.319859,58.976025,11.465654,JUM
2661410385000,0.664962,1.23981514385737,-7.22094405089141,2.84815682028093,1.3545936,0.15271631,0.65270954,8.501471,58.77078,11.31132,JUM
2661415375000,0.669952,1.19905947397743,-7.03149651339915,3.05864835811001,1.3310753,0.11178834,0.5662721,8.696697,58.500134,11.215971,JUM
2661420407000,0.674984,1.16021964282692,-6.84700775901672,3.22371762782591,1.3267993,0.08368854,0.52656585,8.871372,58.237835,11.140268,JUM
2661425408000,0.679985,1.09381051353238,-6.74208922062284,3.40677942,1.3521502,0.11026118,0.43310347,9.092418,57.90253,11.127865,JUM
2661430386000,0.684963,0.928850848782996,-6.91647493384083,3.65657546,1.3997977,0.04184427,0.34574974,9.282518,57.5718,11.137051,JUM
2661435472000,0.690049,0.752956344573341,-7.14593592094324,3.84747643766986,1.4349225,-0.09712757,0.3213151,9.484417,57.186848,11.185485,JUM
2661440395000,0.694972,0.555098824942046,-7.56049462813749,3.79094566015188,1.385137,-0.10934488,0.3475823,9.69876,56.825413,11.226629,JUM
2661445380000,0.699957,0.363000593899259,-7.98726976838946,3.7496140116687,1.3063353,-0.043982297,0.3921755,9.933879,56.45963,11.239759,JUM
2661450515000,0.705092,0.201553111261608,-8.45777390908921,3.77729079949348,1.2299771,0.03634648,0.41447207,10.160917,56.125008,11.243574,JUM
2661455395000,0.709972,0.0566120451387645,-8.8958076347359,3.81472433178156,1.1850786,0.09132435,0.44409904,10.3943405,55.885017,11.12224,JUM
2661460387000,0.714964,0.0423454325216353,-9.20016222262011,4.02872367000895,1.1417072,0.129198,0.44868052,10.63854,55.67509,10.990169,JUM
2661465414000,0.719991,0.0375184658709026,-9.49986656799192,4.24520600500413,1.0940597,0.14508049,0.42821655,10.89209,55.543056,10.755623,JUM
2661470452000,0.725029,0.205861336964466,-9.67706946359379,4.47999988793499,1.0699304,0.15393804,0.39522982,11.150744,55.419685,10.522023,JUM
2661475376000,0.729953,0.370394941026536,-9.85026260729042,4.70948084854467,1.0531317,0.17837265,0.36926803,11.419674,55.305424,10.268531,JUM
2661480382000,0.734959,0.52923444654053,-9.93577221429994,4.82743740001992,1.0231993,0.204029,0.33383787,11.693693,55.200512,10.028346,JUM
2661485417000,0.739994,0.687692354497112,-10.007798485959,4.92827418034256,0.98837996,0.24587326,0.30818152,11.975957,55.103146,9.790039,JUM
2661490409000,0.744986,0.712771704342677,-10.2176525542835,5.08880062708251,0.93126404,0.29016098,0.30970868,12.234872,54.981018,9.582179,JUM
2661495371000,0.749948,0.717461803197789,-10.4474677899724,5.25764438176076,0.87872964,0.33353242,0.30543262,12.504718,54.868618,9.378635,JUM
2661500398000,0.754975,0.627363054558911,-10.8541458419183,5.68160372172883,0.8384125,0.3830125,0.29229903,12.755865,54.74074,9.19696,JUM
2661505377000,0.759954,0.519142494814486,-11.2917333194198,6.15212781976515,0.81153446,0.4025602,0.26389378,13.010135,54.626144,9.020584,JUM
2661510418000,0.764995,0.444268041926083,-11.8321262196378,6.67746701947228,0.782213,0.3454443,0.20341812,13.25393,54.513554,8.844051,JUM
2661515374000,0.769951,0.378814354508596,-12.386300608164,7.20546013169072,0.75319684,0.31429017,0.1563815,13.507783,54.41051,8.667428,JUM
2661520465000,0.775042,0.377961868522307,-12.9815441179543,7.71668009741023,0.713796,0.22235495,0.06261369,13.774056,54.300003,8.50527,JUM
2661525372000,0.779949,0.413756612752992,-13.5696008133841,8.19223855843308,0.62796944,0.11575896,-0.032070424,14.032724,54.210453,8.36604,JUM
2661530370000,0.784947,0.481879456292377,-14.0460861805713,8.37750913199175,0.5537493,0.004276057,-0.12767084,14.308626,54.1092,8.239658,JUM
2661590472000,0.845049,1.40172979099626,-19.3865765819615,9.65458361288421,-0.49846604,-1.7580702,-1.1814134,16.146494,54.606068,9.310994,JUM
2661595380000,0.849957,1.62022061725046,-19.4445244277061,9.38987365973137,-0.63621616,-1.8625281,-1.1982121,16.109135,54.769592,9.656784,JUM
2661600478000,0.855055,1.8602402843034,-19.4702408861382,9.08127705363884,-0.82253003,-1.9361374,-1.1844677,16.048834,54.96329,10.012823,JUM
2661605289000,0.859866,2.07213468648649,-19.4888284120243,8.62455104908991,-1.0433578,-1.9620992,-1.1695015,15.945616,55.18965,10.420755,JUM
2661610258000,0.864835,2.28211656864865,-19.5045773738555,8.05235028041919,-1.2672399,-1.9602666,-1.1569787,15.826354,55.45307,10.825916,JUM
2661615326000,0.869903,2.41069177822297,-19.4629792898575,7.61154803621123,-1.3854424,-1.892155,-1.1276573,15.682492,55.751183,11.241717,JUM
2661620280000,0.874857,2.51408923282481,-19.4073034722548,7.21784248583403,-1.6175711,-1.7886134,-1.0873401,15.541406,56.12453,11.637084,JUM
2661625281000,0.879858,2.65523750991963,-19.275569049433,6.77418359329517,-1.8267925,-1.6899587,-1.0458013,15.381081,56.541245,12.032258,JUM
2661630347000,0.884924,2.85287001739513,-19.029864424089,6.25606598679952,-2.0393736,-1.6340646,-1.0002918,15.226529,57.005295,12.398281,JUM
2661635285000,0.889862,3.05877920466749,-18.7934099347377,5.63855951520033,-2.2137756,-1.5861117,-0.95356065,15.068978,57.52393,12.75246,JUM
2661640280000,0.894857,3.27612643747418,-18.5563032061132,4.93712090832301,-2.360994,-1.5005904,-0.91354895,14.927372,58.073364,13.074408,JUM
2661645281000,0.899858,3.52059248610441,-18.4435332336196,4.35220275677893,-2.5176811,-1.3530666,-0.8570439,14.77723,58.67112,13.385413,JUM
2661650573000,0.90515,3.79446158011194,-18.3946280656181,3.79957389876484,-2.6456573,-1.1884383,-0.788627,14.645562,59.282215,13.66036,JUM
2661655411000,0.909988,4.07026797137587,-18.4674893892323,3.41970108822532,-2.7605,-1.0192287,-0.68477994,14.510168,59.94716,13.919276,JUM
2661660383000,0.91496,4.36935072475573,-18.6146576149551,3.10637620690927,-2.85946,-0.84971356,-0.49754974,14.398647,60.636963,14.109453,JUM
2661665374000,0.919951,4.575497912126,-18.722360230868,2.86362036064975,-2.9336803,-0.74097955,-0.26939157,14.2658415,61.373543,14.276182,JUM
2661670395000,0.924972,4.71794438120865,-18.8030799826207,2.66894374102893,-2.9770517,-0.7486154,-0.01985312,14.124424,62.133358,14.374675,JUM
2661675366000,0.929943,4.63353159781203,-18.5389175161611,2.56152208876181,-2.9684997,-0.78984874,0.16157386,13.969332,62.914234,14.44641,JUM
2661680376000,0.934953,4.37585780596718,-18.0092541377424,2.51857634883143,-2.9318478,-0.82741696,0.23823744,13.802995,63.696404,14.474817,JUM
2661685359000,0.939936,4.06530515893529,-17.0257141101326,2.54667623716604,-2.8985555,-0.7834347,0.20372356,13.636029,64.4761,14.490968,JUM
2661690382000,0.944959,3.70830703962003,-15.6643613255492,2.63235581363546,-2.8695395,-0.7141015,0.1020145,13.473077,65.223946,14.5020075,JUM
2661695362000,0.949939,3.57842949939626,-14.2803472006086,2.63441725068964,-2.831055,-0.69974613,-0.004581489,13.331421,65.92597,14.512066,JUM
2661700515000,0.955092,3.64625363292593,-12.8172849700584,2.56174861930005,-2.7467556,-0.7706065,-0.112704635,13.202212,66.56908,14.547197,JUM
2661705390000,0.959967,3.71041871170667,-11.4331537117754,2.49300039922937,-2.5604417,-0.8228355,-0.20799962,13.116834,67.10177,14.601187,JUM
2661710406000,0.964983,3.77643964199676,-10.0089891186374,2.42226376910126,-2.3273966,-0.8396343,-0.30695978,13.036225,67.56473,14.684626,JUM
2661715407000,0.969984,3.87245785624148,-8.74233929374878,2.33026006266797,-2.0705278,-0.82924956,-0.36835176,12.959625,67.95528,14.783709,JUM
2661720421000,0.974998,4.00337368917235,-7.64825588416748,2.21337078488802,-1.9373591,-0.8231409,-0.48258355,12.892978,68.275925,14.921702,JUM
2661725575000,0.980152,4.12524615769973,-6.55278918479342,2.05848756804385,-1.6862935,-0.82741696,-0.57787853,12.826501,68.3885,15.155993,JUM
2661730399000,0.984976,4.22373073023043,-5.5632565255304,1.87089836313065,-1.434617,-0.82772243,-0.6426302,12.770334,68.44432,15.4087,JUM
2661735420000,0.989997,4.19100857159671,-4.61350732910945,1.62008458642605,-1.1991285,-0.81489426,-0.691194,12.724153,68.3775,15.722989,JUM
2661740412000,0.994989,3.98938827187132,-3.76951596998823,1.30124345092193,-1.0555751,-0.8035932,-0.7165449,12.679084,68.26169,16.045786,JUM
2661745330000,0.999907,3.72857707363145,-2.99572954276167,0.94674383322457,-0.95386606,-0.816116,-0.72418076,12.643423,68.0461,16.413748,JUM
2661750506000,1.005083,3.35345615160688,-2.27471793147912,0.508290784292875,-0.88025683,-0.8081747,-0.70280045,12.61172,67.80396,16.775944,JUM
2661755344000,1.009921,2.89713614972187,-1.49587590454086,0.0217992136465555,-0.80939645,-0.786489,-0.6750061,12.591208,67.52353,17.138588,JUM
2661760386000,1.014963,2.2318311970475,-0.495852390356868,-0.622844054521181,-0.75686204,-0.72692966,-0.63407815,12.574808,67.2372,17.48655,JUM
2661765625000,1.020202,1.57165849002735,0.491154125486959,-1.26904647354267,-0.71776664,-0.5992588,-0.59315014,12.583622,66.9686,17.807583,JUM
2661770409000,1.024986,1.3396228189572,0.771917280043555,-1.57765389399342,-0.6844745,-0.5158757,-0.550695,12.585634,66.69899,18.114532,JUM
2661775386000,1.029963,1.0982261770433,1.06400720902102,-1.89871140477589,-0.6169739,-0.46517387,-0.4972443,12.505934,66.565765,18.389046,JUM
2661780378000,1.034955,0.856101998535325,1.35697745725399,-2.22073653915928,-0.51007247,-0.3231477,-0.45875978,12.473201,66.42099,18.643871,JUM
2661785418000,1.039995,0.634928435023491,1.64414012475844,-2.50869288782909,-0.37965274,-0.06841691,-0.4465425,12.486859,66.26329,18.882124,JUM
2661790389000,1.044966,0.668688786975445,1.83404206317702,-2.39053171989185,-0.20189096,0.267559,-0.43860126,12.561143,66.08371,19.095568,JUM
2661795382000,1.049959,0.702598551066395,2.02478444469462,-2.27184760975091,-0.029321533,0.6068946,-0.40194935,12.63668,65.99382,19.268696,JUM
2661800467000,1.055044,0.668320242575712,2.25275800069423,-1.9639690210987,0.10781772,0.8732319,-0.32620203,12.783772,65.88943,19.411646,JUM
2661805383000,1.05996,0.620951716269242,2.48012693290069,-1.6276524477211,0.22418754,1.0341948,-0.26175576,12.995431,65.76496,19.532228,JUM
2661810395000,1.064972,0.524668841275188,2.51468888492231,-1.22964276708772,0.3417791,1.0894781,-0.1908954,13.242489,65.61772,19.637009,JUM
2661815367000,1.069944,0.41965134887218,2.50991536616541,-0.82389337368421,0.4007276,1.1120802,-0.15851954,13.523058,65.46629,19.726873,JUM
2661820401000,1.074978,0.335235050857366,2.29238827422035,-0.547713931051911,0.50823987,1.0454959,-0.11026118,13.794299,65.281006,19.800558,JUM
2661825334000,1.079911,0.256720971465441,2.03837214635839,-0.302934733565353,0.61391956,0.9492846,-0.08155051,14.060818,65.08732,19.872822,JUM
2661830388000,1.084965,0.180836995185042,1.74074339895914,-0.179429446634541,0.72021013,0.8546005,-0.04428773,14.323762,64.87214,19.917337,JUM
2661835443000,1.09002,0.106186629861218,1.43281068828065,-0.0907821487740941,0.7874053,0.74464476,-0.043066,14.553606,64.64085,19.97348,JUM
2661840440000,1.095017,0.0257419696924543,1.13271235615525,0.0145688890747639,0.84329945,0.6215554,-0.05131268,14.764766,64.40611,20.00354,JUM
2661845344000,1.099921,-0.0556314367495452,0.839768094663432,0.124422983947847,0.86376345,0.48655418,-0.05222898,14.938923,64.164246,20.041666,JUM
2661850477000,1.105054,-0.215957986617663,0.505941350042266,0.293300180880986,0.8713993,0.35094208,-0.03573562,15.085063,63.937862,20.056847,JUM
2661855409000,1.109986,-0.471242891549022,0.148542481538969,0.528162276784131,0.86529064,0.2171626,-0.022907447,15.192396,63.706177,20.084797,JUM
2661860386000,1.114963,-0.735113017050153,-0.173743874191117,0.645308519311505,0.8396343,0.09101892,-0.0033597588,15.273391,63.505577,20.079159,JUM
2661865454000,1.120031,-1.00878098631319,-0.471417826436047,0.669314500789396,0.7675522,-0.00580322,0.012217305,15.3231535,63.314175,20.080095,JUM
2661870387000,1.124964,-1.19938946228298,-0.693206203826582,0.53616550071842,0.6899723,-0.060170226,0.024129177,15.374839,63.166904,20.017864,JUM
2661875378000,1.129955,-1.3281603499102,-0.860131403997206,0.269085148573139,0.6209445,-0.045814894,0.043066,15.416497,63.034576,19.950779,JUM
2661880382000,1.134959,-1.40047818329718,-1.00957405704989,-0.0477801682212581,0.5910121,0.054367006,0.090713486,15.485696,62.97069,19.79665,JUM
2661885538000,1.140115,-1.42343049197397,-1.14728772936164,-0.418842113690734,0.6010914,0.2501493,0.1441642,15.584298,62.916286,19.62349,JUM
2661890832000,1.145409,-1.44391065878302,-1.28806416227773,-0.799415813381643,0.63194007,0.5195409,0.2049453,15.726773,62.927567,19.383911,JUM
2661895406000,1.149983,-1.39438372152328,-1.39612292593278,-1.11908957985507,0.66981375,0.8011498,0.267559,15.923371,62.946262,19.10737,JUM
2661900739000,1.155316,-1.33452471350334,-1.51469247325004,-1.47708514174226,0.6939429,1.0867293,0.32925636,16.193666,63.02127,18.771118,JUM
2661905429000,1.160006,-1.25765454595242,-1.53391003520452,-1.6231384279822,0.68233645,1.3267993,0.37690386,16.526184,63.10631,18.397305,JUM
2661910389000,1.164966,-1.17635901694335,-1.55423393867876,-1.77759989914428,0.655153,1.427592,0.4016439,16.91306,63.206806,17.996162,JUM
2661915417000,1.169994,-1.04480090041152,-1.48508067895356,-1.83549833233392,0.6218608,1.5925257,0.4343252,17.377617,63.325237,17.549036,JUM
2661920390000,1.174967,-0.89080912441701,-1.37308668219675,-1.84483116133647,0.55863625,1.6698002,0.44898596,17.842299,63.460567,17.097311,JUM
2661925386000,1.179963,-0.677957446164693,-1.10821699216018,-1.70438803460237,0.5030475,1.6701056,0.43982297,18.349516,63.58502,16.64515,JUM
2661930391000,1.184968,-0.430142488287272,-0.752264572626434,-1.47459600738861,0.46639562,1.6059648,0.43188173,18.852598,63.728867,16.186155,JUM
2661935560000,1.190137,-0.270300870256605,-0.477262772554094,-1.25977964750462,0.42424592,1.4810427,0.4111123,19.345758,63.835773,15.774334,JUM
2661940418000,1.194995,-0.204538810408829,-0.3002110847472,-1.07766930110906,0.398895,1.3319917,0.40133846,19.805605,63.956524,15.36961,JUM
2661945383000,1.19996,-0.186644471692551,-0.206624186032199,-0.896451244875853,0.37812558,1.180497,0.3903429,20.210808,63.98376,15.065706,JUM
2661950498000,1.205075,-0.193913049113661,-0.155744140795529,-0.712313951894352,0.35613444,1.0216721,0.3744604,20.565624,64.0222,14.781267,JUM
2661955411000,1.209988,-0.200894578120487,-0.106873434588733,-0.535448552008112,0.32925636,0.8594874,0.3662137,20.849072,64.04083,14.540349,JUM
2661960403000,1.21498,-0.207988368635869,-0.0572168977712434,-0.355739193931151,0.29352075,0.6957755,0.3387248,21.088898,64.06414,14.325402,JUM
2661965408000,1.219985,-0.241404366855346,-0.0396426449119497,-0.128389439892183,0.29046643,0.539394,0.310625,21.288683,64.08175,14.126784,JUM
2661970423000,1.225,-0.29102865922956,-0.0418002224984277,0.128362339083558,0.29993483,0.3903429,0.28252518,21.447134,64.1027,13.952147,JUM
2661975382000,1.229959,-0.340098821918239,-0.0439337074937107,0.382247099191375,0.31337386,0.23304509,0.2574797,21.540863,64.09036,13.812327,JUM
2661981032000,1.235609,-0.396006549119497,-0.0463644778553459,0.67150882425876,0.31520647,0.077579886,0.24404067,21.595955,64.07619,13.692723,JUM
2661985390000,1.239967,-0.443209868054991,-0.0471181842964469,0.882203868835318,0.32742378,-0.058948494,0.23884831,21.61733,64.04983,13.590752,JUM
2661990414000,1.244991,-0.51774004469939,-0.0424600500801626,1.06387115434214,0.34666604,-0.16646078,0.2284636,21.606506,64.01858,13.507609,JUM
2661995368000,1.249945,-0.591689746323893,-0.0333042209991751,1.2366711430483,0.38698313,-0.21777347,0.22388211,21.578772,63.928337,13.4154,JUM
2662000500000,1.255077,-0.672770012543305,0.0207493090981578,1.35378708941435,0.44806966,-0.19792034,0.21777347,21.542686,63.82494,13.329863,JUM
2662005367000,1.259944,-0.749663554182018,0.0720116884792411,1.46485554439556,0.5345071,-0.15760323,0.22999077,21.505781,63.69052,13.227868,JUM
2662010412000,1.264989,-0.865025793959732,0.0265568770978353,1.64168680274128,0.59223384,-0.0106901415,0.24801129,21.503311,63.545673,13.11115,JUM
2662015364000,1.269941,-0.98158058590604,-0.0272376369689006,1.82100186367332,0.70707655,0.21777347,0.2929099,21.529148,63.36844,12.969528,JUM
2662020452000,1.275029,-1.04072383781454,-0.37817873195609,2.18605231696241,0.8524625,0.5164866,0.32467487,21.620764,63.15498,12.78409,JUM
2662025337000,1.279914,-1.08293381280201,-0.78620829738015,2.58001192027068,0.98624194,0.7846564,0.3735441,21.757198,62.91988,12.557871,JUM
2662030386000,1.284963,-1.13856204424118,-1.39355677315662,2.93958806580175,1.0986412,1.0241156,0.4474588,21.972765,62.65052,12.248408,JUM
2662035456000,1.290033,-1.19747630548815,-2.05067732477133,3.28854172335262,1.2363913,1.2678508,0.54458636,22.248882,62.342377,11.884799,JUM
2662040426000,1.295003,-1.23579763559322,-2.94413763254237,4.24291494779661,1.4706581,1.484708,0.6795876,22.58062,61.970284,11.428869,JUM
2662045380000,1.299957,-1.26466367427206,-3.95445118233811,5.48828104970013,1.9092593,1.5042557,0.84299403,22.901587,61.511925,10.932458,JUM
2662051341000,1.305918,-1.12364350884222,-6.32836747743673,7.6717811638126,2.5085182,1.1273518,0.85918194,23.196726,60.957367,10.404213,JUM
2662055408000,1.309985,-0.888733807851373,-8.86203708045234,9.70207224168013,2.9028316,0.54825157,0.55833083,23.456614,60.313034,9.942362,JUM
2662060387000,1.314964,-0.277076007822725,-11.4936972185207,11.9844445762443,2.7791314,-0.2125811,0.025350908,23.61909,59.515438,9.564123,JUM
2662065382000,1.319959,0.652518006603212,-13.6753969359508,14.0760312448939,1.9144517,-1.2760975,-0.34972036,23.57098,58.805172,9.353509,JUM
2662070392000,1.324969,2.18168897209909,-15.3759687848761,14.0425453194263,0.7837401,-2.2666154,-0.34055737,23.400799,58.143986,9.237896,JUM
2662075392000,1.329969,4.33313285937218,-16.5621446950155,11.7758458910841,0.073303826,-2.2104158,-0.052534413,23.235708,57.62298,9.162428,JUM
2662080387000,1.334964,5.59914320074612,-17.4493669185156,7.69031348745337,0.025350908,-1.2592987,0.26267207,23.031958,57.132233,9.214626,JUM
2662085369000,1.339946,5.95981456740624,-18.0301876122128,1.75563212703711,0.40653083,-0.37995818,0.49266282,22.791807,56.75887,9.2272215,JUM
2662090391000,1.344968,5.96926743601162,-18.4805590849952,-2.33009363401743,0.79534656,0.29352075,0.56505036,22.657984,56.69736,9.5461855,JUM
2662095382000,1.349959,5.55745630571152,-18.7674391559535,-4.13465896856728,0.9972375,0.77732605,0.5699373,22.668177,56.593506,9.685997,JUM
2662100385000,1.354962,5.09214640898156,-19.000955069567,-3.34595175080192,1.1233811,1.135904,0.66950834,22.677187,57.028328,9.613177,JUM
2662105424000,1.360001,4.54068705813954,-19.1509133052326,1.54462191802326,1.0955868,1.2586879,0.84635377,22.743418,57.43089,9.479823,JUM
2662110300000,1.364877,3.84739003232871,-19.2661019888555,5.8251077514294,0.93492925,1.4077389,0.9294315,22.938,58.04778,9.18082,JUM
2662115473000,1.37005,2.8439951685047,-19.3381159239267,9.60824246410505,0.8268061,1.4407257,1.0968086,23.109493,58.648563,8.821276,JUM
2662120394000,1.374971,2.08980415886525,-19.39601485658,12.0984727959023,0.711658,1.2974777,1.320996,23.306356,58.846397,8.393491,JUM
2662125399000,1.379976,1.72153288670213,-19.4337865345745,12.4242513617021,0.768163,0.99204516,1.5271631,23.45126,59.02036,7.9596853,JUM
2662130414000,1.384991,1.7012349842115,-19.4682092453319,12.3159737300795,0.63499445,0.6123924,1.5650368,23.620996,58.983513,7.443811,JUM
2662135397000,1.389974,2.46879777802736,-19.4946765387317,11.2263872098355,0.09712757,0.4700608,1.2895365,23.780457,59.030796,6.992534,JUM
2662140438000,1.395015,3.22458238050089,-19.5182758244765,10.4617545008945,-0.32895094,0.3359759,0.9257663,23.857761,59.069847,6.571517,JUM
2662145395000,1.399972,3.84901983828265,-19.5232719463327,11.6456882826476,-0.4034765,0.01863139,0.5510005,23.891502,59.13346,6.2895923,JUM
2662150488000,1.405065,4.31922035800686,-19.5242271476801,12.436488519354,-0.30970868,-0.40011674,0.14752395,23.918247,59.26656,6.2494597,JUM
2662155407000,1.409984,4.28286783025259,-19.5131915441304,11.982082091885,-0.3417791,-0.82527894,-0.15668693,23.903288,59.431015,6.322179,JUM
2662160381000,1.414958,4.24610884000055,-19.5020325500145,11.5225948850887,-0.52412236,-1.1979067,-0.34697145,23.801043,59.4642,6.5819573,JUM
2662165380000,1.419957,4.20916509406771,-19.4908174692775,11.0607982331436,-0.75502944,-1.5604553,-0.49632803,23.632738,59.50294,6.951876,JUM
2662170387000,1.424964,4.17216222631702,-19.4795844408218,10.598262558751,-0.9605856,-1.9068159,-0.6239988,23.394955,59.564117,7.393342,JUM
2662175388000,1.429965,4.13520369992972,-19.4683648731552,10.136281151194,-1.1316279,-2.1917844,-0.7284568,23.10121,59.662838,7.891477,JUM
2662180768000,1.435345,4.09544427742149,-19.4562950323141,9.63928855518196,-1.2819008,-2.3182335,-0.7874053,22.771143,59.78949,8.414141,JUM
2662185423000,1.44,4.06104276965647,-19.4458517034822,9.20926986848379,-1.3884968,-2.2553146,-0.77396625,22.424707,59.935314,8.939417,JUM
2662190599000,1.445176,4.02279095350356,-19.4342395294685,8.73112234488556,-1.4581354,-2.160325,-0.64934975,22.045984,60.09932,9.442894,JUM
2662195411000,1.449988,3.98722918006311,-19.4234439766567,8.2866003426532,-1.5381587,-2.1142046,-0.42149702,21.657877,60.29272,9.897759,JUM
2662200392000,1.454969,3.95041845822045,-19.4122692782869,7.82646649121526,-1.6346754,-2.1352794,-0.18448131,21.26199,60.50992,10.299866,JUM
2662205431000,1.460008,3.91317910319834,-19.4009644589563,7.3609747270322,-1.7534887,-2.140472,-0.0030543262,20.86321,60.75956,10.637505,JUM
2662210326000,1.464903,3.87700394089763,-19.3899826985628,6.90878536690598,-1.8231273,-2.0583105,0.05100725,20.473036,61.02024,10.928606,JUM
2662215441000,1.470018,3.83920292860588,-19.3785073759043,6.43627288947071,-1.9682078,-1.8463402,0.11942416,20.089935,61.33501,11.140591,JUM
2662220346000,1.474923,3.80295386403285,-19.3675031808624,5.98315975128498,-2.129171,-1.6172657,0.17073683,19.735794,61.663315,11.323573,JUM
2662225421000,1.479998,3.7699374348199,-19.064597015223,5.6828441046741,-2.245846,-1.4731015,0.24648413,19.410078,62.015556,11.460664,JUM
2662230385000,1.484962,3.7393590245283,-18.6568838136792,5.45350581462264,-2.3185391,-1.4022411,0.35155296,19.121534,62.394478,11.552157,JUM
2662236420000,1.490997,3.60053820576651,-17.9308772122868,5.23805038648827,-2.352442,-1.387275,0.45631635,18.762163,63.05978,11.604256,JUM
2662240455000,1.495032,3.49858892931311,-17.4247723291247,5.09969068131537,-2.3741279,-1.3997977,0.52015173,18.412004,63.73155,11.628526,JUM
2662245390000,1.499967,3.32536942799365,-16.6716421487017,4.707901313357,-2.399784,-1.4401149,0.52595496,18.049881,64.40393,11.641331,JUM
2662250504000,1.505081,3.12866113285074,-15.8436374944891,4.22299246388941,-2.3979516,-1.4679092,0.44440445,17.696976,65.05395,11.655563,JUM
2662255394000,1.509971,3.05803609788027,-14.7445246780997,3.52245622669365,-2.3429737,-1.4459181,0.32650748,17.356789,65.666824,11.674788,JUM
2662260411000,1.514988,3.06315394022156,-13.4138707060077,2.64729551359182,-2.2437081,-1.3481796,0.20158553,17.045862,66.23817,11.7081995,JUM
2662265370000,1.519947,3.12612359922157,-12.0459246613822,1.86930382744257,-2.0885482,-1.171945,0.079107046,16.764135,66.76968,11.757871,JUM
2662270402000,1.524979,3.21304401889121,-10.6368992176761,1.11446884133283,-1.894904,-0.9431759,-0.0125227375,16.538536,67.23747,11.813846,JUM
2662275392000,1.529969,3.3275009328202,-9.14638084513547,0.400795826157635,-1.6798794,-0.71776664,-0.106901415,16.349915,67.65597,11.909483,JUM
2662280389000,1.534966,3.4601049228243,-7.59442310837438,-0.291691633891626,-1.4721853,-0.4813618,-0.17959438,16.237186,68.005905,11.998344,JUM
2662285377000,1.539954,3.58377886128356,-6.1047910059487,-0.819368085517517,-1.2626585,-0.20830505,-0.25350907,16.182386,68.2919,12.126899,JUM
2662290416000,1.544993,3.70419391146821,-4.63091106730213,-1.26731205007486,-1.1200215,0.033292156,-0.35460728,16.194548,68.51863,12.262878,JUM
2662295390000,1.549967,3.76937161466206,-3.31434981853971,-1.5260431878737,-1.0170907,0.19608775,-0.45081854,16.239199,68.6896,12.4462595,JUM
2662300456000,1.555033,3.80766757555007,-2.04579862588061,-1.69358762937346,-0.95478237,0.21930063,-0.5317582,16.318464,68.81419,12.644117,JUM
2662306102000,1.560679,3.56988610295996,-1.05930547755195,-1.88006060133806,-0.88453287,0.160963,-0.54641896,16.403706,68.87505,12.887128,JUM
2662310390000,1.564967,3.29098306425748,-0.459872135108971,-2.02159346329448,-0.84329945,-0.027183503,-0.50488013,16.457794,68.91555,13.14634,JUM
2662315390000,1.569967,2.73997466270286,-0.102647125990951,-2.2886439133471,-0.732122,-0.22082779,-0.44501534,16.522938,68.81571,13.425049,JUM
2662320376000,1.574953,2.07306266234878,0.0758222739205272,-2.60801028277761,-0.6087272,-0.36651915,-0.41263947,16.54022,68.70005,13.710411,JUM
2662325388000,1.579965,1.5249826075167,0.0156898812880072,-2.75022101261091,-0.45998153,-0.44806966,-0.3848451,16.521854,68.54158,13.9623165,JUM
2662330395000,1.584972,1.05173405529857,-0.189862518163693,-2.78368295683382,-0.27275133,-0.52626044,-0.35430184,16.453566,68.351204,14.216012,JUM
2662335404000,1.589981,0.777320792213967,-0.391746909242199,-2.76699982927192,-0.08735373,-0.528093,-0.3005457,16.357542,68.259605,14.409405,JUM
2662340400000,1.594977,0.625655297533432,-0.590807889569094,-2.7196043931154,0.05375614,-0.3933972,-0.21044308,16.270433,68.147316,14.580364,JUM
2662345390000,1.599967,0.499434333533504,-0.652009261224826,-2.6245666669535,0.1740966,-0.16768251,-0.10476339,16.227833,68.02651,14.646541,JUM
2662350410000,1.604987,0.389411521083852,-0.621202866753936,-2.49694019789454,0.24648413,0.08674286,-0.015271631,16.224552,67.90078,14.679869,JUM
2662355375000,1.609952,0.292699808760127,-0.463031366114829,-2.40041359661853,0.29168814,0.34238997,0.04734206,16.280634,67.77186,14.633781,JUM
2662360416000,1.614993,0.211926910473758,-0.118683763458964,-2.34514788311025,0.30787608,0.51007247,0.09773844,16.375946,67.65167,14.554106,JUM
2662365389000,1.619966,0.130480583039447,0.238240108060187,-2.27763637523383,0.33261612,0.59437186,0.14966199,16.494486,67.55344,14.430662,JUM
2662370399000,1.624976,0.0377989819546564,0.701648136405043,-2.13129705630338,0.36957347,0.5516113,0.19761491,16.618914,67.46114,14.291985,JUM
2662376214000,1.630791,-0.0844324267161687,1.21578321695958,-1.93160318242531,0.4370741,0.43188173,0.2415972,16.723602,67.435814,14.188826,JUM
2662380384000,1.634961,-0.197508313145577,1.54331334671939,-1.73664473016989,0.52564955,0.25717425,0.29077184,16.79531,67.408554,14.079262,JUM
2662385476000,1.640053,-0.340919555697267,1.91773705879467,-1.48735787805186,0.5983425,0.06505715,0.32986724,16.821571,67.38048,13.993654,JUM
2662390467000,1.645044,-0.513181295038542,2.13306415802383,-1.17632982029432,0.6591236,-0.12370021,0.36713,16.79501,67.34467,13.910543,JUM
2662395385000,1.649962,-0.688983265251076,2.23303640731229,-0.863411205408895,0.6780604,-0.25534168,0.39675698,16.73342,67.285416,13.83086,JUM
2662400498000,1.655075,-0.913792265451937,1.55860943116212,-0.493413031736011,0.68691796,-0.2828306,0.4089743,16.646118,67.217926,13.75377,JUM
2662405599000,1.660176,-1.11311016957638,0.923774588510911,-0.154765624698331,0.64476824,-0.2574797,0.3915646,16.547373,67.13581,13.668593,JUM
2662410389000,1.664966,-1.02477981025353,0.747113862179076,-0.173167783210847,0.6020077,-0.17654006,0.37965274,16.45493,67.05341,13.576075,JUM
2662415375000,1.669952,-0.932835098023107,0.563224429717587,-0.192322931925546,0.5705481,-0.029626964,0.36193767,16.413538,66.998634,13.417837,JUM
2662420401000,1.674978,-0.787149283628988,0.404094844176077,-0.224111557638417,0.5366451,0.12156218,0.35338554,16.396303,66.952126,13.250798,JUM
2662425481000,1.680058,-0.595130151428571,0.265414358571429,-0.266782477142857,0.5021312,0.27977628,0.33933565,16.424189,66.907486,13.073932,JUM
2662430381000,1.684958,-0.392391208771794,0.189803328717551,-0.311094090412631,0.48899764,0.42210788,0.3222314,16.486147,66.86768,12.89541,JUM
2662435393000,1.68997,-0.178525265586982,0.134012214792716,-0.357586682113522,0.48716503,0.5271767,0.2929099,16.584084,66.82786,12.710856,JUM
2662440401000,1.694978,0.0306114262269357,0.0904495452198655,-0.411563221427832,0.48075095,0.58184916,0.26145032,16.700718,66.78176,12.545833,JUM
2662445919000,1.700496,0.258430101526125,0.0494421842369374,-0.475352443279876,0.48838675,0.59223384,0.23579398,16.836119,66.72836,12.380119,JUM
2662450480000,1.705057,0.473902578572836,-0.0121761813461749,-0.563352474050564,0.49418998,0.56413406,0.21960606,16.96609,66.655624,12.253906,JUM
2662455433000,1.71001,0.754238800833972,-0.126387227832987,-0.719094823967385,0.49021935,0.48808134,0.20891592,17.086924,66.58061,12.136516,JUM
2662460395000,1.714972,1.00496965075728,-0.222944344135922,-0.863902364718447,0.48441613,0.37415496,0.21380283,17.175303,66.4682,12.056628,JUM
2662465407000,1.719984,1.22950134075552,-0.303436856224184,-0.999468705756399,0.49113566,0.26511553,0.21991149,17.242334,66.35651,11.987906,JUM
2662470364000,1.724941,1.4356295235674,-0.388472787272168,-1.13056390796515,0.48166725,0.17256944,0.23701571,17.261526,66.24224,11.964534,JUM
2662475383000,1.72996,1.59330376242952,-0.491946477262942,-1.25374688939006,0.47739118,0.10262536,0.23732115,17.256147,66.12656,11.954979,JUM
2662480408000,1.734985,1.71392851808173,-0.568998856129875,-1.3513323487591,0.4605924,0.047647487,0.24709499,17.209814,66.01743,11.994265,JUM
2662485377000,1.739954,1.74500799507371,-0.582318650528084,-1.3868517973969,0.4447099,0.005497787,0.24709499,17.1473,65.90817,12.043802,JUM
2662490412000,1.744989,1.7647779066827,-0.58557050363855,-1.40917596495448,0.4334089,-0.0061086523,0.24007004,17.069252,65.8015,12.122075,JUM
2662495731000,1.750308,1.7166479469507,-0.528689587311459,-1.35229505776499,0.44684792,-0.0030543262,0.23060162,16.98265,65.69155,12.205668,JUM
2662500355000,1.754932,1.6748068238447,-0.479240939615186,-1.30284641801237,0.4596761,-0.007330383,0.22937989,16.886784,65.585396,12.298513,JUM
2662505383000,1.75996,1.59953503442261,-0.437814429001604,-1.198521694166,0.4792238,-0.0106901415,0.20189096,16.794388,65.46812,12.402294,JUM
2662510346000,1.764923,1.51854012810746,-0.399699205894146,-1.08417598504411,0.5311473,-0.0067195175,0.18203785,16.700752,65.33987,12.505897,JUM
2662515371000,1.769948,1.45059999414811,-0.380427864573796,-0.900076046804764,0.5876524,-0.01282817,0.15210545,16.609602,65.18135,12.607568,JUM
2662520391000,1.774968,1.38586851097877,-0.365489831596064,-0.700902256437079,0.6579019,-0.01863139,0.116980694,16.52044,65.003426,12.717685,JUM
2662525379000,1.779956,1.35504410131197,-0.411950778583076,-0.555870323859057,0.7113526,-0.03023783,0.07238753,16.437424,64.803955,12.826791,JUM
2662530397000,1.784974,1.3280234104114,-0.465992296755693,-0.416263065052947,0.7699956,-0.039095376,0.028099801,16.355042,64.582565,12.947986,JUM
2662535367000,1.789944,1.26479651301446,-0.538010015705359,-0.399639764173264,0.8188649,-0.012217305,-0.0125227375,16.296003,64.315865,13.065417,JUM
2662555612000,1.810189,0.960328827808676,-0.855163810305568,-0.488442814739253,0.95203346,0.27885997,-0.09712757,16.17281,63.127167,13.570443,JUM
2662560362000,1.814939,0.888892843381535,-0.929576283723745,-0.509278304499117,1.0122037,0.46883908,-0.10598512,16.214764,62.81342,13.675586,JUM
2662565354000,1.819931,0.75514647812749,-1.00038715511952,-0.617812763374502,1.094976,0.6826419,-0.100792766,16.305223,62.489433,13.745033,JUM
2662570486000,1.825063,0.58381322689243,-1.06892046583665,-0.779355579621514,1.1780536,0.9083566,-0.0580322,16.442902,62.158714,13.7839985,JUM
2662575297000,1.829874,0.326125096231475,-1.28337322709951,-0.89006855843331,1.2464706,1.070236,-0.0125227375,16.635063,61.856308,13.761579,JUM
2662580282000,1.834859,0.00365249730013109,-1.59140672503277,-0.981515993709043,1.2843442,1.1939361,0.015577064,16.870947,61.54777,13.709751,JUM
2662585419000,1.839996,-0.412630705698722,-1.89269835582846,-0.541940833346538,1.3267993,1.3271047,0.022602014,17.165087,61.272877,13.580904,JUM
2662590272000,1.844849,-0.84991336360305,-2.16887688065762,0.153108450935922,1.4404203,1.677436,0.12308934,17.530458,60.99067,13.376762,JUM
2662595292000,1.849869,-0.911832181948874,-3.64838616750895,2.25015966764634,2.0347922,2.017077,0.47678033,17.930328,60.695477,12.9778,JUM
2662600638000,1.855215,-0.715894134188705,-6.02476330111378,5.40777694148962,2.7262917,2.819143,0.7199047,18.538717,60.34304,12.4739685,JUM
2662605309000,1.859886,-0.544695738923507,-8.10109281683921,8.16670516560522,4.582711,2.8915308,0.6637051,19.075283,59.553,11.85304,JUM
2662610337000,1.864914,-0.360412816338747,-10.3361141837986,11.1364955982435,4.4409904,2.4627032,0.30604348,19.68866,59.10108,11.211038,JUM
2662615363000,1.86994,0.159247774945092,-12.2980444272681,12.4712438265754,3.3249395,0.81153446,-0.1459968,20.015646,58.41591,10.762221,JUM
2662620415000,1.874992,0.956214772714986,-14.0472847040041,12.475330705947,1.9795089,-1.6087136,-0.51159966,20.069002,57.82681,10.559683,JUM
2662625268000,1.879845,1.86467327997896,-15.6182842013677,11.3940658068006,0.89552844,-3.5622606,-0.7669413,19.97086,57.067123,10.532112,JUM
2662630420000,1.884997,3.55691372639663,-16.7291415842188,4.7185406606081,0.39095375,-3.957185,-0.9239337,19.693686,56.502357,10.708939,JUM
2662635370000,1.889947,4.78164223265514,-17.6367356742625,-0.720138819825025,0.52687126,-2.6746736,-1.0073168,19.330004,56.18169,11.047172,JUM
2662640337000,1.894914,5.02359551480163,-18.1545148542218,-3.77842719451882,1.1527027,-0.36987892,-0.95417154,19.129204,55.86022,11.289554,JUM
2662645308000,1.899885,4.5267936221346,-18.5805505983176,-5.23884045047319,2.1826215,2.3976462,-0.4129449,19.1437,55.910137,11.411333,JUM
2662650903000,1.90548,2.11812842326498,-18.8293996466877,-2.87712799936909,3.202461,4.9217415,0.7693848,19.5601,55.851955,11.044325,JUM
2662655442000,1.910019,0.185760273009996,-19.0258573332099,-0.820804375416513,3.4880404,5.911343,1.9737056,20.159914,56.026474,10.372608,JUM
2662660385000,1.914962,-1.53618483574602,-19.1441585493336,3.89373212275083,2.38268,4.9000554,2.6181684,20.800053,56.343376,9.4814625,JUM
2662666267000,1.920844,-3.52677350534079,-19.2817215554425,9.38142167700916,1.2315043,2.821892,2.6477954,21.541466,56.629475,7.9936414,JUM
2662670397000,1.924974,-4.11824609852492,-19.3340284465921,11.546131136826,0.93462384,0.73639804,2.2968533,22.000795,56.945465,6.6523323,JUM
2662675329000,1.929906,-4.82457608147508,-19.3964927534079,14.131203063174,0.9324858,-0.52015173,1.8212948,22.298079,57.145706,5.309807,JUM
2662680376000,1.934953,-3.629172396875,-19.4288772932692,13.0635013365385,0.96761054,-0.763887,1.5167783,22.3478,57.340233,4.2710986,JUM
2662685461000,1.940038,-2.22023977912946,-19.4581431097184,11.5918565855082,0.8029824,0.0076358155,1.2492194,22.39941,57.52544,3.4440932,JUM
2662690455000,1.945032,0.272902765512765,-19.1655706135872,9.44019453018174,0.23793201,0.6252206,0.8323039,22.436752,57.551903,2.7305079,JUM
2662695417000,1.949994,3.48580549515361,-18.6617869770662,6.83388792676331,-0.22113322,0.5338962,0.2932153,22.519327,57.558033,2.1664014,JUM
2662700553000,1.95513,5.65120475550025,-17.4522581363863,6.23494850147337,-0.25778514,-0.12583824,-0.19730948,22.59117,57.68665,1.9706737,JUM
2662705403000,1.95998,7.3296963284221,-16.0928193111001,6.33205119883524,-0.15210545,-0.8863655,-0.3921755,22.64847,57.88578,1.8770224,JUM
2662710381000,1.964958,7.27682761068226,-15.8613163025341,7.46757966116959,-0.11056661,-1.5693128,-0.7012733,22.496641,58.113503,2.348116,JUM
2662715377000,1.969954,6.56333857625731,-16.0618389918129,8.99248755929825,0.01038471,-2.0662518,-1.0268645,22.238443,58.27096,2.9421258,JUM
2662720397000,1.974974,5.77933880101477,-16.7076121432734,10.5533576991862,0.24495697,-2.2293527,-1.3429873,21.837917,58.230682,3.890198,JUM
2662725386000,1.979963,4.96806599716668,-17.5620890455139,12.1182981765297,0.35277468,-2.334727,-1.5283848,21.362925,58.162918,4.9241247,JUM
2662730389000,1.984966,4.42764942931907,-18.1161539707198,12.3285153626459,0.17073683,-2.4098635,-1.5415184,20.931269,57.977592,5.8930492,JUM
2662736187000,1.990764,3.94692540515564,-18.5968786716926,11.8477912256809,-0.25778514,-2.252871,-1.4031575,20.539951,57.818798,6.820648,JUM
2662740423000,1.995,3.67931615488561,-18.8142857226638,10.8684931492827,-0.70616025,-1.8026633,-1.169807,20.252558,57.67074,7.551663,JUM
2662745366000,1.999943,3.39939870314075,-19.0161930895696,9.48267259596743,-1.0241156,-1.2455542,-0.8579602,20.000635,57.615906,8.163553,JUM
2662750478000,2.005055,2.92609845268205,-19.1671838807312,8.64465447537709,-1.2366967,-0.90285885,-0.56291234,19.798086,57.7299,8.609916,JUM
2662755421000,2.009998,2.33502171165718,-19.2712135151334,8.26636512016782,-1.3723087,-0.8029824,-0.40317106,19.646624,57.91385,8.952631,JUM
2662760384000,2.014961,1.99158949069614,-19.3444301407386,7.8498848721073,-1.4602734,-0.7189884,-0.33108896,19.550598,58.2604,9.154777,JUM
2662765386000,2.019963,1.83774909938604,-19.3942016235005,7.40193821998678,-1.520749,-0.5549711,-0.27397305,19.479036,58.63605,9.290227,JUM
2662770386000,2.024963,1.73297666794336,-19.2564309776918,7.12341870174188,-1.5732834,-0.42241332,-0.21533,19.432676,59.077663,9.33445,JUM
2662775380000,2.029957,1.68913039588469,-18.8861739761638,7.0552129826831,-1.6563611,-0.3811799,-0.18936823,19.402061,59.53294,9.361173,JUM
2662780413000,2.03499,1.77148270589803,-18.5109440579807,6.99449284205265,-1.7696766,-0.4098906,-0.19975294,19.385822,60.04229,9.358411,JUM
2662785417000,2.039994,1.98706139553482,-18.1356769900033,6.94259447550816,-1.9107865,-0.4202753,-0.21410827,19.382725,60.569984,9.341877,JUM
2662790386000,2.044963,2.20743657158165,-17.7630667553579,6.86130291006215,-2.044566,-0.3924809,-0.22449298,19.382324,61.100105,9.327247,JUM
2662795392000,2.049969,2.5002639684955,-17.3880421473425,6.44517958920917,-2.1826215,-0.36193767,-0.20005837,19.378965,61.65701,9.307678,JUM
2662800442000,2.055019,2.79719892510836,-16.9600758642274,6.01458488320734,-2.238821,-0.2855795,-0.16401732,19.382795,62.19021,9.310128,JUM
2662805770000,2.060347,3.11607443523838,-16.3274681013003,5.52084238305614,-2.3252585,-0.2125811,-0.004886922,19.377123,62.76854,9.269493,JUM
2662810406000,2.064983,3.35041363392719,-15.6941980480248,5.07807414539117,-2.3970351,-0.20586158,0.0720821,19.36417,63.349533,9.27363,JUM
2662815368000,2.069945,3.46544103830364,-14.7555743475988,4.56275122773044,-2.4165828,-0.23273966,0.23060162,19.334814,63.949673,9.208958,JUM
2662820402000,2.074979,3.56185682802018,-13.7805678799894,4.04462203102044,-2.4581218,-0.21868975,0.37293324,19.29431,64.57316,9.163701,JUM
2662825391000,2.079968,3.55762816592619,-12.7022811231967,3.55410716284627,-2.488054,-0.16126843,0.44990227,19.251947,65.19404,9.091167,JUM
2662830371000,2.084948,3.55340713220639,-11.6259395619966,3.06447716815647,-2.5121834,-0.04062254,0.4831944,19.209066,65.82442,9.015748,JUM
2662835421000,2.089998,3.53974350261748,-10.3989206634664,2.70748763549267,-2.5256224,0.11301007,0.45142943,19.194553,66.447,8.927419,JUM
2662840371000,2.094948,3.5253710437999,-9.18205108287014,2.37213016303183,-2.526844,0.23793201,0.37415496,19.211246,67.0572,8.83319,JUM
2662845383000,2.09996,3.58803218847951,-8.13984995989396,2.25465221547448,-2.5042422,0.2929099,0.29077184,19.240694,67.65882,8.76552,JUM
2662850429000,2.105006,3.65751399419482,-7.106309040789,2.15477215943566,-2.4492643,0.25320363,0.160963,19.294916,68.2245,8.728242,JUM
2662855374000,2.109951,3.84530746952252,-6.06094003854352,2.04214427397346,-2.3741279,0.13561209,0.029626964,19.344492,68.743484,8.736413,JUM
2662860405000,2.114982,4.08694186315954,-4.98365281278863,1.92132694574235,-2.2672265,-0.046731193,-0.07391469,19.377625,69.214035,8.781631,JUM
2662865437000,2.120014,4.21118207167636,-4.10534289582696,1.64693905596368,-2.1285598,-0.23915374,-0.17592919,19.38554,69.5807,8.896273,JUM
2662870362000,2.124939,4.3026167745128,-3.29686929746965,1.33894907305377,-1.9483547,-0.410196,-0.29535335,19.361101,69.87944,9.05707,JUM
2662875443000,2.13002,4.369238163735,-2.46480899346135,0.917189522886222,-1.7504344,-0.56046885,-0.40683624,19.300657,70.04217,9.289699,JUM
2662880416000,2.134993,4.42868415950072,-1.65085490159386,0.482775870133461,-1.5558738,-0.6872234,-0.52290064,19.208727,70.12914,9.567029,JUM
2662885458000,2.140035,4.42116266104003,-0.764336335233182,0.107533544556335,-1.3860532,-0.78984874,-0.6337727,19.098757,70.07639,9.881833,JUM
2662890418000,2.144995,4.3917563911267,0.127654527664053,-0.24044089506397,-1.2388347,-0.8958339,-0.7315111,18.955914,69.956406,10.234064,JUM
2662895408000,2.149985,4.24170188314541,0.886189400127464,-0.500359284883812,-1.1133019,-0.95172805,-0.7849618,18.792383,69.77792,10.629497,JUM
2662900511000,2.155088,4.05961764683793,1.62890134475341,-0.744735470436317,-1.0604621,-1.0882565,-0.88789266,18.582266,69.549736,11.080148,JUM
2662905425000,2.160002,3.72560014226323,2.08921014981748,-1.08402322126851,-0.99296147,-1.1743884,-0.94806284,18.299124,69.436035,11.625755,JUM
2662910377000,2.164954,3.34570521774488,2.48353130179477,-1.45430047502636,-0.9465357,-1.2134838,-0.9007208,17.988586,69.296265,12.179606,JUM
2662915401000,2.169978,2.76617560358351,2.42433798226464,-1.83662959335358,-0.89980453,-1.2104294,-0.8045095,17.650606,69.16387,12.761177,JUM
2662920408000,2.174985,2.137923006282,2.24543172484165,-2.21940611958351,-0.8051204,-1.1710287,-0.7107417,17.306356,68.99886,13.334814,JUM
2662925425000,2.180002,1.46775307278056,1.88140932077161,-2.5272605075349,-0.6450737,-1.0094548,-0.64721173,16.992975,68.85863,13.856098,JUM
2662930387000,2.184964,0.763788876222956,1.33444430079932,-2.7551625815624,-0.43585235,-0.78801614,-0.59620446,16.698923,68.68791,14.351954,JUM
2662935451000,2.190028,0.281233998387927,0.948820359386442,-2.77327746564077,-0.226631,-0.5320636,-0.5751296,16.47571,68.5875,14.729964,JUM
2662940389000,2.194966,-0.0463581894636319,0.677386831192479,-2.66096012677882,-0.054061573,-0.22815818,-0.52595496,16.32025,68.45962,15.068634,JUM
2662945319000,2.199896,-0.249382884410914,0.542557083601373,-2.45964381313697,0.03756821,0.1133155,-0.43004912,16.266912,68.410065,15.255534,JUM
2662950448000,2.205025,-0.369208043999819,0.502615366827792,-2.18448969216661,0.047036625,0.43951756,-0.30970868,16.288286,68.35614,15.400863,JUM
2662955515000,2.210092,-0.444418616802982,0.506038943277599,-1.88471324375504,0.019547688,0.72173727,-0.18967366,16.401531,68.345436,15.435034,JUM
2662960383000,2.21496,-0.453810223454875,0.571780131001209,-1.55600732965351,-0.02321288,0.9388999,-0.0842994,16.58,68.35934,15.419079,JUM
2662965395000,2.219972,-0.449801185287199,0.666297558739893,-1.26926835606427,-0.04550946,1.0827587,0.00030543262,16.821695,68.39465,15.342522,JUM
2662970413000,2.22499,-0.424569413482096,0.802549068524625,-1.06236788522524,-0.042455133,1.1707232,0.07574729,17.100988,68.4555,15.225337,JUM
2662975405000,2.229982,-0.360264792861986,0.906628869615078,-0.899114909154368,-0.008857546,1.212262,0.13683382,17.409567,68.50975,15.089527,JUM
2662980395000,2.234972,-0.255424166356203,0.978111117221779,-0.779977813222976,0.063224554,1.2217305,0.18936823,17.72793,68.57085,14.929258,JUM
2662985433000,2.24001,-0.13498351877286,0.96041371039701,-0.601963931914191,0.15515977,1.1985176,0.22724187,18.046133,68.612,14.770024,JUM
2662990993000,2.24557,0.0149062415299942,0.836367028704135,-0.338364698910891,0.25137106,1.1798862,0.2443461,18.364937,68.64454,14.599407,JUM
2662995327000,2.249904,0.108563183456866,0.71388336526437,-0.0813757398867671,0.3622431,1.1032226,0.24495697,18.656656,68.63334,14.450079,JUM
2663000470000,2.255047,0.188911504042031,0.534281242645619,0.292007619644948,0.398895,1.0164797,0.26816985,18.936,68.62492,14.290901,JUM
2663005353000,2.25993,0.246452546088118,0.370746449185581,0.64908760694259,0.43676865,0.9077458,0.2779437,19.188992,68.555595,14.161657,JUM
2663010388000,2.264965,0.267911917757009,0.216238927457944,1.02248078691589,0.45937067,0.8014552,0.29657507,19.414352,68.48618,14.029684,JUM
2663015378000,2.269955,0.277280194431718,0.0483987327876652,1.3342896953304,0.43982297,0.70005155,0.33108896,19.615227,68.37922,13.903662,JUM
2663020397000,2.274974,0.162938185460793,-0.273452868950308,1.04208232138326,0.41874814,0.6545421,0.36285394,19.799307,68.2676,13.777057,JUM
2663025498000,2.280075,0.0467280663612335,-0.600562855096035,0.745100887929515,0.41599923,0.698219,0.39614612,19.985872,68.11399,13.631262,JUM
2663030402000,2.284979,-0.0961175180334166,-0.760937737516804,0.320779813733436,0.43676865,0.8371908,0.4352415,20.18141,67.96204,13.470422,JUM
2663035400000,2.289977,-0.247792285726906,-0.894227664086806,-0.138840696028423,0.50610185,1.0332786,0.4700608,20.40067,67.80008,13.292287,JUM
2663040421000,2.294998,-0.373372038736239,-0.957639524031146,-0.472149515879352,0.61086524,1.2770138,0.50976706,20.649067,67.696236,13.013722,JUM
2663045400000,2.299977,-0.48859972603598,-0.996048745703929,-0.758084885261792,0.72387534,1.5143349,0.5537493,20.943268,67.57802,12.707387,JUM
2663050401000,2.304978,-0.5891402448112,-1.01637756339993,-0.960787010479792,0.8045095,1.7296649,0.6102544,21.25918,67.495094,12.262008,JUM
2663055386000,2.309963,-0.674517240212559,-1.01881690467018,-1.08031481932451,0.8546005,1.9214766,0.66920286,21.627459,67.40114,11.790548,JUM
2663061037000,2.315614,-0.771300670706658,-1.02158214389147,-1.21581163934086,0.8481864,2.0418172,0.72173727,22.017315,67.342575,11.231952,JUM
2663065376000,2.319953,-0.845613766603648,-1.02370537393593,-1.31984998689898,0.79534656,2.121535,0.752586,22.445503,67.2937,10.659635,JUM
2663070431000,2.325008,-0.866394290741121,-0.983636941818928,-1.37241775121125,0.71959925,2.164601,0.7486154,22.89461,67.259766,10.083244,JUM
2663075396000,2.329973,-0.841990260767809,-0.915305637507699,-1.37729850624102,0.6386596,2.1487186,0.72418076,23.34806,67.246765,9.509373,JUM
2663080398000,2.334975,-0.73142861875,-0.81582426,-1.3940239125,0.5684101,2.0879374,0.6921103,23.846348,67.29374,8.919506,JUM
2663085427000,2.340004,-0.572014674791667,-0.69860814,-1.41746721875,0.50335294,2.0039434,0.65576386,24.33712,67.35969,8.343936,JUM
2663090404000,2.344981,-0.412622782751852,-0.577977318735687,-1.41338025835659,0.43585235,1.9498819,0.6178902,24.83632,67.43429,7.800087,JUM
2663095380000,2.349957,-0.252140094142211,-0.454176363446551,-1.39045407927451,0.4025602,1.8503108,0.59498274,25.30264,67.516815,7.2758875,JUM
2663100424000,2.355001,-0.0928360560575827,-0.338838235667047,-1.35566407328962,0.35246924,1.7550159,0.54733527,25.754564,67.58214,6.809775,JUM
2663105405000,2.359982,0.0612755491144052,-0.234586265374382,-1.31033711527936,0.32467487,1.6462818,0.4804455,26.180117,67.65027,6.367474,JUM
2663110392000,2.364969,0.198490698522333,-0.144831865768407,-1.2459018523353,0.29657507,1.5225816,0.42363504,26.564878,67.69325,5.985777,JUM
2663115378000,2.369955,0.310488354885784,-0.0766593784241281,-1.1533821122578,0.28527406,1.4092661,0.3680463,26.929205,67.73789,5.632284,JUM
2663120395000,2.374972,0.436124993824039,-0.0707018086939545,-1.03654362894485,0.28008172,1.278541,0.3191771,27.255072,67.74679,5.3529196,JUM
2663125390000,2.379967,0.577551088512591,-0.143853226217148,-0.890240776584769,0.29901853,1.1484267,0.27763826,27.55386,67.75243,5.0979667,JUM
2663130617000,2.385194,0.723807193512587,-0.324859668807182,-0.780004680409636,0.32345316,0.9779953,0.24281894,27.795223,67.73167,4.9057164,JUM
2663135419000,2.389996,0.856588061111612,-0.586272021931787,-0.717763663345665,0.3744604,0.7690793,0.21563543,27.993097,67.69923,4.740165,JUM
2663140395000,2.394972,0.990203561666337,-0.8916228938868,-0.612836054245003,0.45448375,0.5671884,0.16890424,28.136719,67.58995,4.619178,JUM
2663145383000,2.39996,1.11310055711459,-1.29340147172571,-0.395402915285969,0.5537493,0.37720928,0.1020145,28.230598,67.46304,4.5337687,JUM
2663150430000,2.405007,1.20549609146498,-1.98807620413909,0.624460222795614,0.68325275,0.087964594,0.043066,28.254627,67.31056,4.547195,JUM
2663155403000,2.40998,1.20079141632915,-3.53591550284501,4.02594278263756,1.0057896,-0.8390234,-0.06719518,28.07003,67.07124,4.683147,JUM
2663160389000,2.414966,1.22766516595745,-5.36851350212766,7.11291863829787,2.3017402,-2.3667974,-0.3866777,27.666918,66.49253,5.0169444,JUM
2663165365000,2.419942,1.36783824190607,-8.2046830853417,9.03329067163447,4.1270056,-3.775758,-0.9718866,27.09522,65.65353,5.546907,JUM
2663170408000,2.424985,1.52640990246365,-10.9657649057956,10.7527701922456,5.4238725,-4.4070873,-1.5286902,26.29694,64.20114,6.345327,JUM
2663175388000,2.429965,1.7575529016559,-13.1808848956987,11.4269366865913,5.5982747,-3.859752,-1.8069394,25.513245,62.55837,7.2451243,JUM
2663180406000,2.434983,1.96205754823088,-15.193593645088,11.4027233251631,4.7583346,-1.7919732,-1.5980235,25.032303,60.850685,7.969974,JUM
2663185395000,2.439972,2.05177838699348,-16.3174652510378,8.56471307214865,3.4037411,0.86926126,-1.0439687,24.870474,59.31653,8.475167,JUM
2663190432000,2.445009,2.10336133295083,-17.3442617255341,5.91308664958485,2.103209,1.8723019,-0.5204572,24.836128,58.186172,8.768495,JUM
2663195388000,2.449965,1.9793800969027,-17.8711808344062,4.26147997631309,1.5879441,2.9721649,-0.3136793,25.44916,57.276268,8.600037,JUM
2663200644000,2.455221,1.85304892427441,-18.4117259419525,2.71597232744063,0.8258898,3.1355712,-0.018936822,25.981945,57.252304,8.213984,JUM
2663205425000,2.460002,1.79506046541425,-18.7016689931398,3.5857991094248,0.6072,2.7235427,0.12797627,26.619637,57.21901,7.75499,JUM
2663210397000,2.464974,1.6275187688044,-18.9807005728489,4.70657579866157,1.1472049,2.3542747,0.27947086,27.317001,57.369144,7.1352615,JUM
2663215382000,2.469959,0.778598037963576,-19.1176231770554,7.20313290239006,2.317928,2.8475482,0.70371675,28.058252,57.406235,6.3705835,JUM
2663220453000,2.47503,-0.0455926273452652,-19.253284890233,9.72184322131879,2.993545,3.3353243,1.294118,28.655172,57.368538,5.594775,JUM
2663225391000,2.479968,-0.17688936787417,-19.323622379177,11.8179020566187,2.5152376,2.9208522,1.7424932,29.098331,57.328724,4.8375373,JUM
2663230641000,2.485218,-0.28562254083173,-19.3298667296876,13.8731412609691,1.5467108,1.5372424,1.9636264,29.346983,57.12747,3.999617,JUM
2663235423000,2.49,-0.0213405647503893,-18.5286309561235,13.7053433032884,0.6957755,-0.0012217305,1.920255,29.415277,57.02317,3.25872,JUM
2663240375000,2.494952,0.252336630054044,-17.6989112675643,13.5315801317212,0.32620203,-1.044885,1.6792686,29.290424,56.80566,2.6742158,JUM
2663245377000,2.499954,0.890247097515481,-16.9972948728208,11.9873431999619,0.43982297,-1.1890492,1.3988814,29.021471,56.67861,2.240979,JUM
2663250378000,2.504955,1.59745008933028,-16.3220298096599,10.1805534108793,0.6432411,-0.68539083,1.0937542,28.702827,56.616043,1.9525297,JUM
2663255389000,2.509966,1.85182202012504,-16.5485511976779,11.216824360524,0.6951646,-0.14935656,0.6582073,28.399942,56.4877,1.8415911,JUM
2663260354000,2.514931,1.94619303694552,-17.0864665995832,13.2316461929146,0.53786683,-0.090713486,0.18570304,28.161785,56.35836,1.8155804,JUM
2663265382000,2.519959,1.88014039620516,-17.6501714509339,14.2910489503409,0.39187005,-0.3323107,-0.24831672,28.02897,56.32211,1.9559759,JUM
2663270373000,2.52495,1.7526038969661,-18.2169994047831,14.9665195657674,0.3109304,-0.4813618,-0.5900958,27.993425,56.30404,2.1582894,JUM
2663275387000,2.529964,1.80722244834189,-18.5866986484406,14.4690355688413,0.14110987,-0.59986967,-0.8717047,27.954523,56.173714,2.4728074,JUM
2663280362000,2.534939,1.93888936849585,-18.8688428203711,13.4768311829846,-0.13072516,-0.840856,-1.094976,27.897947,56.091953,2.8856277,JUM
2663285436000,2.540013,2.12802439324937,-19.0613679465995,12.3016803743073,-0.42332962,-0.9669997,-1.2021828,27.873507,56.047028,3.302247,JUM
2663290387000,2.544964,2.33822594484635,-19.2046870502771,11.0786900909824,-0.6123924,-1.1441506,-1.2030991,27.79949,56.043873,3.7780185,JUM
2663295384000,2.549961,2.33337876649894,-19.2973818409135,10.3548940011612,-0.68783426,-1.2415836,-1.1239921,27.740013,56.14392,4.252603,JUM
2663300416000,2.554993,2.23078624921618,-19.367331218115,9.85592158234953,-0.8231409,-1.3234396,-0.96761054,27.626665,56.305103,4.7172413,JUM
2663305398000,2.559975,2.03010639594138,-19.4145600893717,9.52804341959619,-0.93859446,-1.3973542,-0.81245077,27.479725,56.543156,5.1706448,JUM
2663310387000,2.564964,1.77057265388952,-19.4488383082915,9.29789083273547,-1.0812315,-1.4147639,-0.6560693,27.300528,56.819916,5.576582,JUM
2663316073000,2.57065,1.53587603922461,-19.4754198050638,8.95003995766986,-1.2895365,-1.3701707,-0.5363397,27.11401,57.167828,5.928502,JUM
2663320396000,2.574973,1.3761865313421,-19.4917981218475,8.65932323143111,-1.5418239,-1.3716979,-0.44898596,26.893288,57.560528,6.25022,JUM
2663325381000,2.579958,1.4911268257123,-19.1339942216817,8.11636733842946,-1.7803668,-1.4153748,-0.4334089,26.67777,58.0113,6.5228047,JUM
2663330376000,2.584953,1.76656574425692,-18.5736180000993,7.46101247865581,-1.9840903,-1.4837917,-0.44318274,26.447493,58.51014,6.7761593,JUM
2663335473000,2.59005,2.15134744550296,-18.1739259224852,6.76733739511834,-2.1248949,-1.4892895,-0.4089743,26.22216,59.071342,6.98676,JUM
2663340481000,2.595058,2.58649335571992,-17.8759459714004,6.07204993713018,-2.2660046,-1.4795157,-0.2938262,25.975208,59.6755,7.1792254,JUM
2663345368000,2.599945,2.9891892909395,-17.7705089092039,5.37055511115359,-2.4306328,-1.4666874,-0.13897185,25.700714,60.33084,7.3818445,JUM
2663350662000,2.605239,3.41075739723789,-17.7801998183121,4.5952575897926,-2.5827382,-1.4822645,0.056505036,25.402729,61.014767,7.5389423,JUM
2663355386000,2.609963,3.52576901131153,-17.736877685494,4.0905798431501,-2.6832256,-1.4581354,0.2782491,25.07671,61.75647,7.6829567,JUM
2663360386000,2.614963,3.41719937862145,-17.645196826926,3.72144294588603,-2.7733283,-1.4089607,0.5635232,24.724035,62.539726,7.7511826,JUM
2663365378000,2.619955,3.30880345734368,-17.5536626577316,3.35289666765758,-2.8301387,-1.3625349,0.8622363,24.32945,63.395443,7.7889256,JUM
2663370395000,2.624972,3.19986468790245,-17.4616700842445,2.98250470494281,-2.867096,-1.3423764,1.1026118,23.920979,64.27187,7.757613,JUM
2663375385000,2.629962,2.92518275341868,-17.0526828464746,2.72686719416158,-2.9177978,-1.3005321,1.1878275,23.522606,65.16167,7.674808,JUM
2663380379000,2.634956,2.51236479356997,-16.3801139228009,2.56452320502376,-3.023783,-1.2330315,1.1282681,23.136179,66.06595,7.5578012,JUM
2663385400000,2.639977,2.31907568126784,-15.4168977091249,2.41387948841421,-3.1328225,-1.1878275,0.96883225,22.768175,67.02414,7.424514,JUM
2663390390000,2.644967,2.3614120908554,-14.1562176057683,2.27746254521114,-3.1768048,-1.1166617,0.8668178,22.436808,67.973854,7.2783017,JUM
2663395361000,2.649938,2.5172954048111,-12.8184858051948,2.10368922750886,-3.225063,-1.0934488,0.6600399,22.14642,68.91399,7.1702137,JUM
2663400475000,2.655052,2.82086428633412,-11.3391893549784,1.87721711613538,-3.164282,-1.094976,0.44868052,21.888145,69.80602,7.0829177,JUM
2663405326000,2.659903,3.10749105175005,-9.92920203974689,1.57133674368202,-3.0246992,-1.1615603,0.24281894,21.632734,70.622604,7.0713134,JUM
2663410374000,2.664951,3.4038437391932,-8.45221833082855,1.12202790935337,-2.7931814,-1.2189816,0.043982297,21.404255,71.35687,7.109883,JUM
2663415349000,2.669926,3.65807939892512,-7.09228464059938,0.777678929212971,-2.5054638,-1.2357804,-0.14355333,21.16682,71.970215,7.2481093,JUM
2663420484000,2.675061,3.85966075135726,-5.84248013390417,0.580577113536163,-2.191479,-1.2116512,-0.30268374,20.942703,72.4754,7.4299912,JUM
2663425345000,2.679922,4.03403481730162,-4.65013234632709,0.452309086897495,-1.9156734,-1.1695015,-0.47036624,20.710491,72.866234,7.711561,JUM
2663430371000,2.684948,4.14547745464113,-3.37867462757314,0.56375156555462,-1.6985108,-1.1334605,-0.65301496,20.4977,73.147,8.036473,JUM
2663435382000,2.689959,4.2445396860122,-2.14281941363368,0.763007488215621,-1.5635096,-1.1673635,-0.8533788,20.282984,73.29252,8.450908,JUM
2663440378000,2.694955,4.31513632107023,-0.985033812374582,1.16776182408027,-1.5213599,-1.2568552,-1.0564915,20.074528,73.35587,8.915412,JUM
2663445349000,2.699926,4.36223006427746,0.176332275809249,1.46165594820809,-1.5958854,-1.3857478,-1.2156218,19.947124,73.17743,9.4200735,JUM
2663450532000,2.705109,4.34310229764933,1.41485611369942,1.44731012323699,-1.7159204,-1.5045611,-1.2657127,19.79297,72.968636,9.950873,JUM
2663455463000,2.71004,4.23298956811986,2.39469604577047,1.25330117242743,-1.8112154,-1.5082263,-1.1233811,19.48832,72.854996,10.552849,JUM
2663460385000,2.714962,3.77687201215274,2.62520691283946,0.380302148891895,-1.8011361,-1.3084733,-0.8723156,19.203709,72.7258,11.132323,JUM
2663465378000,2.719955,3.17119269753498,2.6026646550966,-0.461913457628248,-1.6597209,-1.0503827,-0.7110472,18.87908,72.59561,11.743939,JUM
2663470427000,2.725004,2.16335299929571,1.8709454300276,-1.19363273075093,-1.4501941,-0.87689704,-0.66981375,18.580683,72.44469,12.315541,JUM
2663475404000,2.729981,1.20259337590877,1.15706556042749,-1.90751264354627,-1.1731668,-0.61666846,-0.6789767,18.370804,72.34967,12.795616,JUM
2663480392000,2.734969,0.39752304300333,0.477335535909174,-2.5872426912201,-0.8405506,-0.28008172,-0.6918049,18.230448,72.18963,13.254855,JUM
2663485418000,2.739995,-0.312651586750324,-0.118776817872722,-3.13019381046708,-0.52595496,-0.10323623,-0.6603453,18.137634,72.14431,13.54799,JUM
2663490355000,2.744932,-0.590468632844338,-0.335379929672543,-3.07368858921422,-0.38087448,0.20616703,-0.6188065,18.178364,72.06,13.815632,JUM
2663495363000,2.74994,-0.818766609620327,-0.512308793830802,-2.97868987059969,-0.13469578,0.43066,-0.4908302,18.279383,72.028984,13.889357,JUM
2663500442000,2.755019,-0.790355033691589,-0.483897242624611,-2.69930946791277,0.018325957,0.64660084,-0.34116822,18.461851,72.00439,13.925057,JUM
2663505403000,2.75998,-0.763074453205713,-0.432670298783652,-2.42378470346399,0.06261369,0.8078693,-0.19975294,18.6964,72.00919,13.860327,JUM
2663510367000,2.764944,-0.738999078344981,-0.220806847665249,-2.13006492904892,0.05131268,0.9025534,-0.06719518,18.96468,72.03152,13.743809,JUM
2663515384000,2.769961,-0.709285814574526,-0.003049524799729,-1.85782262644986,0.005497787,0.93767816,0.032070424,19.248041,72.05836,13.590926,JUM
2663520368000,2.774945,-0.648921668608853,0.234095397961608,-1.72847085293586,-0.02321288,0.93554014,0.10567969,19.540512,72.110405,13.401568,JUM
2663525931000,2.780508,-0.578223608021721,0.480598616534032,-1.57704478346222,-0.00061086525,0.93859446,0.15699236,19.82058,72.18382,13.228882,JUM
2663530378000,2.784955,-0.456611785051961,0.321107706794776,-1.31787206216178,0.05497787,0.9502009,0.1777618,20.099506,72.26753,13.041059,JUM
2663550568000,2.805145,0.318040656516638,-0.47734865809649,0.873263010593709,0.5516113,0.6377433,0.027488936,21.059412,72.39401,12.468293,JUM
2663555362000,2.809939,0.75453848283807,-0.751320691109538,2.54495681951047,0.65026605,0.35277468,-0.04520403,21.208134,72.32762,12.377593,JUM
2663560327000,2.814904,0.98399895240076,-0.826647635041496,3.19310912088791,0.7244862,-0.0033597588,-0.108123146,21.287882,72.13278,12.280234,JUM
2663565288000,2.819865,1.10751398283172,-0.802894743047695,3.32612528232177,0.77671516,-0.34666604,-0.16493362,21.292679,71.9083,12.221195,JUM
2663570365000,2.824942,1.17852442644678,-0.69392652122039,3.03237028329835,0.8405506,-0.5839872,-0.20861048,21.23539,71.48632,12.328432,JUM
2663575289000,2.829866,1.22094381287356,-0.547815362551724,2.54219098022989,0.9288206,-0.6722572,-0.23640485,21.127033,71.035515,12.46168,JUM
2663580263000,2.83484,1.23231563077225,-0.386664980301842,2.04724620352803,1.0665708,-0.6658431,-0.24007004,20.97449,70.52579,12.637688,JUM
2663585320000,2.839897,1.22756946479812,-0.21580288629165,1.54415221379851,1.1438452,-0.58246,-0.24129178,20.822966,70.001274,12.823475,JUM
2663590279000,2.844856,1.14668749184317,-0.038910084837947,1.16058145466457,1.3154984,-0.43676865,-0.20677789,20.67802,69.47219,13.010335,JUM
2663595278000,2.849855,1.01934925657571,0.145022907432765,0.839877752851936,1.5109752,-0.2510656,-0.14996742,20.567364,68.92134,13.18399,JUM
2663600365000,2.854942,0.78555699992278,0.211614145521236,0.489489450996139,1.6865989,-0.044593163,-0.06383542,20.485981,68.396225,13.335418,JUM
2663605316000,2.859893,0.489830775109395,0.197531944806455,0.132740362627265,1.7913623,0.1600467,0.023518313,20.450619,67.85051,13.458049,JUM
2663610303000,2.86488,0.175201158687787,0.132224917232228,-0.318405658792608,1.8038851,0.37507126,0.10842858,20.468336,67.34148,13.52852,JUM
2663615334000,2.869911,-0.154579233497604,0.0285796544900753,-0.841343150057495,1.738828,0.6087272,0.18234327,20.539589,66.83548,13.559844,JUM
2663620340000,2.874917,-0.434785875183566,-0.0453430098582325,-1.32050270214584,1.5903877,0.90041536,0.23640485,20.684055,66.43923,13.48563,JUM
2663625304000,2.879881,-0.671684523726228,-0.0936896669948134,-1.76045728178582,1.4107933,1.2421945,0.28619036,20.897455,66.07402,13.365087,JUM
2663630330000,2.884907,-0.864791955714003,-0.0987270324816795,-2.0751284845712,1.2541064,1.557401,0.32650748,21.158216,65.86533,13.107668,JUM
2663635377000,2.889954,-1.02274666221034,-0.0700079931194296,-2.29052132976827,1.1151345,1.7974709,0.34116822,21.486853,65.70002,12.816719,JUM
2663640304000,2.894881,-1.12540557968424,-0.0445186954437494,-2.43898202373151,1.0002918,1.9343048,0.3481932,21.8857,65.66086,12.445731,JUM
2663645337000,2.899914,-1.18762392448615,-0.020588565557045,-2.53948859994042,0.9260717,1.9950858,0.34269542,22.327475,65.64757,12.054533,JUM
2663650409000,2.904986,-1.18786864309738,-0.0276405296370747,-2.63476801603442,0.8762862,1.9984456,0.3203988,22.809649,65.6979,11.62457,JUM
2663655420000,2.909997,-1.136257057851,-0.0604842575523074,-2.72391511703168,0.8454375,1.9682078,0.30207285,23.298815,65.76372,11.188222,JUM
2663660376000,2.914953,-1.0061516139809,-0.0859262748174201,-2.78632070191933,0.8405506,1.9281962,0.28802297,23.797197,65.84942,10.739963,JUM
2663665369000,2.919946,-0.796509680436477,-0.104561113030398,-2.82359049898675,0.84971356,1.9150625,0.28221974,24.29595,65.93998,10.290596,JUM
2663670406000,2.924983,-0.601681003518426,-0.12796706199016,-2.78125895075811,0.8668178,1.9501873,0.2837469,24.795448,66.03693,9.845248,JUM
2663675399000,2.929976,-0.428831124556682,-0.156775373479265,-2.64201862481173,0.89369583,2.0042489,0.29443705,25.296875,66.131325,9.3944845,JUM
2663680375000,2.934952,-0.286035704109266,-0.18306785282205,-2.453319498418,0.8933904,2.0204368,0.2968805,25.77087,66.217285,8.985526,JUM
2663685404000,2.939981,-0.17719021622089,-0.206729913043136,-2.20250171838459,0.88789266,2.0485365,0.28893927,26.263237,66.299934,8.565973,JUM
2663690356000,2.944933,-0.067404994536216,-0.224226277234233,-1.90062447601873,0.8707884,2.0732768,0.2733622,26.743958,66.33578,8.171571,JUM
2663695378000,2.949955,0.0475968340898675,-0.233809771292219,-1.51728511397828,0.84207773,2.058005,0.26389378,27.22136,66.37896,7.7762074,JUM
2663700390000,2.954967,0.183499700967682,-0.285756682170745,-1.0889883765141,0.79259765,2.0299053,0.2507602,27.686298,66.37709,7.402046,JUM
2663705398000,2.959975,0.349251983306557,-0.397751471201196,-0.596211271100318,0.73975784,1.9376645,0.25473082,28.12776,66.38863,7.032977,JUM
2663710820000,2.965397,0.538982327355136,-0.57232693161216,0.00776466168401657,0.6957755,1.7852536,0.2510656,28.49655,66.336365,6.677997,JUM
2663715398000,2.969975,0.716695412027637,-0.810624019930907,0.637838272613542,0.6817256,1.5549575,0.25534168,28.818983,66.297554,6.3427944,JUM
2663720372000,2.974949,0.902523957617068,-1.14305167954048,1.56811408521882,0.7086037,1.2116512,0.2501493,29.126553,66.13189,6.143151,JUM
2663725377000,2.979954,1.0231403725733,-2.14993666148797,4.75133860452954,0.8228355,0.59406644,0.24740042,29.295938,65.94986,5.9985943,JUM
2663730387000,2.984964,1.13429507433558,-3.40099739428798,7.61854121975407,1.1954633,-0.63529986,0.18387043,29.184109,65.562744,6.0425653,JUM
2663735417000,2.989994,1.2202811385958,-5.30702321539072,9.6439921301071,2.0650299,-2.0943515,-0.030543262,28.86515,64.99973,6.230582,JUM
2663740428000,2.995005,1.41850455495824,-7.1008756532591,11.1379941161563,3.097087,-3.0717359,-0.34513888,28.343681,63.867027,6.667491,JUM
2663745495000,3.000072,1.93557777456081,-8.61948673255256,11.1752609112988,3.714977,-3.248276,-0.5873469,27.687181,62.61358,7.2190723,JUM
2663750432000,3.005009,2.50888646353037,-10.0821623219472,10.9056303923093,3.542713,-2.8038714,-0.6554584,26.985102,61.16963,7.8273144,JUM
2663755393000,3.00997,3.39321008170382,-11.4766728868378,9.27789143643895,2.792876,-1.7977765,-0.46273044,26.414743,59.77232,8.3570175,JUM
2663760385000,3.014962,4.25361743382761,-12.9328661077203,7.459851363819,1.8799378,-0.46181414,-0.022602014,26.022383,58.6407,8.750314,JUM
2663765377000,3.019954,5.00825506038458,-14.5793471470391,4.99470285984885,0.9275989,1.0332786,0.5458081,25.886372,57.80377,8.873761,JUM
2663770398000,3.024975,5.65450952647627,-16.1002188358168,2.82490383589266,0.12980886,2.5314255,1.1572843,25.93528,57.560974,8.780755,JUM
2663775378000,3.029955,5.53935781372792,-16.7022972629691,2.74923274276352,-0.16157386,3.8121045,1.822211,26.204775,57.497757,8.341712,JUM
2663784869000,3.039446,4.52024338862466,-17.8646390493151,3.25029269818082,0.3933972,5.8649173,3.1923819,26.864557,57.814125,7.2784176,JUM
2663785913000,3.04049,3.1539159225863,-18.0158445726027,4.31749635043288,2.026851,6.5732155,3.5735617,27.563032,57.850754,6.3203855,JUM
2663790426000,3.045003,-2.7524402596274,-18.6694753452055,8.93080102726575,2.0027218,7.0582423,3.8056905,28.576738,58.31248,4.751498,JUM
2663795283000,3.04986,-7.23725723667867,-19.134040510081,12.5962480010801,1.5653422,6.493803,3.8954878,29.45946,58.398224,3.208696,JUM
2663800405000,3.054982,-8.92384723838884,-19.2355893466247,14.3490655549955,0.23945917,4.099822,3.7617083,30.012053,58.700607,1.9040375,JUM
2663805329000,3.059906,-9.91758831853625,-19.325138621067,15.001595877223,-0.26267207,0.7425067,3.321885,30.5446,58.683174,-0.038263574,JUM
2663810403000,3.06498,-7.82839618660348,-19.3773679992183,10.552565772181,0.2706133,-1.7712038,2.453235,30.732466,58.629322,-1.4735887,JUM
2663815362000,3.069939,-5.7133182949057,-19.2840297157301,6.41233235831227,0.9086621,-2.3435845,1.3710871,30.720003,58.500942,-2.7051635,JUM
2663820431000,3.075008,-3.05151730353879,-18.2032633272409,3.59950705147774,0.7800749,-1.8738291,0.37110063,30.413353,58.408463,-3.429095,JUM
2663825424000,3.080001,-0.47879921786372,-17.204280263761,1.30698236224678,0.21502456,-1.5384641,-0.2883284,30.072899,58.661827,-3.552339,JUM
2663830385000,3.084962,1.5482005145488,-16.9174858384489,4.17491956012891,0.037873644,-1.543351,-0.8020661,29.891205,58.848175,-3.47295,JUM
2663835470000,3.090047,3.6325071281942,-16.7348115131511,7.17628207303254,0.34300083,-1.9914207,-1.3213016,29.668734,59.153736,-2.99437,JUM
2663840415000,3.094992,5.70029684349724,-17.2419128064248,10.4748989961534,0.88270026,-2.7818804,-1.7715092,29.418898,59.436558,-2.3660617,JUM
2663845369000,3.099946,7.36825821376101,-17.7405533985744,12.9007853925354,1.2095132,-3.626707,-1.9578232,28.940096,59.3913,-1.3077652,JUM
2663850772000,3.105349,7.38874864060984,-18.2425686424116,11.6303780720721,1.0048733,-3.9327505,-1.9556851,28.437937,59.321857,-0.17742126,JUM
2663855386000,3.109963,7.31238475845867,-18.6296353448344,10.6232129098594,0.54641896,-3.8408153,-1.8781052,27.747068,58.919533,1.2945642,JUM
2663860403000,3.11498,6.80230331574757,-18.8610619156591,9.88170543880861,0.17989981,-3.5372152,-1.740966,27.039562,58.522675,2.7060244,JUM
2663865370000,3.119947,6.3015704085238,-19.0745975141232,9.13058402834614,-0.0021380284,-3.189633,-1.5720617,26.35812,58.291187,3.9925334,JUM
2663870441000,3.125018,5.81685159272382,-19.1957771548059,8.25809010929235,-0.08399397,-2.823419,-1.3341297,25.731564,58.11788,5.1387353,JUM
2663875372000,3.129949,5.33068082857867,-19.3039045143147,7.38464234659235,-0.20830505,-2.6108382,-1.035722,25.142715,58.0794,6.0990057,JUM
2663880384000,3.134961,4.74290533272528,-19.3525481309011,6.33880755290938,-0.47616947,-2.1371121,-0.8885035,24.69727,58.092834,6.918118,JUM
2663885425000,3.140002,4.15172890124145,-19.4014732049658,5.28692144058779,-0.6606508,-1.5705346,-0.6169739,24.285652,58.21677,7.517131,JUM
2663890404000,3.144981,3.61979433370787,-19.433942518808,5.12181857865169,-1.0204504,-1.0940597,-0.37598756,23.9521,58.459366,8.014498,JUM
2663895291000,3.149868,3.11222172808989,-19.4613784758183,5.20412773887641,-1.2986995,-0.7840455,-0.19456059,23.68771,58.734318,8.388585,JUM
2663900410000,3.154987,2.72246171387194,-19.4797955565243,5.83777772973942,-1.5042557,-0.65240407,-0.029626964,23.488222,59.20598,8.584988,JUM
2663905409000,3.159986,2.39782617929865,-19.4937087861087,6.67255455575899,-1.6954565,-0.69058317,0.113926366,23.301851,59.749672,8.715793,JUM
2663910383000,3.16496,2.02501188379388,-19.5045869150359,7.02105103425115,-1.9443841,-0.83108217,0.24129178,23.123571,60.372623,8.744688,JUM
2663915378000,3.169955,1.62516210923395,-19.5139948445275,7.12454169704986,-2.2036965,-0.945314,0.32650748,22.931433,61.04366,8.746724,JUM
2663920372000,3.174949,1.27135079963363,-19.3504984172603,6.70790521642581,-2.4874432,-0.9266826,0.38912117,22.744015,61.71861,8.679822,JUM
2663925389000,3.179966,0.943736512843476,-19.0815614838184,5.9744402908508,-2.7204883,-0.8216137,0.46944994,22.542067,62.44069,8.589726,JUM
2663930384000,3.184961,0.669398495365973,-18.3325831961302,5.26957226762435,-2.8906143,-0.70371675,0.5726862,22.35831,63.211628,8.431035,JUM
2663935452000,3.190029,0.418018781530343,-17.3223217467018,4.56760617783641,-2.9975157,-0.6291912,0.6786713,22.187956,64.014626,8.244106,JUM
2663940427000,3.195004,0.247851417879378,-16.0866159053688,3.99254135833417,-3.0854805,-0.5705481,0.7357872,22.044498,64.902466,8.00988,JUM
2663945386000,3.199963,0.123940122989865,-14.709293342298,3.48736451995986,-3.1380148,-0.56779927,0.78038037,21.903656,65.795876,7.7509704,JUM
2663950401000,3.204978,0.112101794535866,-13.3788706896211,3.14360020982487,-3.193909,-0.62888575,0.766025,21.767176,66.719696,7.488101,JUM
2663955366000,3.209943,0.168556343001286,-12.0992349074899,2.90366839014544,-3.2400293,-0.7779369,0.68539083,21.61949,67.6319,7.240824,JUM
2663960383000,3.21496,0.349995708263188,-10.8762199276328,2.72404244671491,-3.2036827,-0.9923506,0.5531385,21.443476,68.50849,7.030513,JUM
2663965380000,3.219957,0.614288936761569,-9.70512715673205,2.58733904856218,-3.072652,-1.2208142,0.43004912,21.239311,69.34551,6.853629,JUM
2663970411000,3.224988,0.944944104217891,-8.38565883218391,2.40282505178411,-2.8771753,-1.3735305,0.3136793,21.005157,70.102005,6.7423615,JUM
2663975431000,3.230008,1.33896673910045,-6.92969726896552,2.17217765208396,-2.6984973,-1.4364496,0.22052236,20.75053,70.79983,6.6673117,JUM
2663980387000,3.234964,1.78809234664286,-5.58193007055102,1.82757228532653,-2.567161,-1.5109752,0.18142697,20.441576,71.40468,6.662127,JUM
2663985461000,3.240038,2.3087286005,-4.29273529557143,1.35652045385714,-2.5228734,-1.4886786,0.07391469,20.162424,71.9519,6.693826,JUM
2663990446000,3.245023,2.78971221452361,-3.23911632496925,0.842498023442142,-2.4663684,-1.3377949,-0.0870483,19.888195,72.40678,6.8037276,JUM
2663995384000,3.249961,3.24162985431924,-2.36660209397294,0.292142893121393,-2.4495697,-1.044885,-0.2968805,19.676779,72.82525,6.9404817,JUM
2664000485000,3.255062,3.72368748559012,-1.50691738947556,-0.219984695128889,-2.4572055,-0.64751714,-0.5131268,19.518452,73.19704,7.1715436,JUM
2664005380000,3.259957,4.20520455038025,-0.733712022231111,-0.641312182417778,-2.4431555,-0.29260445,-0.6401868,19.440449,73.52285,7.4146023,JUM
2664010291000,3.264868,4.61904637272014,-0.00302102896156106,-1.17721760283389,-2.4113905,-0.14996742,-0.57696223,19.453959,73.72734,7.6864057,JUM
2664015391000,3.269968,4.93514285242204,0.681854945445185,-1.91956573129045,-2.323426,-0.016187929,-0.39278635,19.557228,73.89655,7.9290876,JUM
2664020393000,3.27497,4.88185343405458,0.854534933871345,-2.57690596789474,-2.0839667,0.25167647,-0.258396,19.651546,74.08939,8.237311,JUM
2664025389000,3.279966,4.18701803202729,0.145709348935672,-3.10852506894737,-1.6694947,0.4654793,-0.35888332,19.768635,74.18822,8.5536,JUM
2664030358000,3.284935,3.53759922394745,-0.491771465034339,-3.4778220383398,-1.1633929,0.6087272,-0.55955255,19.880495,74.300385,8.921659,JUM
2664035471000,3.290048,2.96737468521947,-0.988890414241067,-3.48269574973624,-0.6783658,0.7107417,-0.7333437,20.043858,74.287254,9.302628,JUM
2664040375000,3.294952,2.58153641154529,-1.29779061811723,-3.33470189265838,-0.25442538,0.78984874,-0.816116,20.343853,74.10489,9.5409155,JUM
2664045379000,3.299956,2.56734967158082,-1.21739983232682,-2.82398424114861,0.040011674,0.84879726,-0.79381937,20.655153,73.831985,9.787062,JUM
2664050425000,3.305002,2.52301432404788,-1.04953047097933,-2.12265907138194,0.24007004,0.9077458,-0.71959925,20.976444,73.557755,9.955851,JUM
2664055396000,3.309973,2.40214230440696,-0.661013293324266,-0.952790656746463,0.3744604,0.98440933,-0.62888575,21.30295,73.24607,10.103137,JUM
2664060420000,3.314997,2.27325487843056,-0.268217201362881,0.179209749107328,0.46120325,1.0503827,-0.5510005,21.607027,72.91249,10.250371,JUM
2664065383000,3.31996,2.06111284980278,0.121532201091966,0.66269635875026,0.5149594,1.072374,-0.4569272,21.901556,72.58067,10.362037,JUM
2664070469000,3.325046,1.83620123177175,0.511330929215767,1.13921906028274,0.5296202,1.0742066,-0.3594942,22.190235,72.18736,10.483387,JUM
2664075378000,3.329955,1.57909003929419,0.836358331716025,1.49820453993396,0.5290093,1.0751228,-0.30298916,22.473253,71.79651,10.58667,JUM
2664080382000,3.334959,1.31469876497596,1.14266154651442,1.88217061165865,0.53023106,1.0177015,-0.29443705,22.734125,71.44593,10.728468,JUM
2664085419000,3.339996,1.03929935717548,1.35041892794471,2.34116955739183,0.5928447,0.8949176,-0.27885997,22.97071,71.08919,10.858592,JUM
2664090466000,3.345043,0.769473450368909,1.49647943850858,2.78602135699349,0.7153232,0.7141015,-0.24495697,23.185724,70.7021,10.976169,JUM
2664095391000,3.349968,0.527549988542119,1.42204149808641,3.16751604455514,0.8378017,0.4636467,-0.1994475,23.344643,70.30038,11.102668,JUM
2664100383000,3.35496,0.298916824150089,1.33654881093534,3.54268364298003,0.9560041,0.19853121,-0.15821409,23.463228,69.84129,11.208485,JUM
2664106054000,3.360631,0.127083491023136,1.18619464318766,3.9078293748072,1.0531317,-0.0580322,-0.12889257,23.51259,69.35733,11.32625,JUM
2664110387000,3.364964,-0.00465128033093116,1.07495254263228,4.17078720742462,1.1435398,-0.28252518,-0.12583824,23.515043,68.82731,11.420486,JUM
2664115397000,3.369974,-0.159336780457994,0.965762761293381,4.38916672259624,1.2470814,-0.45814893,-0.124311075,23.459536,68.26773,11.526379,JUM
2664120537000,3.375114,-0.319797947565982,0.858050983431085,4.60143074633431,1.3451253,-0.56688297,-0.10995574,23.373926,67.66894,11.614178,JUM
2664125386000,3.379963,-0.492294690412512,0.808117706783969,4.66044302893451,1.4236214,-0.6420194,-0.08368854,23.250887,67.043816,11.712633,JUM
2664130782000,3.385359,-0.694763058355438,0.753138341909814,4.68021366312997,1.486846,-0.70341134,-0.025961773,23.113398,66.39322,11.77644,JUM
2664135491000,3.390068,-0.989215118088145,0.71173104127729,4.18332557512752,1.5109752,-0.6826419,0.06536258,22.974857,65.7331,11.824345,JUM
2664140567000,3.395144,-1.31447604394311,0.652156612355076,3.59562078690535,1.4672983,-0.59864795,0.20066923,22.841028,65.09339,11.810083,JUM
2664145374000,3.399951,-1.71635727513487,0.417349642089259,2.41707051466405,1.3988814,-0.39706242,0.3726278,22.732315,64.462,11.747054,JUM
2664150586000,3.405163,-2.1560614835219,0.158152057642394,1.13498085284789,1.2803736,-0.03573562,0.5543602,22.683765,63.96199,11.558002,JUM
2664155420000,3.409997,-2.65745975430809,-0.191036038990426,-0.154329079808529,1.1527027,0.44409904,0.68661255,22.705242,63.486706,11.298066,JUM
2664160341000,3.414918,-3.16788194928924,-0.546508654532444,-1.46684339064887,1.0228939,0.95233893,0.7812967,22.81686,63.27834,10.857434,JUM
2664165379000,3.419956,-3.5799893410835,-0.809170691172962,-2.59293372074553,0.9053023,1.4153748,0.82924956,23.03088,63.100018,10.3382435,JUM
2664170341000,3.424918,-3.97677754539761,-1.05952519510934,-3.68410134426441,0.8072584,1.6181821,0.82772243,23.301577,62.94448,9.772591,JUM
2664175598000,3.430175,-3.88983606528823,-1.04708034187708,-3.99343174873749,0.7275405,2.1111503,0.8029824,23.770718,63.103157,8.971911,JUM
2664180337000,3.434914,-3.76875310260124,-1.01248519032873,-4.20100265802763,0.6649268,2.1658227,0.7984009,24.17842,63.2773,8.18994,JUM
2664185420000,3.439997,-3.2543174323501,-0.871521836653772,-4.16592948384913,0.62888575,2.1691825,0.7883216,24.723623,63.688484,7.2560897,JUM
2664190346000,3.444923,-2.67032855577369,-0.711837400174081,-4.07468100303675,0.54611355,2.0888536,0.81489426,25.268627,64.12095,6.3138404,JUM
2664195382000,3.449959,-2.10016775664569,-0.636070554948513,-3.93091831769642,0.44929138,1.9779817,0.82924956,25.811434,64.5768,5.404648,JUM
2664200389000,3.454966,-1.54238456708619,-0.590350601029748,-3.7708986460717,0.33964106,1.8668042,0.82802784,26.345404,65.04776,4.4996824,JUM
2664205396000,3.459973,-1.07340471517821,-0.52952757145637,-3.535477719449,0.24037547,1.7806722,0.7883216,26.832317,65.46531,3.7547405,JUM
2664210359000,3.464936,-0.654769565628841,-0.461377662208111,-3.26287813328554,0.19181168,1.7018706,0.73761976,27.306202,65.890465,3.0229979,JUM
2664215377000,3.469954,-0.365788352993108,-0.404192708146829,-2.96924476563928,0.18112154,1.6136005,0.66828656,27.730972,66.26907,2.4585428,JUM
2664220370000,3.474947,-0.136201586505847,-0.352350543426005,-2.66930079824983,0.20158553,1.5158621,0.59864795,28.149557,66.64376,1.9152856,JUM
2664225362000,3.479939,0.0844312607880304,-0.307511978629847,-2.35528730963148,0.20341812,1.4117095,0.52564955,28.524982,66.95129,1.5043775,JUM
2664230392000,3.484969,0.237385565445011,-0.316781940007697,-1.92886914432791,0.21502456,1.2895365,0.46609017,28.883808,67.24247,1.1180704,JUM
2664235425000,3.490002,0.38741890116817,-0.327060319957131,-1.5032558112941,0.21502456,1.1560625,0.4016439,29.190777,67.444115,0.84187746,JUM
2664240403000,3.49498,0.476830387677056,-0.356864139901759,-1.10303307171564,0.20219639,1.0201449,0.3484986,29.473927,67.639885,0.58852077,JUM
2664245326000,3.499903,0.565254001193177,-0.386338668947039,-0.707232238661249,0.15760323,0.86376345,0.29657507,29.695375,67.75334,0.41213036,JUM
2664250501000,3.505078,0.623849579222111,-0.352984740777889,-0.206016843317588,0.09621128,0.7147123,0.26725355,29.887318,67.87051,0.25460297,JUM
2664255329000,3.509906,0.67031874441608,-0.30651557558392,0.281909420332663,0.029932396,0.59437186,0.226631,30.053825,67.99663,0.12454518,JUM
2664260384000,3.514961,0.63746740419817,-0.227358658617191,0.410108741713092,-0.036957346,0.49418998,0.20891592,30.179386,68.03986,0.05245073,JUM
2664265348000,3.519925,0.585444713828094,-0.142230636440509,0.443214093272981,-0.07666359,0.44929138,0.18845193,30.291603,68.09424,-0.0015624057,JUM
2664270395000,3.524972,0.543939692982544,-0.155167197017456,0.584285531707731,-0.112399206,0.4196644,0.17256944,30.353926,68.06756,-0.015200585,JUM
2664275325000,3.529902,0.506262960962593,-0.192843929037406,0.749121244745137,-0.12095132,0.36377025,0.17134771,30.396431,68.04484,-0.019237228,JUM
2664280381000,3.534958,0.472725276842455,-0.273309147944608,1.85380203174903,-0.11301007,0.2648101,0.16371189,30.424799,68.01943,-0.016184988,JUM
2664285390000,3.539967,0.440875557706535,-0.364308344118372,3.20059011516646,-0.070554934,0.08155051,0.16401732,30.414566,67.986336,0.000901585,JUM
2664290389000,3.544966,0.520493150367014,-1.19549614877028,5.37197054553693,0.058948494,-0.2941316,0.15363261,30.327005,67.89717,0.052123733,JUM
2664295377000,3.549954,0.6503593351971,-2.35996290626552,7.91301866334391,0.5109888,-1.3564262,0.058643065,30.017677,67.7027,0.22113305,JUM
2664300398000,3.554975,0.952599346254498,-4.1581427324174,10.5770978622833,1.8069394,-2.8582385,-0.27152961,29.455387,66.99973,0.6121981,JUM
2664305376000,3.559953,1.43603854088976,-6.61172679456984,13.3321823025842,3.4471126,-4.1935897,-0.8020661,28.699423,66.06125,1.1890726,JUM
2664310385000,3.564962,2.43723915405753,-8.18902191875062,12.9907671784126,4.676479,-5.047274,-1.3631458,27.632746,64.47576,2.1331654,JUM
2664315382000,3.569959,3.71912000364733,-9.27223490016803,10.9378655282198,4.840191,-5.0115385,-1.681712,26.543507,62.738815,3.2053978,JUM
2664320362000,3.574939,4.29746579227738,-10.6583362464539,7.73073013483058,3.9492438,-3.9455786,-1.5030339,25.524794,60.765278,4.3764286,JUM
2664325506000,3.580083,4.45274730275808,-12.283940572695,3.68370293041765,2.4602597,-2.4019222,-0.8546005,24.696844,59.01334,5.3820386,JUM
2664330375000,3.584952,4.86434472681751,-13.7994412961795,1.53733151634829,1.0122037,-0.57940567,-0.0693332,24.151567,57.919476,6.2993965,JUM
2664335450000,3.590027,5.47277482464763,-15.3633314413019,0.442157382608494,0.014966198,1.3289373,0.6392705,23.936848,57.19454,6.7875195,JUM
2664340451000,3.595028,5.43584812126726,-16.611105374612,2.2092237962207,-0.45112398,3.1917708,1.2559389,24.09459,57.393948,6.7197175,JUM
2664345384000,3.599961,4.62681658567912,-17.4858709963609,7.40725198524243,-0.18936823,4.821254,1.9792033,24.541943,57.701878,6.196945,JUM
2664350478000,3.605055,1.44314648818432,-18.1103659373769,10.5001543351713,1.7525724,6.28672,3.010344,25.268936,57.916096,5.2400427,JUM
2664355396000,3.609973,-3.3103198751477,-18.5138317617172,11.8589498916896,3.9446623,7.597942,3.3542612,26.368168,57.94073,4.0720944,JUM
2664360974000,3.615551,-5.08093522990764,-18.3224422519159,11.5327846681077,2.908635,6.7372327,3.072652,27.195944,57.923508,2.8403487,JUM
2664365372000,3.619949,-4.45606403674592,-17.8093026419729,10.2333839443899,0.16584991,4.40892,2.7968466,27.886665,57.80818,1.595584,JUM
2664370392000,3.624969,-3.94071775510967,-17.3979537346316,10.2672292697944,-0.8927795,3.1597004,2.6890287,28.94351,57.512127,-0.47787797,JUM
2664375398000,3.629975,-3.62478592912364,-17.1621837887282,11.818596400118,-0.589485,0.62125,2.59465,29.135979,57.522152,-1.8165513,JUM
2664380415000,3.634992,-3.15778305723101,-17.0011166200856,11.3332867368369,0.68111473,-1.3515394,2.087021,29.208286,57.607986,-2.746584,JUM
2664385480000,3.640057,-2.51566426674629,-16.9238691944859,8.52824113864835,1.5607607,-2.0409007,1.149343,29.063025,57.695602,-3.3120112,JUM
2664390471000,3.645048,-1.5850500019142,-16.5693906430358,7.21923103722586,1.4880677,-1.922393,0.15577064,28.65228,57.496822,-3.4720488,JUM
2664395494000,3.650071,-0.317199046036937,-15.9030744249711,7.51999886514044,0.83658,-1.8023579,-0.5183192,28.1766,57.245052,-3.3651412,JUM
2664400409000,3.654986,1.16695180504366,-15.8642955274782,8.67082049008731,0.29779682,-2.0980167,-0.9850202,27.823982,57.286373,-2.9591823,JUM
2664405406000,3.659983,3.06445011612738,-16.8032130919363,11.2073726322547,0.10354166,-2.674979,-1.3640621,27.519112,57.414906,-2.3988278,JUM
2664410360000,3.664937,4.76239061086914,-17.5629981082031,12.2670552382813,0.17073683,-3.0622675,-1.5619824,27.148975,57.502354,-1.6006007,JUM
2664415381000,3.669958,6.23687674091797,-18.1030164648438,11.3842418359375,0.07727446,-3.126103,-1.568702,26.742193,57.667103,-0.7458495,JUM
2664420328000,3.674905,7.2714681803807,-18.5374467890019,10.6045159269816,-0.2919936,-3.0631838,-1.484708,26.158184,57.67472,0.3855448,JUM
2664425369000,3.679946,7.61668351656763,-18.8145926324907,9.96270711864236,-0.6600399,-2.9837713,-1.3390167,25.563318,57.68483,1.4670243,JUM
2664431017000,3.685594,7.75639660818024,-19.0515096599304,9.4895654005028,-0.84116143,-2.7800477,-1.217149,24.958153,57.779457,2.6121464,JUM
2664435455000,3.690032,7.64132676068459,-19.1706889701218,9.34161804912009,-0.7706065,-2.3209825,-1.0534371,24.411015,57.878967,3.6176572,JUM
2664440350000,3.694927,7.30896845206262,-19.2801850116176,8.77113242581471,-0.6979135,-1.7259997,-0.8219192,23.911163,58.046066,4.5072336,JUM
2664445383000,3.69996,6.5354516025795,-19.3466218999705,7.32850005400217,-0.8732319,-1.0821478,-0.5864306,23.513659,58.24892,5.249454,JUM
2664450398000,3.704975,5.745417838001,-19.364337102049,6.13559731344328,-1.2702943,-0.4642576,-0.36987892,23.231113,58.50815,5.8110766,JUM
2664455399000,3.709976,4.91248556771614,-19.268597818091,5.51807828210895,-1.7052304,0.01160644,-0.16737708,23.041502,58.82584,6.2265067,JUM
2664460360000,3.714937,4.16472494197421,-19.2173316604753,5.19159597339606,-1.9932534,0.22388211,0.06261369,22.948814,59.344833,6.439278,JUM
2664465369000,3.719946,3.60055240292806,-19.2718033674264,5.55733544780599,-2.1313088,0.25442538,0.3182608,22.897194,59.94294,6.546886,JUM
2664470370000,3.724947,3.03728091804688,-19.326188076243,5.92249079049396,-2.1856759,0.21105394,0.4465425,22.905155,60.65257,6.5253477,JUM
2664475378000,3.729955,2.21262696997797,-19.3753244880833,6.34724291513118,-2.2379048,0.16187929,0.65576386,22.875874,61.406105,6.4162354,JUM
2664480377000,3.734954,1.33529616240737,-19.4232660294412,6.78351139202884,-2.3839016,0.12156218,0.7632761,22.839148,62.186176,6.3055234,JUM
2664485403000,3.73998,0.470345000778281,-19.3870208914027,6.81670276867773,-2.5665503,0.05681047,0.806953,22.795527,62.96716,6.0999093,JUM
2664490345000,3.744922,-0.376762816705882,-19.3346714705882,6.76911247647059,-2.7913487,-0.042455133,0.79045963,22.73244,63.784863,5.895006,JUM
2664495348000,3.749925,-0.901304090168006,-18.8064701869978,6.30755498495252,-2.978579,-0.12889257,0.7492262,22.688288,64.60159,5.6052356,JUM
2664500829000,3.755406,-1.40454549826333,-18.1258963387509,5.71325068543645,-3.094338,-0.21227567,0.70249504,22.628448,65.43706,5.338097,JUM
2664505362000,3.759939,-1.63697680226669,-17.1503676148662,5.16107938533796,-3.1590896,-0.28344148,0.6383542,22.599379,66.2927,5.017317,JUM
2664510360000,3.764937,-1.8129147203594,-15.8943662344292,4.52574826109863,-3.186884,-0.40408736,0.5335908,22.552221,67.13998,4.7406087,JUM
2664515375000,3.769952,-1.70987519238076,-14.5156450212207,3.92968153863177,-3.2223141,-0.5384777,0.37782016,22.51356,68.00543,4.464922,JUM
2664520373000,3.77495,-1.48254609169361,-13.0887917791027,3.35410340405214,-3.2064316,-0.7110472,0.20708331,22.451954,68.83324,4.2414865,JUM
2664525390000,3.779967,-0.866139589381348,-11.3893433122807,2.85969820973223,-3.0918944,-0.870483,0.063224554,22.380985,69.6229,4.0584097,JUM
2664530369000,3.784946,-0.100357288329376,-9.59675232005013,2.40211575910632,-2.9061913,-0.9605856,-0.031154128,22.300518,70.35944,3.9172547,JUM
2664545373000,3.79995,2.20729437766456,-4.19485731152882,1.02321094103219,-2.2476788,-0.9407325,-0.35216382,21.924524,72.18434,3.866731,JUM
2664550381000,3.804958,2.97753694919865,-2.39182543984962,0.562963318470519,-2.176513,-0.990518,-0.56382865,21.785774,72.68043,3.9727955,JUM
2664555355000,3.809932,3.49986993038838,-1.14558821411207,0.0970059775392825,-2.1508565,-1.0534371,-0.8011498,21.587376,73.10964,4.278069,JUM
2664560428000,3.815005,3.89836789214349,-0.175749871473466,-0.383112027168693,-2.1383338,-1.0693196,-0.9957104,21.401606,73.49033,4.626942,JUM
2664565387000,3.819964,4.1723136553867,0.63199138034653,-0.971429914625883,-2.108096,-1.0555751,-1.0977248,21.260159,73.58739,5.0123014,JUM
2664570594000,3.825171,4.38952297240345,1.39463744020134,-1.66167287888878,-2.0286834,-0.8790351,-1.0525209,21.155539,73.644775,5.394238,JUM
2664575383000,3.82996,4.16406812500504,1.57463797310095,-2.33059693899859,-1.897042,-0.8029824,-0.9868528,20.928438,73.89009,5.93087,JUM
2664580405000,3.834982,3.61170084436833,1.37597957314125,-3.05739614957687,-1.806634,-0.5537493,-0.7993172,20.783741,74.11303,6.3950243,JUM
2664585485000,3.840062,3.06187934212829,0.899764284171865,-3.3242736919002,-1.5628988,-0.13897185,-0.64599,20.678814,74.32031,6.8852663,JUM
2664590501000,3.845078,2.52520007852155,0.237859868396797,-3.26166106678149,-1.2250903,0.22266038,-0.65087694,20.624945,74.45595,7.358221,JUM
2664595389000,3.849966,2.19097735074147,-0.24149980558851,-2.98274482052266,-0.8381071,0.46883908,-0.7110472,20.664583,74.59711,7.71307,JUM
2664600432000,3.855009,2.09581803785129,-0.516960886126724,-2.40678082528259,-0.48747048,0.6020077,-0.7266242,20.767906,74.65383,8.042749,JUM
2664605391000,3.859968,1.98529329274945,-0.660725608510216,-1.82909132339318,-0.24740042,0.67011917,-0.6789767,20.957851,74.56123,8.211592,JUM
2664610410000,3.864987,1.8565706781591,-0.679795618111486,-1.2331530504265,-0.08827003,0.6927212,-0.6047566,21.164383,74.40554,8.368082,JUM
2664615365000,3.869942,1.70722310196911,-0.617560988560516,-0.740274477783908,0.013439035,0.7113526,-0.52534413,21.364727,74.113434,8.434019,JUM
2664620425000,3.875002,1.53036669660499,-0.465382257309455,-0.341319439165676,0.09621128,0.72112644,-0.45570546,21.554655,73.80752,8.480266,JUM
2664625325000,3.879902,1.34613983125,-0.299873765,0.04070143125,0.1872302,0.6994407,-0.4007276,21.712591,73.47274,8.503132,JUM
2664630374000,3.884951,1.05504624645359,0.0123903055341506,0.40059902561296,0.27183503,0.6469063,-0.344528,21.85195,73.13902,8.509168,JUM
2664635401000,3.889978,0.788547882475893,0.294960194322711,0.715010814748829,0.36254853,0.5531385,-0.29260445,21.971731,72.836464,8.540379,JUM
2664640458000,3.895035,0.575063104898521,0.512892577625126,0.928495583037928,0.46731192,0.43096542,-0.258396,22.061134,72.518906,8.567206,JUM
2664645376000,3.899953,0.372932067756365,0.710125228643879,1.13932529221016,0.569021,0.28496864,-0.23945917,22.163477,72.272285,8.663743,JUM
2664650585000,3.905162,0.200895356236941,0.80626337589005,1.38726053630186,0.66156703,0.1160644,-0.2452624,22.22417,72.00169,8.769441,JUM
2664655387000,3.909964,0.0404760553956344,0.877571255934516,1.64308213697135,0.7644979,-0.06291912,-0.25411993,22.254967,71.696884,8.86662,JUM
2664660387000,3.914964,-0.136837660254336,0.854240521184954,2.06303565480413,0.8720101,-0.26206118,-0.2519819,22.233221,71.36614,8.978049,JUM
2664665383000,3.91996,-0.312628117114094,0.820584520805369,2.4879772442953,0.9651671,-0.364992,-0.25381452,22.198816,70.99414,9.080544,JUM
2664670371000,3.924948,-0.475250312569789,0.690486748915475,2.96190482803229,1.0268645,-0.57543504,-0.24953845,22.07977,70.60118,9.206668,JUM
2664675549000,3.930126,-0.637734744962936,0.555589075609538,3.43182478749665,1.1716396,-0.7849618,-0.22296582,21.944262,70.131645,9.309571,JUM
2664680373000,3.93495,-0.712002256324908,0.431809897186746,3.60098971924623,1.3252722,-0.9049969,-0.17959438,21.775606,69.64283,9.417877,JUM
2664685415000,3.939992,-0.789625969485576,0.302437049423953,3.77779933489328,1.4740179,-0.89949906,-0.12370021,21.59586,69.08362,9.493443,JUM
2664690397000,3.944974,-0.841030728817318,0.147668901733897,3.75873288813094,1.6203201,-0.7855727,-0.07849618,21.41284,68.48452,9.561388,JUM
2664695291000,3.949868,-0.885573518912355,-0.0107053929947202,3.69439327372756,1.7525724,-0.5983425,-0.0421497,21.24977,67.85096,9.609367,JUM
2664700450000,3.955027,-0.955151909344262,-0.0201292366446136,3.4290351397541,1.8674151,-0.37507126,-0.007330383,21.13356,67.17514,9.611175,JUM
2664705338000,3.959915,-1.02366978322404,-0.0109935164705308,3.15496357745902,1.9327776,-0.10048734,0.050701816,21.077885,66.47782,9.572052,JUM
2664710380000,3.964957,-1.18426553070539,0.0836480428506224,2.45988830829875,1.9501873,0.23701571,0.13713925,21.095884,65.78542,9.470654,JUM
2664715350000,3.969927,-1.35825083430152,0.191801054932227,1.70281717413555,1.89918,0.6420194,0.26450464,21.194036,65.09717,9.303087,JUM
2664720393000,3.97497,-1.67048813284353,0.0796885009680302,0.756800682297458,1.7843374,1.0671816,0.4034765,21.37571,64.46733,9.051538,JUM
2664725349000,3.979926,-2.00506399257347,-0.0758186104577045,-0.209228319219619,1.6475036,1.4752395,0.505491,21.645588,63.857147,8.726744,JUM
2664730374000,3.984951,-2.30061522610243,-0.302566125940281,-1.10805948764089,1.5082263,1.7986927,0.5516113,21.996204,63.389725,8.300884,JUM
2664735427000,3.990004,-2.58769222338343,-0.546581541154835,-1.99321345184497,1.4065173,2.0583105,0.57787853,22.421595,62.94715,7.8055344,JUM
2664740385000,3.994962,-2.74236407184874,-0.704369545018007,-2.55339174816927,1.2846496,2.2275202,0.5705481,22.90991,62.735268,7.1887894,JUM
2664745360000,3.999937,-2.86628964957983,-0.842594196478591,-3.03956128023209,1.1603385,2.2186625,0.550695,23.414799,62.546856,6.5515566,JUM
2664750508000,4.005085,-2.70079513172048,-0.798409188306059,-3.2247129367448,1.0170907,2.0457878,0.5216789,23.92086,62.598694,5.835663,JUM
2664756046000,4.010623,-2.44276778334365,-0.699889662414861,-3.33730667362229,0.8735373,1.8258762,0.5329799,24.413435,62.682507,5.116738,JUM
2664760383000,4.01496,-2.05861551882872,-0.565399495860621,-3.31450990701092,0.6927212,1.7085901,0.5702427,24.899271,62.92118,4.367263,JUM
2664765378000,4.019955,-1.48626857093829,-0.369596607258606,-3.20907755657011,0.5030475,1.4046847,0.59315014,25.290186,63.196712,3.6673708,JUM
2664770390000,4.024967,-0.961618703217078,-0.248399991693726,-3.17901321732812,0.4092797,1.1178834,0.57787853,25.647522,63.486423,3.0408762,JUM
2664775388000,4.029965,-0.467523425826819,-0.171647321603528,-3.19340438178994,0.3051272,0.9392053,0.5170974,25.968119,63.82631,2.4423606,JUM
2664780382000,4.034959,-0.063206921,-0.045968671,-3.13544656,0.2874121,0.8445212,0.4636467,26.20125,64.11227,2.008024,JUM
2664785447000,4.040024,0.29474095605298,0.110059890300851,-3.03448687816462,0.32589662,0.7806858,0.408058,26.41321,64.40552,1.6058246,JUM
2664790501000,4.045078,0.585576539093599,0.179390149291843,-2.59744834503403,0.410196,0.7370089,0.36041048,26.577856,64.67091,1.3458954,JUM
2664795389000,4.049966,0.811807931317684,0.174773180431009,-1.89566928066871,0.48288897,0.6930266,0.30970868,26.740387,64.920876,1.1056491,JUM
2664800367000,4.054944,0.997007703993224,0.176919682020329,-1.37121973761859,0.5320636,0.65179324,0.24190263,26.872725,65.097824,0.9810254,JUM
2664805401000,4.059978,1.13701637722652,0.186253590320426,-1.03986597103582,0.55680364,0.6102544,0.18967366,27.000736,65.256424,0.86795807,JUM
2664810373000,4.06495,1.22228104275269,0.177474188519909,-0.749884501885189,0.5693264,0.55741453,0.14080444,27.087605,65.25106,0.8498432,JUM
2664815382000,4.069959,1.23650005012351,0.144296484858216,-0.508161208311432,0.5839872,0.5174029,0.10720685,27.170198,65.23636,0.8435538,JUM
2664820408000,4.074985,1.22710226829293,0.0887332427689957,-0.280466415976879,0.5992588,0.5002986,0.08827003,27.231064,65.13248,0.89063954,JUM
2664825561000,4.080138,1.18186456520676,-0.00174212246486047,-0.0693572292065594,0.61422503,0.48899764,0.08827003,27.282026,65.02489,0.9457815,JUM
2664830365000,4.084942,1.1608103748379,-0.138638019028743,0.296451894574567,0.6429357,0.48899764,0.083383106,27.330656,64.85707,1.0186225,JUM
2664835456000,4.090033,1.16552884942418,-0.350967314967773,0.90041076526488,0.68630713,0.44409904,0.092240654,27.360062,64.68232,1.0955471,JUM
2664840404000,4.094981,1.18368795405099,-0.735833376789424,2.08107000472144,0.7641924,0.30115658,0.076358154,27.362001,64.468834,1.1877302,JUM
2664845373000,4.09995,1.22413026498584,-1.41436597515109,4.23799489683664,0.9260717,-0.062308256,0.032375857,27.294909,64.220634,1.3190687,JUM
2664850409000,4.104986,1.31335989032544,-2.31447622529586,6.46736232573964,1.2883148,-0.8179486,-0.07880162,27.09366,63.79331,1.5629196,JUM
2664855394000,4.109971,1.5393498508284,-3.81165976893491,8.79788374733728,1.9165897,-1.9782871,-0.26816985,26.710896,63.24262,1.94,JUM
2664860290000,4.114867,1.82875420079511,-5.44561246018349,10.4525660746177,2.6322184,-2.612976,-0.38331795,26.225203,62.226166,2.4419649,JUM
2664865373000,4.11995,2.38947962029562,-7.77287116058104,9.72312655851172,2.9254336,-3.5882225,-0.62949663,25.418058,61.149956,3.225383,JUM
2664870349000,4.124926,2.91204050245718,-10.0185867701876,8.73882209382137,3.2724051,-3.8502836,-0.83077675,24.625813,59.616116,4.107328,JUM
2664875380000,4.129957,3.36398223933524,-12.1947845991028,6.96053009694127,3.218649,-3.4144313,-0.9297369,23.830887,58.148834,5.037986,JUM
2664880379000,4.134956,3.82519217316456,-14.116340126301,5.51825589265823,2.8548787,-2.526844,-0.8219192,23.089636,57.055157,5.938652,JUM
2664885471000,4.140048,4.32358853907173,-15.5063620687295,4.81409975628692,2.244319,-1.3072516,-0.4373795,22.528843,56.103493,6.6461267,JUM
2664890467000,4.145044,4.74084255365999,-16.7503244731204,4.62392793215632,1.5683966,-0.025350908,0.12095132,22.137642,55.77009,7.0937543,JUM
2664895549000,4.150126,4.84704410484031,-17.4840816988693,6.65141436393573,1.1123856,1.044885,0.6740898,21.933636,55.565575,7.2709064,JUM
2664900466000,4.155043,4.89269522421458,-18.1324827365145,8.54185026822762,0.9981538,1.9220876,1.0684034,21.951054,55.581284,7.195736,JUM
2664905394000,4.159971,4.66422945381348,-18.486838653527,10.0944852668445,1.2718215,2.733011,1.2449434,22.160568,55.617867,6.881007,JUM
2664910398000,4.164975,4.45071100612557,-18.8222268000574,11.4332354522397,1.7366899,3.428481,1.2235631,22.494135,55.51812,6.403625,JUM
2664915376000,4.169953,4.35945275497703,-18.9956168102029,11.2050893479135,1.7333301,3.8267653,1.0375546,22.948181,55.460415,5.854948,JUM
2664920491000,4.175068,4.18731372948896,-19.1267185233645,10.9747555062637,1.1673635,3.6816847,1.0552697,23.41436,55.315693,5.189538,JUM
2664925386000,4.179963,2.83567749872738,-18.5394557663551,10.816288033108,0.7779369,2.9028316,1.2470814,23.810675,55.12663,4.583749,JUM
2664930642000,4.185219,1.37687038236746,-17.9872913563037,10.7385617084609,0.7483099,1.9938642,1.2727377,24.179869,55.003662,4.0455327,JUM
2664935502000,4.190079,-0.0567857629578437,-18.3640864989634,11.7127126986869,0.9080512,1.2299771,1.0158689,24.41212,54.927876,3.6474316,JUM
2664941434000,4.196011,-1.42198595039098,-18.7796558697945,12.8000318677941,1.0937542,0.6072,0.5497787,24.58094,54.851147,3.2369335,JUM
2664945382000,4.199959,-1.1538353709038,-18.9206064338971,13.2125713036916,1.1441506,0.04520403,0.17531833,24.611425,54.759716,2.9971561,JUM
2664950544000,4.205121,-0.803229167430442,-19.1048989394435,13.7519655711948,0.9602802,-0.3182608,0.05467244,24.665602,54.663918,2.6785736,JUM
2664955403000,4.20998,-0.0413283243380759,-19.2108461776124,13.8275734718741,0.6301075,-0.46120325,0.07788532,24.671206,54.588387,2.4881313,JUM
2664960391000,4.214968,0.831865654178837,-19.3053672031471,13.8140701996608,0.29840767,-0.4615087,0.10598512,24.639858,54.56096,2.3741262,JUM
2664965374000,4.219951,1.52178316488972,-19.3676724710711,13.819385042429,0.086132,-0.5006041,0.10781772,24.539907,54.547054,2.347514,JUM
2664970395000,4.224972,2.13051617442389,-19.415229698645,13.8336525086539,0.01985312,-0.655153,0.051923547,24.416574,54.58031,2.3539653,JUM
2664975385000,4.229962,2.75389272043744,-19.4471421915321,13.5825063011939,-0.09682214,-0.8054258,-0.083383106,24.254858,54.644997,2.4834309,JUM
2664980384000,4.234961,3.38792782243403,-19.4711586574696,13.1934389511388,-0.21533,-0.9682214,-0.22510384,24.067377,54.722797,2.6530092,JUM
2664985495000,4.240072,3.76699245131305,-19.488996558022,12.841280112972,-0.32162055,-1.1863003,-0.37873647,23.830397,54.80853,2.9499202,JUM
2664990473000,4.24505,4.00793381769894,-19.5031698726588,12.5200252208899,-0.47708577,-1.4068227,-0.5109888,23.57799,54.932003,3.292965,JUM
2664995385000,4.249962,3.85655389619029,-19.4958652362997,12.0881206990329,-0.68111473,-1.5180001,-0.623388,23.30165,55.07456,3.7236466,JUM
2665000407000,4.254984,3.49479829361141,-19.4770723501026,11.5854212953014,-0.9016371,-1.5274686,-0.6957755,23.015697,55.252563,4.1812687,JUM
2665005383000,4.25996,3.07912439271195,-19.4781718623699,11.1481606004958,-1.1016954,-1.4682146,-0.7348709,22.72707,55.480896,4.671156,JUM
2665010388000,4.264965,2.62285623529995,-19.4924305292018,10.7489258697075,-1.2705997,-1.3564262,-0.70371675,22.45096,55.74759,5.1387925,JUM
2665015381000,4.269958,2.32982211433201,-19.5033879543572,10.3168887888009,-1.4468343,-1.2137892,-0.6105598,22.216026,56.083275,5.533378,JUM
2665020403000,4.27498,2.15230282351458,-19.5120471518725,9.85793640097227,-1.6303993,-1.0784826,-0.47433686,21.994772,56.457188,5.881761,JUM
2665025393000,4.27997,2.01317457205413,-19.5194383265486,9.34231153075146,-1.8020525,-0.9810496,-0.29749137,21.798456,56.90565,6.13097,JUM
2665030390000,4.284967,1.93946197722522,-19.524704171636,8.72101933017934,-1.96271,-0.93401295,-0.106595986,21.60027,57.39499,6.3227797,JUM
2665035410000,4.289987,1.88507204700711,-19.5089864316476,8.05657395703279,-2.0497584,-0.88331115,0.05100725,21.415398,57.93922,6.441033,JUM
2665040390000,4.294967,1.84738534115962,-19.4760104103121,7.36408095229159,-2.1331415,-0.80756384,0.19517145,21.224188,58.521328,6.500514,JUM
