timestamp,rel_time,acc_x,acc_y,acc_z,gyro_x,gyro_y,gyro_z,azimuth,pitch,roll,label
2611301261000,0,-0.634700460761482,-9.51983581822916,0.798720605868385,-0.06383542,0.7107417,-0.06780604,148.91351,103.48059,-9.761631,STD
2611306226000,0.004965,-0.60593057271042,-9.5127612601955,0.789287853697609,-0.064751714,0.698219,-0.06383542,148.91928,103.43592,-9.802599,STD
2611311278000,0.010017,-0.5950404103099,-9.50920083877969,0.780184688315447,-0.06627888,0.6872234,-0.062308256,148.92172,103.394135,-9.841865,STD
2611316267000,0.015006,-0.597200908099904,-9.50824062322139,0.771542696403443,-0.07360926,0.6750061,-0.064446285,148.91974,103.35582,-9.881105,STD
2611321259000,0.019998,-0.599362705046726,-9.50727983026348,0.76289550786371,-0.0729984,0.64812803,-0.058948494,149.01234,103.25907,-9.800986,STD
2611326295000,0.025034,-0.601543556293561,-9.50631056877789,0.754172102117298,-0.08002335,0.6243043,-0.056199603,149.1006,103.16616,-9.721405,STD
2611331318000,0.030057,-0.603718777860846,-9.50534380935729,0.745471215091041,-0.07147124,0.59437186,-0.051923547,149.17834,103.07363,-9.646753,STD
2611336309000,0.035048,-0.605880141755396,-9.50438320886591,0.736825758760551,-0.06505715,0.5821546,-0.05589417,149.25285,102.9836,-9.572237,STD
2611341286000,0.040025,-0.608035442918124,-9.50342530290607,0.72820455335946,-0.062002823,0.54305923,-0.052534413,149.31044,102.89696,-9.504891,STD
2611346310000,0.045049,-0.610211097537682,-9.50245835101893,0.71950193412396,-0.0693332,0.50701815,-0.045814894,149.36435,102.81285,-9.439117,STD
2611351303000,0.050042,-0.612373327536778,-9.50149736559448,0.710853013374985,-0.064751714,0.4615087,-0.048563786,149.40314,102.726425,-9.375037,STD
2611356294000,0.055033,-0.614534691431328,-9.5005367651031,0.702207557044495,-0.05955936,0.41325033,-0.04795292,149.43051,102.64523,-9.316731,STD
2611361334000,0.060073,-0.616717274887254,-9.49956673375136,0.693477222461112,-0.06261369,0.36896262,-0.05222898,149.44511,102.56497,-9.259306,STD
2611366301000,0.06504,-0.618868245527252,-9.49861075245689,0.684873339152448,-0.064446285,0.3359759,-0.052534413,149.449,102.4863,-9.206005,STD
2611371298000,0.070037,-0.62103220773544,-9.49764899716629,0.676217489566502,-0.061086524,0.3005457,-0.05009095,149.43929,102.40873,-9.155516,STD
2611377107000,0.075846,-0.623547808389304,-9.49653095904679,0.666155086075455,-0.06261369,0.2770274,-0.06169739,149.42296,102.33126,-9.1031,STD
2611381274000,0.080013,-0.625352337210901,-9.49572895098276,0.658936970160979,-0.04550946,0.24617869,-0.06566802,149.39496,102.25351,-9.056551,STD
2611386263000,0.085002,-0.627512835000904,-9.49476873542445,0.650294978248975,-0.045814894,0.22510384,-0.07391469,149.36267,102.17789,-9.007344,STD
2611391248000,0.089987,-0.629671600581816,-9.4938092897323,0.641659915173942,-0.046731193,0.20066923,-0.06994407,149.32132,102.10279,-8.963181,STD
2611396274000,0.095013,-0.631848121305921,-9.49284195291209,0.632953831519957,-0.03756821,0.18875736,-0.062308256,149.27788,102.026825,-8.919403,STD
2611401268000,0.100007,-0.634010784357289,-9.4918807750211,0.624303178561739,-0.040011674,0.17256944,-0.07422013,149.2262,101.95185,-8.873653,STD
2611406252000,0.104991,-0.636169116885928,-9.49092152179549,0.615669847695948,-0.035124753,0.17165314,-0.058948494,149.17755,101.88305,-8.838867,STD
2611411348000,0.110087,-0.638375951269143,-9.48994071231762,0.606842509394972,-0.025961773,0.17104226,-0.057726767,149.12402,101.81027,-8.798622,STD
2611416381000,0.11512,-0.640555503359158,-9.48897202823164,0.598124300276287,-0.043676864,0.1685988,-0.055283304,149.07108,101.74703,-8.764313,STD
2611421257000,0.119996,-0.642667066242313,-9.48803356139214,0.589678048008712,-0.03481932,0.1695151,-0.046120327,149.01993,101.68054,-8.733272,STD
2611426279000,0.125018,-0.644841854757325,-9.48706699443808,0.580978893191698,-0.030543262,0.17531833,-0.034208454,148.97037,101.62108,-8.704676,STD
2611431269000,0.130008,-0.647002785599602,-9.48610658641324,0.572335169070451,-0.035124753,0.17928895,-0.024129177,148.9215,101.56486,-8.679187,STD
2611436258000,0.134997,-0.649163283389606,-9.48514637085494,0.563693177158447,-0.04642576,0.17867808,-0.018020526,148.87386,101.51236,-8.656787,STD
2611441238000,0.139977,-0.651319883709152,-9.48418788749548,0.555066775129627,-0.05009095,0.16890424,-0.014966198,148.82558,101.46226,-8.637373,STD
2611446646000,0.145385,-0.653661830401543,-9.48314702845774,0.545698987544917,-0.047036625,0.16493362,0.004886922,148.78017,101.41931,-8.624986,STD
2611451262000,0.150001,-0.655660799693718,-9.48225860291812,0.537703109680453,-0.059253927,0.15974127,0.004886922,148.73157,101.37754,-8.608933,STD
2611456249000,0.154988,-0.657820431379175,-9.4812987722929,0.529064582186935,-0.06841691,0.15363261,0.0018325958,148.6827,101.3394,-8.5983715,STD
2611461275000,0.160014,-0.65999695210328,-9.48033143547269,0.520358498532949,-0.0842994,0.14446963,0.010079277,148.63246,101.30832,-8.591852,STD
2611466265000,0.165004,-0.662157882945557,-9.47937102744785,0.511714774411703,-0.0842994,0.15057829,0.0143553335,148.58519,101.27544,-8.583523,STD
2611471263000,0.170002,-0.664322278206017,-9.4784090796907,0.503057192616514,-0.08124508,0.14385876,0.01863139,148.53252,101.24758,-8.578792,STD
2611476286000,0.175025,-0.666497499773303,-9.47744232027011,0.494356305590257,-0.09590584,0.13775012,0.011301007,148.48207,101.222176,-8.572138,STD
2611481265000,0.180004,-0.668653667040576,-9.47648402937719,0.48573163577068,-0.09987647,0.12644911,0.012217305,148.42926,101.19774,-8.569842,STD
2611486261000,0.185,-0.670817196196491,-9.47552246655312,0.477077518393977,-0.09743301,0.11911872,0.0067195175,148.37596,101.172516,-8.56412,STD
2611491235000,0.189974,-0.6729711982024,-9.47456513799289,0.468461509620614,-0.101098195,0.1142318,0.0027488936,148.32088,101.15034,-8.559795,STD
2611496272000,0.195011,-0.675152482501507,-9.47359568404076,0.459736371664958,-0.12095132,0.10751228,-0.0027488936,148.26363,101.12981,-8.554215,STD
2611501261000,0.2,-0.677312980291511,-9.47263546848246,0.451094379752954,-0.122783914,0.09865474,-0.00580322,148.20503,101.106995,-8.548881,STD
2611506222000,0.204961,-0.67946135261787,-9.47168064198722,0.442500889699747,-0.12308934,0.08399397,-0.013133603,148.14325,101.08594,-8.541649,STD
2611511317000,0.210056,-0.650959085068725,-9.47638912185113,0.4198770911109,-0.121256754,0.08002335,-0.019547688,148.08275,101.06493,-8.534199,STD
2611516393000,0.215132,-0.613784385651915,-9.48270639149406,0.393393155490523,-0.121256754,0.07666359,-0.020158553,148.01904,101.04458,-8.527299,STD
2611521308000,0.220047,-0.577788789191391,-9.48882329068535,0.367749234376624,-0.11453723,0.087964594,-0.032986723,147.98665,101.03851,-8.519126,STD
2611526269000,0.225008,-0.541456306171928,-9.49499743857711,0.341865309118018,-0.116675265,0.08093964,-0.03756821,147.949,101.03584,-8.514158,STD
2611531276000,0.230015,-0.504786936593526,-9.50122883516934,0.315741379714703,-0.12095132,0.09193522,-0.032070424,147.92035,101.03197,-8.507744,STD
2611536260000,0.234999,-0.468286010294594,-9.50743160741133,0.289737452383742,-0.113926366,0.101098195,-0.032375857,147.88945,101.02436,-8.499066,STD
2611541243000,0.239982,-0.431792407616508,-9.51363313511636,0.263738742534188,-0.112704635,0.10293079,-0.040927973,147.86012,101.01813,-8.489789,STD
2611546266000,0.245005,-0.395005860104562,-9.51988444430005,0.237531333428366,-0.11728613,0.10140363,-0.03848451,147.83337,101.01419,-8.483628,STD
2611551261000,0.25,-0.358424373976319,-9.52610090644868,0.211470013801931,-0.109650314,0.09437868,-0.0421497,147.80559,101.00475,-8.473753,STD
2611556253000,0.254992,-0.321864858710614,-9.53231363498641,0.185424346619717,-0.112704635,0.08582657,-0.042760566,147.77762,100.999466,-8.465843,STD
2611561274000,0.260013,-0.285092958440361,-9.53856245509617,0.159227372476708,-0.10903945,0.067500606,-0.039095376,147.7454,100.99191,-8.45902,STD
2611566269000,0.265008,-0.248511472312118,-9.54477891724479,0.133166052850274,-0.12492194,0.057726767,-0.04642576,147.71333,100.98611,-8.449214,STD
2611571261000,0.27,-0.211951957046413,-9.55099164578252,0.10712038566806,-0.14508049,0.040011674,-0.048563786,147.67468,100.982574,-8.4431505,STD
2611576279000,0.275018,-0.1752020276387,-9.55723673228138,0.0809390639692711,-0.15210545,0.025045475,-0.05497787,147.63428,100.97713,-8.434365,STD
2611581263000,0.280002,-0.138701101339768,-9.56343950452337,0.0549351366383102,-0.1554652,0.012217305,-0.061086524,147.5901,100.974365,-8.425945,STD
2611586242000,0.284981,-0.102236793145068,-9.56963605408053,0.0289572967143828,-0.17684549,-0.0012217305,-0.074830994,147.54181,100.97316,-8.414456,STD
2611591241000,0.28998,-0.0656260125334379,-9.57585749437702,0.00287510716232153,-0.18784106,-0.014966198,-0.08246681,147.49065,100.97077,-8.40384,STD
2611596269000,0.295008,-0.0288028469172598,-9.58211502624555,-0.0233583893505338,-0.1966986,-0.031154128,-0.08827003,147.43547,100.969376,-8.390891,STD
2611601262000,0.300001,0.00776399196929101,-9.58832899932025,-0.0494092740141549,-0.20799962,-0.04153884,-0.1020145,147.37852,100.96711,-8.374325,STD
2611606245000,0.304984,0.044257594647377,-9.59453052702527,-0.0754079838637091,-0.22235495,-0.048258353,-0.11636983,147.31886,100.96572,-8.356936,STD
2611611277000,0.310016,0.0811100547469412,-9.60079303704167,-0.101662350302191,-0.22327125,-0.06291912,-0.1282817,147.25473,100.96157,-8.337624,STD
2611616267000,0.315006,0.117654922770952,-9.60700327650546,-0.127697582521592,-0.23426682,-0.07666359,-0.1469131,147.18939,100.9575,-8.313241,STD
2611621256000,0.319995,0.154192467174117,-9.61321227143229,-0.153727597259587,-0.24007004,-0.1142318,-0.17012598,147.1137,100.94926,-8.286325,STD
2611626268000,0.325007,0.190898454856752,-9.61944989070934,-0.179877614069935,-0.24770586,-0.11453723,-0.18173242,147.04588,100.94219,-8.257474,STD
2611631263000,0.330002,0.227479940984995,-9.62566635285797,-0.205938933696369,-0.24709499,-0.12034045,-0.19272798,146.96648,100.930176,-8.224782,STD
2611636306000,0.335045,0.264412960913871,-9.631942552781,-0.232250692430325,-0.24495697,-0.12797627,-0.20677789,146.88748,100.9166,-8.189098,STD
2611641287000,0.340026,0.300891916350264,-9.63814159141209,-0.258238967317066,-0.23976462,-0.1423316,-0.22449298,146.80597,100.89968,-8.15084,STD
2611646305000,0.345044,0.337641845757977,-9.64438667791095,-0.284420289015854,-0.22815818,-0.1572978,-0.24465153,146.7231,100.87819,-8.1094,STD
2611651302000,0.350041,0.374237979127914,-9.65060562913351,-0.310492043605102,-0.21685717,-0.16768251,-0.2666427,146.63841,100.8523,-8.064061,JUM
2611656302000,0.355041,0.41085608336039,-9.65682831396697,-0.33657945063857,-0.20769419,-0.17837265,-0.29077184,146.5503,100.820724,-8.014361,JUM
2611661318000,0.360057,0.447591365526411,-9.6630709113919,-0.362750337374545,-0.20525073,-0.18875736,-0.3023783,146.46075,100.787315,-7.9638734,JUM
2611666299000,0.365038,0.484070320962803,-9.66926995002299,-0.388738612261286,-0.19792034,-0.19486602,-0.32528573,146.36996,100.74491,-7.90522,JUM
2611671298000,0.370037,0.520681101574433,-9.67549139031949,-0.414820801813347,-0.18051068,-0.19792034,-0.35216382,146.27843,100.69807,-7.8441114,JUM
2611676328000,0.375067,0.557518914432305,-9.68175141126195,-0.441064733289016,-0.18692477,-0.2134974,-0.3707952,146.18295,100.65278,-7.781345,JUM
2611681318000,0.380057,0.594063782456316,-9.68796165072574,-0.467099965508417,-0.19303341,-0.23365596,-0.38637227,146.08643,100.6007,-7.7140474,JUM
2611686299000,0.385038,0.630542737892709,-9.69416068935683,-0.493088240395158,-0.2144137,-0.24923302,-0.40194935,145.98808,100.55069,-7.643901,JUM
2611691250000,0.389989,0.666801984703707,-9.70032239187892,-0.518919990839698,-0.22876903,-0.26358834,-0.42546764,145.88559,100.49738,-7.5698624,JUM
2611696292000,0.395031,0.703727681011736,-9.70659734726499,-0.545226532092247,-0.2443461,-0.27885997,-0.43371433,145.78058,100.45021,-7.498499,JUM
2611701857000,0.400596,0.744483631022482,-9.71352319548463,-0.574261816120497,-0.26450464,-0.2864958,-0.43554693,145.67526,100.40506,-7.424785,JUM
2611706279000,0.405018,0.776868682405684,-9.71902653795134,-0.597333518900896,-0.28099802,-0.30390546,-0.44990227,145.56433,100.35977,-7.348338,JUM
2611711319000,0.410058,0.778958985135514,-9.68857662920133,-0.592338489861547,-0.28680122,-0.29260445,-0.45845437,145.46187,100.31883,-7.274467,JUM
2611716302000,0.415041,0.77083654795893,-9.64772554828342,-0.578243672494638,-0.31031954,-0.2883284,-0.4642576,145.35435,100.284065,-7.2004433,JUM
2611721300000,0.420039,0.762689660339311,-9.60675149602018,-0.564106426418016,-0.3118467,-0.2751948,-0.47342056,145.3987,100.212776,-6.9585853,JUM
2611726342000,0.425081,0.754471051420118,-9.56541672781065,-0.549844722792899,-0.33505958,-0.269697,-0.47800204,145.44223,100.15934,-6.7219,JUM
2611731319000,0.430058,0.746358394420749,-9.52461483543087,-0.535766876909876,-0.36560285,-0.267559,-0.48655418,145.48817,100.113976,-6.486419,JUM
2611736305000,0.435044,0.738231067155558,-9.48373916024389,-0.521663573801024,-0.37323865,-0.28160888,-0.48655418,145.53134,100.07762,-6.2576466,JUM
2611741283000,0.440022,0.730116780126653,-9.44292906977443,-0.507582899337353,-0.40500367,-0.29352075,-0.49388456,145.57521,100.058655,-6.0292616,JUM
2611746304000,0.445043,0.721932401827712,-9.40176646144835,-0.493380595905836,-0.43310347,-0.3109304,-0.5030475,145.61363,100.047905,-5.80598,JUM
2611751309000,0.450048,0.713774104001342,-9.36073502255729,-0.47922354976468,-0.45540005,-0.3286455,-0.5170974,145.64836,100.04837,-5.5844946,JUM
2611756307000,0.455046,0.705627216381722,-9.31976097029406,-0.465086303688058,-0.4831944,-0.3454443,-0.5213735,145.6788,100.06376,-5.3685517,JUM
2611761324000,0.460063,0.697449358200923,-9.27863115432674,-0.450895314579131,-0.50518554,-0.344528,-0.5271767,145.70909,100.087296,-5.152854,JUM
2611766303000,0.465042,0.689333441142482,-9.23781286576758,-0.436811811534812,-0.5204572,-0.35643986,-0.5369505,145.7312,100.12093,-4.94066,JUM
2611771754000,0.470493,0.680448150143173,-9.19312507887544,-0.421393218424834,-0.5305365,-0.35430184,-0.5571091,145.75742,100.16229,-4.727713,JUM
2611776372000,0.475111,0.672920673747134,-9.15526630069384,-0.408330832994293,-0.5497787,-0.35308012,-0.57848936,145.78012,100.21391,-4.516655,JUM
2611781307000,0.480046,0.664876477988266,-9.11480872808098,-0.394371787498468,-0.5558874,-0.32742378,-0.59406644,145.81038,100.2682,-4.30477,JUM
2611786300000,0.485039,0.656737740516325,-9.07387566626618,-0.380248684325083,-0.5687156,-0.32467487,-0.6102544,145.8341,100.33159,-4.092142,JUM
2611791261000,0.49,0.648651163989527,-9.03320494332142,-0.366216095732421,-0.5726862,-0.31795537,-0.6230826,145.86623,100.39776,-3.8791413,JUM
2611796294000,0.495033,0.640447225336157,-8.99194395791908,-0.351979849333133,-0.5888741,-0.32925636,-0.63407815,145.89388,100.47358,-3.6672742,JUM
2611801299000,0.500038,0.632288927509787,-8.95091251902802,-0.337822803191977,-0.59589905,-0.33841935,-0.65240407,145.9236,100.550354,-3.453732,JUM
2611806291000,0.50503,0.624151820067382,-8.90998765530292,-0.32370252859924,-0.6123924,-0.34483343,-0.66523224,145.9512,100.63755,-3.2434766,JUM
2611811307000,0.510046,0.615975591916119,-8.86886603742528,-0.309514368070961,-0.63041294,-0.3286455,-0.66798115,145.98285,100.729996,-3.03463,JUM
2611816322000,0.515061,0.607800993794391,-8.82775261763734,-0.295329036123329,-0.6411031,-0.31673363,-0.67164636,146.01149,100.8271,-2.8268347,JUM
2611821303000,0.520042,0.599681816676879,-8.78691793289881,-0.281239875917715,-0.657291,-0.29901853,-0.68233645,146.04642,100.93293,-2.6194375,JUM
2611826360000,0.525099,0.591438757314651,-8.74546019334395,-0.266935743582885,-0.6743952,-0.30176744,-0.6969972,146.07907,101.04405,-2.4145272,JUM
2611831291000,0.53003,0.583401081673925,-8.70503541308984,-0.252988012409651,-0.6728681,-0.3182608,-0.7058548,146.11305,101.15641,-2.2121904,JUM
2611836304000,0.535043,0.57522974361127,-8.66393838948127,-0.238808337623314,-0.6881397,-0.3378085,-0.72692966,146.14444,101.27872,-2.0067782,JUM
2611841437000,0.540176,0.566862802004325,-8.62185759511008,-0.224289233159268,-0.6939429,-0.36254853,-0.7510588,146.16965,101.39912,-1.8033363,JUM
2611846313000,0.545052,0.558914777988066,-8.58188370978884,-0.21049707392165,-0.7156286,-0.38881573,-0.77854776,146.18825,101.52876,-1.5984083,JUM
2611851299000,0.550038,0.550787450722875,-8.54100803460187,-0.196393770812799,-0.7086037,-0.3866777,-0.8173377,146.20673,101.652016,-1.387586,JUM
2611856283000,0.555022,0.542663383516755,-8.50014875559427,-0.182296124865242,-0.7305948,-0.35979962,-0.84971356,146.22453,101.79025,-1.1752828,JUM
2611861320000,0.560059,0.534452924745242,-8.45885497783318,-0.168048564143363,-0.745561,-0.31581733,-0.8750645,146.24696,101.92496,-0.95743877,JUM
2611866302000,0.565041,0.526332117598194,-8.41801209500496,-0.153956575357102,-0.7498371,-0.27458394,-0.9111055,146.27458,102.063255,-0.7306945,JUM
2611871298000,0.570037,0.518188490037646,-8.37705443892109,-0.139824986441775,-0.7461719,-0.2415972,-0.94897914,146.31134,102.20453,-0.49884406,JUM
2611876329000,0.575068,0.509987811443346,-8.33580984969813,-0.125594397203782,-0.73548174,-0.23548855,-0.97585726,146.35126,102.34617,-0.26389045,JUM
2611881305000,0.580044,0.501876784473513,-8.29501615540804,-0.111519379901406,-0.70249504,-0.20647246,-0.9960158,146.40549,102.48171,-0.021709753,JUM
2611886297000,0.585036,0.493739677031108,-8.25409129168294,-0.0973991053086685,-0.70188415,-0.19333886,-1.0094548,146.45627,102.62502,0.22053368,JUM
2611891266000,0.590005,0.485640060268024,-8.21335498402066,-0.0833438880708257,-0.6795876,-0.1957823,-1.0189233,146.5103,102.75446,0.46311408,JUM
2611896289000,0.595028,0.477452421910011,-8.17217597951521,-0.0691359274780134,-0.66553766,-0.20647246,-1.0253373,146.56543,102.887764,0.70387036,JUM
2611901301000,0.60004,0.469282713876891,-8.13108715399634,-0.0549590812723245,-0.6444628,-0.22693644,-1.0228939,146.61757,103.01414,0.93903255,JUM
2611906289000,0.605028,0.461152126552629,-8.09019508262998,-0.0408501210021777,-0.6267477,-0.2565634,-1.0268645,146.66382,103.13901,1.1715562,JUM
2611911326000,0.610065,0.504032435927143,-8.31880750747849,-0.0515713444681727,-0.61422503,-0.28771752,-1.0317514,146.70459,103.260475,1.3973954,JUM
2611916303000,0.615042,0.557369453423372,-8.60263663742544,-0.0675248274645708,-0.60139686,-0.3231477,-1.0250319,146.73708,103.3775,1.614124,JUM
2611921302000,0.620041,0.610942238326656,-8.88772038679349,-0.0835488301768461,-0.6072,-0.33169982,-1.0311406,146.72624,103.471855,1.812717,JUM
2611926334000,0.625073,0.664868674340524,-9.17468606529319,-0.0996786124629372,-0.6047566,-0.355829,-1.0387764,146.70325,103.56055,2.0021503,JUM
2611931310000,0.630049,0.718194975136431,-9.45845816708464,-0.115628890017705,-0.61361414,-0.38026363,-1.0589349,146.67822,103.65527,2.1918342,JUM
2611936315000,0.635054,0.77183206024164,-9.74388408538571,-0.131672125379765,-0.6377433,-0.40225476,-1.071763,146.64888,103.75386,2.3758419,JUM
2611941286000,0.640025,0.825104777535944,-10.0273710463996,-0.147606375726378,-0.66523224,-0.43218717,-1.0937542,146.61035,103.85739,2.561496,JUM
2611946308000,0.645047,0.878924046546604,-10.3137664433443,-0.163704103596161,-0.679893,-0.45081854,-1.1078042,146.57039,103.964165,2.743445,JUM
2611951306000,0.650045,0.932486114749568,-10.5987931645568,-0.179724900866806,-0.7067711,-0.46731192,-1.1068878,146.5242,104.08186,2.921087,JUM
2611956290000,0.655029,0.985898149148041,-10.8830214915923,-0.195700821954619,-0.71868294,-0.464563,-1.1181889,146.47842,104.20028,3.101718,JUM
2611961359000,0.660098,1.04022110307378,-11.1720972118457,-0.211949205581049,-0.7452556,-0.43218717,-1.1239921,146.43875,104.328804,3.277194,JUM
2611966316000,0.665055,1.09334378656359,-11.4547857786825,-0.227838579744832,-0.7733554,-0.35796702,-1.1111639,146.414,104.459274,3.4494913,JUM
2611971303000,0.670042,1.14678797106303,-11.7391851901845,-0.243824117157538,-0.8332202,-0.26358834,-1.0891727,146.40585,104.60414,3.6203656,JUM
2611976335000,0.675074,1.20071440707689,-12.0261508686842,-0.259953899443629,-0.9447031,-0.19211712,-1.0903945,146.41264,104.77014,3.7937417,JUM
2611981284000,0.680023,1.25375135696414,-12.3083832102771,-0.275817630074365,-1.153619,-0.18387043,-1.0894781,146.43054,104.97574,3.958863,JUM
2611986302000,0.685041,1.30752775917352,-12.5945504945997,-0.291902536177625,-1.4223998,-0.33414328,-1.0919216,146.42436,105.22598,4.115382,JUM
2611991238000,0.689977,1.3604253919566,-12.876041470171,-0.307724596067162,-1.611768,-0.6768387,-1.0616838,146.36989,105.504654,4.245619,JUM
2611996306000,0.695045,1.41473762918201,-13.1650601622688,-0.323969774251961,-1.5830573,-1.0671816,-0.9786061,146.26547,105.7865,4.3437138,JUM
2612001299000,0.700038,1.46824611388337,-13.4498017427038,-0.339974544314451,-1.2623531,-1.1566733,-0.8145888,146.16066,106.02257,4.404876,JUM
2612006288000,0.705027,1.52171173178345,-13.7343152105169,-0.355966492610419,-0.80909103,-0.7959574,-0.5742133,146.08884,106.192604,4.4246697,JUM
2612011309000,0.710048,1.57552028409379,-14.020653579306,-0.372061015038571,-0.4156938,-0.1328632,-0.2959642,146.09543,106.26835,4.4044147,JUM
2612016286000,0.715025,1.62885730159002,-14.304482709253,-0.38801449803497,-0.07971791,0.22724187,-0.026572637,146.13728,106.21457,4.324855,JUM
2612021304000,0.720043,1.68263370379939,-14.5906499935756,-0.40409940413823,0.14782938,0.70005155,0.0870483,146.40048,106.07445,4.272211,JUM
2612027037000,0.725776,1.74407254673809,-14.9175924090841,-0.422476201007498,0.22174409,0.6542367,0.29046643,146.64182,105.8617,4.1098413,JUM
2612031268000,0.730007,1.78941490579506,-15.1588785350245,-0.436038424547334,0.34208453,0.26053402,0.4841107,146.91705,105.573074,3.9302552,JUM
2612036280000,0.735019,1.84312700780251,-15.4447036504141,-0.452104098000809,0.4550946,-0.15271631,0.6786713,147.18033,105.259865,3.6925335,JUM
2612041274000,0.740013,1.89664620920419,-15.7295022590047,-0.468112073504931,0.52656585,-0.408058,0.9053023,147.38641,104.91968,3.3792133,JUM
2612046284000,0.745023,1.950336877811,-16.0152133180833,-0.484171336075145,0.5494733,-0.4541783,1.1386528,147.54285,104.56155,3.0007277,JUM
2612051288000,0.750027,2.00396324621589,-16.3005822082288,-0.500211365995574,0.5036584,-0.39584067,1.3521502,147.66463,104.20661,2.560943,JUM
2612056301000,0.75504,2.05768606492367,-16.586464351774,-0.51628024489068,0.43676865,-0.34422258,1.5265522,147.7773,103.8606,2.0718565,JUM
2612061277000,0.760016,2.11101236571957,-16.8702364535654,-0.532230522445447,0.44532076,-0.3032946,1.6679676,147.90692,103.52094,1.545493,JUM
2612066284000,0.765023,2.16467088422542,-17.1557764281775,-0.548280168690769,0.5329799,-0.23487769,1.7736472,148.05888,103.19845,0.9964253,JUM
2612071297000,0.770036,2.2183937029332,-17.4416585717226,-0.564349047585875,0.713796,-0.16157386,1.815797,148.21933,102.87283,0.4398788,JUM
2612076298000,0.775037,2.27198792123712,-17.7268563774017,-0.580379461181412,0.8677341,-0.12705997,1.7922786,148.38074,102.55897,-0.11431353,JUM
2612081281000,0.78002,2.32538923893528,-18.0110276762816,-0.596352176827595,0.9285152,-0.19822577,1.7067575,148.52129,102.251076,-0.6534139,JUM
2612086302000,0.785041,2.37919779124562,-18.2973660450708,-0.612446699255747,0.9428705,-0.4392121,1.5803084,148.60933,101.942894,-1.1713513,JUM
2612091258000,0.789997,2.43230975803511,-18.5799975837521,-0.628332867977899,0.95447695,-0.820392,1.4309518,148.62189,101.64532,-1.6603199,JUM
2612096471000,0.79521,2.48817591680703,-18.8772853583982,-0.645042835199162,0.99296147,-1.2000448,1.319469,148.5541,101.361145,-2.1277258,JUM
2612101299000,0.800038,2.53991614595547,-19.1526172931749,-0.660518707392573,1.028697,-1.3976597,1.25319,148.41887,101.09646,-2.5676105,JUM
2612106304000,0.805043,2.59355323106068,-19.438043211476,-0.676561942754633,1.0619892,-1.3942999,1.1991285,148.22452,100.841675,-2.98081,JUM
2612111345000,0.810084,2.57155463419223,-19.1356739059789,-0.645092463325959,1.0784826,-1.2702943,1.1572843,148.0035,100.60306,-3.3748705,JUM
2612116295000,0.815034,2.53012418333899,-18.6849106081119,-0.60176804918172,1.0754282,-1.201572,1.1340714,147.76414,100.38273,-3.7538633,JUM
2612121308000,0.820047,2.48816643583853,-18.2284103228175,-0.557892233402917,1.0754282,-1.0152581,1.1267409,147.7014,100.0558,-3.85545,JUM
2612126325000,0.825064,2.44617520918586,-17.771545784353,-0.513981407996524,1.0867293,-0.8145888,1.0958922,147.65578,99.74427,-3.947394,JUM
2612131305000,0.830044,2.40449366469109,-17.3180505877111,-0.47039442164535,1.1285735,-0.61391956,1.0824533,147.65868,99.446884,-4.0404286,JUM
2612136298000,0.835037,2.36270331295165,-16.8633715682666,-0.426693654004505,1.1557571,-0.42424592,1.0775663,147.70908,99.16753,-4.125319,JUM
2612141295000,0.840034,2.32087948206001,-16.4083282956522,-0.382957876736068,1.2095132,-0.27916542,1.0830641,147.79758,98.88957,-4.208794,JUM
2612146323000,0.845062,2.27879618773878,-15.9504620609703,-0.338950774853798,1.2559389,-0.172264,1.0876455,147.92221,98.62463,-4.290034,JUM
2612151299000,0.850038,2.23714812239621,-15.4973311174983,-0.295398798130216,1.3072516,-0.13225232,1.0968086,148.06223,98.36545,-4.376041,JUM
2612156310000,0.855049,2.19520711447185,-15.0410129587888,-0.251540487165209,1.3222178,-0.18112154,1.094976,148.19955,98.1218,-4.4638085,JUM
2612161306000,0.860045,2.15339165336826,-14.5860607494669,-0.20781346230367,1.3515394,-0.2932153,1.1044444,148.32332,97.88511,-4.561785,JUM
2612166792000,0.865531,2.1074749961196,-14.0864875268207,-0.159797758062196,1.357648,-0.44348818,1.0998629,148.41447,97.667435,-4.6611433,JUM
2612171291000,0.87003,2.06981931967743,-13.6767937738705,-0.120420679428877,1.3472633,-0.5684101,1.0937542,148.47453,97.46805,-4.767939,JUM
2612176321000,0.87506,2.0277192857801,-13.2187454126036,-0.0763960727328117,1.319469,-0.64965516,1.0861185,148.4983,97.29007,-4.878264,JUM
2612181298000,0.880037,1.98606285064948,-12.7655234058391,-0.0328353436023312,1.278541,-0.6554584,1.0622946,148.50247,97.13224,-4.98541,JUM
2612186294000,0.885033,1.94424738954589,-12.3105711965171,0.0108916812592079,1.2253957,-0.6078109,1.0259482,148.49397,96.99691,-5.08912,JUM
2612191256000,0.889995,1.90271650123604,-11.8587151391401,0.0543211242862209,1.153619,-0.49174652,0.9737192,148.49863,96.88158,-5.1814528,JUM
2612196310000,0.895049,1.86041559242548,-11.3984812588533,0.0985557887478338,1.0735956,-0.3659083,0.9111055,148.51494,96.7822,-5.260649,JUM
2612201298000,0.900037,1.81866708962629,-10.9442575558713,0.14221279435419,0.979217,-0.22113322,0.8359691,148.5647,96.69591,-5.3200026,JUM
2612206287000,0.905026,1.77691021703906,-10.4899427895968,0.185878552367445,0.90010995,-0.089186326,0.77213365,148.64172,96.61882,-5.3641434,JUM
2612211304000,0.910043,1.73491899038639,-10.0330782511324,0.229789377773838,0.816116,0.005497787,0.6924158,148.74348,96.54469,-5.3821034,JUM
2612216307000,0.915046,1.69304494076644,-9.57748859876297,0.273577669483662,0.7312057,0.040011674,0.6536258,148.86084,96.48384,-5.3941803,JUM
2612221291000,0.92003,1.65132991711946,-9.12362914895099,0.317199665462427,0.6933321,0.06169739,0.58062744,148.99492,96.4062,-5.3744135,JUM
2612226319000,0.925058,1.60924662279823,-8.66576291426909,0.361206767344697,0.6056729,0.014966198,0.50426924,149.11407,96.34272,-5.3453603,JUM
2612231286000,0.930025,1.56767388554813,-8.21345154042959,0.404679972406199,0.50976706,-0.07971791,0.42149702,149.22002,96.270065,-5.29644,JUM
2612236402000,0.935141,1.52485404987839,-7.74757173600783,0.449457286095477,0.41905355,-0.17379116,0.34116822,149.3078,96.194786,-5.229813,JUM
2612241291000,0.94003,1.48393415609628,-7.3023632989832,0.492247803418949,0.33567044,-0.2098322,0.23671028,149.38039,96.10992,-5.136232,JUM
2612246298000,0.945037,1.44202662732412,-6.84640939344377,0.536071104756364,0.23304509,-0.1908954,0.108123146,149.43793,96.02013,-5.016775,JUM
2612251295000,0.950034,1.40020279643248,-6.39136612082932,0.579806882024801,0.122783914,-0.100792766,-0.06505715,149.50143,95.91356,-4.857882,JUM
2612256289000,0.955028,1.35840407490499,-5.93659603809236,0.623516402072544,0.03390302,-0.008552114,-0.23090707,149.56757,95.79788,-4.6682706,JUM
2612261343000,0.960082,1.31610316609443,-5.4763621578055,0.667751066534157,-0.051618114,0.10323623,-0.3747658,149.66109,95.67444,-4.4385815,JUM
2612266308000,0.965047,1.27454716842042,-5.024232910551,0.711206766781864,-0.12705997,0.23671028,-0.49174652,149.78326,95.54658,-4.172831,JUM
2612271299000,0.970038,1.23277355625709,-4.56973601769154,0.754890029608913,-0.14844026,0.3839288,-0.6010914,149.9371,95.41156,-3.8719947,JUM
2612276318000,0.975057,1.19076559002832,-4.11268935264212,0.798818359829103,-0.16829337,0.514654,-0.6771441,150.12059,95.294075,-3.5514195,JUM
2612281297000,0.980036,1.14909241532159,-3.65928521929264,0.842396593773379,-0.16187929,0.6411031,-0.74097955,150.34042,95.18032,-3.2069685,JUM
2612286309000,0.985048,1.10714303760918,-3.20287599729071,0.886263657145283,-0.15210545,0.7467828,-0.7849618,150.58743,95.08634,-2.850958,JUM
2612291257000,0.989996,1.06572932633205,-2.75229482600868,0.929570566475726,-0.13194689,0.7812967,-0.820392,150.84557,95.00756,-2.4848406,JUM
2612296288000,0.995027,1.02362092264666,-2.29415540144928,0.973603925578689,-0.12614368,0.7461719,-0.8237518,151.1099,94.95722,-2.1214123,JUM
2612301297000,1.000036,0.981696654298406,-1.83801936932485,1.0174447317299,-0.13347405,0.659429,-0.8155051,151.36505,94.931244,-1.7585093,JUM
2612306339000,1.005078,0.939496182944461,-1.37887824854797,1.06157436730874,-0.1518,0.51251596,-0.79473567,151.58975,94.93563,-1.4072621,JUM
2612311317000,1.010056,0.827086751203512,-1.40815244434251,1.1709533845911,-0.18112154,0.43310347,-0.7678576,151.80637,94.97206,-1.0672436,JUM
2612316325000,1.015064,0.689880618343691,-1.60213357217125,1.30342829874716,-0.21166481,0.25686884,-0.7504479,151.9515,95.037605,-0.74283713,JUM
2612321281000,1.02002,0.566568533363256,-1.81593780446838,1.3204358999601,-0.23243423,0.06963864,-0.72509706,152.00615,95.05689,-0.5028432,JUM
2612326381000,1.02512,0.444780869090365,-2.0448986063834,1.29120678565729,-0.26633725,-0.1160644,-0.6988298,152.01292,95.10056,-0.27230185,JUM
2612331314000,1.030053,0.401648406185075,-2.24228785862687,1.16144074602985,-0.29779682,-0.2782491,-0.6765333,151.96364,95.14039,-0.068961024,JUM
2612336285000,1.035024,0.387437568591045,-2.43176561077612,0.990910739417911,-0.32742378,-0.40653083,-0.66339964,151.87367,95.19686,0.124933645,JUM
2612341297000,1.040036,0.389625408016886,-2.54239489782054,0.764868689137051,-0.3371976,-0.47219884,-0.64904433,151.75589,95.26156,0.2936285,JUM
2612346301000,1.04504,0.399034863591204,-2.61767056206558,0.515518204844885,-0.31856623,-0.45570546,-0.6301075,151.62808,95.33063,0.45461276,JUM
2612352058000,1.050797,0.325109984740182,-2.63548711570805,0.29214768611662,-0.30726522,-0.36346483,-0.62796944,151.51373,95.432396,0.6112204,JUM
2612356319000,1.055058,0.244176282843118,-2.6273937510115,0.146467020166601,-0.29016098,-0.22327125,-0.63804877,151.42062,95.530266,0.7658969,JUM
2612361307000,1.060046,0.114201762752612,-2.65118232737479,0.000256645250903062,-0.3155119,-0.058948494,-0.66553766,151.38869,95.68477,0.9203666,JUM
2612366304000,1.065043,-0.0353022596583032,-2.69323030417846,-0.132895376423899,-0.35521814,0.10415252,-0.70341134,151.3977,95.842094,1.0829216,JUM
2612371291000,1.07003,-0.184507094511862,-2.73519413454066,-0.265780934176999,-0.41722095,0.25870144,-0.732122,151.47855,96.059166,1.2225429,JUM
2612376366000,1.075105,-0.336344779870155,-2.77789845358782,-0.401011374441082,-0.5021312,0.42943826,-0.7648033,151.60886,96.2963,1.3785745,JUM
2612381301000,1.08004,-0.436938638126913,-2.9566402148031,-0.833516343039176,-0.6026186,0.5879578,-0.7870999,151.77806,96.5562,1.5437728,JUM
2612386303000,1.085042,-0.50047073331565,-3.24986524204244,-1.51770797290451,-0.72265357,0.7538077,-0.82741696,151.99455,96.84829,1.7290958,JUM
2612391245000,1.089984,-0.578636735024241,-3.73195045950799,-2.47530021019034,-0.86590147,0.9502009,-0.8717047,152.32257,97.24963,1.8325772,JUM
2612396272000,1.095011,-0.66940658134315,-4.36301723792422,-3.6553084831388,-1.0616838,1.1407908,-0.9233228,152.68253,97.69336,1.9616257,JUM
2612401263000,1.100002,-0.836271486276654,-5.23790614034992,-4.98648472881356,-1.3203852,1.2308935,-0.96974856,153.00194,98.19499,2.174436,JUM
2612406270000,1.105009,-1.14563329293603,-6.5749781031602,-6.61718825084746,-1.6148223,1.201572,-1.0027353,153.33405,98.759605,2.4019716,JUM
2612411275000,1.110014,-1.38155472233886,-8.08094884250957,-7.37358701597175,-1.8802432,0.90102625,-1.0097603,153.60704,99.50356,2.6586382,JUM
2612416267000,1.115006,-1.55040259644854,-9.7365967476994,-7.33606517910331,-1.9422461,0.22174409,-1.001819,153.75438,100.2685,2.8987286,JUM
2612422033000,1.120772,-1.88226327072036,-12.0023421680685,-7.07205106081536,-1.856114,-0.81153446,-0.8735373,153.71596,101.192535,3.034945,JUM
2612426238000,1.124977,-2.20503280441322,-13.8632475255294,-6.74928156873145,-1.42973,-0.97249746,-0.8188649,153.71805,102.03262,3.191656,JUM
2612431261000,1.13,-2.73873831177172,-15.576575238616,-5.24602296159674,-1.241889,-0.96974856,-0.677755,153.46028,102.82018,3.1704354,JUM
2612436260000,1.134999,-3.44319442954862,-16.6856176530125,-2.44247802613641,-0.8228355,-0.5717699,-0.5305365,153.27328,103.40504,3.144168,JUM
2612441254000,1.139993,-3.93494167553444,-17.5445620285036,0.907658353562945,-0.46089783,-0.04795292,-0.38789943,153.1034,103.78278,2.9706728,JUM
2612446272000,1.145011,-4.16799440166271,-18.1010345886777,4.95040918941805,-0.31581733,0.43799037,-0.23884831,153.0515,104.08289,2.7914925,JUM
2612451248000,1.149987,-3.29893681844373,-18.534449509178,7.8170456113328,-0.37323865,0.6805039,-0.08368854,153.04427,103.91956,2.4177742,JUM
2612456249000,1.154988,-0.9529907278332,-18.8115679704709,9.1691894896249,-0.49663344,0.35643986,0.18112154,153.02126,103.74739,1.9918836,JUM
2612461243000,1.159982,1.19861417091861,-18.9697359533555,8.00826602435507,-0.47403142,-0.14110987,0.35155296,152.87636,103.113335,1.5031376,JUM
2612466268000,1.165007,3.09973111242266,-18.9651548562589,3.37228940791052,-0.27550024,0.025350908,0.37659842,152.82674,102.50819,1.0249116,JUM
2612471196000,1.169935,4.70704015737225,-19.0071378982024,-0.390289229920218,-0.013439035,1.1636983,0.35277468,153.03093,101.81112,0.88965845,JUM
2612476250000,1.174989,5.78240462457079,-19.1537784168855,-2.50191421485054,0.09040806,2.5045476,0.31673363,153.33452,101.13411,0.7698316,JUM
2612481196000,1.179935,6.54476999927464,-19.2729481220191,-3.28002686762321,-0.039095376,2.8377745,0.25870144,153.87062,101.032524,1.0183861,JUM
2612486295000,1.185034,6.73400435681637,-19.3457304697933,-1.43135389658188,-0.061391957,2.0005836,0.25350907,154.44,100.88442,1.2585635,JUM
2612491548000,1.190287,6.42498380599981,-19.4052772591127,0.221405819075068,0.13408493,0.5448918,0.43157628,154.98572,100.98784,1.5864416,JUM
2612496270000,1.195009,5.37292051591787,-19.4350929731563,1.32032207672977,0.33750305,-0.82863873,0.74464476,155.30745,101.0914,1.8185382,JUM
2612501269000,1.200008,4.26721604367313,-19.4637949035595,2.20467427162691,0.4184427,-1.6713274,0.97341377,155.37291,100.969124,1.9762398,JUM
2612506292000,1.205031,3.18697603837123,-19.4817240929929,2.02986362156169,0.44776422,-1.8570304,1.1383474,155.24567,100.79722,2.0145378,JUM
2612511333000,1.210072,2.1094079333206,-19.4990651267673,1.83179756533244,0.5002986,-1.8457294,1.2024882,154.85144,100.42355,1.8187011,JUM
2612516302000,1.215041,1.12747964710737,-19.5081567638517,1.35901729449752,0.5458081,-1.529912,1.2913691,154.49913,100.04357,1.5780858,JUM
2612521621000,1.22036,0.0875714987873134,-19.5004598955224,0.85563674766791,0.66431594,-1.0464121,1.3322971,154.13031,99.62864,1.2021824,JUM
2612526315000,1.225054,-0.570796453070896,-19.0895036985075,0.47403495255597,0.8206975,-0.48472157,1.3432927,153.87477,99.20597,0.83629996,JUM
2612531253000,1.229992,-1.26338719577985,-18.6571854835821,0.0725970181156716,0.98349303,0.09987647,1.3634512,153.7082,98.8094,0.36361262,JUM
2612536300000,1.235039,-1.65872281381789,-17.7846340325479,-0.178733273781949,1.1542299,0.6065892,1.387275,153.67583,98.397514,-0.08111365,JUM
2612541271000,1.24001,-1.98192853853834,-16.8340290474241,-0.392619432657748,1.3057245,0.95081174,1.4239268,153.75826,97.97876,-0.5076228,JUM
2612546288000,1.245027,-1.9842735585209,-15.9648444527733,-0.510365270295418,1.4306464,1.0662653,1.4630222,153.86824,97.62773,-1.0090897,JUM
2612551197000,1.249936,-1.91813859501608,-15.1334333843449,-0.604843853712821,1.4966198,1.0149527,1.4953982,154.01831,97.301445,-1.5001012,JUM
2612556300000,1.255039,-1.66670344070796,-14.3649986017699,-0.90399125420354,1.4740179,0.87689704,1.534188,154.14267,97.08065,-2.034115,JUM
2612561500000,1.260239,-1.36970821177376,-13.6033496598692,-1.25367923458061,1.3726143,0.60903263,1.5467108,154.20299,96.92379,-2.5636554,JUM
2612566331000,1.26507,-0.954400059032882,-12.7997727215718,-1.2098423267739,1.2550226,0.20922135,1.5402967,154.18115,96.86073,-3.092085,JUM
2612571194000,1.269933,-0.499252606344294,-11.9653357843836,-1.06760871067902,1.1417072,-0.20647246,1.5204436,154.06917,96.87538,-3.6171086,JUM
2612576295000,1.275034,-0.10940770884731,-10.9974193097431,-0.912905949714009,1.0531317,-0.5488624,1.4969252,153.90086,96.972984,-4.103433,JUM
2612581204000,1.279943,0.241534212149297,-10.0403047028599,-0.762502280164808,0.9868528,-0.7761043,1.4969252,153.64517,97.12548,-4.5895576,JUM
2612586307000,1.285046,0.617007842082535,-8.96678709781051,-0.707653645636162,0.92087936,-0.8723156,1.4978416,153.35568,97.289444,-5.022984,JUM
2612591218000,1.289957,0.982403961521542,-7.90381678115225,-0.693417444001614,0.86009824,-0.84757555,1.4941764,153.03813,97.485054,-5.4504666,JUM
2612596306000,1.295045,1.26097487554559,-6.91983429076233,-0.73959288019133,0.79443026,-0.71837753,1.4895949,152.76346,97.66896,-5.8365316,JUM
2612601239000,1.299978,1.49636293731938,-6.00652849506726,-0.805501525690085,0.6957755,-0.6224717,1.4691309,152.48732,97.8785,-6.2108517,JUM
2612606291000,1.30503,1.74911416901622,-4.51289289790343,-0.373521795183569,0.6035349,-0.44990227,1.4501941,152.3275,98.08269,-6.5435276,JUM
2612611258000,1.309997,2.00182345249028,-2.84320689219239,0.231175274452139,0.5687156,-0.34238997,1.3833044,152.17494,98.282715,-6.8498263,JUM
2612616265000,1.315004,2.14970915488846,-1.69760348164902,0.690812008513416,0.5170974,-0.2443461,1.2837334,152.07927,98.486664,-7.112493,JUM
2612621258000,1.319997,2.23327946030636,-0.87664753298242,1.05950482500463,0.49571714,-0.1591304,1.1728612,152.00932,98.67097,-7.344413,JUM
2612626260000,1.324999,2.29263591351981,-0.260729610341325,1.28902133446553,0.46761733,-0.09590584,1.0146471,151.97287,98.77521,-7.529197,JUM
2612631287000,1.330026,2.34073047634033,0.260294277561605,1.45334422182817,0.41813725,-0.103847094,0.84665924,151.93567,98.85615,-7.6747184,JUM
2612636254000,1.334993,2.39766620663173,0.690027911848326,1.45609256319392,0.30695978,-0.2687807,0.6740898,151.797,98.92801,-7.78783,JUM
2612641243000,1.339982,2.47943521756338,0.89956114644347,1.04213666252326,0.16371189,-0.48808134,0.5045747,151.63763,98.96913,-7.8524656,JUM
2612646245000,1.344984,2.62006798187564,0.902330291590297,0.505103356547077,0.025961773,-0.6927212,0.3555236,151.49667,98.9803,-7.8941107,JUM
2612651261000,1.35,2.84777498735942,0.598720870134771,-0.21373661035691,-0.093767814,-0.8017606,0.2134974,151.31828,98.96683,-7.8904443,JUM
2612656246000,1.354985,3.09744668138584,0.201570445013988,-0.987946401269636,-0.20280726,-0.82772243,0.035430185,151.15779,98.897316,-7.804436,JUM
2612661299000,1.360038,3.42026574708414,-0.485721565052722,-1.95119651829137,-0.3118467,-0.7761043,-0.19303341,150.98592,98.794426,-7.6613593,JUM
2612666256000,1.364995,3.61227127265244,-1.06489015593185,-2.8308927857471,-0.42760566,-0.643852,-0.44226643,150.89998,98.65298,-7.389658,JUM
2612671260000,1.369999,3.61685845626496,-1.50526008928688,-3.61988884608979,-0.54244834,-0.45814893,-0.70341134,150.84058,98.47946,-7.0429335,JUM
2612676220000,1.374959,3.54883735193068,-1.86813540474308,-4.2894133972332,-0.6291912,-0.21166481,-0.9239337,150.91241,98.300766,-6.5445404,JUM
2612681268000,1.380007,3.30876010981048,-2.06411685507246,-4.70587406231884,-0.68203104,0.049480084,-1.105666,151.03436,98.13337,-5.972989,JUM
2612686193000,1.384932,3.063577981469,-2.19161097843666,-4.93708267466307,-0.6792821,0.27458394,-1.2513574,151.25827,98.05319,-5.3046093,JUM
2612691259000,1.389998,2.78802449870042,-2.18694058290335,-4.80164120419715,-0.6423248,0.4392121,-1.3716979,151.5259,98.040344,-4.582185,JUM
2612696226000,1.394965,2.51534012856708,-2.13617551335432,-4.52500389167259,-0.571159,0.5213735,-1.4566082,151.82729,98.15713,-3.8470693,JUM
2612701300000,1.400039,2.22912314166751,-1.94371931684777,-3.80452675717477,-0.5103779,0.52931476,-1.5161675,152.13786,98.35819,-3.0804846,JUM
2612706265000,1.405004,1.91894948613948,-1.70538982010505,-3.02633510574847,-0.47250426,0.49968776,-1.5393804,152.42177,98.629295,-2.3521929,JUM
2612711331000,1.41007,1.52727199918296,-1.33730734764128,-2.04950091444412,-0.46395215,0.4071417,-1.564426,152.67572,98.96847,-1.6090785,JUM
2612716243000,1.414982,1.11686211219636,-0.987982723288054,-1.06928133181982,-0.48838675,0.2687807,-1.5601498,152.8629,99.28021,-0.9450412,JUM
2612721292000,1.420031,0.590442857648821,-0.654744830131842,0.0511706701518178,-0.5161811,0.07727446,-1.5360206,153.00235,99.64233,-0.28704843,JUM
2612726243000,1.424982,0.0895714748147041,-0.35285352042887,1.14171509012552,-0.5290093,-0.16035213,-1.4987578,153.05081,99.906876,0.24235882,JUM
2612731268000,1.430007,-0.365870651679617,-0.132323647677824,2.22039378468619,-0.5195409,-0.48197266,-1.4434745,153.02382,100.19897,0.7447652,JUM
2612736262000,1.435001,-0.771852223608592,0.0544858586675895,3.19959782891647,-0.47494772,-0.83108217,-1.3680327,152.89793,100.32263,1.0662824,JUM
2612741245000,1.439984,-1.01330571252506,0.127377469517136,3.85106663867303,-0.45356745,-1.2027937,-1.2742649,152.68327,100.45589,1.3461517,JUM
2612746750000,1.445489,-1.23888422059402,0.173462857686311,4.44356204064462,-0.43218717,-1.5280794,-1.1578951,152.5031,100.440025,1.3444824,JUM
2612751265000,1.450004,-1.29155083049752,0.100539868860302,4.52053629713295,-0.43951756,-1.7553213,-1.0323622,152.24687,100.42203,1.2976677,JUM
2612756673000,1.455412,-1.34705030013405,0.00202734484491648,4.57802168558466,-0.4633413,-1.8625281,-0.9242391,151.88045,100.274284,1.1562159,JUM
2612761273000,1.460012,-1.30616764597855,-0.211470861424417,4.22370557092184,-0.49846604,-1.8570304,-0.84116143,151.4835,100.13061,0.97574896,JUM
2612766236000,1.464975,-1.26716181351183,-0.443747241220423,3.83177825118306,-0.50762904,-1.7626517,-0.786489,151.06894,99.97416,0.7483546,JUM
2612771264000,1.470003,-1.33212429358655,-0.718588491033624,3.23712165865504,-0.51251596,-1.6126842,-0.752586,150.6697,99.82806,0.5017785,JUM
2612776274000,1.475013,-1.4108073280669,-0.998426169827841,2.6179493254304,-0.4999932,-1.4074335,-0.72418076,150.30597,99.74033,0.26556635,JUM
2612781267000,1.480006,-1.58485834699459,-1.31830373405804,1.81825541485489,-0.4746423,-1.0946705,-0.691194,150.01216,99.651566,0.027497489,JUM
2612786221000,1.48496,-1.74336658479124,-1.65039650910588,0.995585306984404,-0.47769663,-0.691194,-0.67256266,149.81015,99.642,-0.20034179,JUM
2612791242000,1.489981,-1.74802464086022,-2.14880894623656,-0.159613376344086,-0.46944994,-0.21838433,-0.6560693,149.71104,99.62285,-0.4193022,JUM
2612796497000,1.495236,-1.74899940662596,-2.69798914463017,-1.39424532239015,-0.5140431,0.31215215,-0.6728681,149.74638,99.72187,-0.6233679,JUM
2612801259000,1.499998,-1.70335360380342,-3.52417874767291,-2.81839551436293,-0.627664,0.58184916,-0.6936375,149.83252,99.83667,-0.8168278,JUM
2612806493000,1.505232,-1.66529954399491,-4.43348263071188,-4.29875611150105,-0.7501425,1.07665,-0.8020661,150.00368,100.06475,-0.7780226,JUM
2612811293000,1.510032,-1.77396265882353,-5.28189068235294,-4.64982136470588,-1.3756685,1.2156218,-0.84879726,150.151,100.46846,-0.7559702,JUM
2612816506000,1.515245,-1.8919753291572,-6.20329717677062,-5.03109285740522,-1.602605,0.7602218,-0.8979719,150.30511,100.97351,-0.6279477,JUM
2612821261000,1.52,-1.94305768544601,-7.14768969827856,-4.02377745096505,-1.8591684,-0.27091873,-0.9211848,150.32953,101.66374,-0.5231656,JUM
2612826272000,1.525011,-1.98811810309859,-8.15904610488263,-2.75207154635368,-1.7391334,-1.3377949,-0.8576548,150.21422,102.30773,-0.46450058,JUM
2612831262000,1.530001,-2.19474822155616,-9.53279400322939,-2.75780918713291,-1.4941764,-1.8924606,-0.7483099,149.94713,103.01256,-0.47537383,JUM
2612836235000,1.534974,-2.4158372924614,-10.9362289052377,-2.88277256194369,-1.3582588,-1.9440787,-0.68508536,149.52544,103.70193,-0.53262913,JUM
2612841249000,1.539988,-2.82310317646943,-12.9862522224637,-2.38310653331028,-1.2834278,-1.7858646,-0.63804877,149.05348,104.10681,-0.761288,JUM
2612846200000,1.544939,-3.23996710569989,-15.0612049268004,-1.83977812971451,-1.1414018,-1.5964963,-0.5748242,148.59235,104.43551,-1.0069968,JUM
2612851260000,1.549999,-3.85990290415877,-16.2444556342874,-0.743586978799242,-0.8940013,-1.3151928,-0.55741453,148.18956,104.65994,-1.2835989,JUM
2612856215000,1.554954,-4.48932943323028,-17.2950772264885,0.392220210409893,-0.64934975,-0.7825184,-0.5635232,147.92102,104.832954,-1.5236249,JUM
2612861295000,1.560034,-4.69042634035259,-17.8828013442703,1.75924351371205,-0.548557,-0.052839845,-0.5384777,147.69731,104.82635,-1.8246592,JUM
2612866217000,1.564956,-4.83354566278159,-18.3952606047992,3.1073353290617,-0.5170974,0.6713409,-0.3662137,147.63702,104.78649,-2.0999737,JUM
2612871259000,1.569998,-3.35185284450413,-18.6983813294539,3.15831341467224,-0.34422258,1.1261301,-0.09987647,147.59738,104.53602,-2.500085,JUM
2612876235000,1.574974,-1.6074241520939,-18.9590978916741,2.97818211567691,0.0852157,1.4611896,0.018325957,147.72694,104.23811,-2.829092,JUM
2612881268000,1.580007,0.338088244682064,-19.1085782321072,0.8205715249501,0.5662721,2.037541,0.058337633,147.95828,103.77644,-3.184153,JUM
2612886580000,1.585319,2.4269298772265,-19.2439663237335,-1.84366861343979,0.83291477,2.763249,0.0421497,148.32646,103.306755,-3.4967606,JUM
2612891263000,1.590002,3.79349252806854,-19.3203139030114,-2.46400698006231,0.745561,2.9410107,-0.03848451,148.82191,102.81395,-3.4728572,JUM
2612896228000,1.594967,5.11182515844237,-19.3894392830737,-2.6466973258567,0.58551437,2.698192,-0.06566802,149.39716,102.29794,-3.441141,JUM
2612901273000,1.600012,5.88398000118847,-19.42982489175,-1.64734551279588,0.56046885,1.6545285,-0.06047566,150.00682,102.01065,-3.048164,JUM
2612906304000,1.605043,6.52340181479647,-19.4632277022878,-0.378045339308705,0.63316184,0.34055737,0.06872234,150.45752,101.766396,-2.7333565,JUM
2612911477000,1.610216,6.18528074506184,-19.4808020138453,-0.264202829381577,0.73731434,-0.6017023,0.27305678,150.7982,101.541145,-2.308672,JUM
2612916274000,1.615013,5.65947747498616,-19.4935233177958,-0.412615040138453,0.75869465,-1.0332786,0.43585235,150.90602,101.34152,-1.9808378,JUM
2612921311000,1.62005,4.63200570861274,-19.5048128346605,-0.58829327052808,0.7654142,-1.1233811,0.5403103,150.86725,100.99851,-1.6799649,JUM
2612926279000,1.625018,3.35084080542749,-19.5147826695306,-0.772741118507963,0.7315111,-1.0714576,0.605062,150.74733,100.68112,-1.447817,JUM
2612931251000,1.62999,1.94634964570168,-19.5209902955092,-0.847810431712109,0.69058317,-0.95172805,0.64996064,150.58542,100.39556,-1.3303227,JUM
2612936246000,1.634985,0.48863217840016,-19.525786016239,-0.881376320996391,0.70646566,-0.7837401,0.7107417,150.45229,100.11478,-1.2403414,JUM
2612941249000,1.639988,-1.15887949966465,-18.9350244269838,-1.15454389877559,0.73853606,-0.5729916,0.786489,150.28957,99.8712,-1.320115,JUM
2612946233000,1.644972,-2.8711953567752,-18.1207433850653,-1.51748037241178,0.7654142,-0.34788775,0.8750645,150.18079,99.63491,-1.4131571,JUM
2612951267000,1.650006,-3.59444474306393,-17.1735597587455,-1.77120090386007,0.7968737,-0.13255776,0.9798279,149.99954,99.43014,-1.7002621,JUM
2612956259000,1.654998,-3.82511990446321,-16.1739674595899,-1.96823591664656,0.82650065,0.050701816,1.0760391,149.87636,99.23872,-1.9942561,JUM
2612961283000,1.660022,-3.88152470920342,-15.238988204695,-2.06924872572439,0.86620694,0.16676621,1.1881329,149.67929,99.16391,-2.5188007,JUM
2612966263000,1.665002,-3.85810242062666,-14.344256194087,-2.1254623161379,0.874759,0.17684549,1.2977833,149.50891,99.12994,-3.0499902,JUM
2612971259000,1.669998,-3.69531557631999,-13.5255122570571,-2.15686976093032,0.8567385,0.06047566,1.3881912,149.32832,99.16568,-3.6151564,JUM
2612976255000,1.674994,-3.45750040074088,-12.7492478050267,-2.17481806546,0.8167268,-0.09682214,1.4388931,149.14146,99.2462,-4.185349,JUM
2612981267000,1.680006,-3.14015047986251,-11.8927881304072,-2.21501665658382,0.7504479,-0.2742785,1.4541647,148.91959,99.390114,-4.761467,JUM
2612986259000,1.684998,-2.75081450033845,-10.9674830482285,-2.27569229148599,0.7165449,-0.40042216,1.432479,148.6689,99.56501,-5.33142,JUM
2612991235000,1.689974,-2.29209651061738,-10.0272454903657,-2.26335374601848,0.68691796,-0.4334089,1.4074335,148.4115,99.77447,-5.8696785,JUM
2612996269000,1.695008,-1.78497574522218,-9.06513782933543,-2.20648048304168,0.67011917,-0.453262,1.3991868,148.12411,100.00556,-6.399394,JUM
2613001259000,1.699998,-1.25496429814759,-8.13928548331336,-2.07322378415219,0.657291,-0.39492437,1.368949,147.87306,100.243355,-6.8689394,JUM
2613006256000,1.704995,-0.705397716187338,-7.23130588274416,-1.88684900748951,0.63132924,-0.26053402,1.3402383,147.64066,100.494514,-7.324931,JUM
2613011276000,1.710015,-0.201611519100069,-6.35574148701966,-1.62519729304554,0.6081163,-0.05681047,1.3234396,147.47543,100.72874,-7.716483,JUM
2613016268000,1.715007,0.265931157877112,-5.51038640350687,-1.31350219807369,0.58276546,0.16279559,1.287093,147.35316,100.96113,-8.080877,JUM
2613021284000,1.720023,0.670668147449241,-4.70771113167751,-1.01145281343387,0.5540548,0.3717115,1.2473868,147.31662,101.1601,-8.3785715,JUM
2613026289000,1.725028,1.02498454828701,-3.9423879292332,-0.718551265010842,0.50915617,0.54641896,1.1847731,147.33038,101.35299,-8.645417,JUM
2613031278000,1.730017,1.27981955765548,-3.18719819334558,-0.419550115762066,0.50335294,0.71593404,1.1081096,147.40445,101.49314,-8.846507,JUM
2613036266000,1.735005,1.45077007484283,-2.43871219988393,-0.114611385833059,0.47219884,0.8503244,1.026559,147.5143,101.628426,-9.016657,JUM
2613041287000,1.740026,1.59047353672021,-1.70594693576765,0.191593374275308,0.45937067,0.95294976,0.93584555,147.73373,101.70442,-9.141407,JUM
2613046247000,1.744986,1.69250205222264,-1.00505493128502,0.493243115149421,0.43493605,1.0177015,0.84574294,147.97348,101.76779,-9.233995,JUM
2613051276000,1.750015,1.80934160822446,-0.305852753523238,0.818815944849004,0.42271876,1.0485502,0.75869465,148.25545,101.791504,-9.303194,JUM
2613056288000,1.755027,1.95326651796959,0.36751019790105,1.1837683370529,0.42088616,1.0491611,0.6762278,148.54013,101.79636,-9.342315,JUM
2613061250000,1.759989,2.13518598028225,0.913603032759484,1.5014469445601,0.41599923,0.9947941,0.5876524,148.75943,101.7671,-9.351959,JUM
2613066275000,1.765014,2.36638662761485,1.32302093061756,1.7711811085577,0.41386122,0.8597928,0.50976706,148.9491,101.72012,-9.340403,JUM
2613071905000,1.770644,2.66004896455696,1.61714695063291,1.94881958734177,0.41233405,0.6597345,0.44257188,149.11435,101.63849,-9.32144,JUM
2613076262000,1.775001,2.91175934352255,1.72855968905261,1.99833634082278,0.39278635,0.43218717,0.38453966,149.22714,101.54403,-9.285964,JUM
2613081235000,1.779974,3.2166577935634,1.70610685744475,1.96404930426522,0.37843102,0.21166481,0.31795537,149.31456,101.40303,-9.228514,JUM
2613086300000,1.785039,3.55050453241567,1.48510970316983,1.8088810947848,0.34605515,-0.0009162979,0.22388211,149.3338,101.246956,-9.151388,JUM
2613091223000,1.789962,3.85765219692246,1.15552674740208,1.58262472324141,0.31856623,-0.09193522,0.16798794,149.35071,101.05512,-9.032177,JUM
2613096275000,1.795014,4.14287808157474,0.618915503277378,1.22004957875699,0.2864958,-0.23793201,0.040927973,149.28499,100.82853,-8.871505,JUM
2613101192000,1.799931,4.34495651381658,0.060118716670004,0.839367606552863,0.20769419,-0.344528,-0.13500121,149.23094,100.559425,-8.61735,JUM
2613106297000,1.805036,4.41837896676011,-0.585999329235082,0.3939377469163,0.11209377,-0.41172317,-0.30909783,149.14531,100.26871,-8.328056,JUM
2613111246000,1.809985,4.414413144508,-1.1651663994571,-0.0240938154571013,0.025961773,-0.4456262,-0.48197266,149.07027,99.95017,-7.924872,JUM
2613116343000,1.815082,4.2819107122443,-1.68097978523509,-0.431065863235094,-0.03390302,-0.45662177,-0.63071835,148.98767,99.62017,-7.4806633,JUM
2613121205000,1.819944,4.12460452701935,-2.11981521737416,-0.794251559438892,-0.07238753,-0.41874814,-0.7504479,148.95628,99.33155,-6.972684,JUM
2613126301000,1.82504,3.88745574036857,-2.45540295992482,-1.11641580163198,-0.108123146,-0.35613444,-0.840856,148.941,99.05704,-6.4345236,JUM
2613131235000,1.829974,3.64980689402842,-2.76723572988997,-1.41240867507745,-0.13072516,-0.2678644,-0.9166033,148.97392,98.83629,-5.866809,JUM
2613136304000,1.835043,3.34902707624185,-2.99541361605598,-1.60428546005769,-0.13255776,-0.17654006,-0.97310835,149.03627,98.64721,-5.280872,JUM
2613141284000,1.840023,3.03904604219959,-3.18379734009402,-1.73804174435413,-0.14569137,-0.0870483,-1.0366384,149.16135,98.54256,-4.7070584,JUM
2613146305000,1.845044,2.68585967744589,-3.27327125522476,-1.71920515134659,-0.16035213,-0.025045475,-1.0980303,149.31078,98.477554,-4.118757,JUM
2613151260000,1.849999,2.30237247339946,-3.32882177106502,-1.65903375333133,-0.20830505,0.040011674,-1.151481,149.48706,98.48083,-3.5510275,JUM
2613156292000,1.855031,1.78575259675383,-3.26605476791905,-1.44659189908827,-0.28405234,0.07727446,-1.1908818,149.67548,98.53655,-2.971524,JUM
2613161332000,1.860071,1.25491071694433,-3.17060947577093,-1.20462949560272,-0.37904188,0.09285152,-1.2131784,149.86319,98.67339,-2.4624135,JUM
2613166321000,1.86506,0.685661206564878,-2.96969783039648,-0.86977690649179,-0.4810564,0.09132435,-1.212873,150.05872,98.86585,-1.950264,JUM
2613171295000,1.870034,0.12031808029584,-2.75560355811575,-0.532218706763824,-0.59223384,0.06719518,-1.1859949,150.21445,99.076454,-1.544714,JUM
2613176720000,1.875459,-0.488298289926536,-2.4719264681227,-0.150544022538668,-0.6872234,0.06414085,-1.1459832,150.37787,99.32879,-1.1440772,JUM
2613181280000,1.880019,-0.980158941665005,-2.2281876880658,0.145314433354337,-0.7812967,0.067500606,-1.0861185,150.47668,99.57269,-0.8812461,JUM
2613186294000,1.885033,-1.44932891967099,-1.94094082702891,0.379899415358724,-0.8512407,0.06688975,-1.0115929,150.57672,99.84024,-0.63570815,JUM
2613191238000,1.889977,-1.88779679869565,-1.66965379521739,0.576398854347826,-0.9104946,0.07513642,-0.96944314,150.61383,100.077354,-0.5252233,JUM
2613196293000,1.895032,-2.23710651086031,-1.44125893485661,0.634617163089732,-0.9309586,0.0852157,-0.89736104,150.65543,100.319084,-0.44529516,JUM
2613201437000,1.900176,-2.59353445272349,-1.2202166233264,0.673809004532225,-0.9492846,0.10995574,-0.8213083,150.6059,100.50741,-0.44453275,JUM
2613206268000,1.905007,-2.93980476417879,-1.14807698766112,0.47181801462578,-0.95630956,0.13927728,-0.7770206,150.56259,100.69441,-0.45793232,JUM
2613211325000,1.910064,-3.2847179931715,-1.09617680118413,0.238008309986185,-0.89858276,0.18600847,-0.74097955,150.45665,100.83377,-0.53872025,JUM
2613216353000,1.915092,-3.50804077588317,-1.20546242036708,-0.146867054904283,-0.79626286,0.2883284,-0.71837753,150.37637,100.96057,-0.6283328,JUM
2613221242000,1.919981,-3.68640563937491,-1.37484420642401,-0.4851814670679,-0.68294734,0.41050145,-0.6789767,150.28017,101.083046,-0.7874388,JUM
2613226297000,1.925036,-3.45178544274764,-2.23192604359824,-0.446876133995846,-0.60139686,0.5305365,-0.634689,150.2139,101.186646,-0.953727,JUM
2613231203000,1.929942,-3.22408085626824,-3.06374473661045,-0.409699879979724,-0.5216789,0.5323691,-0.5635232,150.14415,101.30882,-1.1719166,JUM
2613236311000,1.93505,-2.98700074462193,-3.92981279284902,-0.370992928183077,-0.48380527,0.34300083,-0.49510628,150.05733,101.42478,-1.4103912,JUM
2613241434000,1.940173,-2.70928356233253,-4.86834286090602,-0.344740124915663,-0.4804455,0.023518313,-0.44623706,149.93799,101.53425,-1.6749538,JUM
2613246303000,1.945042,-1.99467293920964,-6.54925085952771,-0.461594717012048,-0.5714644,-0.30757064,-0.44868052,149.76233,101.66564,-1.9589529,JUM
2613251621000,1.95036,-1.20941313059554,-8.42241069263336,-0.604052450330229,-0.7623598,-0.61117065,-0.47555858,149.58191,101.788414,-2.206889,JUM
2613256299000,1.955038,-0.417009619766676,-10.8670598171041,-1.04661821187694,-0.95111716,-0.8698721,-0.51159966,149.31975,101.93348,-2.4647808,JUM
2613261345000,1.960084,0.437729182209051,-13.5040199458086,-1.52399889438329,-0.9477574,-1.044885,-0.56199604,149.0686,102.04677,-2.547036,JUM
2613266367000,1.965106,0.797509174924377,-15.1466467574841,-1.78858026650673,-0.6973027,-0.93279123,-0.6020077,148.82869,102.133804,-2.6187427,JUM
2613271243000,1.969982,1.07027486296026,-16.5884088035882,-2.01263778143319,-0.31856623,-0.44318274,-0.58551437,148.65192,102.17678,-2.679306,JUM
2613276251000,1.97499,1.10856811966591,-17.3240002520881,-1.04677331928626,0.0067195175,0.08857546,-0.46211955,148.60008,102.15761,-2.5111048,JUM
2613281239000,1.979978,1.12670368473804,-17.9950159703872,0.014157971241458,0.19364429,0.42088616,-0.20066923,148.64114,102.08655,-2.3782597,JUM
2613286257000,1.984996,1.81538196450782,-18.5196886020239,-0.301495844820607,0.22724187,0.45631635,-0.09162979,148.7673,101.96596,-2.171429,JUM
2613291249000,1.989988,2.65102223622815,-19.0078786472861,-0.926026985354186,0.2049453,0.44868052,-0.092240654,148.97862,101.8294,-1.9987426,JUM
2613296273000,1.995012,2.48806477542238,-19.2416916697482,-1.2580205513548,0.065973446,0.59559363,-0.06566802,149.15337,101.58128,-1.8858327,JUM
2613301270000,2.000009,1.77615926686856,-19.3332226283073,-1.42582683083626,-0.04917465,0.74128497,-0.032375857,149.32523,101.347755,-1.7795957,JUM
2613306249000,2.004988,1.90418996338993,-19.3863647344202,-1.75702251470191,-0.04917465,0.6563747,0.0018325958,149.436792902359,101.254788392555,-1.67115375397631,JUM
2613311317000,2.010056,2.29749135536369,-19.4285040348254,-2.14564170243102,0.16371189,0.56382865,0.14294247,149.55035,101.16016,-1.5607734,JUM
2613316248000,2.014987,2.80561455827392,-19.4563612637899,-2.25394909448405,0.29565877,0.63499445,0.36713,149.88358,101.03996,-1.3584453,JUM
2613321256000,2.019995,3.37700311692308,-19.4788568615385,-2.24495085538462,0.39461896,0.72143185,0.6081163,150.12088,100.90086,-1.3363469,JUM
2613326265000,2.025004,3.45108515827238,-19.4945609748279,-1.9443915796364,0.46792278,0.6927212,0.84391034,150.39825,100.79616,-1.3115022,JUM
2613331268000,2.030007,3.13152924322289,-19.504869436747,-1.41351650075301,0.47342056,0.5015204,1.0598512,150.6572,100.6955,-1.3576791,JUM
2613336258000,2.034997,2.41100303032308,-19.5112101253406,-0.847761758084858,0.4868596,0.14263703,1.2043208,150.88828,100.57874,-1.368765,JUM
2613341243000,2.039982,1.51900684523161,-19.5158555476839,-0.267035036880109,0.5030475,-0.3295618,1.2415836,151.02966,100.46821,-1.4315945,JUM
2613346268000,2.045007,0.672472569910625,-19.3150442772592,0.129687281572989,0.50610185,-0.79473567,1.2235631,151.02939,100.30931,-1.5894498,JUM
2613351262000,2.050001,-0.139676804071499,-19.0015837418073,0.419401391658391,0.50885075,-1.1746938,1.1746938,150.91624,100.15469,-1.7678928,JUM
2613356240000,2.054979,-0.774776992733168,-18.3483882494755,0.435307257638756,0.5002986,-1.4312572,1.0903945,150.61714,99.94908,-2.0780435,JUM
2613361288000,2.060027,-1.31418337716956,-17.4816496341789,0.287777291321762,0.5140431,-1.4990633,0.9746355,150.26201,99.74831,-2.3671722,JUM
2613366255000,2.064994,-1.66223308237522,-16.4681030234871,0.0298886248413676,0.5519168,-1.3826935,0.86254174,149.81859,99.543594,-2.740107,JUM
2613371255000,2.069994,-1.85269898823752,-15.3071678023487,-0.328368667515863,0.59864795,-1.1490375,0.7883216,149.39088,99.34883,-3.0789185,JUM
2613376284000,2.075023,-1.92442100594028,-13.9539340476493,-0.542771928589581,0.68966687,-0.7809912,0.74464476,148.99979,99.19687,-3.4479322,JUM
2613381268000,2.080007,-1.83344743753706,-12.3618964686573,-0.557934181194409,0.7797695,-0.57543504,0.7651087,148.63324,99.0552,-3.8024352,JUM
2613386279000,2.085018,-1.74281288186417,-10.8863069099766,-0.437699094587354,0.8390234,-0.19822577,0.7968737,148.42154,98.98267,-4.144271,JUM
2613391246000,2.089985,-1.65369247854801,-9.53167712388759,-0.201530104899297,0.86315256,0.030848695,0.87689704,148.2301,98.926544,-4.4965296,JUM
2613396235000,2.094974,-1.52036484588636,-8.26350699211344,0.0534617840324682,0.8900307,0.077579886,0.9663888,148.09805,98.90377,-4.846204,JUM
2613401260000,2.099999,-1.31782103939272,-7.13022582716705,0.337987657316364,0.8915578,-0.060170226,1.0390818,147.97704,98.91136,-5.2058916,JUM
2613406243000,2.104982,-1.06957549378405,-6.13510402905242,0.621493430656426,0.8921687,-0.29229903,1.1178834,147.83481,98.94732,-5.594771,JUM
2613411338000,2.110077,-0.742743529664196,-5.31584527478789,0.913463304345807,0.88117313,-0.56321776,1.1801916,147.63905,99.018295,-6.0003066,JUM
2613416328000,2.115067,-0.408237474273267,-4.51810601029703,1.19490101528713,0.8552113,-0.83260936,1.2449434,147.3794,99.110115,-6.423149,JUM
2613421260000,2.119999,-0.0107336123049505,-3.75115754772277,1.45210940546535,0.7861836,-1.0366384,1.2819008,147.05832,99.24367,-6.857991,JUM
2613426301000,2.12504,0.392680686151815,-2.98700939590759,1.70434922679868,0.68325275,-1.2064588,1.3136657,146.72041,99.366104,-7.2815022,JUM
2613431711000,2.13045,0.807946552214993,-2.28838551321075,1.90953938031117,0.5873469,-1.2913691,1.3008375,146.34435,99.5208,-7.7026134,JUM
2613436519000,2.135258,1.17268375172762,-1.67291854912912,2.07186245071732,0.48899764,-1.2925909,1.2699889,145.96281,99.66511,-8.086657,JUM
2613441239000,2.139978,1.47866168585573,-1.13403209578501,1.98965948769448,0.4297437,-1.1960741,1.1890492,145.57956,99.81962,-8.448959,JUM
2613446422000,2.145161,1.80812919424658,-0.555297392000945,1.89615531398205,0.3811799,-1.0345002,1.0906999,145.22484,99.9482,-8.754249,JUM
2613451254000,2.149993,2.0354608939726,-0.174953845593765,1.76937408771847,0.33322698,-0.88514376,0.9783007,144.88861,100.07055,-9.027462,JUM
2613456244000,2.154983,2.27022603917808,0.217826431014643,1.63844728327822,0.25992316,-0.81306165,0.8579602,144.58427,100.17699,-9.236904,JUM
2613461340000,2.160079,2.41981137788861,0.230289163059019,1.07617671710308,0.17928895,-0.7825184,0.7089091,144.30664,100.25692,-9.401997,JUM
2613466630000,2.165369,2.5660045259848,0.188196687567381,0.448509212503702,0.084910266,-0.7110472,0.548557,144.05827,100.31448,-9.525808,JUM
2613471256000,2.169995,2.6797235626123,-0.0961008720317899,-0.176945420441307,-0.004886922,-0.6160576,0.38026363,143.83582,100.35352,-9.587859,JUM
2613476588000,2.175327,2.81024702437296,-0.427585614242094,-0.895927489694657,-0.082161374,-0.5027421,0.18906279,143.71622,100.32535,-9.543162,JUM
2613481268000,2.180007,2.91207240932388,-0.806376036052345,-1.48244164236641,-0.15027285,-0.42943826,-0.038179077,143.61246,100.25127,-9.437434,JUM
2613486252000,2.184991,3.02051209278444,-1.2097716476554,-2.10705415025445,-0.17745635,-0.25900686,-0.15851954,143.6502,100.13554,-9.238624,JUM
2613491240000,2.189979,2.99807851752787,-1.57074009892796,-2.69244615051458,-0.23976462,-0.08735373,-0.39553526,143.70511,99.94707,-8.936759,JUM
2613496197000,2.194936,2.93700799056604,-1.91680693207547,-3.26243865660377,-0.3005457,0.06811147,-0.5992588,143.80507,99.74781,-8.603423,JUM
2613501834000,2.200573,2.67229532021308,-2.03648995140894,-3.4839227628597,-0.3408628,0.17867808,-0.8219192,144.00526,99.50151,-8.129533,JUM
2613506216000,2.204955,2.45083005248432,-2.10752599796873,-3.62181618287364,-0.35155296,0.21197024,-0.8784242,144.22617,99.27869,-7.639422,JUM
2613511339000,2.210078,2.14858454735605,-2.05646082250294,-3.45914595703094,-0.3399465,0.17195857,-0.9776898,144.48471,99.06217,-7.0483036,JUM
2613516240000,2.214979,1.85443067391304,-1.99211460869565,-3.2661074115942,-0.32162055,0.09896017,-1.0509937,144.73732,98.89268,-6.446325,JUM
2613521258000,2.219997,1.69997086565858,-1.88865640998806,-2.91497530425786,-0.29565877,0.02321288,-1.1417072,144.9599,98.78639,-5.8466377,JUM
2613526232000,2.224971,1.57202159375249,-1.77966257111023,-2.5406053040191,-0.2770274,-0.042760566,-1.2003502,145.15683,98.7306,-5.2369494,JUM
2613531304000,2.230043,1.52277839668702,-1.70889873049745,-2.03404917215494,-0.2782491,-0.098043874,-1.2421945,145.29117,98.72237,-4.674458,JUM
2613536197000,2.234936,1.48994730209188,-1.64792673965569,-1.52282249854869,-0.28710666,-0.17348573,-1.2739595,145.39468,98.75745,-4.102434,JUM
2613541295000,2.240034,1.41053423936202,-1.58428275224195,-0.96456859246464,-0.33078352,-0.2574797,-1.3161092,145.4497,98.80942,-3.5648956,JUM
2613546213000,2.244952,1.32549294703581,-1.52286399178453,-0.421248849894673,-0.40317106,-0.3454443,-1.3359623,145.47997,98.91497,-3.0297368,JUM
2613551302000,2.250041,1.11396873043478,-1.46059054061888,0.0892128596278887,-0.47678033,-0.42424592,-1.3552046,145.49599,99.03026,-2.552529,JUM
2613556269000,2.255008,0.885724282608696,-1.40003594281238,0.578308047992558,-0.5537493,-0.48808134,-1.3625349,145.49432,99.19733,-2.0793781,JUM
2613561382000,2.260121,0.572487730175233,-1.36905213930494,1.01115328059716,-0.6160576,-0.5366451,-1.357648,145.52211,99.37077,-1.7156465,JUM
2613566292000,2.265031,0.254864002353402,-1.34603594351444,1.41163532768478,-0.6579019,-0.58368176,-1.3326025,145.53763,99.57429,-1.3602865,JUM
2613571534000,2.270273,-0.139359350476285,-1.32116041175301,1.75434397506215,-0.6795876,-0.6169739,-1.3063353,145.38074,99.66257,-0.9776353,JUM
2613576324000,2.275063,-0.513385226413443,-1.298353972457,2.04626668382221,-0.66706485,-0.636827,-1.2776246,145.21964,99.76955,-0.6072903,JUM
2613581302000,2.280041,-0.809980687381023,-1.24936544561195,1.97690048529732,-0.63407815,-0.6224717,-1.2565498,145.01746,99.816246,-0.33790335,JUM
2613586315000,2.285054,-1.08073227674879,-1.19236510108835,1.79402436548432,-0.61483586,-0.5885687,-1.2189816,144.82152,99.87007,-0.08496076,JUM
2613591250000,2.289989,-1.34727109452854,-1.13625165600079,1.61399371492035,-0.5543602,-0.48563787,-1.1798862,144.67538,99.86205,0.0040929904,JUM
2613596293000,2.295032,-1.61964298066093,-1.07891019630949,1.43002318385772,-0.49418998,-0.30482176,-1.1346822,144.56453,99.84848,0.08210231,JUM
2613601295000,2.300034,-1.99454987881997,-0.958564516691881,1.10746130157842,-0.49388456,-0.098043874,-1.0699304,144.49374,99.834694,0.1459818,JUM
2613606295000,2.305034,-2.4098828591528,-0.813680906001009,0.73076393899647,-0.54000485,0.09162979,-0.9819659,144.47227,99.817184,0.19513887,JUM
2613611377000,2.310116,-3.16408307936586,-0.743806843840188,-0.272176119323648,-0.6206391,0.2443461,-0.895223,144.4629,99.84732,0.12581046,JUM
2613616305000,2.315044,-4.00725575230195,-0.702111474604889,-1.45354438058211,-0.65484756,0.3368922,-0.78801614,144.49178,99.87561,0.030826356,JUM
2613621293000,2.320032,-4.10597952269539,-1.02080564397787,-2.42950182881138,-0.6453791,0.4428773,-0.6462954,144.44295,99.93369,-0.08152687,JUM
2613626314000,2.325053,-3.88268130060271,-1.49590833072819,-3.31794394133979,-0.68752885,0.54458636,-0.4801401,144.42535,100.016655,-0.23053658,JUM
2613631282000,2.330021,-3.58322363902512,-2.11355021883971,-3.81636046537081,-0.91446525,0.48838675,-0.3998113,144.3542,100.327515,-0.53977054,JUM
2613636291000,2.33503,-3.24372143809809,-2.80689977356459,-4.13673584573365,-1.2632693,0.15760323,-0.3567453,144.24257,100.69737,-0.89912367,JUM
2613641296000,2.340035,-2.92878350361446,-3.80914601679834,-3.69107513194746,-1.5738943,-0.45356745,-0.32406402,144.10669,101.280205,-1.2055507,JUM
2613646301000,2.34504,-2.62583628072289,-4.96413201368754,-2.86743753343867,-1.7003434,-1.1710287,-0.25167647,143.85486,101.91754,-1.5655394,JUM
2613651295000,2.350034,-2.32509365341893,-6.31603599579974,-2.36104277253907,-1.6136005,-1.7131716,-0.1994475,143.5316,102.62377,-1.8631,JUM
2613656294000,2.355033,-2.02489556828904,-7.77890619790982,-2.02748926169006,-1.4239268,-1.8805487,-0.19517145,143.11751,103.33518,-2.1936924,JUM
2613661342000,2.360081,-1.87308256909233,-10.0823390696401,-1.92994391392801,-1.3112222,-1.6462818,-0.13988814,142.68484,103.83786,-2.5461094,JUM
2613666330000,2.365069,-1.8076710279734,-12.8202792977308,-1.96732190954617,-1.2880094,-1.1869112,-0.05375614,142.27821,104.30474,-2.900437,JUM
2613671295000,2.370034,-1.87965241307246,-14.7252695376812,-1.63538455183575,-1.176221,-0.7648033,0.027183503,142.06708,104.52415,-3.2330055,JUM
2613676328000,2.375067,-2.04730485252174,-16.0897741913044,-1.04394407855072,-0.8436049,-0.6078109,0.014660766,141.90704,104.66517,-3.5313704,JUM
2613681294000,2.380033,-2.42449577901525,-17.1030998755246,-0.911540632275566,-0.47403142,-0.35094208,-0.012217305,141.87537,104.65452,-3.7654803,JUM
2613686283000,2.385022,-2.99672483539769,-17.8171632041151,-1.19031899658102,-0.3643811,0.082161374,-0.092240654,141.92902,104.6302,-3.9370995,JUM
2613691234000,2.389973,-2.86948337003793,-18.3174223250997,-1.00211514028591,-0.30268374,0.6554584,-0.09560041,141.98074,104.42639,-4.123072,JUM
2613696304000,2.395043,-2.18009861276865,-18.6621152707381,-0.435497462409802,-0.45112398,1.0461067,-0.03634648,142.09938,104.27722,-4.2691703,JUM
2613701296000,2.400035,-1.06032973441805,-18.6816260065881,-0.333578406859653,-0.5858198,0.9691377,0.03940081,142.20747,104.15376,-4.485339,JUM
2613706269000,2.405008,0.475208663246157,-18.3963858858056,-0.666357627766021,-0.50823987,0.7654142,0.18936823,142.39424,104.04717,-4.697383,JUM
2613711385000,2.410124,2.28227209130308,-18.4173041882548,-1.32736142871056,-0.32803464,0.7644979,0.27122417,142.62831,103.88379,-4.7803392,JUM
2613716316000,2.415055,4.23227710095442,-18.7254422245812,-2.25637316213479,-0.16310102,1.0360274,0.23793201,142.8805,103.72492,-4.8584614,JUM
2613721309000,2.420048,6.12374306718598,-18.9651708437196,-2.5849320291334,-0.059253927,1.4798211,0.07574729,143.25323,103.57117,-4.6354585,JUM
2613726316000,2.425055,7.92132432229796,-19.1192494459591,-2.18339442091529,0.012217305,1.7742581,-0.19761491,143.64357,103.37969,-4.374682,JUM
2613731244000,2.429983,9.3550199393187,-19.2425074083822,-1.70742320856093,0.11056661,1.7211128,-0.4437936,144.22408,103.217026,-3.7383175,JUM
2613736303000,2.435042,10.2981147099017,-19.3243060472738,-1.09152485254742,0.28496864,1.3888022,-0.48930305,144.78458,103.04003,-3.1159225,JUM
2613741208000,2.439947,10.2830312986817,-19.3880588250981,-0.486083890731609,0.45142943,0.9477574,-0.26419923,145.38815,102.82171,-2.2943664,JUM
2613746242000,2.444981,8.67717516685116,-19.4268713349099,0.149466436107477,0.5186246,0.39461896,-0.1151481,145.83946,102.62555,-1.513148,JUM
2613751190000,2.449929,6.98395634408369,-19.4576173120497,0.757094175032073,0.5519168,-0.35796702,0.016187929,146.13953,102.39146,-0.76038456,JUM
2613756834000,2.455573,4.83960585258068,-19.4789540048357,1.41853555034047,0.6267477,-1.1612549,0.13133603,146.26353,102.17227,-0.12152964,JUM
2613761311000,2.46005,3.16618977362096,-19.4922550323575,1.62368929876733,0.6627888,-1.7220291,0.23365596,146.11438,101.87371,0.20881473,JUM
2613766308000,2.465047,1.34119935053544,-19.5014723414869,1.3563927718124,0.67347896,-1.9220876,0.3371976,145.84619,101.57598,0.46578133,JUM
2613771193000,2.469932,-0.328678924534398,-19.3837089180206,1.02707013474144,0.7312057,-1.8829921,0.4361578,145.34813,101.14187,0.41592112,JUM
2613776253000,2.474992,-1.75485936872714,-18.9248109364033,0.505187033859437,0.7846564,-1.5650368,0.47342056,144.87881,100.7157,0.3600745,JUM
2613781261000,2.48,-3.11569445589853,-18.3658303875306,0.0496518790627547,0.94806284,-0.9584476,0.54061574,144.39468,100.252426,0.054182187,JUM
2613786259000,2.484998,-4.14457476231663,-17.1272734413203,-0.00886264382233089,1.1759156,-0.28863382,0.6267477,144.02762,99.775,-0.23926559,JUM
2613791286000,2.490025,-5.12081985588235,-15.8403537164706,-0.0969398154117647,1.3946054,0.24404067,0.75777835,143.71169,99.37408,-0.72785294,JUM
2613796269000,2.495008,-5.81324556691176,-14.3712886173529,-0.321510288558824,1.5586227,0.56505036,0.92485,143.53218,98.965614,-1.2137659,JUM
2613801255000,2.499994,-6.4254868555772,-12.9506837398928,-0.524970385270336,1.5699236,0.64599,1.1304061,143.39145,98.61619,-1.834489,JUM
2613806248000,2.504987,-6.49536064378958,-11.8606517682416,-0.585527697572333,1.4462235,0.45234573,1.3439035,143.26593,98.33839,-2.484563,JUM
2613811254000,2.509993,-6.46673723552426,-10.8004742688803,-0.640408071214188,1.2522738,0.01160644,1.4996742,143.09369,98.18696,-3.2288382,JUM
2613816298000,2.515037,-5.22403318798967,-10.1344036731875,-0.623932839563438,1.0552697,-0.4801401,1.5674802,142.85428,98.17325,-4.0003076,JUM
2613821455000,2.520194,-3.953489022023,-9.45341119460144,-0.60708851568895,0.9104946,-0.8176431,1.5570955,142.5701,98.28655,-4.790675,JUM
2613827067000,2.525806,-2.57084526413954,-8.7123350282596,-0.588758024010914,0.79504114,-0.9645562,1.5274686,142.20364,98.528625,-5.5923395,JUM
2613831598000,2.530337,-1.46933675366952,-8.10925533075921,-0.574963031034611,0.7324274,-0.9807441,1.5372424,141.78476,98.86323,-6.3954043,JUM
2613836304000,2.535043,-0.660050277130629,-7.37544640388909,-0.583349431280238,0.6792821,-0.9117164,1.53205,141.34976,99.264854,-7.174791,JUM
2613841263000,2.540002,0.192744375898772,-6.60218706084853,-0.592186694097506,0.6169739,-0.77366084,1.5100589,140.97404,99.577324,-7.680224,JUM
2613846287000,2.545026,0.764426139435484,-5.82885775524194,-0.585768484596774,0.5555819,-0.6356053,1.4566082,140.61984,99.89746,-8.164541,JUM
2613851252000,2.549991,1.2677153565121,-5.06673415917339,-0.576182010544355,0.49174652,-0.514654,1.3680327,140.30106,100.21808,-8.620434,JUM
2613856308000,2.555047,1.58159363209185,-4.45635734963129,-0.654223842266405,0.41996986,-0.37323865,1.2748758,140.12158,100.455894,-8.950552,JUM
2613861257000,2.559996,1.85146505511061,-3.89006974544012,-0.747130426509848,0.3484986,-0.26419923,1.1749994,139.9653,100.67887,-9.24485,JUM
2613866262000,2.565001,1.98874177867919,-3.33922630185202,-0.781746581203361,0.28099802,-0.1881465,1.0656544,139.8927,100.84302,-9.453717,JUM
2613871204000,2.569943,2.06570580516759,-2.8047541139579,-0.790298116386304,0.23518312,-0.14569137,1.0112875,139.84047,101.00003,-9.642449,JUM
2613876235000,2.574974,2.13866119948674,-2.23527085431993,-0.814421808107357,0.2171626,-0.044898596,0.90041536,139.84586,101.105515,-9.747378,JUM
2613881271000,2.58001,2.2057028956373,-1.63705221171942,-0.855678252662532,0.20433442,0.07544186,0.7770206,139.8683,101.19576,-9.826375,JUM
2613886252000,2.584991,2.28283260758924,-1.14489243925672,-0.885777344894866,0.20433442,0.19547687,0.64751714,139.91257,101.26805,-9.868877,JUM
2613891254000,2.589993,2.36716099538386,-0.713880934885086,-0.909201894342298,0.21410827,0.25473082,0.5027421,139.9722,101.30272,-9.865534,JUM
2613896637000,2.595376,2.50118174395627,-0.281645423761112,-0.847106576387044,0.2452624,0.23518312,0.36651915,140.03397,101.31717,-9.825883,JUM
2613901261000,2.6,2.64144712472668,0.071280513993052,-0.743038677419025,0.23457226,0.14019357,0.226631,140.09064,101.29789,-9.74063,JUM
2613906237000,2.604976,2.90474283483927,0.415962907393571,-0.830503013292789,0.22296582,0.040927973,0.09743301,140.19725,101.23078,-9.615663,JUM
2613911298000,2.610037,3.24629897161888,0.743482505531422,-1.05040900845641,0.19181168,-0.055283304,-0.023823744,140.27461,101.13617,-9.452478,JUM
2613916261000,2.615,3.50873131174693,0.849132615365706,-1.19332165555108,0.14782938,-0.11789699,-0.17531833,140.3524,100.9887,-9.2347,JUM
2613921264000,2.620003,3.71146521039694,0.771900650134999,-1.2753806337296,0.11484267,-0.09865474,-0.34238997,140.42291,100.81306,-8.974978,JUM
2613926240000,2.624979,3.83296193584275,0.629020654484521,-1.25524506372482,0.05589417,-0.070249505,-0.5131268,140.52298,100.59346,-8.613644,JUM
2613931270000,2.630009,3.88977330173956,0.430180745314988,-1.15109079404423,-0.046731193,-0.06963864,-0.66339964,140.61633,100.361084,-8.206026,JUM
2613936257000,2.634996,3.85152129044923,0.192725557606644,-1.06630099305398,-0.12736541,-0.09865474,-0.8017606,140.72441,100.09767,-7.713491,JUM
2613941247000,2.639986,3.72524047750094,-0.0823862013495659,-0.998650560909777,-0.20799962,-0.12797627,-0.9184359,140.82869,99.846535,-7.1794524,JUM
2613946266000,2.645005,3.57570158803659,-0.364357677231326,-0.967294085744446,-0.27183503,-0.15302174,-1.0167851,140.92116,99.6013,-6.6047974,JUM
2613951262000,2.650001,3.39291900788177,-0.652961629824067,-0.991344398803659,-0.32895094,-0.15393804,-1.0894781,141.01074,99.38925,-6.0008945,JUM
2613956242000,2.654981,3.18491195562513,-0.915700162912543,-1.04867291397697,-0.3555236,-0.13164146,-1.1530081,141.0928,99.22394,-5.4025083,JUM
2613961291000,2.66003,2.93586954622299,-1.14520986671582,-1.15610300892749,-0.36560285,-0.06505715,-1.2153164,141.1887,99.102234,-4.7812686,JUM
2613966317000,2.665056,2.65641225875252,-1.35109214840346,-1.28257750192459,-0.37384954,0.04917465,-1.278541,141.31133,99.065865,-4.1909013,JUM
2613971263000,2.670002,2.34148939235412,-1.52512847955559,-1.43175147533024,-0.37690386,0.13225232,-1.3139712,141.44872,99.07567,-3.590762,JUM
2613976291000,2.67503,2.00740122757381,-1.7028374502271,-1.56976078378123,-0.39278635,0.33628133,-1.348485,141.65596,99.1689,-3.0182831,JUM
2613981265000,2.680004,1.59722070352006,-1.88313657236942,-1.62835801495079,-0.4147775,0.5635232,-1.3961325,141.89624,99.305275,-2.4288545,JUM
2613986480000,2.685219,1.16427507564191,-2.06816676106773,-1.67541774417106,-0.44257188,0.77671516,-1.4199562,142.17516,99.49943,-1.8786335,JUM
2613991248000,2.689987,0.733108324844743,-2.18839603261304,-1.54275102297984,-0.48655418,0.95233893,-1.4272866,142.50702,99.73955,-1.3113536,JUM
2613996204000,2.694943,0.284940871625204,-2.31336588785183,-1.40485331529871,-0.54641896,1.0506883,-1.4052955,142.83966,100.01506,-0.81046647,JUM
2614001260000,2.699999,-0.31775831402076,-2.44516182006463,-1.22417319108891,-0.6072,1.0485502,-1.350623,143.19284,100.32827,-0.31352773,JUM
2614006269000,2.705008,-0.94721486800235,-2.57669000793184,-1.03627575182139,-0.65484756,0.9425651,-1.2779301,143.54419,100.67609,0.17168045,JUM
2614011342000,2.710081,-1.63580172914541,-2.63338675535714,-0.902360589891582,-0.7067711,0.7507534,-1.1997393,143.82507,101.00438,0.5296136,JUM
2614016239000,2.714978,-2.31374359591837,-2.6682807952381,-0.787708692517007,-0.74220127,0.47800204,-1.1181889,144.05504,101.34634,0.8554907,JUM
2614021263000,2.720002,-2.95346836898374,-2.55557480316146,-0.663676474897776,-0.8051204,0.15699236,-1.0164797,144.13705,101.624306,1.0241712,JUM
2614026213000,2.724952,-3.57753190543533,-2.42792547484791,-0.540754848289618,-0.9560041,-0.1826487,-0.9245446,144.14043,101.93336,1.1531658,JUM
2614031226000,2.729965,-4.17897203032698,-1.99255482720537,-0.291076097250222,-1.1863003,-0.5766568,-0.7901542,143.96228,102.20227,1.1026365,JUM
2614036216000,2.734955,-4.773787917317,-1.52047864504594,-0.0267134554513484,-1.3961325,-0.9639453,-0.59681535,143.70062,102.501045,0.9849685,JUM
2614041263000,2.740002,-5.36427490909091,-1.24469466434938,0.0178505305002971,-1.5653422,-1.3026701,-0.33933565,143.2859,102.789764,0.6586189,JUM
2614046201000,2.74494,-5.94030009090909,-1.00585492976827,0.0272167952055853,-1.6563611,-1.5952746,-0.112399206,142.78835,103.11725,0.25896925,JUM
2614051220000,2.749959,-5.7493999333601,-1.38512595173625,-0.867861162378563,-1.6297885,-1.7983873,0.032375857,142.16713,103.40999,-0.3423977,JUM
2614056224000,2.754963,-5.41273177759936,-1.88050944675833,-1.93077143914291,-1.4990633,-1.8075503,0.1282817,141.5331,103.71819,-1.0072726,JUM
2614061232000,2.759971,-4.16788715776995,-2.99696964007808,-3.9057349661493,-1.323745,-1.5812247,0.1957823,140.86972,104.0263,-1.8369591,JUM
2614066230000,2.764969,-2.76867564184917,-4.21843101236907,-6.03417695462769,-1.2525792,-1.3866642,0.22571471,140.2032,104.3636,-2.6908164,JUM
2614071240000,2.769979,-1.20940347106328,-6.16565489493533,-6.36380635057755,-1.2284501,-0.8933904,0.24587326,139.77272,104.86202,-3.400311,JUM
2614076276000,2.775015,0.409491939618916,-8.36068680319874,-6.10192614700365,-1.1597277,-0.43860126,0.20922135,139.38992,105.34579,-4.092953,JUM
2614081928000,2.780667,1.42489063548164,-11.2074856526087,-3.57615451815464,-1.0763446,-0.23671028,0.11056661,139.31784,106.12978,-4.2868834,JUM
2614086295000,2.785034,2.02110446514207,-13.4971122695773,-1.10021113670132,-0.9978484,-0.312763,0.03023783,139.29265,106.88515,-4.464504,JUM
2614091252000,2.789991,2.22234262067602,-15.1637228861435,0.67663100077881,-0.82863873,-0.605062,-0.029932396,139.39882,107.32556,-4.2465715,JUM
2614096264000,2.795003,2.2365743626013,-16.4777882460961,2.06185483258747,-0.6200282,-0.61422503,-0.069027774,139.55171,107.71755,-4.0057545,JUM
2614101277000,2.800016,2.14047482443076,-17.3312889865142,1.13162609581745,-0.32986724,-0.043982297,-0.09560041,139.6294,107.41984,-3.7298727,JUM
2614106296000,2.805035,1.99486300590247,-17.9794962943418,-0.836482030450503,0.0870483,0.91629785,-0.1151481,139.81232,107.051765,-3.4299934,JUM
2614111350000,2.810089,2.30025473917721,-18.422990147425,-0.904942839083574,0.3811799,1.577254,-0.13103059,139.94879,106.41224,-3.18174,JUM
2614116406000,2.815145,2.84527889791812,-18.7557926974798,0.0404088221735232,0.2950479,1.6352862,0.005192355,140.19614,105.81359,-2.954539,JUM
2614121294000,2.820033,3.63487919104371,-18.8279293867083,0.518830559688671,0.15241088,1.4425583,0.1554652,140.66289,105.439316,-2.6593904,JUM
2614126299000,2.825038,4.5841108821231,-18.7680680686887,0.775379622306869,0.26206118,1.2434162,0.23090707,141.13867,105.05415,-2.3968081,JUM
2614131299000,2.830038,5.49522182988343,-18.8200505463558,0.665503032372808,0.4718934,1.0852021,0.18295415,141.53372,104.584236,-2.1063962,JUM
2614136298000,2.835037,6.35058847154374,-19.0391073907833,0.00833105586665206,0.5876524,0.8530733,0.03481932,141.84691,104.13766,-1.8444115,JUM
2614141282000,2.840021,6.86333808683744,-19.1900979609852,-0.489681492295566,0.6768387,0.4596761,-0.058643065,142.12561,103.64776,-1.454691,JUM
2614146301000,2.84504,7.11432309621675,-19.2895448720197,-0.868526787605911,0.8350528,0.024129177,0.013439035,142.32458,103.13477,-1.1108956,JUM
2614151966000,2.850705,6.9696415729183,-19.367000401414,-1.13186878959152,0.96974856,-0.36102137,0.16187929,142.50603,102.71861,-0.67238605,JUM
2614156299000,2.855038,6.63144492377258,-19.407746939513,-1.24595918136292,0.95478237,-0.7339546,0.25442538,142.56383,102.32802,-0.29249555,JUM
2614161367000,2.860106,5.74925116311451,-19.4435105457344,-1.30472082173006,0.8854492,-1.0546589,0.31887165,142.54614,102.00274,0.050862715,JUM
2614166367000,2.865106,4.40817488940312,-19.4672884780018,-1.29045396305492,0.85062987,-1.16492,0.40286562,142.48389,101.6903,0.33046517,JUM
2614171278000,2.870017,2.97117078532731,-19.3720274391997,-1.23415974188034,0.8390234,-1.258077,0.44684792,142.31058,101.41086,0.5130701,JUM
2614176380000,2.875119,1.3481699429866,-19.14423820338,-1.12975625128205,0.8313876,-1.2302825,0.54611355,142.14594,101.14832,0.6437844,JUM
2614181286000,2.880025,-0.145465311532633,-18.6760742442918,-1.04193590242978,0.82833326,-1.1737776,0.64660084,141.87852,100.85643,0.56712157,JUM
2614186295000,2.885034,-1.58001645968074,-17.8618693406749,-0.969239032420691,0.82986045,-1.0027353,0.7449502,141.65811,100.57187,0.47007078,JUM
2614191238000,2.889977,-3.11435401077461,-16.5907509075908,-1.20694537632984,0.86254174,-0.6203337,0.818254,141.41017,100.25515,0.14953348,JUM
2614196286000,2.895025,-4.8365578560862,-14.6808409405941,-1.85453162354397,0.945314,-0.15851954,0.8933904,141.24101,99.940735,-0.1768458,JUM
2614201250000,2.899989,-5.94332545982311,-13.1520397962834,-2.27198537646825,1.0204504,0.269697,0.99173975,141.08467,99.65902,-0.6954294,JUM
2614206297000,2.905036,-6.08742029398788,-12.1818025703071,-2.32962329007254,1.028697,0.52656585,1.1071932,141.01125,99.409645,-1.2090775,JUM
2614211267000,2.910006,-5.95710549087992,-11.2851131997083,-2.3075039873019,0.93431836,0.5225952,1.2009611,140.94482,99.269264,-1.8880007,JUM
2614216362000,2.915101,-5.34510692126398,-10.4691151399125,-2.14620198419057,0.8017606,0.27091873,1.2263119,140.88303,99.19745,-2.5622873,JUM
2614221201000,2.91994,-4.6613658283817,-9.7456990304968,-2.02033876743728,0.65209866,-0.0888809,1.1963795,140.80266,99.22082,-3.2452037,JUM
2614226319000,2.925058,-3.69217407044761,-9.10439298730939,-1.95283292645352,0.5137377,-0.37018433,1.1355985,140.6753,99.32869,-3.921188,JUM
2614231235000,2.929974,-2.82583788629432,-8.47396535991231,-1.8257481419939,0.3930918,-0.44409904,1.0772609,140.52794,99.49641,-4.5222864,JUM
2614236306000,2.935045,-2.1083943335875,-7.78429379698818,-1.5248846293557,0.29626966,-0.34055737,1.0198395,140.35,99.714836,-5.101969,JUM
2614241257000,2.939996,-1.448342957599,-7.09972718155144,-1.21145356100297,0.20463985,-0.1301143,0.9639453,140.19627,99.96343,-5.5572686,JUM
2614246299000,2.945038,-0.966823110288618,-6.34966733943811,-0.799383698178157,0.12003502,0.07391469,0.9034697,140.06854,100.228584,-5.9827466,JUM
2614251258000,2.949997,-0.507390121088844,-5.61071133614605,-0.403359362087221,0.03848451,0.25809056,0.8335256,139.99002,100.469246,-6.3036017,JUM
2614256302000,2.955041,-0.184047588876268,-4.8464473208925,-0.0947142294219067,-0.0106901415,0.43890667,0.7629707,139.9666,100.706894,-6.591368,JUM
2614261317000,2.960056,0.12979056456573,-4.11224486863554,0.185514012089366,-0.020463986,0.52290064,0.6921103,140.00305,100.88928,-6.8157477,JUM
2614266355000,2.965094,0.39349111510442,-3.54783283507527,0.287293176929715,0.009162978,0.6795876,0.64873886,140.10724,101.06176,-7.0114813,JUM
2614271472000,2.970211,0.663977037131783,-2.9804060724031,0.385514717744186,0.02076942,0.8570439,0.5552765,140.27614,101.15578,-7.134088,JUM
2614276310000,2.975049,0.951310967034884,-2.51348853593023,0.416941873505814,0.05100725,1.0323622,0.44898596,140.48308,101.22749,-7.231126,JUM
2614281634000,2.980373,1.26632916183185,-2.00227051034288,0.455013039164866,0.07360926,1.2018774,0.33353242,140.76411,101.251,-7.2613564,JUM
2614286293000,2.985032,1.51781817410052,-1.60827106945984,0.559800129069047,0.07941248,1.3133603,0.22540927,141.07114,101.25195,-7.2561545,JUM
2614291222000,2.989961,1.78388156570221,-1.19143843496477,0.670659877113199,0.07819075,1.3420709,0.12217305,141.41858,101.21049,-7.177242,JUM
2614296302000,2.995041,2.12684592656823,-0.822810582573831,0.855878365434361,0.063224554,1.2800682,0.032986723,141.76521,101.152534,-7.0681996,JUM
2614301609000,3.000348,2.50708761492257,-0.447665147348663,1.06339861295167,0.02687807,1.1304061,-0.05467244,142.08809,101.08072,-6.9305162,JUM
2614306302000,3.005041,2.97107956985453,-0.0722534330793055,1.23634110251525,0.0009162979,0.9275989,-0.14630222,142.3795,100.977356,-6.7380595,JUM
2614311327000,3.010066,3.46789601424683,0.329716280153918,1.42151817689348,-0.01863139,0.68386364,-0.2302962,142.58968,100.87897,-6.503239,JUM
2614316381000,3.01512,3.96211328510703,0.644317993728848,1.5103386058104,-0.014966198,0.46395215,-0.33200526,142.74593,100.76941,-6.2445126,JUM
2614321192000,3.019931,4.43177708201835,0.930812916220183,1.58078812385321,-0.014966198,0.27947086,-0.44318274,142.768052442471,100.698065608599,-6.09574082531288,JUM
2614326289000,3.025028,4.76258050590003,1.03609768997295,1.47788461937293,0.044898596,0.121256754,-0.5751296,142.79149,100.62248,-5.938125,JUM
2614331200000,3.029939,5.05938470861464,1.11147654681959,1.35539400774316,0.11178834,-0.007941248,-0.7058548,142.84991,100.46383,-5.5713406,JUM
2614336285000,3.035024,5.0607815773932,0.975648562565269,1.16609557548457,0.1853976,-0.12614368,-0.8246681,142.86552,100.209,-5.074911,JUM
2614341215000,3.039954,5.02342907551424,0.816900110241297,0.974663582852057,0.2883284,-0.20769419,-0.9282097,142.85805,99.937706,-4.5507107,JUM
2614346303000,3.045042,4.64944263790529,0.608401046907054,0.728479013784634,0.38453966,-0.24617869,-0.9868528,142.89044,99.65593,-3.9559777,JUM
2614351196000,3.049935,4.23968826101395,0.401221913007467,0.48446804112301,0.4801401,-0.23732115,-1.0027353,142.91798,99.3743,-3.3454022,JUM
2614356269000,3.055008,3.63262784762988,0.22877162626549,0.37478590320262,0.54611355,-0.24312437,-0.9941832,142.94647,99.13994,-2.7297065,JUM
2614361285000,3.060024,2.99452031244655,0.0670594313198071,0.296115116195069,0.56016344,-0.28130344,-0.9816604,142.97534,98.93523,-2.1131742,JUM
2614366368000,3.065107,2.23838794836783,-0.142135995762961,0.183865706251334,0.5558874,-0.37690386,-0.9660834,142.99591,98.795296,-1.5741551,JUM
2614371260000,3.069999,1.45372737849371,-0.367038732464903,0.0589197364881587,0.5149594,-0.5030475,-0.93462384,143.00468,98.700066,-1.0481647,JUM
2614376291000,3.07503,0.730396070544481,-0.589544917227016,-0.165025396099375,0.45265114,-0.6365216,-0.90285885,142.97058,98.66448,-0.6768601,JUM
2614381251000,3.07999,0.0425908094118814,-0.806250677020728,-0.414708131317068,0.3726278,-0.75716746,-0.84757555,142.91342,98.66654,-0.3293894,JUM
2614386297000,3.085036,-0.573685626783042,-1.06009758122693,-0.702248873950125,0.28038713,-0.8338311,-0.7812967,142.82169,98.72066,-0.1639589,JUM
2614391255000,3.089994,-1.15151913690773,-1.32059629197007,-0.995901965610973,0.18692477,-0.88606006,-0.70554936,142.71054,98.8001,-0.02328753,JUM
2614396299000,3.095038,-1.60656247926721,-1.59020270688466,-1.23173317846942,0.06627888,-0.89949906,-0.6243043,142.4975,98.8418,0.059588287,JUM
2614401294000,3.100033,-2.01175394710923,-1.85875984369152,-1.44375191372008,-0.055283304,-0.8741482,-0.52656585,142.28815,98.91079,0.112385705,JUM
2614406962000,3.105701,-2.29637914478974,-2.11276529694086,-1.53524755362727,-0.16126843,-0.78038037,-0.42241332,142.02916,98.97798,0.096807726,JUM
2614411394000,3.110133,-2.47362578750121,-2.29825609666893,-1.56822370823541,-0.23945917,-0.66248333,-0.3378085,141.78883,99.07232,0.05786024,JUM
2614416319000,3.115058,-2.48042177330857,-2.38142472222445,-1.4780717711303,-0.3036,-0.5458081,-0.26206118,141.55579,99.199455,-0.07486912,JUM
2614421293000,3.120032,-2.39435175120458,-2.40533307556716,-1.32505820987753,-0.3387248,-0.45845437,-0.20066923,141.35208,99.342865,-0.22714534,JUM
2614426270000,3.125009,-2.26119901880327,-2.3465141457507,-1.31649372282049,-0.38728857,-0.3378085,-0.16523905,141.18015,99.50547,-0.43281943,JUM
2614431290000,3.130029,-2.10296221299688,-2.24508031977382,-1.38141140194953,-0.44868052,-0.1600467,-0.14446963,141.05238,99.68614,-0.6478998,JUM
2614436295000,3.135034,-1.90490492899241,-2.1854486956557,-1.45572805416709,-0.5317582,0.04428773,-0.15943582,140.96776,99.865524,-0.8493206,JUM
2614441431000,3.14017,-1.60355991989873,-2.22529594207595,-1.55534622222785,-0.6591236,0.26419923,-0.20189096,140.93796,100.07717,-1.0414374,JUM
2614446266000,3.145005,-1.319875512,-2.262807904,-1.649126176,-0.8032878,0.48502702,-0.28008172,140.98012,100.3379,-1.1645249,JUM
2614451282000,3.150021,-1.02557127414684,-2.30172413998987,-1.74641681676962,-0.9605856,0.6936375,-0.36865717,141.07776,100.636604,-1.2635713,JUM
2614456285000,3.155024,-0.684127434355238,-2.4016913834558,-1.9920019291413,-1.1435398,0.7959574,-0.45478916,141.20287,100.97781,-1.3350095,JUM
2614461345000,3.160084,-0.246646509667017,-2.62043184765904,-2.52613549727063,-1.2275337,0.9990701,-0.5180137,141.41006,101.33162,-1.3724751,JUM
2614466297000,3.165036,0.0913077698391261,-2.90710764786495,-2.973213167428,-1.4037683,1.1291844,-0.643852,141.68358,101.804,-1.2348266,JUM
2614471289000,3.170028,0.319188225758093,-3.28690837715988,-3.32927641620655,-1.4511104,1.1533136,-0.7470882,141.97865,102.26113,-1.0791107,JUM
2614476965000,3.175704,0.325242444973325,-3.82923540533491,-3.44351196846473,-1.2883148,1.0830641,-0.7318166,142.33406,102.80925,-0.7953396,JUM
2614481297000,3.180036,0.132605000124481,-4.32927317510373,-3.30415728049793,-0.79626286,1.0903945,-0.6627888,142.70972,103.27645,-0.48981586,JUM
2614486187000,3.184926,-0.0928537532102023,-5.05561088126649,-3.05466449208443,-0.6414085,1.0742066,-0.48838675,143.09456,103.85625,-0.15153475,JUM
2614491254000,3.189993,-0.33944178649956,-6.07041541029024,-2.64684586068602,-0.4147775,0.9288206,-0.38453966,143.43999,104.275185,0.1779216,JUM
2614496202000,3.194941,-0.688105178220439,-8.22479723189115,-1.65269671965544,-0.33078352,0.6722572,-0.2929099,143.73314,104.61538,0.3738479,JUM
2614501301000,3.20004,-1.26170112656128,-12.7562053111296,0.55564783743148,-0.27488935,0.30848694,-0.15485434,143.96312,104.89344,0.5097642,JUM
2614506220000,3.204959,-1.60594298447366,-16.0792210085649,2.79121706218504,-0.18295415,-0.1414153,-0.047036625,144.08624,104.95875,0.49700668,JUM
2614511334000,3.210073,-1.46449318742157,-17.0303496304153,5.36657968873618,-0.14630222,-0.68752885,0.059864793,144.0858,105.02048,0.4176476,JUM
2614516277000,3.215016,-1.14812209578947,-17.7985585006464,6.91639089927978,-0.20952678,-1.1362094,0.19822577,143.75224,104.459694,-0.018721547,JUM
2614521288000,3.220027,-0.412550812368421,-18.2283796861496,6.31818549257618,-0.24404067,-1.185384,0.37140608,143.39014,103.93906,-0.47437567,JUM
2614526252000,3.224991,0.414816388343803,-18.5888046491176,5.61585428238109,-0.15454891,-0.6569856,0.56688297,142.93024,103.0584,-1.0141141,JUM
2614531303000,3.230042,1.91967279488982,-18.5164558354771,4.16405364732276,0.106901415,0.05955936,0.7247916,142.5219,102.2302,-1.5493507,JUM
2614536265000,3.235004,3.38750537013215,-18.4860764993993,2.71120801053507,0.52534413,0.61269784,0.8170323,142.31505,101.504845,-1.8843856,JUM
2614541286000,3.240025,4.80059819137788,-18.7349234028278,1.05815616578874,0.8668178,1.0858129,0.88789266,142.29332,100.79401,-2.2057548,JUM
2614546854000,3.245593,6.37366008290875,-19.0008683200556,-0.638053036591014,0.93676186,1.520749,0.8335256,142.6189,100.273506,-2.1491702,JUM
2614551299000,3.250038,7.69075290643817,-19.1112834377026,-0.598619154238073,0.82833326,1.6410894,0.6740898,142.97845,99.73335,-2.0857189,JUM
2614556256000,3.254995,9.15955585947198,-19.2344167871237,-0.554643056415007,0.6383542,1.5228871,0.5491679,143.60225,99.44676,-1.708328,JUM
2614561368000,3.260107,9.80908156729901,-19.3144568721269,0.167667672709023,0.5476407,0.829555,0.2959642,144.06285,99.172226,-1.303326,JUM
2614566291000,3.26503,10.2349766567299,-19.380707120546,1.01945849393757,0.4636467,-0.32406402,0.16676621,144.34123,98.972206,-0.95226103,JUM
2614571299000,3.270038,8.97231407951334,-19.419949178179,1.44325263390895,0.44837508,-1.2944235,0.18875736,144.58113,98.818886,-0.38823432,JUM
2614576218000,3.274957,7.35920554044348,-19.452303958595,1.76217661667975,0.3894266,-1.7989981,0.22571471,144.60515,98.73616,0.13716398,JUM
2614581303000,3.280042,5.54743982915388,-19.4748716564077,2.30123888646215,0.34300083,-2.0421226,0.29810223,144.41107,98.58884,0.61996454,JUM
2614586196000,3.284935,3.7621022293716,-19.4934205085601,2.88089392994557,0.34147367,-2.1380284,0.3640757,144.11029,98.47448,1.0483217,JUM
2614591244000,3.289983,2.12569870367893,-19.139008264214,3.2084864458194,0.4025602,-2.1459696,0.42394048,143.62807,98.251625,1.1995509,JUM
2614596244000,3.294983,0.576038414479638,-18.6585661040724,3.4392869081448,0.505491,-2.0152445,0.43951756,143.16125,98.02614,1.3371615,JUM
2614601295000,3.300034,-0.817567346032695,-17.9747825616029,3.22134864268341,0.70952,-1.7733418,0.45204028,142.56812,97.60082,1.2005874,JUM
2614606260000,3.304999,-2.12098961846093,-17.2259079294258,2.83269178831738,0.9859365,-1.4541647,0.45356745,142.04102,97.137146,1.0753603,JUM
2614611413000,3.310152,-3.35487776147325,-16.2154101958492,1.88179626002923,1.2672399,-1.1383474,0.46883908,141.47037,96.54943,0.7459186,JUM
2614616418000,3.315157,-4.50845711034785,-15.1458968517977,0.751568886395791,1.50731,-0.8888089,0.5332854,140.98088,95.91876,0.42265934,JUM
2614621293000,3.320032,-5.54068761239662,-14.2063083388155,-0.458268235166841,1.6123788,-0.7144069,0.70249504,140.50899,95.33328,-0.09690336,JUM
2614626295000,3.325034,-6.55622228824033,-13.2909608841145,-1.75159502725354,1.4618006,-0.70952,0.9236283,140.06688,94.821175,-0.63123834,JUM
2614631286000,3.330025,-6.76176541949979,-12.5974693651971,-2.66737602905892,1.0613784,-0.9095783,1.0629056,139.6111,94.621735,-1.320992,JUM
2614636283000,3.335022,-6.33575390559559,-12.0750980461,-3.2911787694256,0.6737844,-1.0818423,1.1004738,139.16998,94.58926,-2.0215304,JUM
2614641229000,3.339968,-5.34798337820896,-11.55081246,-3.63742840274627,0.42943826,-0.9761627,1.0708468,138.78282,94.813225,-2.7608452,JUM
2614646251000,3.34499,-4.06067188149254,-11.01483114,-3.85277795904478,0.29779682,-0.634689,1.0189233,138.42857,95.192215,-3.4873252,JUM
2614651247000,3.349986,-2.99925405419889,-10.5604827886172,-3.81926536822514,0.20952678,-0.44073927,0.9789116,138.14522,95.663895,-4.1298094,JUM
2614656279000,3.355018,-2.04601644197087,-10.1445247832224,-3.65461526975364,0.1826487,-0.04153884,0.87872964,138.0247,96.14526,-4.7194567,JUM
2614661287000,3.360026,-1.17692780928193,-9.68476504577542,-3.47909992843591,0.15668693,0.3313944,0.7528914,138.04054,96.57007,-5.1346803,JUM
2614666250000,3.364989,-0.416746363845136,-9.17098724950364,-3.2903651294507,0.14874569,0.68966687,0.6188065,138.16565,96.96682,-5.5032334,JUM
2614671229000,3.369968,-2.54525009842493e-05,-8.53636495295276,-3.03543956420276,0.13225232,1.006095,0.47708577,138.41867,97.28054,-5.723386,JUM
2614676262000,3.375001,0.203970899740157,-7.82000557952756,-2.73656124952756,0.090713486,1.2504412,0.3475823,138.74675,97.56325,-5.8927584,JUM
2614681225000,3.379964,0.24113091229561,-7.06292102068293,-2.3347124601561,0.02321288,1.4126259,0.24251351,139.15228,97.779305,-5.9487357,JUM
2614686267000,3.385006,0.161046386459512,-6.25736486185366,-1.84949438499512,-0.053145275,1.4853189,0.17745635,139.59297,97.979866,-5.9659786,JUM
2614691242000,3.389981,0.127081543251967,-5.46611549324188,-1.38783323657454,-0.11148291,1.4798211,0.106595986,140.05249,98.14732,-5.938493,JUM
2614696251000,3.39499,0.131920179654025,-4.67257954771031,-0.937840217914061,-0.12522738,1.4321736,0.03145956,140.5114,98.30465,-5.881894,JUM
2614701238000,3.399977,0.223181158512561,-3.99678643443551,-0.574926951553967,-0.13713925,1.3918564,-0.030543262,140.92744,98.44314,-5.834406,JUM
2614706237000,3.404976,0.384806770524278,-3.41208198078642,-0.280197903991659,-0.15241088,1.3439035,-0.10415252,141.31902,98.56704,-5.7574124,JUM
2614711250000,3.409989,0.633303555132976,-2.88202555565514,0.0123514260506576,-0.1777618,1.2721269,-0.18142697,141.66692,98.66287,-5.682899,JUM
2614716271000,3.41501,0.956525683050171,-2.39953455389187,0.302782907066732,-0.20280726,1.1786644,-0.2657264,141.9873,98.747086,-5.5832896,JUM
2614721297000,3.420036,1.31054343776237,-1.87896711128576,0.586858271504442,-0.23762658,1.0549643,-0.3454443,142.28627,98.76479,-5.441283,JUM
2614726294000,3.425033,1.69364751912526,-1.32299897893195,0.8625062999424,-0.26328292,0.8863655,-0.42638394,142.54002,98.77469,-5.2781377,JUM
2614731964000,3.430703,2.2036976089163,-0.722849462691266,1.05729900569147,-0.27275133,0.6945538,-0.5018258,142.77182,98.714096,-5.05555,JUM
2614736299000,3.435038,2.64856598427012,-0.28637478761949,1.12025208429034,-0.27397305,0.50579643,-0.5739079,142.95287,98.650085,-4.815503,JUM
2614741276000,3.440015,3.16629647583466,0.111268528221979,1.06374017471184,-0.28405234,0.3200934,-0.65026605,143.08116,98.55367,-4.517806,JUM
2614746303000,3.445042,3.69728114308426,0.393503616017886,0.858043416673291,-0.2941316,0.23151793,-0.72601336,143.1821,98.45688,-4.2019224,JUM
2614751275000,3.450014,4.17890137860115,0.492320365123836,0.58846031414365,-0.3200934,0.06383542,-0.7602218,143.21016,98.42707,-3.8440907,JUM
2614756286000,3.455025,4.61153793332673,0.373464161242322,0.236645980341094,-0.32742378,-0.07788532,-0.8552113,143.22476,98.3999,-3.4516966,JUM
2614761331000,3.46007,4.98354162228368,0.239257468320822,-0.0687933348866061,-0.36468655,-0.15821409,-0.960891,143.28882,98.379135,-2.942427,JUM
2614766524000,3.465263,5.28319321305808,0.0820631321631766,-0.319321811407843,-0.43157628,-0.17592919,-1.0760391,143.33368,98.396996,-2.405787,JUM
2614771228000,3.469967,5.36309461415517,-0.0124586009371503,-0.475027133732749,-0.46853364,-0.1441642,-1.1545353,143.42485,98.490616,-1.7592994,JUM
2614776283000,3.475022,5.16898214278254,-0.0440583138008206,-0.538226564173816,-0.5006041,-0.07971791,-1.180497,143.52455,98.65674,-1.0929494,JUM
2614781192000,3.479931,4.82914845680844,-0.0621016259023931,-0.622439417414568,-0.46792278,0.05009095,-1.1435398,143.69675,98.912,-0.3601651,JUM
2614786297000,3.485036,4.0065729620859,-0.0416649648981085,-0.78082350151949,-0.43096542,0.23548855,-1.0790935,143.90834,99.23795,0.37941292,JUM
2614791204000,3.489943,3.15930225497866,0.0158859212687382,-0.858758029365631,-0.3848451,0.38789943,-1.0076222,144.1449,99.60073,1.0825521,JUM
2614796303000,3.495042,2.16549819515537,0.151625016811278,-0.790888481594361,-0.30848694,0.44440445,-0.956615,144.41206,99.98888,1.7799981,JUM
2614801210000,3.499949,1.01977007595236,0.277245909241749,-0.64191942874625,-0.23823744,0.41050145,-0.9245446,144.64049,100.355835,2.3544703,JUM
2614806292000,3.505031,-0.568764339467224,0.396717852067461,-0.310052917303391,-0.1863139,0.26511553,-0.90194255,144.85645,100.72906,2.9171016,JUM
2614811355000,3.510094,-2.02418145643813,0.49497117082985,-0.00832665705058528,-0.18845193,0.039095376,-0.8567385,144.94914,101.006935,3.3067975,JUM
2614816375000,3.515114,-2.74772673235786,0.474872692109114,0.127338097924331,-0.20341812,-0.25778514,-0.7968737,144.983,101.28158,3.6758347,JUM
2614821237000,3.519976,-3.35068887250924,0.43717974954232,0.208359425468172,-0.23060162,-0.56291234,-0.70249504,144.8039,101.3294,3.6898406,JUM
2614826299000,3.525038,-3.61713035599081,0.330603196617368,0.106627267750575,-0.2434298,-0.82894415,-0.5852089,144.55672,101.36855,3.6630566,JUM
2614831276000,3.530015,-3.7683094425436,0.199330602901383,0.0319006136680698,-0.28802297,-0.9850202,-0.47219884,144.20467,101.32606,3.4526765,JUM
2614836395000,3.535134,-3.52265064361595,-0.0315886824554019,0.0466401426297855,-0.35827246,-1.0693196,-0.3827071,143.8036,101.28667,3.1997657,JUM
2614841255000,3.539994,-3.24857336160453,-0.248494106515713,-0.00331066118680461,-0.42852196,-1.1487321,-0.33505958,143.34842,101.24462,2.8605099,JUM
2614846289000,3.545028,-2.82039859619364,-0.464934026878782,-0.280918407987507,-0.4813618,-1.1539245,-0.30176744,142.89551,101.21777,2.493124,JUM
2614851299000,3.550038,-2.38037223863384,-0.712087867621834,-0.620625565345576,-0.5131268,-1.1273518,-0.28955013,142.44818,101.2184,2.1542335,JUM
2614856294000,3.555033,-1.87840880805166,-1.10304023292301,-1.24807984601352,-0.5723807,-1.0042624,-0.27550024,142.02943,101.24584,1.8046311,JUM
2614861366000,3.560105,-1.357776047282,-1.49970079027955,-1.86563990030407,-0.6533204,-0.7501425,-0.28527406,141.6981,101.37061,1.5624577,JUM
2614866393000,3.565132,-0.800559028614027,-1.89164155754782,-2.40396828820991,-0.77854776,-0.37201694,-0.32162055,141.43642,101.5285,1.3330625,JUM
2614871201000,3.56994,-0.26958827385124,-2.27510573580943,-2.84107131077297,-0.97585726,0.03940081,-0.39920044,141.31604,101.87146,1.2591321,JUM
2614876306000,3.575045,0.281816023834711,-2.73619385263004,-2.81730380070977,-1.2617421,0.3652974,-0.51343226,141.27351,102.27729,1.2203976,JUM
2614881241000,3.57998,0.804875453823413,-3.19226649009657,-2.77812606843713,-1.5790867,0.52015173,-0.66859204,141.3604,102.87838,1.3691105,JUM
2614886299000,3.585038,1.23924610668112,-3.76506300962751,-2.57287409317107,-1.8603901,0.5216789,-0.8313876,141.48499,103.551414,1.5620818,JUM
2614891311000,3.59005,1.62348397619331,-4.36717294459299,-2.33722274305803,-2.0384574,0.47739118,-0.9654725,141.70816,104.28901,1.8953937,JUM
2614896301000,3.59504,1.43418606789463,-5.3941142033571,-1.70307458718558,-2.0216584,0.36560285,-0.98349303,141.9072,105.04469,2.2384295,JUM
2614901411000,3.60015,1.27134191797028,-6.48301760947575,-1.26040928584244,-1.7663169,0.23396139,-0.86742866,142.2038,105.71395,2.603579,JUM
2614906287000,3.605026,1.48952949883188,-7.97105720895243,-3.32882780575647,-1.2980887,0.310625,-0.7147123,142.5276,106.30222,2.9767873,JUM
2614911284000,3.610023,1.7131314966919,-9.49602313975329,-5.44857500510233,-0.8436049,0.68019843,-0.60139686,142.79965,106.63378,3.2509532,JUM
2614916267000,3.615006,1.82081197688229,-12.012738495228,-4.56421684538706,-0.58032197,1.1050552,-0.50640726,143.11594,106.87704,3.4984357,JUM
2614921575000,3.620314,1.82553327104455,-14.6816415452638,-3.08480885204617,-0.5647449,1.0687088,-0.3387248,143.41606,107.05354,3.6860125,JUM
2614926304000,3.625043,0.784363609695698,-15.7962546201469,0.565765276075551,-0.6450737,0.23915374,-0.19456059,143.66995,107.51508,3.9396744,JUM
2614931243000,3.629982,-0.303041118027282,-16.9603641521511,4.37844990682057,-0.6206391,-0.8026769,-0.040011674,143.8105,107.57035,3.9902322,JUM
2614936296000,3.635035,-0.417210963255129,-17.5843729449811,5.32305717733922,-0.42210788,-1.4877623,0.20311269,143.83408,107.58873,3.9391222,JUM
2614941523000,3.640262,-0.444844403585426,-18.1784912989235,6.03231548716533,-0.1957823,-1.4220943,0.58551437,143.80334,107.57459,3.7871857,JUM
2614946302000,3.645041,0.42760037646658,-18.5463933595068,5.6737518137573,-0.073303826,-1.25319,0.7852673,143.29109,106.81082,3.1940331,JUM
2614951196000,3.649935,1.56307863177915,-18.8758856411421,5.03504511550941,-0.032375857,-1.0198395,1.0348058,142.84746,106.038925,2.5268004,JUM
2614956293000,3.655032,2.62295160138169,-18.3857730980618,2.79717377852696,0.090713486,-0.691194,1.1490375,142.43333,105.14519,1.8567652,JUM
2614961292000,3.660031,3.64732354265976,-17.8023861526578,0.408503837019958,0.28924468,-0.07880162,1.1096367,142.165,104.28047,1.232162,JUM
2614966340000,3.665079,4.68299010281633,-18.0875463383673,-0.011036781454898,0.50579643,0.65393126,0.93645644,142.11789,103.558105,0.8834124,JUM
2614971191000,3.66993,5.67849905681633,-18.5426354783673,-0.00155574252489796,0.50823987,0.9819659,0.66828656,142.11465,102.882355,0.59954613,JUM
2614976295000,3.675034,6.48820582985516,-18.8124376343482,-0.186995427608631,0.42332962,0.8567385,0.42210788,142.37576,102.58848,0.6536018,JUM
2614981199000,3.679938,7.22398094164942,-19.0345595040891,-0.399861160429599,0.5348125,0.752586,0.408058,142.72232,102.25062,0.73074245,JUM
2614986281000,3.68502,7.35271253813694,-19.1718148124005,0.116504803582803,0.72601336,0.675617,0.56382865,143.10545,101.95349,0.9682168,JUM
2614991265000,3.690004,7.33846171074841,-19.2858213323049,0.786294167022293,0.90316427,0.3155119,0.74464476,143.36949,101.64062,1.1606427,JUM
2614996303000,3.695042,6.27604412932487,-19.3537706890057,0.874600668654704,1.0299188,-0.30085114,0.81153446,143.58925,101.36033,1.4190435,JUM
2615001252000,3.699991,5.00270106790919,-19.410154552295,0.832312501340339,1.1224649,-0.86651236,0.8072584,143.71542,101.04833,1.609797,JUM
2615006277000,3.705016,3.37591428155809,-19.4440130591533,0.400874413183839,1.1407908,-1.1945469,0.8011498,143.69804,100.6424,1.7282552,JUM
2615011424000,3.710163,1.62263843050454,-19.4725991568722,-0.142259931115407,1.0870347,-1.2760975,0.7828238,143.58267,100.24411,1.8224585,JUM
2615016318000,3.715057,0.151695514043194,-19.4863459396283,-0.609948824359618,1.0626001,-1.1585059,0.77579886,143.32959,99.78392,1.7224522,JUM
2615021279000,3.720018,-1.27529101103968,-19.495891192667,-1.06811175087896,1.0845913,-0.9117164,0.79534656,143.08942,99.33634,1.6220776,JUM
2615026294000,3.725033,-2.47155698214502,-18.947614715613,-1.37471186972329,1.1499538,-0.59742624,0.81153446,142.77905,98.90535,1.2977649,JUM
2615031268000,3.730007,-3.57319545806908,-18.2115852823672,-1.62486554156736,1.2253957,-0.28038713,0.8573494,142.54463,98.48149,0.9805062,JUM
2615036269000,3.735008,-4.30867388782965,-17.2421640764701,-1.71963798766749,1.2861768,-0.0027488936,0.91629785,142.28896,98.11761,0.4740188,JUM
2615041270000,3.740009,-4.92589122997354,-16.1998437653836,-1.76460084888623,1.2935071,0.09987647,0.99112886,142.07925,97.78289,-0.024028603,JUM
2615046219000,3.744958,-5.3288620503876,-15.0351416434109,-1.75804932790698,1.2916746,0.18600847,1.0451905,141.89374,97.493774,-0.6258557,JUM
2615051258000,3.749997,-5.43437431340688,-13.6538882425959,-1.67651698580799,1.2244794,0.101098195,1.1499538,141.69646,97.28236,-1.2426385,JUM
2615056201000,3.75494,-5.3328584611276,-12.3346996722057,-1.63174762549951,1.1319333,-0.09590584,1.2501358,141.47847,97.16578,-1.9362284,JUM
2615061276000,3.760015,-4.90500433649852,-11.0367154635015,-1.64136231590504,1.0204504,-0.321926,1.317331,141.23268,97.15201,-2.6318407,JUM
2615066202000,3.764941,-4.38514798335611,-9.89474163002733,-1.60938774428934,0.91599244,-0.5009095,1.359786,140.9703,97.219315,-3.3368075,JUM
2615071290000,3.770029,-3.66689885410972,-8.91963467493167,-1.50474217677665,0.8063421,-0.60994893,1.3796391,140.66798,97.39092,-4.0438485,JUM
2615076250000,3.774989,-2.97113038807791,-8.03164963077907,-1.301864469518,0.69027776,-0.6918049,1.3903292,140.38123,97.62737,-4.702953,JUM
2615081400000,3.780139,-2.25795690883337,-7.24085233833366,-0.879782222419831,0.573297,-0.7654142,1.3814718,140.06746,97.9327,-5.355193,JUM
2615086143000,3.784882,-1.65409513967386,-6.51708982160182,-0.531569620976365,0.48533243,-0.7877107,1.3445144,139.77072,98.25427,-5.926525,JUM
2615091230000,3.789969,-1.14625747779131,-5.75281939312623,-0.265080557346269,0.41874814,-0.72326446,1.2675453,139.47762,98.60248,-6.475474,JUM
2615096149000,3.794888,-0.699625134098066,-5.02572404141918,-0.0635654082359976,0.37934732,-0.600786,1.169807,139.18463,98.920876,-6.948428,JUM
2615101191000,3.79993,-0.329080795628862,-4.30388430747459,0.0326798735435519,0.35888332,-0.44959682,1.0476339,138.91722,99.22858,-7.3824453,JUM
2615106169000,3.804908,0.0184344322904917,-3.56598808778075,0.0561371216459879,0.33536503,-0.2773328,0.90469146,138.7058,99.479294,-7.7339754,JUM
2615111224000,3.809963,0.334562868948254,-2.766087328505,-0.0636084931774018,0.30695978,-0.09132435,0.73731434,138.53816,99.699356,-8.033929,JUM
2615116180000,3.814919,0.628463442314575,-2.03769560492146,-0.182692489486976,0.27305678,0.071776666,0.5885687,138.46762,99.845474,-8.250666,JUM
2615121198000,3.819937,0.891249586597733,-1.4213426673792,-0.306918662248956,0.20250183,0.16554448,0.43218717,138.42438,99.959755,-8.411759,JUM
2615126422000,3.825161,1.27223333246078,-0.797979978758541,-0.407256223342315,0.10354166,0.19547687,0.28893927,138.44254,100.03074,-8.493577,JUM
2615131205000,3.829944,1.81444500194399,-0.260176522030603,-0.446930253215282,-0.013133603,0.13927728,0.14874569,138.45784,100.07687,-8.529525,JUM
2615136190000,3.834929,2.28898818957578,0.168111567089252,-0.552514299417067,-0.11453723,0.10567969,0.01740966,138.49614,100.12574,-8.511628,JUM
2615141195000,3.839934,2.45804367360635,0.149327630957186,-0.876537249181934,-0.14844026,0.11209377,-0.04642576,138.53036,100.16418,-8.471177,JUM
2615146275000,3.845014,2.60350726813547,0.0958433312096548,-1.23886106389746,-0.21685717,0.18936823,-0.17989981,138.64726,100.09415,-8.279997,JUM
2615151299000,3.850038,2.64401854993919,-0.0932092388717373,-1.72949750584713,-0.2657264,0.312763,-0.31612277,138.77844,100.01487,-8.064876,JUM
2615156365000,3.855104,2.67666143125758,-0.283087977993328,-2.21944244752325,-0.3005457,0.46211955,-0.47769663,138.97961,99.91162,-7.7571983,JUM
2615161444000,3.860183,2.61765528103518,-0.465023092689042,-2.65707012850789,-0.29810223,0.6026186,-0.6374379,139.2097,99.7929,-7.403019,JUM
2615166279000,3.865018,2.55113039753626,-0.619568774171468,-3.02958272602821,-0.28985557,0.7293731,-0.79229224,139.52002,99.69242,-6.9638743,JUM
2615171283000,3.870022,2.37498045054639,-0.586243093611166,-2.95817058535665,-0.2770274,0.8173377,-0.9233228,139.85269,99.59164,-6.4773145,JUM
2615176293000,3.875032,2.1877848957451,-0.541583380194031,-2.85423181188811,-0.23273966,0.88117313,-1.0167851,140.23576,99.533966,-5.9375544,JUM
2615181301000,3.88004,1.8712908871959,-0.36207932234315,-2.36295751818182,-0.19333886,0.91232723,-1.074512,140.62607,99.501915,-5.363751,JUM
2615186449000,3.885188,1.54264652699332,-0.174233890311804,-1.84862654302895,-0.14080444,0.9251554,-1.1065824,141.00935,99.49448,-4.7979646,JUM
2615191253000,3.889992,1.19836265641871,0.0388942108730512,-1.26252429151893,-0.09040806,0.8903361,-1.108415,141.38182,99.51829,-4.2212853,JUM
2615196851000,3.89559,0.79717591464588,0.287247897474388,-0.579551684534521,-0.063224554,0.7984009,-1.0946705,141.68639,99.523026,-3.7138152,JUM
2615201300000,3.900039,0.414593805064089,0.399396524063879,-0.00950035074595507,-0.023823744,0.6591236,-1.0677924,141.96555,99.54434,-3.210925,JUM
2615206251000,3.90499,-0.0188044744746796,0.513973098720319,0.62814314224627,0.0067195175,0.48441613,-1.0296134,142.2073,99.59385,-2.7188723,JUM
2615211355000,3.910094,-0.340948619223596,0.488205653543384,1.06717471810954,0.027488936,0.2666427,-0.9795224,142.33182,99.56604,-2.3408139,JUM
2615216258000,3.914997,-0.635915779799764,0.446725878916372,1.46353678975265,0.0421497,0.0290161,-0.9129381,142.4038,99.55064,-1.9866168,JUM
2615221299000,3.920038,-0.786733540600119,0.251614197939889,1.66645487363654,0.024740042,-0.20861048,-0.8582657,142.35805,99.45872,-1.7574356,JUM
2615226221000,3.92496,-0.908704379364053,0.035819620093551,1.83064643540008,-0.0012217305,-0.42424592,-0.80909103,142.25545,99.3731,-1.556508,JUM
2615231272000,3.930011,-0.888186007142857,-0.285349763848397,1.75598986093294,-0.03023783,-0.6038403,-0.79198676,142.0625,99.235725,-1.4582883,JUM
2615236201000,3.93494,-0.840730420689655,-0.617538943349754,1.63735085763547,-0.05009095,-0.6637051,-0.7846564,141.84587,99.10509,-1.3780227,JUM
2615241236000,3.939975,-0.688274524742931,-0.952141429948586,1.33269018078406,-0.0693332,-0.732122,-0.7837401,141.57396,98.971886,-1.367901,JUM
2615246206000,3.944945,-0.518857647295828,-1.2815631429207,0.998562471420803,-0.09407325,-0.7101309,-0.79504114,141.31212,98.8453,-1.3586485,JUM
2615251262000,3.950001,-0.330772838017991,-1.54569058458877,0.603532892696718,-0.12980886,-0.5699373,-0.81306165,141.14326,98.85254,-1.4495035,JUM
2615256289000,3.955028,-0.14041060973705,-1.79316145601028,0.199013164432582,-0.15149458,-0.3555236,-0.8353582,140.99837,98.85647,-1.5305164,JUM
2615261265000,3.960004,0.0543755696265083,-1.87217677598161,-0.0426508162152844,-0.1600467,-0.08674286,-0.8552113,140.90457,98.86289,-1.4979526,JUM
2615266632000,3.965371,0.266034743242674,-1.91647755237502,-0.264154600525761,-0.18417588,0.183565,-0.8720101,140.87149,98.87749,-1.4523646,JUM
2615271263000,3.970002,0.455955500869828,-1.82063745442465,-0.33079464974328,-0.17715092,0.42271876,-0.893085,140.94351,98.936485,-1.3230703,JUM
2615276267000,3.975006,0.663411517251586,-1.67590064608879,-0.364566556575053,-0.16554448,0.6282749,-0.9016371,141.08142,99.002144,-1.1827191,JUM
2615281266000,3.980005,0.783093556124412,-1.4647458355842,-0.319467925766319,-0.15454891,0.7797695,-0.895223,141.30844,99.130875,-1.0001494,JUM
2615286243000,3.984982,0.870872152514835,-1.23066969396358,-0.246319112414569,-0.1386664,0.86926126,-0.8689558,141.57338,99.25773,-0.8122612,JUM
2615291241000,3.98998,0.881428004871439,-1.03419250465601,-0.185611120015884,-0.1386664,0.9108001,-0.8527679,141.87614,99.39184,-0.55365855,JUM
2615296266000,3.995005,0.869484323669215,-0.84787116170952,-0.128281482172143,-0.1518,0.88514376,-0.84207773,142.18301,99.53268,-0.29845157,JUM
2615301262000,4.000001,0.857609571174427,-0.662625106115358,-0.0712827019398392,-0.1518,0.8417723,-0.838718,142.48718,99.656845,-0.004502801,JUM
2615306320000,4.005059,0.845587453856845,-0.475080160319666,-0.01357657095205,-0.16676621,0.7733554,-0.82527894,142.77614,99.7983,0.28162345,JUM
2615311253000,4.009992,0.767931369880716,-0.391760891353877,-0.124712682139165,-0.20555615,0.68539083,-0.829555,143.03375,99.95904,0.5717885,JUM
2615316244000,4.014983,0.668154532604374,-0.339496855940358,-0.291007364628231,-0.26053402,0.61483586,-0.82924956,143.2769,100.13631,0.8545328,JUM
2615321261000,4.02,0.475367726874755,-0.498817988522148,-0.491074123541748,-0.321926,0.61727935,-0.8155051,143.5159,100.33244,1.1155187,JUM
2615326256000,4.024995,0.250344704858879,-0.73321698875735,-0.70203321004704,-0.46395215,0.65301496,-0.82253003,143.74303,100.57271,1.3817204,JUM
2615331265000,4.030004,0.125157935381171,-0.998244768838697,-1.20050811042375,-0.6930266,0.6844745,-0.8454375,143.96213,100.87861,1.6458681,JUM
2615336267000,4.035006,0.0437713481902858,-1.275916676662,-1.82287613658805,-1.0207558,0.73884153,-0.86009824,144.19753,101.254776,1.91526,JUM
2615341239000,4.039978,0.125121408817177,-1.5011969926425,-3.05154040298565,-1.2113458,0.77274454,-0.8927795,144.39334,101.62874,2.208311,JUM
2615346265000,4.045004,0.279094851069601,-1.70649491499612,-4.56327954753781,-1.6853772,0.75533485,-0.91874135,144.58792,102.176636,2.5047872,JUM
2615351259000,4.049998,0.51826342272367,-2.28249195241256,-6.03239175968493,-2.307238,0.408058,-0.95081174,144.70566,102.9081,2.8229935,JUM
2615356303000,4.055042,0.810211327136629,-3.08175920488457,-7.49691733459824,-2.713158,-0.35216382,-0.9789116,144.69687,103.71234,3.1178496,JUM
2615361343000,4.060082,0.934587139301904,-4.18693813116752,-7.11952542555656,-2.3808472,-1.3723087,-0.8524625,144.61092,104.77309,3.459582,JUM
2615366317000,4.065056,0.958579812284678,-5.45854932324972,-5.6607712789866,-1.2608259,-1.8038851,-0.6310238,144.47002,105.71639,3.760729,JUM
2615371262000,4.070001,1.46760752189823,-7.05879922782659,-5.80805884306266,-0.3640757,-1.4520267,-0.45937067,144.3367,106.8753,4.142659,JUM
2615376245000,4.074984,2.26011996917061,-8.86499041805542,-6.8770293042773,-0.10751228,-0.6774496,-0.3109304,144.19833,107.868744,4.4560995,JUM
2615381263000,4.080002,2.57636398228583,-11.0742693516349,-5.52870215571967,-0.27152961,-0.13591751,-0.09285152,144.06055,108.32983,4.5787277,JUM
2615386261000,4.085,2.50810398947744,-13.5852615987573,-2.25709833833147,-0.5323691,-0.4196644,0.109650314,143.92027,108.72734,4.653461,JUM
2615391236000,4.089975,1.68779223202819,-15.3143806891151,1.00146073125489,-0.6908886,-1.0326678,0.26083946,143.93639,109.26287,4.8814197,JUM
2615396325000,4.095064,0.318632249608457,-16.5404232067345,4.33610481937647,-0.8038987,-1.3744467,0.3753767,143.95683,109.81695,5.043568,JUM
2615401285000,4.100024,-1.81705499073928,-17.4033843583366,5.35708070762879,-0.8060367,-1.2260065,0.5564982,143.83119,109.61958,4.8781223,JUM
2615406368000,4.105107,-4.65011760971294,-18.0207235031459,4.6105303236335,-0.6936375,-0.42271876,0.59803706,143.79016,109.43866,4.753297,JUM
2615411324000,4.110063,-5.17891550337945,-18.46153178083,1.66962549806324,-0.32742378,0.54244834,0.5900958,143.57318,108.51063,4.157586,JUM
2615416379000,4.115118,-3.72946303534585,-18.7676874562253,-3.30060964452569,0.30634892,2.0054705,0.675617,143.71732,107.533424,3.669887,JUM
2615421295000,4.120034,-2.14750697617194,-18.838050076508,-5.25602714880594,0.7431176,3.292869,0.5183192,143.8666,106.460976,2.7952633,JUM
2615426278000,4.125017,-0.374738923774987,-18.6860976653105,-4.41185176822926,0.49174652,3.2000177,0.1142318,144.01363,105.536736,2.0521555,JUM
