timestamp,rel_time,acc_x,acc_y,acc_z,gyro_x,gyro_y,gyro_z,azimuth,pitch,roll,label
2586558354000,0,3.21831360164359,9.3338648901285,-1.22095847457914,-0.032986723,0.02687807,-0.050701816,331.6717,-81.30429,8.124672,STD
2586563407000,0.005053,3.23277464941229,9.37001782413587,-1.21854829575655,-0.02076942,0.038179077,-0.046731193,332.11047,-80.93807,8.6179085,STD
2586568598000,0.010244,3.24758563426934,9.404425,-1.21538097144222,-0.017104227,0.039095376,-0.050396383,332.53287,-80.57518,9.081831,STD
2586573746000,0.015392,3.26171210028653,9.404425,-1.20360891642789,-0.0036651916,0.057421334,-0.04795292,332.93088,-80.215385,9.524501,STD
2586578581000,0.020227,3.27497967277937,9.404425,-1.19255260601719,-0.008857546,0.0580322,-0.045814894,333.31448,-79.86164,9.943563,STD
2586583360000,0.025006,3.2880935774212,9.404425,-1.181624352149,-0.009162978,0.062002823,-0.03726278,333.67767,-79.51398,10.344133,STD
2586588362000,0.030008,3.30181940939828,9.404425,-1.17018615883477,-0.0030543262,0.069027774,-0.026267206,334.02646,-79.17344,10.726467,STD
2586593313000,0.034959,3.30596422492346,9.38869717012346,-1.19392804392593,-0.008246681,0.07941248,-0.03573562,334.3605,-78.84499,11.086961,STD
2586598331000,0.039977,3.30833745395062,9.36971178395062,-1.22477907962963,-0.007330383,0.07788532,-0.021380283,334.68372,-78.51664,11.4401,STD
2586603334000,0.04498,3.31070358882963,9.35078314962963,-1.25553789422222,-0.01038471,0.06963864,-0.024129177,334.99152,-78.197975,11.777021,STD
2586608262000,0.049908,3.3130342529679,9.3321382745679,-1.28583560325926,-0.0106901415,0.089491755,-0.025961773,335.28058,-77.88503,12.1025715,STD
2586614953000,0.056599,3.21425288660372,9.33277621660278,-1.02469869643825,-0.02443461,0.080634214,-0.02107485,335.56543,-77.581566,12.413977,STD
2586618267000,0.059913,3.15491369821445,9.33574323333645,-0.86448301480789,-0.028099801,0.08002335,-0.023518313,335.8324,-77.2906,12.7087965,STD
2586623359000,0.065005,3.11614784224447,9.3256043769129,-0.920055610844512,-0.03970624,0.077579886,-0.015271631,336.092,-102.99311,12.992882,STD
2586628355000,0.070001,3.10710846136407,9.30752514320801,-1.14152174026072,-0.043066,0.06169739,-0.02076942,336.3469,-103.26276,13.259952,STD
2586633348000,0.074994,3.11662051143474,9.32380225005394,-1.22850288627832,-0.030848695,0.06841691,-0.019547688,336.58246,-103.51871,13.511611,STD
2586638330000,0.079976,3.14235493300971,9.37012463883495,-1.19762158038835,-0.03481932,0.06536258,-0.015577064,336.81744,-103.764305,13.751464,STD
2586643687000,0.085333,3.12783700428381,9.39938320870596,-1.24044517736548,-0.022602014,0.05009095,-0.014966198,337.0589,-103.99974,13.977629,STD
2586648370000,0.090016,3.0990299019665,9.41711053525372,-1.30692302213548,-0.018936822,0.044593163,-0.01985312,337.2912,-104.226524,14.193518,STD
2586653336000,0.094982,3.06848194764069,9.43590914803103,-1.37741821263896,-0.0125227375,0.049785517,-0.016798794,337.52182,-104.4524,14.407143,STD
2586658331000,0.099977,3.03775560211967,9.45481753925589,-1.44832507461337,0.0033597588,0.04917465,-0.009468411,337.74896,-104.67055,14.611384,STD
2586663334000,0.10498,3.06211324359025,9.44993763530582,-1.40314360638488,0.0125227375,0.04795292,-0.008857546,337.96814,-104.880035,14.805873,STD
2586668339000,0.109985,3.11931698391845,9.4308698545997,-1.28873627505719,0.011301007,0.055588737,-0.004886922,338.1786,-105.085266,14.995099,STD
2586673328000,0.114974,3.10870163931795,9.40585572943831,-1.15637302286861,0.020463986,0.0693332,-0.0021380284,338.39536,-105.27351,15.163628,STD
2586678323000,0.119969,3.055923477332,9.37706784603811,-1.01243275416249,0.013133603,0.064446285,-0.011301007,338.60962,-105.452415,15.322328,STD
2586683341000,0.124987,3.03878990735048,9.3396372344566,-0.919431973721549,0.022296581,0.07238753,-0.004886922,338.80093,-105.64049,15.491077,STD
2586688332000,0.129978,3.04349951507538,9.29725012562814,-0.858207024120603,0.020158553,0.07880162,-0.0012217305,338.98856,-105.81799,15.649454,STD
2586693338000,0.134984,3.05393575279664,9.26857676168598,-0.824670964978026,0.0033597588,0.082161374,-0.008246681,339.16074,-105.97498,15.790964,STD
2586698448000,0.140094,3.06859944186976,9.24902534638434,-0.810007306528166,0.004581489,0.07696902,-0.01863139,339.3286,-106.12685,15.926585,STD
2586703393000,0.145039,3.06263179039288,9.24737971008697,-0.818855746440068,-0.01160644,0.064751714,-0.01863139,339.48856,-106.27479,16.061127,STD
2586708332000,0.149978,3.04371748921324,9.25683703348995,-0.842498580945716,-0.019547688,0.054367006,-0.01985312,339.64474,-106.41444,16.186954,STD
2586713334000,0.15498,3.0261747612074,9.26491748129651,-0.835753629519193,-0.03176499,0.060170226,-0.014966198,339.7876,-106.55288,16.31192,STD
2586718347000,0.159993,3.00972059012926,9.27196916020368,-0.807546496631414,-0.036651913,0.044593163,-0.0143553335,339.93567,-106.684685,16.429937,STD
2586723327000,0.164973,2.99337473495887,9.27897441872307,-0.77952504804152,-0.025961773,0.03145956,-0.010079277,340.08017,-106.810936,16.54184,STD
2586728364000,0.17001,2.97684178867509,9.28605985791226,-0.751182872028006,-0.02565634,0.023823744,-0.0021380284,340.22382,-106.93295,16.650269,STD
2586733370000,0.175016,2.97366723102765,9.29678808745417,-0.747128536696066,-0.03023783,0.007330383,-0.012217305,340.36835,-107.043526,16.74774,STD
2586738380000,0.180026,2.98317669857299,9.31105276043009,-0.766147422138539,-0.018020526,0.013133603,-0.0076358155,340.50513,-107.15697,16.847675,STD
2586743314000,0.18496,2.99874866666355,9.35921644089084,-0.803762326839107,-0.01160644,0.022907447,-0.0076358155,340.64087,-107.25496,16.933886,STD
2586748436000,0.190082,3.02165107099636,9.44624572084228,-0.863308606801756,-0.0036651916,0.025350908,0.00061086525,340.77374,-107.35334,17.019957,STD
2586753348000,0.194994,3.03973111717714,9.49630960715286,-0.932063708920534,-0.004886922,0.022602014,0.0027488936,340.9011,-107.443794,17.099174,STD
2586758326000,0.199972,3.05086044976655,9.48518034428985,-1.02332374342049,0.00030543262,0.018020526,0.009468411,341.02518,-107.535,17.178612,STD
2586763322000,0.204968,3.06203002502101,9.47401083901391,-1.11491376599216,0.00580322,0.03848451,0.009773844,341.14297,-107.621315,17.252213,STD
2586768608000,0.210254,3.07384795432347,9.46219298375198,-1.21182026305257,0.0009162979,0.06841691,0.0018325958,341.2561,-107.70337,17.322166,STD
2586773478000,0.215124,3.08336687535026,9.45157875070052,-1.29542481917296,-0.00580322,0.09437868,0.015577064,341.35907,-107.78677,17.394077,STD
2586778358000,0.220004,3.07939848272056,9.44364196544111,-1.3232029874671,-0.021380283,0.11789699,0.01740966,341.45074,-107.86076,17.458036,STD
2586783435000,0.225081,3.07526989063429,9.43538478126857,-1.35210252853868,-0.03390302,0.12095132,0.018325957,341.54825,-107.94253,17.524973,STD
2586788327000,0.229973,3.07078501310714,9.43652503967619,-1.38349638508895,-0.04795292,0.12064589,0.01740966,341.63727,-108.020294,17.589617,STD
2586793367000,0.235013,3.06596117500999,9.441348953328,-1.41726307547472,-0.051923547,0.12614368,0.014966198,341.72125,-108.09489,17.651686,STD
2586798338000,0.239984,3.06120337755347,9.44610682530482,-1.45056748378973,-0.04795292,0.105068825,0.016493361,341.81833,-108.16585,17.711267,STD
2586803331000,0.244977,3.0564245236608,9.45088575404757,-1.48401928638817,-0.059253927,0.113926366,0.008857546,341.90222,-108.22978,17.765917,STD
2586808338000,0.249984,3.05199279165551,9.47336836992414,-1.50300732503347,-0.06780604,0.11301007,0.0143553335,341.98465,-108.2912,17.817398,STD
2586813391000,0.255037,3.0476740437394,9.50359933476127,-1.51596356878179,-0.06719518,0.11728613,0.01038471,342.06046,-108.34549,17.8623,STD
2586818336000,0.259982,3.03611925387524,9.5356302778828,-1.52038588846881,-0.09254608,0.119729586,0.0030543262,342.1393,-108.394424,17.902134,STD
2586823326000,0.264972,3.01604438220962,9.57076151291746,-1.5153671705524,-0.092240654,0.122478485,-0.0012217305,342.2149,-108.44283,17.94007,STD
2586828941000,0.270587,3.01029798197555,9.59274523110025,-1.48132828133007,-0.10903945,0.11911872,0.0021380284,342.28418,-108.47962,17.96934,STD
2586833337000,0.274983,3.01441526052812,9.60097961623472,-1.44015510887042,-0.113926366,0.13622294,-0.004276057,342.3445,-108.51172,17.99375,STD
2586838414000,0.28006,3.0154398744527,9.62685740931154,-1.3709643309262,-0.12461651,0.1695151,-0.007941248,342.40125,-108.53767,18.013998,STD
2586843316000,0.284962,3.01311471430411,9.66638564170381,-1.28493243425458,-0.14538592,0.19517145,-0.022296581,342.45325,-108.5566,18.028494,STD
2586848530000,0.290176,3.01064156354631,9.70842974690441,-1.19342482322932,-0.18112154,0.20891592,-0.028405234,342.4878,-108.57212,18.042381,STD
2586853441000,0.295087,3.00831213443784,9.74803055255077,-1.10723497325904,-0.20799962,0.22815818,-0.046120327,342.51166,-108.57893,18.04894,STD
2586858329000,0.299975,3.00272476578896,9.80787571616651,-1.00811886732236,-0.23671028,0.25228736,-0.04520403,342.5296,-108.586235,18.058977,STD
2586863347000,0.304993,2.99342052911907,9.89161365188771,-0.891815792363988,-0.25900686,0.2611449,-0.0571159,342.5453,-108.58345,18.060059,STD
2586868323000,0.309969,2.98233392619759,9.97075049946988,-0.774813955693494,-0.28802297,0.28130344,-0.07147124,342.5387,-108.56778,18.05747,STD
2586873327000,0.314973,2.96847687351325,10.0446548769157,-0.654719421925783,-0.32559118,0.31031954,-0.07238753,342.527,-108.551125,18.055698,STD
2586878311000,0.319957,2.96078359630212,10.1001552067926,-0.525515649231576,-0.37018433,0.3643811,-0.081855945,342.499,-108.521065,18.046034,STD
2586883341000,0.324987,2.96552113603462,10.1191054316811,-0.375493452168896,-0.42363504,0.42485678,-0.09101892,342.461,-108.48922,18.037138,STD
2586888274000,0.32992,2.97016731565696,10.1376902148571,-0.228364327296092,-0.47983465,0.453262,-0.09315695,342.4068,-108.44403,18.020952,STD
2586893348000,0.334994,2.97494629708891,10.1568062071204,-0.0770298088276947,-0.52442783,0.5036584,-0.096516706,342.32925,-108.39619,18.004208,STD
2586898733000,0.340379,2.98001819598741,10.1770938733281,0.0835804359402045,-0.54611355,0.5525276,-0.09132435,342.24564,-108.35115,17.990517,STD
2586903340000,0.344986,2.98435733029111,10.1944504709546,0.220986452216103,-0.60994893,0.56199604,-0.093767814,342.16058,-108.3015,17.97468,STD
2586908265000,0.349911,2.99459844892541,10.1978180851243,0.368362006565529,-0.6270532,0.5714644,-0.087659165,342.06076,-108.25852,17.962883,STD
2586913364000,0.35501,3.02546577079646,10.1463725486726,0.522698717986726,-0.6722572,0.5656612,-0.083383106,341.965,-108.21331,17.950592,STD
2586918266000,0.359912,3.05726867958967,10.0983027948372,0.649141820936236,-0.70616025,0.5549711,-0.076358154,341.82617,-108.16264,17.940369,STD
2586923338000,0.364984,3.09469776300327,10.0515165016375,0.733357217091119,-0.729984,0.5513059,-0.0720821,341.68994,-108.11593,17.931192,STD
2586928304000,0.36995,3.13775710997197,9.99315829235082,0.790038619632559,-0.77488256,0.5195409,-0.060170226,341.55255,-108.080315,17.93325,JUM
2586933342000,0.374988,3.20055476107329,9.89654652142571,0.770716230139167,-0.7987063,0.4831944,-0.058948494,341.42038,-108.04817,17.933687,JUM
2586938310000,0.379956,3.26434771056611,9.79137080564172,0.69720004357309,-0.83169305,0.4615087,-0.060170226,341.28287,-108.026596,17.94322,JUM
2586943331000,0.384977,3.33426606033346,9.65619561496704,0.464139056145793,-0.8738427,0.4868596,-0.070554934,341.14462,-108.00744,17.950449,JUM
2586948398000,0.390044,3.38343895157612,9.49600048874198,0.201541455260132,-0.9285152,0.5653558,-0.0852157,340.99283,-108.00479,17.969751,JUM
2586953332000,0.394978,3.35174751549296,9.25152331790745,-0.156119297686117,-0.9822713,0.6872234,-0.103847094,340.82272,-108.00284,17.984865,JUM
2586958313000,0.399959,3.29751060261645,8.98964199536759,-0.521865741571588,-1.0467176,0.8179486,-0.12767084,340.6433,-108.02192,18.014746,JUM
2586963370000,0.405016,3.0523904767779,8.59495696242601,-0.933168964969546,-1.1432343,0.9755518,-0.15485434,340.42212,-108.03937,18.038433,JUM
2586968461000,0.410107,2.80562232161791,8.1976183223814,-1.34723752544394,-1.2360858,1.1490375,-0.18875736,340.187,-71.93902,18.060677,JUM
2586973330000,0.414976,2.5402253098181,7.88739006909903,-1.37544183574088,-1.3307699,1.3213016,-0.21594086,339.9091,-71.91771,18.077253,JUM
2586978288000,0.419934,2.26243581089246,7.58939765629188,-1.30978248428891,-1.402852,1.4694363,-0.25686884,339.59164,-71.90301,18.080523,JUM
2586983342000,0.424988,2.01419297598577,7.35593289332938,-1.16190264850282,-1.4721853,1.599856,-0.3023783,339.2582,-71.93036,18.03574,JUM
2586988263000,0.429909,1.77666940239154,7.13703860436802,-1.00821090438779,-1.5317446,1.6584991,-0.3631594,338.90903,-71.96467,17.976542,JUM
2586993338000,0.434984,1.57445747075716,6.93345674394563,-0.781778012458122,-1.5378532,1.7956384,-0.39064834,338.5151,-72.01653,17.891289,JUM
2586998330000,0.439976,1.38225768195654,6.73668086754092,-0.548392503431607,-1.5418239,1.9272798,-0.44684792,338.11438,-72.082634,17.782923,JUM
2587003341000,0.444987,1.24147088182149,6.6633762230958,-0.432947045356299,-1.5607607,2.0427334,-0.51007247,337.69244,-72.16828,17.642185,JUM
2587008334000,0.44998,1.11543080654426,6.62426022968551,-0.350369065471732,-1.5732834,2.1087067,-0.5766568,337.2575,-72.25841,17.48815,JUM
2587015571000,0.457217,1.04700765568759,6.68274681387059,-0.380106218841957,-1.5879441,2.1533,-0.6637051,336.7936,-72.37452,17.289082,JUM
2587018386000,0.460032,1.03827087730366,6.72351839564654,-0.415053235067517,-1.5696182,2.149024,-0.6817256,336.3373,-72.47619,17.0964,JUM
2587023307000,0.464953,1.09631671352179,6.74551771315607,-0.537771249095582,-1.5448782,2.0922134,-0.7049385,335.88373,-72.61283,16.851585,JUM
2587028369000,0.470015,1.18256764968864,6.7503095263418,-0.686314455777404,-1.5131133,1.9990565,-0.7266242,335.4562,-72.73992,16.610281,JUM
2587033304000,0.47495,1.31391809208669,6.6611648087285,-0.757998671428571,-1.473407,1.9275852,-0.7480045,335.05334,-72.87263,16.357649,JUM
2587038502000,0.480148,1.47228046653743,6.5275463921861,-0.802538105714286,-1.450805,1.856114,-0.76083267,334.69052,-72.99645,16.111143,JUM
2587043363000,0.485009,1.56787114994926,6.29123704262229,-0.738766959188147,-1.4388931,1.7870862,-0.7641924,334.34525,-73.116486,15.863745,JUM
2587048351000,0.489997,1.64543419561599,6.00522348256546,-0.632117849855896,-1.4501941,1.7528778,-0.7770206,334.02176,-73.230415,15.618398,JUM
2587053264000,0.49491,1.61371361076968,5.67795237450149,-0.372991769406608,-1.5088371,1.7809776,-0.81092364,333.66888,-73.32042,15.375863,JUM
2587058250000,0.499896,1.54011763793469,5.32837181573066,-0.0510095731692515,-1.5937474,1.8677205,-0.86009824,333.3186,-73.401855,15.130557,JUM
2587063289000,0.504935,1.30279941097127,5.02222968974008,0.581551912311902,-1.6939293,1.921782,-0.9465357,332.9436,-73.45506,14.881423,JUM
2587068253000,0.509899,0.97763346592655,4.74708926827318,1.3769579534568,-1.831374,1.8640553,-1.0580186,332.58887,-73.49799,14.618464,JUM
2587073244000,0.51489,0.603831015674518,4.84078882976445,1.81851665728051,-1.9373591,1.6328428,-1.171945,332.27832,-73.50029,14.358436,JUM
2587078287000,0.519933,0.208965293716177,5.07112689760561,2.13346908888456,-1.9755383,1.2910637,-1.2742649,332.0325,-73.5008,14.085792,JUM
2587083249000,0.524895,-0.125931170646586,5.30917946767068,2.27055710333333,-1.887879,0.91415983,-1.3652838,331.77493,-73.49897,13.699125,JUM
2587088251000,0.529897,-0.438552383991968,5.55446680040161,2.32827184666667,-1.7003434,0.73792523,-1.4682146,331.57385,-73.50694,13.292536,JUM
2587093229000,0.534875,-0.581688713554784,5.82568010867625,2.38197935734259,-1.5861117,0.4569272,-1.5308284,331.52258,-73.541985,12.805867,JUM
2587098247000,0.539893,-0.648400647654933,6.11158868200298,2.4343957881408,-1.3949108,0.33169982,-1.6588045,331.49402,-73.630516,12.280082,JUM
2587103328000,0.544974,-0.579478582628519,6.6632905149054,2.87282278341486,-1.2962561,0.37934732,-1.8008307,331.52606,-73.7566,11.67465,JUM
2587108313000,0.549959,-0.447294767547762,7.32861571379788,3.48527436241809,-1.2782356,0.5290093,-1.8894062,331.57614,-73.88705,11.05747,JUM
2587113403000,0.555049,-0.302682682409418,8.39352777966102,4.45448064380392,-1.323745,0.5366451,-1.8915442,331.66534,-74.01742,10.410013,JUM
2587118338000,0.559984,-0.153986068687709,9.76537413559322,5.69681703292398,-1.4046847,0.22602014,-1.8521434,331.81268,-74.11693,9.7711115,JUM
2587123326000,0.564972,0.110129975290878,11.1648379683305,6.54530249215146,-1.4666874,-0.30634892,-1.7886134,331.9922,-74.099884,9.1536045,JUM
2587128309000,0.569955,0.46742315113253,12.5734763204819,7.05865466855422,-1.4205672,-0.8891144,-1.6865989,332.27518,-74.04108,8.594962,JUM
2587133305000,0.574951,0.892285784865046,13.9990781938434,7.28808765341289,-1.2916746,-1.3558154,-1.5613716,332.63174,-73.82564,8.078844,JUM
2587138329000,0.579975,1.55770192120232,15.4801652730315,6.49924753777604,-1.1175779,-1.5534303,-1.387275,333.06906,-73.588135,7.641134,JUM
2587143320000,0.584966,2.20093488279239,16.6385819252929,5.55719810178606,-0.9560041,-1.4743233,-1.1688906,333.52924,-73.30972,7.306733,JUM
2587148345000,0.589991,2.82477454310544,17.3871896720761,4.3973185206933,-0.79443026,-1.2305881,-0.93737274,333.98224,-73.05118,7.037432,JUM
2587153992000,0.595638,3.47472473663143,18.0438588908335,3.32362991900884,-0.59650993,-0.915687,-0.691194,334.37473,-72.946556,6.897796,JUM
2587158335000,0.599981,3.92156386037948,18.357367651187,2.73625275264252,-0.33475417,-0.6065892,-0.46822822,334.6777,-72.88172,6.7997513,JUM
2587163436000,0.605082,4.44846214818892,18.7167330400749,2.09806835173401,-0.05467244,-0.3359759,-0.2855795,334.8823,-72.99492,6.806907,JUM
2587168329000,0.609975,4.98499955697457,18.9282519946053,2.2631567603435,0.20830505,-0.13439035,-0.15668693,335.00272,-73.14499,6.836002,JUM
2587173327000,0.614973,5.48454380184735,19.1106750758386,2.52178888612543,0.4279111,-0.032375857,-0.08399397,335.06628,-73.37006,6.929563,JUM
2587178322000,0.619968,5.81476890977151,19.1757897695673,3.09386922292659,0.63224554,0.002443461,0.004276057,335.08163,-73.62757,7.045173,JUM
2587183335000,0.624981,6.08633305098592,19.2136696250704,3.65795179549296,0.8142834,-0.040011674,0.12583824,335.05972,-73.85718,7.232134,JUM
2587188331000,0.629977,6.059377637277,19.114833733615,4.1701032486385,0.9636399,-0.10323623,0.25778514,335.0289,-74.101425,7.435932,JUM
2587193507000,0.635153,5.99863383503603,18.9921792930423,4.67499674491881,1.0305296,-0.2751948,0.35185838,334.99643,-74.26205,7.6957583,JUM
2587198356000,0.640002,5.52921058737499,18.6226327219056,4.82481254188622,1.2119566,-0.4334089,0.39920044,334.97464,-74.46058,7.9703097,JUM
2587203323000,0.644969,5.01960753466707,18.2273536834876,4.93534395730069,1.2654073,-0.6072,0.43676865,334.97205,-74.55746,8.256811,JUM
2587208322000,0.649968,4.37156099790982,17.7508490233901,4.84480817139445,1.357648,-0.74128497,0.44501534,335.00256,-74.69111,8.5437355,JUM
2587215113000,0.656759,3.51724872408868,17.1740458564202,4.5210829745276,1.4410311,-0.8875872,0.42424592,335.08215,-74.81803,8.779764,JUM
2587218332000,0.659978,3.13195928141646,16.9538803374498,4.2160621058771,1.5714508,-0.9431759,0.4196644,335.17133,-74.96137,9.015624,JUM
2587223757000,0.665403,2.48262867362,16.5828340682934,3.70200860714179,1.6129897,-1.035722,0.41722095,335.32935,-75.12244,9.175357,JUM
2587228313000,0.669959,2.1557184775296,16.3524452238106,3.25909725757203,1.7119498,-1.1410962,0.42302418,335.50464,-75.31362,9.333025,JUM
2587233335000,0.674981,2.01606436383739,16.1805631514407,2.7595653563212,1.8173242,-1.2479976,0.41599923,335.70496,-75.50605,9.484667,JUM
2587238329000,0.679975,1.9920204600991,15.9481585063635,2.28492023105994,1.9150625,-1.3494014,0.41263947,335.9798,-75.80322,9.558172,JUM
2587243306000,0.684952,2.01980462424949,15.6888400277859,1.82185044172739,2.0030272,-1.4358387,0.40866885,336.27838,-76.10703,9.627505,JUM
2587248411000,0.690057,2.05637734874652,15.3353174803748,1.38887702342365,2.090381,-1.5158621,0.40775254,336.6282,-76.45532,9.690128,JUM
2587253348000,0.694994,2.09628682822656,14.9442047314932,0.993773751658648,2.1560488,-1.5906931,0.39950588,336.9982,-76.80016,9.745468,JUM
2587258326000,0.699972,2.14320331293717,14.4875898371426,0.579042024022536,2.1890357,-1.6447546,0.39400807,337.40448,-77.16302,9.817725,JUM
2587263343000,0.704989,2.2096015772935,13.8491449875625,0.114253842865951,2.2030854,-1.6691893,0.39645153,337.8199,-77.509766,9.882676,JUM
2587268330000,0.709976,2.23424581474894,13.1891189323258,-0.196838186527105,2.1786509,-1.6417004,0.3930918,338.2522,-77.84777,9.963223,JUM
2587273341000,0.714987,2.19108772288783,12.4842036739445,-0.261575294275294,2.1273382,-1.6129897,0.39950588,338.687,-78.15089,10.038649,JUM
2587278299000,0.719945,2.14838610256308,11.7867441147639,-0.325627695036722,2.053118,-1.598329,0.3930918,339.12994,-78.42351,10.13109,JUM
2587283345000,0.724991,2.10492656723457,11.0769052814389,-0.390816967776168,1.9511036,-1.6337591,0.39584067,339.57547,-78.648346,10.219276,JUM
2587288283000,0.729929,2.03924722188257,10.3656248254136,-0.439801709155569,1.824349,-1.6664404,0.3912592,340.01495,-78.83345,10.295117,JUM
2587293475000,0.735121,1.928885950454,9.5880790873184,-0.464883830584141,1.7663169,-1.7293595,0.37904188,340.46954,-78.98812,10.362515,JUM
2587298286000,0.739932,1.81406070210147,8.89386997688382,-0.482524250650455,1.613906,-1.7595973,0.38515055,340.9205,-79.06908,10.457463,JUM
2587303297000,0.744943,1.6747940152807,8.21194373191234,-0.492128842824977,1.4752395,-1.7220291,0.40591997,341.3662,-79.12418,10.545059,JUM
2587308270000,0.749916,1.50327002248548,7.55437510721678,-0.496330876434277,1.3112222,-1.6444492,0.44043383,341.80325,-79.13756,10.637975,JUM
2587313415000,0.755061,1.2706830021968,6.90581493033769,-0.491858051815541,1.1798862,-1.5143349,0.46486846,342.20984,-79.12798,10.72613,JUM
2587318326000,0.759972,1.04434709697763,6.25498171324075,-0.459391292676773,1.0580186,-1.3393221,0.47769663,342.58054,-79.09304,10.81613,JUM
2587323318000,0.764964,0.79601001000212,5.45928945940846,-0.307348186950069,0.9202685,-1.1523973,0.48380527,342.9058,-79.04095,10.904669,JUM
2587328290000,0.769936,0.579813809583584,4.68424141153153,-0.139940248112112,0.79443026,-0.91996306,0.47342056,343.1692,-78.99928,10.96973,JUM
2587333308000,0.774954,0.435500253485485,3.94343181117117,0.0669091911691692,0.6426302,-0.65087694,0.46395215,343.364,-78.95078,11.031591,JUM
2587338303000,0.779949,0.316714507779638,3.21107519111855,0.298795239274321,0.50793445,-0.36102137,0.46303585,343.46744,-78.92177,11.066578,JUM
2587343319000,0.784965,0.255225296885585,2.48739450754234,0.592051466347972,0.3662137,-0.09621128,0.46303585,343.49768,-78.89518,11.09551,JUM
2587348310000,0.789956,0.228880802434809,1.7839335821161,0.93178912840044,0.23151793,0.1469131,0.46975538,343.38437,-78.90267,11.083108,JUM
2587353245000,0.794891,0.29498746205615,1.1323107387751,1.39453575068039,0.08674286,0.31123585,0.47800204,343.2197,-78.906334,11.070204,JUM
2587358268000,0.799914,0.388679540382919,0.4935914152917,1.77309160310746,-0.050396383,0.43982297,0.46395215,343.03864,-78.848816,11.116493,JUM
2587363290000,0.804936,0.55741605218324,-0.0752916179180031,1.88879665070168,-0.20525073,0.54550266,0.4465425,342.8168,-78.784164,11.162626,JUM
2587368252000,0.809898,0.72189350577253,-0.569755739136139,1.88004537352911,-0.3481932,0.65393126,0.41996986,342.5523,-78.652504,11.264261,JUM
2587373252000,0.814898,0.881361968785952,-0.87902794117469,1.5272817747805,-0.5183192,0.7648033,0.3744604,342.25537,-78.51768,11.354052,JUM
2587378243000,0.819889,1.01451076334059,-1.10265586068038,1.27900755653679,-0.6432411,0.8072584,0.344528,341.91495,-78.32236,11.484683,JUM
2587383267000,0.824913,1.08112412441653,-1.10741395435127,1.29803998090388,-0.72295904,0.7846564,0.33750305,341.5605,-78.113396,11.609105,JUM
2587388265000,0.829911,1.05340144617208,-1.0948353592117,1.29100243003062,-0.77763146,0.66950834,0.31673363,341.27487,-77.84835,11.798615,JUM
2587393233000,0.834879,0.762004664980737,-1.03373602620765,1.21110326828015,-0.87109387,0.52106804,0.23243423,341.0048,-77.58519,11.969538,JUM
2587398276000,0.839922,0.467772550272954,-0.876765264396208,1.08868315668663,-0.97219205,0.36468655,0.10995574,340.76733,-77.3085,12.141353,JUM
2587403271000,0.844917,0.181328529028942,-0.418454846956088,0.835657593213573,-1.0855075,0.23396139,-0.016798794,340.56567,-77.036125,12.2911825,JUM
2587408257000,0.849903,-0.0946288785759874,0.0609661038248081,0.538218971913792,-1.2241739,0.19364429,-0.12767084,340.4074,-76.831795,12.353413,JUM
2587414493000,0.856139,-0.398453981714272,0.751477703177319,-0.019714373367866,-1.3662001,0.3231477,-0.2406809,340.23984,-76.63729,12.378027,JUM
2587418292000,0.859938,-0.585643734256346,1.17052405672331,-0.355384522106146,-1.5027285,0.4089743,-0.27214047,340.1003,-76.537704,12.296162,JUM
2587423269000,0.864915,-0.855608450555905,1.70045480385987,-0.745333547480596,-1.5326608,0.6365216,-0.33414328,339.8898,-76.45807,12.169925,JUM
2587428251000,0.869897,-1.12420997087518,2.17617483237685,-1.12421913859397,-1.6013832,0.90469146,-0.38331795,339.7268,-76.45167,11.963436,JUM
2587433350000,0.874996,-1.39043966117647,2.37234401882353,-1.45116789647059,-1.6670512,1.1890492,-0.4352415,339.49875,-76.444176,11.731346,JUM
2587438320000,0.879966,-1.64389961288776,2.53875484071254,-1.76334774570408,-1.7153096,1.4908166,-0.4792238,339.24942,-76.52821,11.403462,JUM
2587443355000,0.885001,-1.83427443959391,2.43450198984772,-2.00811538680203,-1.7537941,1.772731,-0.5308419,338.92935,-76.60303,11.049142,JUM
2587448767000,0.890413,-2.03301666410016,2.31349569377152,-2.26286006410016,-1.7528778,1.9953914,-0.58001655,338.58398,-76.762245,10.603927,JUM
2587453331000,0.894977,-2.08773790512259,2.03988977435576,-2.31758130512259,-1.7256943,2.115121,-0.63621616,338.19208,-76.91509,10.135158,JUM
2587458509000,0.900155,-2.14240652459918,1.72282398139171,-2.36560403787117,-1.6636915,2.1337523,-0.6985244,337.79373,-77.12531,9.603722,JUM
2587463380000,0.905026,-2.10700288959302,1.34666108725927,-2.24611698922303,-1.6062702,2.0179935,-0.7626653,337.40305,-77.33276,9.056505,JUM
2587468270000,0.909916,-2.07146115787876,0.969030918442273,-2.12616386504127,-1.5317446,1.7907515,-0.82711154,337.0421,-77.550224,8.491035,JUM
2587473327000,0.914973,-1.87131065397678,0.323478991086467,-1.51303098082308,-1.4358387,1.4654657,-0.8888089,336.74478,-77.7761,7.9175367,JUM
2587478312000,0.919958,-1.66036287685843,-0.334181792629527,-0.867778847704904,-1.3478742,1.0488557,-0.9654725,336.54126,-78.01094,7.3363976,JUM
2587483341000,0.924987,-1.53556478930914,-0.578032365350554,-0.511740724858549,-1.2272283,0.8032878,-1.0424415,336.36612,-78.21964,6.762667,JUM
2587488297000,0.929943,-1.46502273832513,-0.568302420627306,-0.336601780799508,-1.102001,0.25809056,-1.0763446,336.39508,-78.436035,6.212528,JUM
2587493339000,0.934985,-1.39325659202542,-0.558403635055351,-0.158423702521525,-1.0256428,-0.34483343,-1.1481212,336.46124,-78.47223,5.72187,JUM
2587498373000,0.940019,-1.3216043150574,-0.548520555608856,0.019471665596556,-0.8237518,-0.96883225,-1.2030991,336.68982,-78.55049,5.252878,JUM
2587503335000,0.944981,-1.4194271154171,-0.510133685615089,-0.342397123613587,-0.56688297,-1.491733,-1.2052372,337.0614,-78.644325,4.8015265,JUM
2587508319000,0.949965,-1.58066463644553,-0.460866632823496,-0.906728681050014,-0.22876903,-1.7647897,-1.1841623,337.54025,-78.79822,4.358146,JUM
2587513415000,0.955061,-1.75033852704821,-0.321779877064963,-1.35839595227102,0.112399206,-1.5289958,-1.1643091,338.01306,-78.92914,3.9544487,JUM
2587518345000,0.959991,-1.91763704213465,-0.129133154764952,-1.71327151814668,0.3436117,-0.6215554,-1.1884383,338.3742,-79.110344,3.5209403,JUM
2587523324000,0.96497,-1.82273747732821,0.495698244099035,-0.768201703238826,0.40500367,0.8854492,-1.251052,338.51425,-79.45769,2.9786243,JUM
2587528344000,0.96999,-1.62869352359716,1.286072314101,0.670563160513881,0.23854288,2.5072963,-1.4776831,338.37292,-79.80047,2.3294663,JUM
2587533336000,0.974982,-0.642075648441842,2.93539008628424,2.21224141133386,-0.17623462,3.6135733,-1.8099937,337.97324,-80.15393,1.5384097,JUM
2587538329000,0.979975,0.686701540789996,4.95702972119889,3.80202836931322,-0.6942484,3.919617,-2.0711386,337.34558,-80.38219,0.66381866,JUM
2587543335000,0.984981,2.09486151909373,7.70005315375678,5.68899416343919,-1.0509937,3.4526103,-2.1587977,336.79037,-80.21872,-0.072460644,JUM
2587548942000,0.990588,3.7118071258811,11.147111128292,7.95583781332301,-1.0231993,2.368019,-2.134974,336.36148,-79.97535,-0.81246114,JUM
2587553332000,0.994978,4.3776200639066,13.1537096199342,7.94482331971816,-0.6383542,0.63713247,-2.0503693,336.096,-79.43348,-1.1936079,JUM
2587558327000,0.999973,4.84505829847768,15.1021886288829,7.06899168615511,-0.25045475,-0.9654725,-1.9825631,336.11234,-78.9163,-1.5084859,JUM
2587563348000,1.004994,5.02429756184813,16.3680834321084,6.06204866226728,0.14630222,-1.9110919,-2.0363193,336.37177,-78.30653,-1.3494312,JUM
2587568339000,1.009985,5.06157044131007,17.2905879771908,4.99977067325275,0.38698313,-1.6603317,-2.2452352,336.73233,-77.80813,-1.2310278,JUM
2587573371000,1.015017,4.93744427846276,17.9037094980541,5.01431532472139,0.31795537,-0.13408493,-2.4239132,337.01038,-77.67176,-1.0386357,JUM
2587578370000,1.020016,4.71725398073589,18.3229176085264,5.67912073258447,-0.21838433,1.8445076,-2.4193318,337.06415,-77.47753,-0.9627895,JUM
2587583365000,1.025011,3.98781012402705,18.6796157902185,7.34213594579604,-0.84574294,2.6196957,-2.1844542,336.9852,-77.43674,-0.96560043,JUM
2587588361000,1.030007,2.37469722508845,18.9285538372529,10.737639168564,-1.070236,3.395189,-1.9734001,336.36853,-77.34774,-1.1190559,JUM
2587593319000,1.034965,1.15360244210051,19.1125389465324,13.2056833298325,-1.2861768,2.9911017,-1.4245378,335.86823,-76.98775,-1.1745998,JUM
2587598348000,1.039994,0.40950095132367,19.2170475117611,14.5350334144606,-1.2507466,1.8399261,-0.79045963,335.36383,-76.65855,-1.157636,JUM
2587603334000,1.04498,-0.240735291971831,19.3145313767606,15.46067575,-1.1224649,0.7153232,-0.09682214,334.99112,-75.86405,-1.2762433,JUM
2587608327000,1.049973,-0.322514865408451,19.3722577905433,13.8347053,-1.0033462,-0.23732115,0.50335294,334.84793,-75.14135,-1.1802069,JUM
2587614975000,1.056621,-0.464110357997736,19.4327580745593,11.6193832679929,-0.9275989,-0.8567385,0.8127562,334.92596,-74.30435,-1.0705655,JUM
2587618986000,1.060632,-0.585256252354844,19.4513959583536,10.2277582874009,-0.623388,-0.91324353,0.84329945,335.06137,-73.62255,-0.8474679,JUM
2587623329000,1.064975,-0.716429680226427,19.4715765440725,8.72094520071163,-0.47769663,-0.8775079,0.8979719,335.26874,-73.13163,-0.50930655,JUM
2587628313000,1.069959,-0.856765652981427,19.4604757509286,7.14990487741936,-0.13164146,-0.6814202,0.9691377,335.42383,-72.80309,-0.17496666,JUM
2587633336000,1.074982,-0.993131755865102,19.4322620067449,5.64517610967742,0.23701571,-0.45081854,1.0543534,335.53635,-72.53653,0.16410916,JUM
2587638329000,1.079975,-0.954406110868143,19.2008953608074,4.60720088941221,0.6545421,-0.2687807,1.1343768,335.57895,-72.61616,0.48144606,JUM
2587643323000,1.084969,-0.811386696551724,18.8478166206897,3.84294126896552,1.0861185,-0.18203785,1.2043208,335.57635,-72.79578,0.7975527,JUM
2587648345000,1.089991,-0.643805413756591,18.4631990817338,3.34172477404556,1.4935656,-0.21533,1.258077,335.55493,-73.21014,1.0882887,JUM
2587653336000,1.094982,-0.452251107466779,18.0498445880616,3.12496593881038,1.8545868,-0.32650748,1.287093,335.53857,-73.710045,1.3792003,JUM
2587658328000,1.099974,-0.304030070520751,17.5970748702088,3.10779405157283,2.137723,-0.4813618,1.2916746,335.53857,-74.33091,1.6814224,JUM
2587663344000,1.10499,-0.185513610103093,17.1145439793814,3.2305433371134,2.3405302,-0.6246097,1.2892311,335.57794,-74.99919,1.9837024,JUM
2587668334000,1.10998,-0.108486977089882,16.7072339109399,3.34499626269646,2.4883597,-0.7287622,1.273654,335.6456,-75.69718,2.295262,JUM
2587673331000,1.114977,-0.118318573306626,16.4540700298921,3.44331219919877,2.5686884,-0.8246681,1.2293663,335.76297,-76.39973,2.5927587,JUM
2587678302000,1.119948,-0.128099014530046,16.2022233913713,3.54111658590139,2.5925121,-0.8594874,1.1566733,335.88766,-77.0643,2.8864505,JUM
2587683340000,1.124986,-0.138011278236261,15.9469823201849,3.64023919708783,2.5531113,-0.93462384,1.1065824,336.05737,-77.700134,3.1681254,JUM
2587688349000,1.129995,-0.214106035087719,15.3656784152047,3.74234725730994,2.5024095,-1.063211,1.0186177,336.2627,-78.31391,3.409912,JUM
2587693351000,1.134997,-0.378630116931217,14.3474080934744,3.84906559823633,2.3942864,-1.1801916,0.9324858,336.49066,-78.8737,3.6282685,JUM
2587698328000,1.139974,-0.515055545151515,13.3868422172189,3.87043125562164,2.2623394,-1.321607,0.85154617,336.72025,-79.370384,3.8143585,JUM
2587703368000,1.145014,-0.578846672424242,12.5575573913905,3.66083177218918,2.1099286,-1.5180001,0.77763146,337.0023,-79.81573,3.9753537,JUM
2587708310000,1.149956,-0.62642331110089,11.7118126523348,3.41891230247975,1.9437732,-1.7131716,0.72021013,337.312,-80.18998,4.1033535,JUM
2587713385000,1.155031,-0.587545375669433,10.6523885147485,2.95723674628537,1.7760907,-1.8524488,0.6627888,337.66116,-80.51621,4.2069716,JUM
2587718342000,1.159988,-0.534246224560008,9.62068400071592,2.46207358889331,1.5766432,-1.9220876,0.6239988,338.04547,-80.7947,4.2968903,JUM
2587723369000,1.165015,-0.395423947558914,8.59148430227702,1.71530546606344,1.3732251,-1.9382755,0.5842926,338.44955,-81.02655,4.3648467,JUM
2587728384000,1.17003,-0.244586423197419,7.5821117386917,0.976410122246993,1.1951579,-1.8747455,0.5561928,338.8459,-81.23038,4.4280763,JUM
2587733375000,1.175021,-0.0249229235670285,6.67541565025912,0.275356381124474,1.0332786,-1.7476854,0.5488624,339.2213,-81.3843,4.4762583,JUM
2587738315000,1.179961,0.176982864974678,5.77359944198758,-0.425856309171524,0.8933904,-1.5589281,0.5540548,339.5617,-81.55338,4.5380664,JUM
2587743364000,1.18501,0.227808120504539,4.80791954832298,-1.21595795877114,0.7874053,-1.3271047,0.5693264,339.84717,-81.68677,4.5868087,JUM
2587748744000,1.19039,0.277047723817431,3.79658320900202,-2.0422717942178,0.7150178,-1.0210613,0.54825157,340.12793,-81.852394,4.69236,JUM
2587753375000,1.195021,0.269571285809171,3.10501330802428,-2.59552773061362,0.6713409,-0.677755,0.5158757,340.32843,-81.993614,4.783816,JUM
2587758346000,1.199992,0.261545940670094,2.3626695425826,-3.1894027597269,0.6774496,-0.2968805,0.47616947,340.51624,-82.19999,4.9031944,JUM
2587763340000,1.204986,0.232086342002924,1.74929345090643,-3.65950234292398,0.6957755,0.10903945,0.44409904,340.59988,-82.394966,5.001601,JUM
2587768348000,1.209994,0.190015603211501,1.21172277223197,-4.05683725816764,0.70096785,0.5662721,0.41325033,340.56146,-82.587166,5.074786,JUM
2587773330000,1.214976,0.197742984282171,0.811423920815652,-4.1574347420226,0.68416905,1.0228939,0.39767328,340.4481,-82.828606,5.145483,JUM
2587778320000,1.219966,0.241637787184716,0.508549822955819,-4.04330816647378,0.6478226,1.2082914,0.4098906,340.28275,-83.05432,5.211323,JUM
2587783354000,1.225,0.317662135913186,0.254314817448812,-3.65354000741196,0.6215554,1.5036448,0.42424592,339.97464,-83.30125,5.259292,JUM
2587788333000,1.229979,0.439700718740786,0.0785792314674447,-2.862729892414,0.59498274,1.6600263,0.46883908,339.65372,-83.51219,5.3210063,JUM
2587793331000,1.234977,0.529487277436998,-0.0769335643429158,-1.93279874839929,0.4972443,1.6523905,0.5225952,339.28613,-83.65393,5.407805,JUM
2587798351000,1.239997,0.578846190821355,-0.207061581714579,-0.828954232905544,0.35033122,1.4779885,0.5742133,338.92285,-83.75267,5.509278,JUM
2587803314000,1.24496,0.577662247609136,-0.31658144471379,0.263722108766985,0.1777618,1.1710287,0.6444628,338.55844,-83.70715,5.6778054,JUM
2587808338000,1.249984,0.459429241352992,-0.38265282906765,1.37302586580659,-0.013133603,0.7684685,0.70432764,338.27307,-83.618965,5.8633695,JUM
2587814957000,1.256603,0.303660079647297,-0.469700299815698,2.83450706959743,-0.2049453,0.071776666,0.78038037,338.10333,-83.37562,6.1201057,JUM
2587818335000,1.259981,0.000374292897822481,-0.567788631088777,2.89901543389168,-0.48808134,-0.13958271,0.79168135,337.9095,-83.10094,6.375461,JUM
2587823330000,1.264976,-0.533809414137353,-0.733385598676717,2.73341849419319,-0.5693264,-0.5103779,0.7849618,337.96085,-82.810974,6.659306,JUM
2587828392000,1.270038,-1.11083322033416,-0.899599843611164,2.32288839911714,-0.71868294,-0.74464476,0.73456544,337.8758,-82.432686,6.849436,JUM
2587833371000,1.275017,-1.69023454412379,-1.0625564541105,1.83854509024112,-0.8176431,-0.8142834,0.61636305,337.84042,-82.05264,7.0249596,JUM
2587838384000,1.28003,-2.18310647168815,-1.00698798410314,1.34793824301086,-0.8790351,-0.73548174,0.46578476,337.8718,-81.77196,7.095693,JUM
2587843316000,1.284962,-2.61942615777078,-0.834377997299767,0.863671266054208,-0.8921687,-0.57818395,0.29718593,337.89496,-81.50524,7.130062,JUM
2587848361000,1.290007,-2.796527337917,-0.288810353107625,0.455651386588562,-0.8729264,-0.40653083,0.14049901,338.03778,-81.390884,7.039851,JUM
2587853337000,1.294983,-2.83910963577244,0.430355384303018,0.0960685327045274,-0.8197812,-0.24190263,0.0571159,338.13733,-81.29073,6.9178343,JUM
2587858329000,1.299975,-2.74650059635953,0.910070089912668,-0.206687439654597,-0.75136423,-0.07788532,0.034513887,338.26938,-81.3471,6.66201,JUM
2587863346000,1.304992,-2.58148831073496,1.26366761977235,-0.480136250560298,-0.72173727,0.080634214,0.039095376,338.35733,-81.40707,6.3831778,JUM
2587868341000,1.309987,-2.37960925231551,1.42603188115587,-0.706585184800452,-0.72143185,0.2312125,0.029626964,338.4288,-81.5631,6.0475163,JUM
2587874162000,1.315808,-2.1172476760448,1.47850421832643,-0.937463369727033,-0.7440339,0.3652974,0.0030543262,338.46188,-81.713,5.7032127,JUM
2587878323000,1.319969,-1.92747640294494,1.45152587955612,-1.11045584972258,-0.77763146,0.42180246,-0.030848695,338.48727,-81.87662,5.3766236,JUM
2587883342000,1.324988,-1.69668578517926,1.3643383735382,-1.32586038346137,-0.79320854,0.5357288,-0.05375614,338.46048,-82.03337,5.0399585,JUM
2587888414000,1.33006,-1.49481146592328,1.23509865636832,-1.56992135291902,-0.8216137,0.6575964,-0.087659165,338.41843,-82.16518,4.7398233,JUM
2587893311000,1.334957,-1.3181726132917,1.08635008502329,-1.82093456403013,-0.8393288,0.7984009,-0.12339478,338.34033,-82.292496,4.4283876,JUM
2587898402000,1.340048,-1.15220412018425,0.915564439717104,-2.06683819272287,-0.84604836,0.9560041,-0.14905111,338.21823,-82.40144,4.1516504,JUM
2587903347000,1.344993,-1.00236709987437,0.739285589586823,-2.29600065647683,-0.80756384,1.1078042,-0.17440203,338.05905,-82.516495,3.8602872,JUM
2587908331000,1.349977,-0.887490221898171,0.518364152120613,-2.43781093460208,-0.73884153,1.2443326,-0.19700404,337.85614,-82.642426,3.5956504,JUM
2587913359000,1.355005,-0.816083152456747,0.242256744041522,-2.47113422207612,-0.6374379,1.3454307,-0.23823744,337.62103,-82.78856,3.3145685,JUM
2587918333000,1.359979,-0.700923476605271,-0.00938385059733388,-2.40893866513687,-0.52931476,1.3720033,-0.28924468,337.3642,-82.96959,3.0584295,JUM
2587923335000,1.364981,-0.525436040948407,-0.233617763921848,-2.2188273910349,-0.4196644,1.2974777,-0.35430184,337.10803,-83.18265,2.7867637,JUM
2587928309000,1.369955,-0.36020598414761,-0.384357144766906,-1.96854189005791,-0.33841935,1.1111639,-0.43463063,336.86945,-83.411156,2.519656,JUM
2587933344000,1.37499,-0.204034199703602,-0.450611839550496,-1.64200081703798,-0.3100141,0.82253003,-0.5225952,336.682,-83.66087,2.237187,JUM
2587938321000,1.379967,-0.0927037957987169,-0.409644649109864,-1.35670403023256,-0.31642818,0.46792278,-0.6056729,336.54437,-83.864456,1.9918581,JUM
2587943311000,1.384957,-0.0400102396369286,-0.222822035306736,-1.12197820174419,-0.33414328,0.08124508,-0.70432764,336.49994,-84.0794,1.7259585,JUM
2587948293000,1.389939,-0.023374617320494,-0.00651031510732138,-0.917422055601294,-0.34422258,-0.30879238,-0.82344633,336.53452,-84.212296,1.4908867,JUM
2587953350000,1.394996,-0.0566010586494168,0.254554576446143,-0.751289866304028,-0.3286455,-0.70005155,-0.93126404,336.68137,-84.3479,1.241384,JUM
2587958258000,1.399904,-0.106021347705176,0.558837155349519,-0.674094924987632,-0.32070425,-1.0091494,-1.0497719,336.90765,-84.42709,0.98116267,JUM
2587963344000,1.40499,-0.186345440822538,0.960457639574897,-0.736569210211635,-0.33567044,-1.0173961,-1.1722504,337.16205,-84.49792,0.6915231,JUM
2587968295000,1.409941,-0.202138838943898,1.50494999229273,-0.858641327444601,-0.453262,-0.45998153,-1.312444,337.35062,-84.50167,0.35383168,JUM
2587973328000,1.414974,0.0375328821997622,2.68767784423306,-1.23377965205708,-0.7483099,0.76052725,-1.4126259,337.35416,-84.430305,-0.024885794,JUM
2587978284000,1.41993,0.127198820751975,4.22291495410124,-1.24321388670711,-1.2608259,1.5879441,-1.4575244,337.34106,-84.27839,-0.43936983,JUM
2587983344000,1.42499,-0.0618527383624305,6.50098617579245,-0.56262827389525,-1.582141,3.3173037,-1.5552629,336.7293,-84.06266,-0.95269805,JUM
2587988282000,1.429928,-0.305643936595681,8.8972147040412,0.725251514633914,-2.1160371,4.2675047,-1.7232509,336.11462,-83.71878,-1.4275998,JUM
2587993323000,1.434969,-0.697748539900951,11.7614913312203,3.54649193446593,-2.196977,3.7442985,-1.9920316,335.44037,-83.378006,-1.9543147,JUM
2587998425000,1.440071,-1.02059912128987,14.2378273652279,6.09723177180803,-1.6490307,1.9908098,-2.332589,335.04044,-83.029564,-2.3862436,JUM
2588003366000,1.445012,-1.16342737888118,15.6661104382735,7.86830212616963,-0.68203104,0.010995574,-2.695443,334.88507,-82.745094,-2.8503172,JUM
2588008315000,1.449961,-1.23668786543729,16.8791015084132,9.08417928438662,0.16157386,-1.0067059,-3.0433307,334.84918,-81.954346,-3.5135987,JUM
2588015198000,1.456844,-1.10771672707885,17.8463838677363,8.929414133829,0.4810564,-0.28710666,-3.26874,334.89685,-81.27586,-4.221073,JUM
2588018330000,1.459976,-1.00628303407058,18.1985617604443,9.05781236046397,0.016493361,0.07391469,-3.1447344,335.30826,-80.388275,-4.8708973,JUM
2588023381000,1.465027,-0.740003926511354,18.5551862922442,9.74252945561781,-0.2519819,0.17592919,-2.5919013,335.58594,-79.69899,-5.461763,JUM
2588028335000,1.469981,-0.505893352621688,18.8642961488442,10.1250867695922,-0.72204274,-0.3454443,-1.8164078,335.92493,-79.011375,-5.882716,JUM
2588033383000,1.475029,-0.365068753020109,19.0323767133997,9.47093437041909,-0.8979719,-0.8698721,-0.9776898,336.21014,-78.46094,-6.125543,JUM
2588038334000,1.47998,-0.175830340876831,19.1907343569218,8.83340226736125,-0.81397796,-0.9147707,-0.23884831,336.44388,-77.94941,-6.1191134,JUM
2588043330000,1.484976,0.534896362164225,19.2845111425624,8.23125872314834,-0.5543602,-0.7293731,0.12950343,336.72897,-77.526596,-5.983235,JUM
2588048344000,1.48999,1.21631630350116,19.3709394286147,7.63338281472102,-0.20525073,-0.5891795,0.26511553,336.94028,-77.3112,-5.7139077,JUM
2588053345000,1.494991,1.7188827436182,19.4144306193119,7.07282783440622,0.10476339,-0.4642576,0.44806966,337.07056,-77.20437,-5.35874,JUM
2588058317000,1.499963,2.15536782734006,19.4540199665388,6.51352734523066,0.36468655,-0.42394048,0.6979135,337.1067,-77.32229,-4.850692,JUM
2588063348000,1.504994,2.27574488351923,19.4755158533952,5.93743726323726,0.623388,-0.47555858,0.904386,337.12097,-77.51221,-4.3343525,JUM
2588068269000,1.509915,2.39348996271973,19.4965417447131,5.37394306854644,0.8958339,-0.6569856,1.0793989,337.08557,-77.85693,-3.7096791,JUM
2588073332000,1.514978,2.26074396013325,19.5079143373093,4.54278184895766,1.1884383,-0.78038037,1.2403619,337.03818,-78.25255,-3.0645094,JUM
2588078373000,1.520019,2.08526192934307,19.5178750368856,3.69477021818005,1.4700472,-0.9828822,1.3020593,337.05997,-78.68173,-2.4152339,JUM
2588083339000,1.524985,1.66406320846715,19.5225041705109,2.89402995264234,1.6093245,-1.0977248,1.387275,337.06015,-79.17412,-1.7383139,JUM
2588088647000,1.530293,1.21114835558282,19.4896243879188,2.06646983089193,1.8698585,-1.1520919,1.4367551,337.10583,-79.79804,-1.1099803,JUM
2588093316000,1.534962,0.780677440368098,19.0127297753657,1.67398161627183,2.108096,-1.1765264,1.4321736,337.1822,-80.40222,-0.49819857,JUM
2588098431000,1.540077,0.309086364907975,18.490280440774,1.24400148823974,2.3252585,-1.1640037,1.3939945,337.31604,-81.10317,0.02687338,JUM
2588103339000,1.544985,-0.14125787,17.6605899,1.029985587,2.5247061,-1.1227703,1.3264939,337.4596,-81.8124,0.51646745,JUM
2588108322000,1.549968,-0.598265577439516,16.7850597211694,0.832750640969758,2.6713138,-1.0192287,1.2363913,337.59262,-82.512856,0.96212244,JUM
2588113387000,1.555033,-0.961057144799758,15.8856784876425,0.73417576916776,2.7605,-0.8604037,1.1301007,337.75006,-83.24885,1.2961705,JUM
2588118310000,1.559956,-1.30349204589932,15.0105664446686,0.648567038926662,2.7974575,-0.7516697,1.0311406,337.9018,-83.96097,1.5876049,JUM
2588123363000,1.565009,-1.53806329824578,14.0419279512716,0.877497360265454,2.7669141,-0.7470882,0.93523467,338.0422,-84.659615,1.7636362,JUM
2588128284000,1.56993,-1.75677251639131,13.0927298997587,1.12682594111751,2.6847527,-0.86742866,0.82894415,338.19763,-85.31512,1.8962334,JUM
2588133380000,1.575026,-1.85325938334035,11.9456887306234,1.47056832283067,2.554333,-1.0629056,0.7516697,338.39682,-85.93611,1.9577181,JUM
2588138267000,1.579913,-1.9074738448294,10.7973286458509,1.82542648521483,2.3652701,-1.3075571,0.6762278,338.6507,-86.48829,1.9820063,JUM
2588143362000,1.585008,-1.69997171598103,8.67142933694705,2.24281006151389,2.121535,-1.568702,0.6065892,338.97507,-86.95279,1.9546959,JUM
2588148361000,1.590007,-1.45436655393476,6.43781289337915,2.65987531051205,1.8188512,-1.8219056,0.51893,339.36697,-87.34383,1.8943362,JUM
2588153461000,1.595107,-1.22024851408931,5.28401769759157,2.56738568540893,1.4679092,-2.017077,0.43463063,339.79422,-87.641174,1.8135173,JUM
2588158258000,1.599904,-1.00357247689915,4.4403640364275,2.36915010568991,1.0855075,-2.1526892,0.3475823,340.27182,-87.882935,1.7011384,JUM
2588163404000,1.60505,-0.734334531198951,3.75516179872945,1.90041335303015,0.70096785,-2.2186625,0.2764165,340.80392,-87.99472,1.6603336,JUM
2588168272000,1.609918,-0.471078078481396,3.15813377553696,1.39740556865988,0.32742378,-2.2351558,0.22082779,341.35385,-88.06235,1.5944139,JUM
2588173361000,1.615007,-0.255492649577688,2.63070738013055,0.461162466699634,0.012217305,-2.2214115,0.1994475,341.90915,-88.06875,1.5636295,JUM
2588178339000,1.619985,-0.057462735572347,2.13563260250223,-0.543132121590347,-0.22021692,-2.1536055,0.19058995,342.4464,-88.031975,1.5178183,JUM
2588183379000,1.625025,0.0628565352986597,1.73915597143429,-1.77620927388478,-0.29229903,-1.9874501,0.19242255,342.92072,-87.972626,1.4962538,JUM
2588188296000,1.629942,0.161763551266653,1.37649697583517,-3.02903141516303,-0.3549127,-1.6609426,0.204029,343.32098,-87.86347,1.4719645,JUM
2588193319000,1.634965,0.192631994569738,1.0498593692735,-3.82203549230983,-0.30970868,-1.178359,0.23976462,343.70187,-87.82756,1.5004977,JUM
2588199074000,1.64072,0.207914697878732,0.688168672873648,-4.59126504822997,-0.1695151,-0.5564982,0.30604348,343.94495,-87.79245,1.5355324,JUM
2588203362000,1.645008,0.280876381664099,0.51402218833282,-4.74689419583975,0.014966198,0.05589417,0.37965274,344.14148,-87.874344,1.60186,JUM
2588208338000,1.649984,0.388569468053416,0.347587429610683,-4.77136987986646,0.17898351,0.52412236,0.44043383,344.2011,-87.95144,1.6796364,JUM
2588213385000,1.655031,0.522643681897218,0.290347844553709,-4.4129689500483,0.30940324,0.8472701,0.50854534,344.15207,-88.05482,1.7705908,JUM
2588218370000,1.660016,0.665606566846986,0.281124429204019,-3.89645779640649,0.40958515,1.0381655,0.58001655,344.0079,-88.07961,1.8791404,JUM
2588223370000,1.665016,0.805826966726457,0.262629731583458,-3.30462630335825,0.42119157,1.0952814,0.6462954,343.8049,-92.0282,2.0279346,JUM
2588228370000,1.670016,0.944206338923767,0.238771216386647,-2.66998993066268,0.3717115,1.0690142,0.7101309,343.57376,-92.249504,2.1981678,JUM
2588233375000,1.675021,0.983818131647238,0.251140473678662,-2.07654302153066,0.27183503,1.0235047,0.7315111,343.3055,-92.55843,2.418143,JUM
2588238371000,1.680017,0.964417952103396,0.285090818266599,-1.50908736472377,0.118507855,0.95233893,0.70005155,343.05527,-92.88998,2.6430027,JUM
2588243369000,1.685015,0.881470758277241,0.376139350478978,-0.994989258985465,-0.04642576,0.8772025,0.6630942,342.7894,-93.22494,2.9176476,JUM
2588248399000,1.690045,0.763991136191591,0.498318143708906,-0.506274056624719,-0.21502456,0.8173377,0.63346726,342.5417,-93.53819,3.186812,JUM
2588253372000,1.695018,0.576807602372933,0.566506545070423,0.0847485853276178,-0.39095375,0.7672467,0.6017023,342.2941,-93.79157,3.454058,JUM
2588258374000,1.70002,0.342131849825475,0.600730088169014,0.749663209887732,-0.6068946,0.66859204,0.5833763,342.07846,-94.02083,3.7168722,JUM
2588263374000,1.70502,-0.0395552089518414,0.501493692209632,1.20022077790368,-0.8491027,0.53023106,0.54244834,341.87244,-94.17345,3.9439828,JUM
2588268615000,1.710261,-0.524952530693563,0.320082561930253,1.5483340186285,-1.087951,0.37048978,0.47647488,341.70013,-94.31073,4.1578856,JUM
2588273363000,1.715009,-1.17244153497498,0.0827158670754439,1.62449344089081,-1.258077,0.30085114,0.37323865,341.50128,-94.36051,4.2946763,JUM
2588278369000,1.720015,-1.98612535977632,-0.213596708501913,1.55394277737663,-1.3255776,0.22204952,0.2932153,341.34842,-94.43191,4.418711,JUM
2588283360000,1.725006,-2.61151719227622,-0.355373016798723,1.49619229954096,-1.4046847,0.24556783,0.07971791,341.19675,-85.62138,4.376038,JUM
2588288368000,1.730014,-3.0901184739048,-0.374517070062868,1.44833224134318,-1.4178182,0.32620203,-0.12186762,341.05142,-85.63807,4.3160973,JUM
2588293327000,1.734973,-3.32702714730951,-0.293515389576984,1.35785756494501,-1.4196508,0.43035457,-0.2724459,340.99368,-85.81665,4.0367026,JUM
2588298385000,1.740031,-3.3698350912608,-0.127040325042027,1.2294339317557,-1.3854424,0.5705481,-0.36377025,340.90674,-85.9715,3.7172465,JUM
2588303338000,1.744984,-3.23212574914123,0.0479122334878791,1.12047235125135,-1.3359623,0.68752885,-0.3866777,340.8556,-86.17766,3.2659588,JUM
2588308343000,1.749989,-2.92164318495436,0.236083469267642,1.02638670192364,-1.2861768,0.745561,-0.3885103,340.78674,-86.31357,2.7942574,JUM
2588313333000,1.754979,-2.49883928823648,0.464828748256659,0.865388938797417,-1.2284501,0.73884153,-0.37048978,340.7184,-86.39531,2.3082514,JUM
2588318302000,1.759948,-1.95152945499395,0.738483669891041,0.630141700133172,-1.1746938,0.70341134,-0.33017266,340.64728,-86.38863,1.8295498,JUM
2588323299000,1.764945,-1.4110434744484,1.03152316259391,0.345715515595097,-1.1499538,0.63529986,-0.24007004,340.58514,-86.29629,1.4619267,JUM
2588328309000,1.769955,-0.879831748113879,1.3445586204824,0.00896523558323448,-1.1398746,0.5516113,-0.14508049,340.54315,-86.16212,1.1117584,JUM
2588333303000,1.774949,-0.38708417996636,1.59145544250519,-0.381235939420204,-1.1343768,0.4859433,-0.050396383,340.5002,-86.07208,0.9552111,JUM
2588338776000,1.780422,0.105576067404769,1.77814777379044,-0.879082091200158,-1.1606439,0.44409904,0.027794369,340.47723,-85.96651,0.8251956,JUM
2588343277000,1.784923,0.490218548675624,1.89387325988484,-1.29623278618042,-1.1963795,0.42546764,0.099571034,340.45047,-85.86372,0.8472884,JUM
2588348303000,1.789949,0.894956609481766,1.97746044952015,-1.77136007575176,-1.241889,0.44623706,0.14813483,340.42273,-85.749275,0.8841748,JUM
2588353232000,1.794878,1.27020945719298,2.04824932584795,-2.23511477321637,-1.2858714,0.49357912,0.19822577,340.31253,-85.54253,0.9573204,JUM
2588358270000,1.799916,1.5831414122807,2.08415963274854,-2.7019476380117,-1.3072516,0.59650993,0.20708331,340.18088,-85.33239,1.0310222,JUM
2588363241000,1.804887,1.81840726021349,2.12457433416934,-3.1283484251425,-1.3353515,0.7415904,0.18692477,339.9928,-85.15147,1.1910076,JUM
2588368255000,1.809901,1.92291343500881,2.17433915456524,-3.4966083558918,-1.3545936,0.8063421,0.11728613,339.8009,-84.97108,1.3390833,JUM
2588373200000,1.814846,1.96075661584791,2.27743012882688,-3.66293943169581,-1.3161092,0.9089675,0.06536258,339.54657,-84.848816,1.5409918,JUM
2588378240000,1.819886,1.9085913283651,2.45763731452152,-3.5586088567302,-1.2770138,0.9282097,-0.07971791,339.3042,-84.73488,1.6975461,JUM
2588383200000,1.824846,1.75304561738005,2.79089351385626,-3.2949324327394,-1.1691961,0.87109387,-0.25045475,339.0631,-84.71413,1.846559,JUM
2588388251000,1.829897,1.42561914288274,3.38315036408521,-2.76527193266972,-1.0714576,0.81306165,-0.44073927,338.82327,-84.71805,1.949696,JUM
2588393225000,1.834871,1.10442023510759,4.15835499316723,-2.20268361555304,-1.0638218,0.8894198,-0.634689,338.57025,-84.73586,1.9910424,JUM
2588398297000,1.839943,0.778946175311438,5.26771718372971,-1.56090382046055,-1.2055426,1.3038919,-0.83077675,338.2426,-84.763054,1.9734571,JUM
2588403306000,1.844952,0.419150506596195,6.721101460936,-0.839006889659812,-1.5754215,2.2766948,-1.0534371,337.75842,-84.7053,1.8079693,JUM
2588408330000,1.849976,-0.0432161795771671,9.12540821165674,0.118092147049779,-2.1792617,3.9843686,-1.3066407,336.9528,-84.55915,1.5524383,JUM
2588414926000,1.856572,-0.863985007564269,12.3864931622193,3.75565397455255,-2.8906143,6.433022,-1.6890424,335.7387,-84.22947,1.1209756,JUM
2588418340000,1.859986,-1.45979761516922,14.1579719904003,7.54331999629027,-3.3918293,6.4269133,-1.8167132,334.75897,-83.75982,0.7210692,JUM
2588423289000,1.864935,-2.32349901969086,16.7259417386918,13.0339934413928,-3.1737504,4.7119093,-2.1062634,333.70612,-83.16112,0.109258324,JUM
2588428325000,1.869971,-2.02590028567198,17.795707534626,13.7437671665871,-2.0851886,1.7266107,-2.400395,333.0678,-82.65205,-0.45407405,JUM
2588433343000,1.874989,-1.30521478056166,18.3052360886427,12.6925764526698,-0.8032878,-0.8191703,-2.5042422,332.82645,-82.25631,-0.9647679,JUM
2588438332000,1.879978,-0.865662849876917,18.6446150320015,10.8142609397841,-0.13133603,-1.9000963,-2.2583687,332.79022,-80.846375,-1.6331868,JUM
2588443365000,1.885011,-0.573596506561257,18.8956102940731,8.46403959458436,-0.20922135,-1.8020525,-1.7654005,333.15112,-79.68273,-2.1816525,JUM
2588448397000,1.890043,-0.637162245642894,19.0864287204581,6.39103253463821,-0.59712076,-1.4422529,-1.1136073,333.6832,-78.91163,-2.4302876,JUM
2588453356000,1.895002,-0.993162221270172,19.2248728485164,4.57642152122853,-0.7648033,-1.2592987,-0.50976706,334.21347,-78.25868,-2.5468774,JUM
2588458324000,1.89997,-1.39415872739474,19.3158401334804,3.61990094566097,-0.61819565,-1.1157454,-0.13225232,334.6595,-78.00418,-2.5218189,JUM
2588463344000,1.90499,-1.82727194122081,19.3777137793712,3.19562672521603,-0.2565634,-0.81306165,-0.056505036,334.9866,-77.79764,-2.442815,JUM
2588468334000,1.90998,-1.89391000972489,19.4278642786308,3.26604347072937,0.10476339,-0.5910121,-0.1414153,335.3501,-77.88648,-2.375026,JUM
2588473330000,1.914976,-1.49596097615696,19.4635773146726,3.96500544654511,0.355829,-0.08155051,-0.17470746,335.53418,-78.04379,-2.3179085,JUM
2588478324000,1.91997,-0.873840025197388,19.4870805858271,4.90492707271664,0.44104472,0.33200526,-0.13897185,335.70023,-78.26513,-2.3704104,JUM
2588483321000,1.924967,-0.0761738591051759,19.5010750109172,6.03378780368457,0.5708536,0.41874814,-0.0070249503,335.81097,-78.5567,-2.4154186,JUM
2588488328000,1.929974,0.533331791604576,19.5127318580229,6.69152185303608,0.7119634,0.15577064,0.14172074,335.86496,-78.78503,-2.3990664,JUM
2588493308000,1.934954,0.957700385561748,19.5220588278087,6.89204761308302,0.86376345,-0.2611449,0.30268374,335.93332,-79.050644,-2.340542,JUM
2588498400000,1.940046,1.16234686863586,19.5293986458437,6.65731980467019,1.0299188,-0.6817256,0.45570546,335.97226,-79.23918,-2.1248944,JUM
2588503337000,1.944983,1.11044708105977,19.5341164097395,5.94959560778365,1.1881329,-1.0396926,0.58551437,336.10165,-79.46673,-1.8625134,JUM
2588508330000,1.949976,0.959872459616685,19.4952261217587,5.1163576119504,1.3408492,-1.2767084,0.6719518,336.25247,-79.702446,-1.5198908,JUM
2588513389000,1.955035,0.691317859096204,19.4041907380684,4.13317480268696,1.5091426,-1.3906348,0.7089091,336.45837,-79.9754,-1.158309,JUM
2588518307000,1.959953,0.424218856501664,19.2130931623336,3.22489999665141,1.647809,-1.3933836,0.73364913,336.69202,-80.32241,-0.80970305,JUM
2588523350000,1.964996,0.137939472945091,18.8062742054909,2.39117409800333,1.7708983,-1.3219124,0.7504479,336.9293,-80.69334,-0.4665412,JUM
2588528290000,1.969936,-0.133752729583923,18.3448969416926,1.75006186940277,1.8832976,-1.2202033,0.75502944,337.1839,-81.16773,-0.1880235,JUM
2588533349000,1.974995,-0.39887641430701,17.7780817895084,1.35694745119351,1.9734001,-1.1081096,0.7309003,337.4126,-81.64871,0.06998213,JUM
2588538259000,1.979905,-0.631425839091189,17.1807948933224,1.03358885766745,2.0366247,-1.0128145,0.6792821,337.64502,-82.19696,0.2603301,JUM
2588543345000,1.984991,-0.80629169569802,16.4363654882552,0.853726789906657,2.068695,-0.9379836,0.61575216,337.8516,-82.74046,0.4258935,JUM
2588548343000,1.989989,-0.906197029042971,15.6617847218476,0.730825893821073,2.0390682,-0.88789266,0.5555819,338.05692,-83.29996,0.52632886,JUM
2588553453000,1.995099,-0.866798836479823,14.7851752008655,0.711126810395492,1.9767599,-0.84238315,0.4981606,338.24396,-83.8414,0.5990996,JUM
2588558868000,2.000514,-0.773061286338262,13.9449465512221,0.737274693101237,1.8903224,-0.788627,0.4615087,338.42398,-84.37096,0.6328119,JUM
2588563372000,2.005018,-0.63639672285003,13.346225441385,0.812114806348069,1.7654005,-0.7244862,0.44226643,338.58887,-84.85721,0.64767367,JUM
2588568281000,2.009927,-0.487443272103199,12.6936672868135,0.893684547895293,1.6038266,-0.69974613,0.43188173,338.74445,-85.28659,0.65423024,JUM
2588573363000,2.015009,-0.27716187303435,11.8934846622926,1.10561664096874,1.5091426,-0.6771441,0.43554693,338.88242,-85.687126,0.652858,JUM
2588578349000,2.019995,-0.046797354467966,11.0549577138171,1.36823218117522,1.325883,-0.7089091,0.45814893,339.02817,-86.00536,0.6505494,JUM
2588583303000,2.024949,0.180304408965915,10.253648376214,1.59905645068719,1.1371256,-0.77824235,0.47769663,339.15372,-86.25341,0.669302,JUM
2588588336000,2.029982,0.409954735712205,9.45870507174272,1.81545774249588,0.94959,-0.87964594,0.50823987,339.29608,-86.440155,0.694917,JUM
2588593453000,2.035099,0.616063562794364,8.63804947908168,1.94116185971032,0.7733554,-1.0161743,0.5665775,339.41763,-86.53022,0.76506454,JUM
2588598389000,2.040035,0.783741170440438,7.83226530393142,1.95513498557493,0.5907067,-1.14018,0.6203337,339.5619,-86.55856,0.84068805,JUM
2588603379000,2.045025,0.917092264614477,7.00830685426829,1.88518895453383,0.4529566,-1.2654073,0.6722572,339.71924,-86.50776,0.9777394,JUM
2588608334000,2.04998,1.00109657057435,6.17759808292683,1.70317968992919,0.34330627,-1.3716979,0.70738196,339.9001,-86.40635,1.1238496,JUM
2588614941000,2.056587,1.00985572562687,4.43928747779104,0.781601780835821,0.28405234,-1.3988814,0.73884153,340.0959,-86.26088,1.322839,JUM
2588618337000,2.059983,0.967786364850746,3.26134591671642,0.00170095313432828,0.25473082,-1.3567317,0.74036866,340.2928,-86.08845,1.520534,JUM
2588623259000,2.064905,0.908536228128231,1.94427745616302,-0.929205387345925,0.25167647,-1.1859949,0.732122,340.4635,-85.914024,1.7428188,JUM
2588629053000,2.070699,0.842347731919483,1.19965688101392,-1.61315316422465,0.267559,-0.91751957,0.6976081,340.5851,-85.73522,1.9518077,JUM
2588633277000,2.074923,0.802506771691126,0.739512831222299,-1.93870400007879,0.29016098,-0.58032197,0.6759224,340.779,-85.71398,2.2092698,JUM
2588638369000,2.080015,0.768885599158869,0.326452800382153,-2.03476450735743,0.31490102,-0.25167647,0.67103547,340.8979,-85.68278,2.4559007,JUM
2588643277000,2.084923,0.732922185780198,-0.0156965238903756,-2.0438596272031,0.3539964,0.002443461,0.6844745,340.98355,-85.71336,2.6943033,JUM
2588648479000,2.090125,0.686951424868506,-0.254744643838701,-1.86917054372981,0.32620203,0.1695151,0.71593404,341.00125,-85.71098,2.932805,JUM
2588653302000,2.094948,0.644860111456559,-0.47870981132879,-1.66977415609029,0.29260445,0.2669481,0.7535023,340.97336,-85.699524,3.1727178,JUM
2588658363000,2.100009,0.603575402715077,-0.726417934450596,-1.2569273381069,0.22418754,0.28710666,0.8008443,340.9209,-85.64403,3.424093,JUM
2588663340000,2.104986,0.551822949345372,-0.931047231286682,-0.860031850519187,0.1337795,0.22113322,0.82436264,340.86243,-85.5403,3.6792126,JUM
2588668376000,2.110022,0.471354836093827,-1.03991584404947,-0.481358378720188,-0.01038471,0.16523905,0.84299403,340.7962,-85.39031,3.9471707,JUM
2588673339000,2.114985,0.35738521270453,-1.15563102595537,-0.162567232933627,-0.08277224,0.03970624,0.8417723,340.7557,-85.19138,4.2239747,JUM
2588678364000,2.12001,0.13614915027756,-1.29851269701178,-0.00585835104970786,-0.2574797,-0.087964594,0.8258898,340.73227,-84.95068,4.5037823,JUM
2588683369000,2.125015,-0.0987895920429536,-1.43676007925956,0.111570094545919,-0.42821655,-0.20463985,0.7959574,340.7303,-84.67999,4.777269,JUM
2588688368000,2.130014,-0.407246434048681,-1.55426735649417,0.0332318534853753,-0.5751296,-0.28893927,0.72112644,340.75568,-84.404396,5.0356855,JUM
2588693308000,2.134954,-0.714204872373127,-1.65633852470759,-0.0433349347665539,-0.6969972,-0.2910773,0.6059783,340.7974,-84.153145,5.2362633,JUM
2588698918000,2.140564,-1.07255057725471,-1.708272699768,-0.126429587748671,-0.79779,-0.23182335,0.4709771,340.84552,-83.90833,5.410638,JUM
2588703321000,2.144967,-1.341856383507,-1.70755117802918,-0.167663971433165,-0.874759,-0.16401732,0.31642818,340.91708,-83.74487,5.4861746,JUM
2588708364000,2.15001,-1.57190496183388,-1.43436845998809,-0.0574323303742185,-0.9071349,-0.12492194,0.14782938,340.98108,-83.607056,5.518263,JUM
2588713322000,2.154968,-1.77063986929392,-1.11583170660099,0.0318912382413793,-0.9254609,-0.121256754,-0.009468411,341.0644,-83.56067,5.438564,JUM
2588718380000,2.160026,-1.7612823005892,-0.404655962289192,-0.0242542135598377,-0.92087936,-0.12797627,-0.11728613,341.14096,-83.533966,5.3226905,JUM
2588723457000,2.165103,-1.75472979567568,0.286217094216216,-0.0815840401405405,-0.8885035,-0.096516706,-0.16126843,341.21698,-83.559746,5.1231575,JUM
2588728368000,2.170014,-1.78438944835135,0.663318108732432,-0.149377477741081,-0.870483,0.013133603,-0.19364429,341.2743,-83.5923,4.892198,JUM
2588733334000,2.17498,-1.81438126981081,1.04464240889279,-0.217930157668649,-0.8237518,0.121256754,-0.24495697,341.318,-83.67309,4.618644,JUM
2588738365000,2.180011,-1.79292919716576,1.25946660230938,-0.359354618891116,-0.7806858,0.22052236,-0.30665436,341.3352,-83.75145,4.3297024,JUM
2588743280000,2.184926,-1.76148628319496,1.43464838406336,-0.512077228643955,-0.77121735,0.33841935,-0.36254853,341.31897,-83.825874,4.02407,JUM
2588748420000,2.190066,-1.63372445591188,1.56129578966761,-0.789622165084316,-0.75961095,0.49754974,-0.4016439,341.25873,-83.94939,3.6790423,JUM
2588753334000,2.19498,-1.47775857929623,1.66221495110635,-1.09696683175748,-0.7443393,0.6780604,-0.43890667,341.1653,-84.067116,3.3176112,JUM
2588758362000,2.200008,-1.34460205171282,1.70142881401139,-1.43145958376918,-0.7452556,0.8753699,-0.47525316,341.05835,-84.190605,2.959297,JUM
2588763476000,2.205122,-1.22172540807681,1.71088085592975,-1.78118538149185,-0.71776664,1.0763446,-0.5158757,340.9042,-84.31173,2.5869937,JUM
2588768375000,2.210021,-1.08173559116417,1.67816901311091,-2.02905576266707,-0.7076874,1.1676689,-0.5360342,340.73016,-84.43455,2.2339935,JUM
2588773368000,2.215014,-0.925614348974594,1.61962355365779,-2.22908595935109,-0.70280045,1.3017539,-0.5684101,340.48972,-84.550606,1.8616362,JUM
2588778364000,2.22001,-0.752729337541229,1.51806984057971,-2.28593248235882,-0.71959925,1.3750577,-0.58276546,340.2452,-84.69116,1.508257,JUM
2588783380000,2.225026,-0.570278962872564,1.39323541275362,-2.26672724361819,-0.73456544,1.3610078,-0.5946773,339.9877,-84.818504,1.1468885,JUM
2588788367000,2.230013,-0.396948795845049,1.24602907924547,-2.18743196126226,-0.7678576,1.2935071,-0.6035349,339.7165,-84.9433,0.8152029,JUM
2588793305000,2.234951,-0.229541146369981,1.08818753493476,-2.0774211924952,-0.7892379,1.1582005,-0.6096435,339.46753,-85.05181,0.48474768,JUM
2588798444000,2.24009,-0.0882958157240098,0.93727197994132,-1.96224132421516,-0.8206975,0.9957104,-0.6243043,339.22833,-85.11764,0.19892877,JUM
2588803374000,2.24502,0.0317584710065526,0.798747803315403,-1.85142201184352,-0.8353582,0.79443026,-0.63407815,339.0377,-85.17003,-0.08148332,JUM
2588808361000,2.250007,0.0715185978093224,0.683292701607309,-1.63166153066576,-0.81336707,0.5671884,-0.6588182,338.88373,-85.180084,-0.32034433,JUM
2588815154000,2.2568,0.0605118724982658,0.545708643838931,-1.24642613903223,-0.79168135,0.35216382,-0.72051555,338.78397,-85.17637,-0.5668518,JUM
2588818363000,2.260009,0.00922865267064568,0.51308299466739,-1.07762718895279,-0.8246681,0.2602286,-0.75869465,338.69855,-85.128136,-0.77669406,JUM
2588823364000,2.26501,-0.172678714474227,0.533872425731959,-0.843746292989691,-0.88147855,0.46975538,-0.84299403,338.59012,-85.06802,-1.018194,JUM
2588828340000,2.269986,-0.316100400812039,0.808430113039087,-0.611741381826078,-1.094976,1.0546589,-0.95356065,338.39542,-84.86686,-1.2815604,JUM
2588833370000,2.275016,-0.408541106791233,1.44091915929704,-0.378206965918594,-1.4352279,1.8041905,-1.071763,338.09644,-84.6019,-1.5800657,JUM
2588838353000,2.279999,-0.380573976521739,2.26137557391304,0.0487168060869565,-1.8096883,2.5066855,-1.1151345,337.6624,-84.205315,-1.9405082,JUM
2588843347000,2.284993,-0.200988026126087,3.32943934369565,0.724527077804348,-2.127949,2.8756483,-1.0931433,337.11414,-83.7226,-2.3276207,JUM
2588848399000,2.290045,-0.0673828749275045,4.64052080772754,1.7855108440948,-2.20278,2.631913,-1.044885,336.72885,-83.26813,-2.5857148,JUM
2588853333000,2.294979,-0.00150680583827923,6.23095743262298,3.3288930675961,-1.9477439,1.8487836,-1.010982,336.40662,-82.836205,-2.8221815,JUM
2588858276000,2.299922,-0.0541967371565578,8.23874633619857,4.75503347474406,-1.4187346,0.9593639,-1.0534371,336.1392,-82.34615,-3.000623,JUM
2588863335000,2.304981,-0.292839039384006,10.9386795217307,6.0277924180027,-0.7819075,0.5390886,-1.2629639,335.97028,-81.95905,-3.1988287,JUM
2588868307000,2.309953,-0.576302362620916,13.2726224813785,7.03638499718939,-0.48441613,-0.17195857,-1.4385877,336.02042,-81.31333,-3.3677804,JUM
2588873320000,2.314966,-0.96250667564207,14.9700141249379,7.55609200232396,0.020158553,-0.6536258,-1.9150625,336.14703,-80.854706,-3.6679199,JUM
2588878353000,2.319999,-1.16407011756015,16.4021793045822,7.88419395026455,0.31642818,-0.77488256,-2.4721715,336.3811,-80.24376,-4.0343013,JUM
2588883334000,2.32498,-0.973585628561446,17.2498354123989,7.80323820529101,0.38789943,-0.5503896,-2.844494,336.66742,-79.70264,-4.473327,JUM
2588888329000,2.329975,-0.631477498276577,17.9644371011746,7.69704838209456,0.15821409,-0.21013765,-2.7959301,336.9859,-79.115295,-5.006894,JUM
2588893333000,2.334979,0.040220490684039,18.3854315092291,7.53621900217155,-0.23823744,-0.036957346,-2.2840252,337.28583,-78.54641,-5.5003457,JUM
2588898383000,2.340029,0.397309560222905,18.7766398705803,7.64103920676403,-0.5681047,-0.020463986,-1.5015068,337.50327,-78.07385,-5.8423414,JUM
2588903259000,2.344905,0.00697556597232898,19.0772414289969,8.35440812605688,-0.7104363,-0.03023783,-0.65026605,337.64978,-77.66031,-6.022726,JUM
2588908254000,2.3499,-0.266564219662376,19.336666099177,8.87101643447985,-0.6469063,-0.010995574,0.0033597588,337.70245,-77.43535,-5.897381,JUM
2588913301000,2.354947,-0.00648389622072162,19.392761922663,8.4834459197088,-0.43401974,-0.08124508,0.17104226,337.7596,-77.26526,-5.688305,JUM
2588918311000,2.359957,0.182636044025045,19.4401297576029,8.02354789865832,-0.1863139,-0.1142318,0.27183503,337.7513,-77.05292,-5.435829,JUM
2588923270000,2.364916,0.215675176994633,19.4684490876565,7.40052446100179,-0.03848451,-0.03359759,0.3866777,337.71332,-76.8945,-5.153204,JUM
2588928253000,2.369899,0.165249107734445,19.4928476356058,6.70462578734742,0.06261369,-0.06994407,0.45753807,337.67355,-76.84188,-4.833208,JUM
2588933276000,2.374922,-0.0973028978961993,19.5071684443783,5.82627012191128,0.23671028,-0.28588495,0.4914411,337.6531,-76.85055,-4.5029325,JUM
2588938263000,2.379909,-0.371663294373149,19.5188103273445,4.95033386872655,0.473726,-0.5839872,0.54367006,337.6313,-76.97064,-4.1623807,JUM
2588943253000,2.384899,-0.683018235883514,19.5235284142152,4.06344392785785,0.79290307,-0.8359691,0.6273586,337.65143,-77.154564,-3.8094602,JUM
2588948283000,2.389929,-0.975159954131324,19.4463975994412,3.22876484845824,1.1365148,-1.0002918,0.6921103,337.7333,-77.46504,-3.5037675,JUM
2588953592000,2.395238,-1.21362255512424,19.1013878292586,2.53874552000798,1.4737124,-1.1001683,0.73823065,337.86365,-77.84956,-3.1840775,JUM
2588958260000,2.399906,-1.39699133898533,18.715240565551,2.01842395377386,1.7843374,-1.1285735,0.7788532,338.03232,-78.37419,-2.9149396,JUM
2588963369000,2.405015,-1.51430190682843,18.0301465475209,1.72280115229692,2.0638082,-1.1285735,0.82558435,338.22073,-78.964134,-2.6421423,JUM
2588968358000,2.410004,-1.62512771063869,17.3463341212403,1.48131468530449,2.201253,-1.1349876,0.8417723,338.4241,-79.61861,-2.4231112,JUM
2588973366000,2.415012,-1.71862695906053,16.5894352664315,1.46350536885444,2.4474316,-1.1383474,0.8542951,338.62933,-80.35753,-2.206555,JUM
2588978632000,2.420278,-1.80855179750593,15.7811402836236,1.43694352566217,2.6728408,-1.1685852,0.82527894,338.85495,-81.105,-2.0367684,JUM
2588983385000,2.425031,-1.78978702404411,14.9038887285376,1.31966389971143,2.8667905,-1.219287,0.79168135,339.09106,-81.88648,-1.8771682,JUM
2588988335000,2.429981,-1.7617448698117,13.9936280111178,1.20738943733974,3.0402763,-1.239751,0.7629707,339.31793,-82.687706,-1.7577217,JUM
2588993304000,2.43495,-1.62828730456731,13.1213878473558,1.21692211346154,3.1728342,-1.2712106,0.73548174,339.56793,-83.501144,-1.6580129,JUM
2588998422000,2.440068,-1.48643034434014,12.215542515185,1.24128850717835,3.249803,-1.3041973,0.7150178,339.8213,-84.31442,-1.5821627,JUM
2589003476000,2.445122,-1.30380122175594,11.2489438521995,1.40610016346402,3.2467487,-1.3930782,0.7110472,340.104,-85.10923,-1.5202087,JUM
2589008261000,2.449907,-1.1308925649365,10.3337925656175,1.56213969162525,3.1703906,-1.5008959,0.72082096,340.3994,-85.86746,-1.4547638,JUM
2589014943000,2.456589,-0.793699805051393,8.72905758005722,1.83518489759457,3.0314188,-1.7107282,0.7315111,340.7516,-86.57032,-1.4000156,JUM
2589018628000,2.460274,-0.609088547237506,7.83615880418848,1.98485132077106,2.6734517,-1.7837266,0.7302894,341.09558,-87.15413,-1.3593761,JUM
2589023733000,2.465379,-0.42758504192575,6.70059832774869,2.14773901715374,2.522568,-1.9324722,0.70707655,341.50766,-87.707695,-1.2967733,JUM
2589028329000,2.469975,-0.264178556046644,5.67826023769633,2.29438580512137,2.176513,-2.0625865,0.66798115,341.9094,-88.09956,-1.2065266,JUM
2589033372000,2.475018,-0.0663805360332494,4.612293168,2.18329667702771,1.7684549,-2.1429152,0.61636305,342.3338,-88.402626,-1.1364533,JUM
2589038267000,2.479913,0.127273589674559,3.582620128,2.05104512060453,1.3228287,-2.17804,0.58032197,342.7748,-88.5939,-1.0812737,JUM
2589043360000,2.485006,0.384588568055689,2.82005185661066,1.38588944318387,0.8906415,-2.132225,0.5571091,343.2215,-88.74001,-0.9886439,JUM
2589048334000,2.48998,0.640715516572252,2.10198171965434,0.690687785820451,0.51923543,-1.9828686,0.5543602,343.63834,-88.805336,-0.905609,JUM
2589053465000,2.495111,0.865491713560895,1.46987935384139,-0.41254434476436,0.24678956,-1.6756034,0.55924714,344.01074,-88.866684,-0.7781907,JUM
2589058265000,2.499911,1.06933341305558,0.896278314344643,-1.50760088101268,0.081855945,-1.4480561,0.57696223,344.35342,-88.85164,-0.6505271,JUM
2589063410000,2.505056,1.2252049927291,0.542020642317542,-2.4247074443662,0.03481932,-0.9254609,0.6096435,344.46136,-88.81991,-0.52242535,JUM
2589068272000,2.509918,1.36573542431864,0.235408666261204,-3.26363184859155,0.026267206,-0.30207285,0.63255095,344.46747,-88.73205,-0.39602688,JUM
2589073367000,2.515013,1.4003814946865,0.0917887560552604,-3.74436851859724,0.08735373,0.29749137,0.66798115,344.52954,-88.907684,-0.13893299,JUM
2589078283000,2.519929,1.39037526663124,0.0217447453870351,-4.05456341679065,0.2134974,0.78984874,0.6881397,344.44458,-89.0492,0.11871218,JUM
2589083383000,2.525029,1.43337087546755,0.172245560991199,-3.90511411749175,0.32406402,1.128879,0.7284568,344.25385,-89.22513,0.40116417,JUM
2589088262000,2.529908,1.48477374367437,0.359165214953295,-3.6714646189619,0.37873647,1.3518448,0.7874053,343.9581,-89.21672,0.6963933,JUM
2589093459000,2.535105,1.5626930636337,0.659410306013863,-3.0839618626379,0.3717115,1.5091426,0.8393288,343.59918,-90.99572,0.99570036,JUM
2589098341000,2.539987,1.64028926744118,0.960665986189593,-2.46775709044225,0.3210097,1.5567901,0.88208944,343.21176,-91.36679,1.3132985,JUM
2589103336000,2.544982,1.58424948335684,1.07053183686278,-1.61136004883941,0.22418754,1.4404203,0.9370673,342.81805,-91.81203,1.6699682,JUM
2589108282000,2.549928,1.49358142045134,1.12779586347975,-0.704679688859561,0.11881329,1.1239921,0.9431759,342.47232,-92.26778,2.0275352,JUM
2589113338000,2.554984,1.3442663809306,1.12043974428316,-0.0217806056870153,-0.016187929,0.68539083,0.9111055,342.16583,-92.70202,2.4243312,JUM
2589118330000,2.559976,1.18265849578445,1.09667389341817,0.591378763539471,-0.1301143,0.24007004,0.84482664,341.95496,-93.12083,2.8127995,JUM
2589123361000,2.565007,0.863995755204609,1.04992356950735,0.893196071493842,-0.2510656,-0.15393804,0.7690793,341.81866,-93.45379,3.1899223,JUM
2589128368000,2.570014,0.506791710359555,0.997533629668256,1.11228121568335,-0.37323865,-0.43096542,0.6753115,341.77576,-93.76148,3.5412478,JUM
2589133363000,2.575009,0.0540821928292095,0.913130028666481,0.994783579909184,-0.5128214,-0.5662721,0.5674938,341.73044,-93.93745,3.8008554,JUM
2589138340000,2.579986,-0.422953013526087,0.820373189392086,0.787184935455472,-0.68569624,-0.5345071,0.4428773,341.70953,-94.09599,4.0268836,JUM
2589143365000,2.585011,-0.90820365704918,0.769583475209356,0.494964012312833,-0.8582657,-0.35094208,0.3200934,341.7295,-94.19884,4.1751933,JUM
2589148483000,2.590129,-1.40463958885246,0.743993972206328,0.146947034399081,-1.0189233,-0.08277224,0.21624629,341.7111,-94.29365,4.292567,JUM
2589153414000,2.59506,-1.82527128912784,0.764988898178017,-0.0804131436917563,-1.2040154,0.24923302,0.1151481,341.7016,-85.72628,4.2669535,JUM
2589158367000,2.600013,-2.22669349605735,0.802769804229391,-0.269317664086021,-1.3607023,0.40744713,0.010995574,341.6643,-85.7455,4.210092,JUM
2589163456000,2.605102,-2.55934375151393,0.873396458528462,-0.336088126259588,-1.4905112,0.7128797,-0.030848695,341.54156,-85.8742,4.017835,JUM
2589168371000,2.610017,-2.84913687404118,0.954158490431974,-0.350340247202261,-1.5558738,0.9663888,-0.10598512,341.3929,-86.00132,3.7877648,JUM
2589173483000,2.615129,-3.01923177215698,0.963183707333142,-0.286088935863649,-1.6453656,1.1713341,-0.16920967,341.24454,-86.17693,3.4551208,JUM
2589178371000,2.620017,-3.13544459056622,0.94530479603743,-0.196694430724721,-1.6820174,1.3271047,-0.21868975,341.0408,-86.31206,3.1034427,JUM
2589183363000,2.625009,-3.13724885285614,0.872132599116555,-0.135644352268447,-1.6988163,1.434617,-0.25900686,340.82806,-86.44793,2.6658995,JUM
2589188366000,2.630012,-3.06990830208814,0.766311816137938,-0.0923540296303584,-1.6765196,1.5198327,-0.3042109,340.5813,-86.512215,2.2124379,JUM
2589193335000,2.634981,-2.94533899795082,0.639526582786885,-0.070727072647541,-1.6313156,1.559539,-0.36132678,340.33246,-86.501,1.7211353,JUM
2589198351000,2.639997,-2.78596475087822,0.498902278805621,-0.0613521187224824,-1.5656476,1.5778649,-0.4156938,340.0708,-86.409645,1.2190366,JUM
2589203251000,2.644897,-2.641693687584,0.35962378987491,-0.0518808874068024,-1.4947872,1.5509869,-0.47586402,339.80905,-86.2268,0.7184839,JUM
2589208246000,2.649892,-2.5032245727799,0.216209310075468,-0.0419902333248217,-1.4056009,1.493871,-0.5448918,339.55676,-85.99494,0.20224574,JUM
2589214462000,2.656108,-2.27360396134146,0.1246503181,-0.00439131626585366,-1.3414601,1.4001031,-0.6188065,339.31104,-85.69366,-0.29327166,JUM
2589218274000,2.65992,-2.11778230170732,0.0912599618,0.0252889986373984,-1.2770138,1.2571607,-0.66920286,339.10098,-85.369255,-0.7981026,JUM
2589223269000,2.664915,-1.87707764567208,0.170628425101723,0.00383543711610044,-1.2257011,1.0931433,-0.6921103,338.91074,-85.00394,-1.2865297,JUM
2589228267000,2.669913,-1.61783898971935,0.312031322353127,-0.0480122925979321,-1.1844677,0.8894198,-0.6939429,338.77707,-84.62271,-1.7782562,JUM
2589233272000,2.674918,-1.30644467787123,0.539270715114041,-0.306685463843711,-1.1505647,0.70707655,-0.66523224,338.66956,-84.236565,-2.2110705,JUM
2589238273000,2.679919,-0.965368084315273,0.81581932048311,-0.684635232696564,-1.1154399,0.54244834,-0.63713247,338.61853,-83.84894,-2.6389313,JUM
2589243259000,2.684905,-0.717452357979628,1.13167946179796,-1.0628224027661,-1.0476339,0.35460728,-0.66828656,338.6188,-83.52127,-2.986351,JUM
2589248304000,2.68995,-0.541367450428932,1.48384929104289,-1.44659721698907,-0.9059132,0.09132435,-0.74036866,338.69083,-83.21584,-3.3287048,JUM
2589253349000,2.694995,-0.419541239755998,1.88284153802359,-1.71884406156974,-0.73853606,-0.23945917,-0.8359691,338.78772,-82.98845,-3.6208472,JUM
2589258370000,2.700016,-0.370654351868646,2.34237840463603,-1.84106130681171,-0.5705481,-0.4129449,-0.95325524,338.9179,-82.77758,-3.9351923,JUM
2589263371000,2.705017,-0.46620150105772,3.44663573411969,-1.92096414744272,-0.47769663,-0.7058548,-1.0118983,339.1561,-82.657906,-4.210859,JUM
2589268382000,2.710028,-0.726029898308034,5.28863340520159,-1.9534426752973,-0.48166725,-0.7901542,-1.1588113,339.3883,-82.512054,-4.544696,JUM
2589273349000,2.714995,-0.921195429006863,7.70052863564796,-1.81803808513323,-0.6545421,-0.35888332,-1.3359623,339.56006,-82.370186,-4.8815813,JUM
2589278999000,2.720645,-1.03587936622931,11.452330502826,-1.37568591062778,-1.1148291,2.6920831,-1.7244726,339.01285,-82.08647,-5.3899317,JUM
2589283307000,2.724953,-1.08022744315303,13.6364489245928,0.916653293776393,-2.7577512,4.4623704,-1.8842138,338.77423,-81.615776,-5.8269143,JUM
2589288369000,2.730015,-1.07535334687311,15.3082647629198,6.19530338203298,-3.5915823,7.8465643,-2.1801782,337.21637,-81.1194,-6.5215187,JUM
2589293310000,2.734956,-0.82381764544783,16.5688104347184,10.1715629438596,-5.090951,8.736289,-2.4425447,335.9906,-80.31502,-7.0316725,JUM
2589298355000,2.740001,-0.221553208444137,17.3361404938135,12.5850820929825,-5.37256,6.381709,-2.5778513,334.77994,-79.58789,-7.540696,JUM
2589303315000,2.744961,0.371655104133858,18.0093861087465,13.755211568206,-4.0466766,2.0787745,-2.5250115,333.75043,-78.161415,-8.058075,JUM
2589308311000,2.749957,0.972399517519685,18.4472170915088,11.3725980104278,-2.0931299,-1.5250251,-2.1700988,333.22186,-76.88632,-8.449834,JUM
2589313331000,2.754977,0.874856783906598,18.7975492270129,8.72070944241837,-0.71593404,-3.3255503,-1.5690074,333.36044,-75.664185,-8.482099,JUM
2589318324000,2.75997,-0.389947035674838,18.9967670727643,5.65367591124891,-0.026267206,-3.5234706,-1.0375546,334.0381,-74.79564,-8.356604,JUM
2589323315000,2.764961,-1.71250254530744,19.0737140453074,3.40511777691478,0.20341812,-2.473088,-0.7156286,334.7646,-74.57524,-8.007935,JUM
2589328301000,2.769947,-3.16415392836128,18.877039155634,2.98835350295185,0.12064589,-0.93554014,-0.5543602,335.36383,-74.48679,-7.6245975,JUM
2589333306000,2.774952,-4.34080806312684,18.7868142035398,3.07525677286136,-0.08093964,0.30390546,-0.5015204,335.81848,-74.7682,-7.439181,JUM
2589338298000,2.779944,-4.7444305842132,18.9910566203845,4.54872293337402,-0.16982053,0.89888823,-0.44104472,336.01236,-75.04881,-7.294225,JUM
2589343324000,2.78497,-4.76430334981958,19.1575000186842,5.74527807028817,-0.04062254,0.8671232,-0.3631594,336.13824,-75.21838,-7.4316206,JUM
2589358260000,2.799906,-2.17657457303149,19.3837496696159,7.33609532855519,0.79717916,-0.32589662,0.0070249503,336.47803,-75.521484,-7.8205347,JUM
2589363269000,2.804915,-1.50042079914691,19.4467841581192,7.49285441910525,1.0390818,-0.91721416,0.19333886,336.68835,-75.67448,-7.716456,JUM
2589368253000,2.809899,-1.41046100817379,19.4704577873227,6.5032960262474,1.2437216,-1.3573426,0.3643811,337.0075,-75.86406,-7.576383,JUM
2589373235000,2.814881,-1.39086962073765,19.4920008865692,5.51791359624217,1.4285084,-1.629483,0.5112942,337.36792,-76.180565,-7.2767267,JUM
2589378273000,2.819919,-1.61630492009146,19.5063901638334,4.53463182541008,1.6551393,-1.7122552,0.634689,337.77798,-76.56756,-6.937142,JUM
2589383267000,2.824913,-1.84906735857412,19.4790754608281,3.62567191863767,1.8811595,-1.6844609,0.6942484,338.19556,-77.076225,-6.584276,JUM
2589388270000,2.829916,-2.11548721790289,19.3030479535299,2.95010725582365,2.1224513,-1.5876387,0.7156286,338.6005,-77.6371,-6.226574,JUM
2589393247000,2.834893,-2.35096170070584,19.0725757107974,2.33738584160626,2.336865,-1.4468343,0.6976081,338.96667,-78.274765,-5.933596,JUM
2589398306000,2.839952,-2.47111396404998,18.6150730270889,1.95382297143266,2.5265386,-1.2895365,0.6545421,339.29654,-78.94019,-5.665134,JUM
2589403255000,2.844901,-2.57109532962591,18.140619284996,1.59872380559131,2.6826148,-1.1554517,0.61269784,339.61462,-79.65249,-5.463442,JUM
2589408272000,2.849918,-2.52277789622888,17.4303540584272,1.41028591120274,2.8252518,-1.0763446,0.6056729,339.90378,-80.37401,-5.283197,JUM
2589414486000,2.856132,-2.45246913225834,16.5045436481293,1.20383397416624,2.932764,-1.0390818,0.6065892,340.15454,-81.08398,-5.1634526,JUM
2589418432000,2.860078,-2.39169274940748,15.8456000593364,1.11426885925174,3.0106494,-1.0259482,0.58276546,340.39316,-81.77277,-5.066609,JUM
2589423266000,2.864912,-2.31723937011173,15.0383691145251,1.00454818882682,3.0356948,-0.9822713,0.5564982,340.6035,-82.42342,-4.9936094,JUM
2589428371000,2.870017,-2.08929455283173,13.9522878421591,0.950216615093028,3.0027082,-0.9111055,0.52839845,340.80545,-83.02005,-4.9393187,JUM
2589433275000,2.874921,-1.8252324012063,12.8384256078512,0.916608703974647,2.9168816,-0.84421575,0.50671273,340.99878,-83.54799,-4.900908,JUM
2589438364000,2.88001,-1.48661892782786,11.7573838659494,1.04664000969468,2.7742445,-0.82924956,0.5015204,341.19162,-83.9972,-4.8755283,JUM
2589443283000,2.884929,-1.14416250565087,10.7300142179897,1.21101911522536,2.5873199,-0.8524625,0.49846604,341.37875,-84.35452,-4.864552,JUM
2589448407000,2.890053,-0.820463802203938,9.6943994728181,1.51622175141542,2.3808472,-0.93279123,0.4972443,341.5436,-84.63822,-4.845832,JUM
2589453274000,2.89492,-0.523699085042609,8.72192481780782,1.84951132750514,2.1206186,-0.9828822,0.4886922,341.7085,-84.834595,-4.8376775,JUM
2589458364000,2.90001,-0.278675285528086,7.83277688154101,2.1268509031624,1.9776763,-1.1010846,0.48441613,341.8833,-85.0045,-4.797623,JUM
2589463315000,2.904961,-0.067427512300166,7.02092230785359,2.36709343130951,1.6722436,-1.2516629,0.47800204,342.0818,-85.10646,-4.76625,JUM
2589468369000,2.910015,0.155094197055556,6.14376878931373,2.49137181676471,1.3350459,-1.3994923,0.4896085,342.28748,-85.21707,-4.694157,JUM
2589473367000,2.915013,0.384511930277778,5.21045582598039,2.44965958676471,0.9987647,-1.5128077,0.50488013,342.52292,-85.300446,-4.626791,JUM
2589478346000,2.919992,0.589086733759843,4.38572507862205,2.23406546606299,0.67103547,-1.5720617,0.5488624,342.7696,-85.40944,-4.511777,JUM
2589483383000,2.925029,0.779001588410433,3.62606551128937,1.89221865332677,0.4196644,-1.5607607,0.59742624,343.02036,-85.50566,-4.393148,JUM
2589488269000,2.929915,0.910578903224063,2.94448763559978,1.43475897314841,0.19394971,-1.4749341,0.6762278,343.28586,-85.6519,-4.206102,JUM
2589493308000,2.934954,1.00184406956052,2.2882478742255,0.856746428487032,0.029932396,-1.2797627,0.73731434,343.50598,-85.77983,-4.01232,JUM
2589498597000,2.940243,1.10033906950317,1.62051511049469,0.176647316070394,-0.1151481,-0.9272934,0.8060367,343.631,-85.91316,-3.7867036,JUM
2589503375000,2.945021,1.19363250607361,1.05093403218156,-0.554969754769825,-0.21899518,-0.462425,0.8872818,343.65668,-86.02791,-3.5438852,JUM
2589508359000,2.950005,1.31396574348824,0.625320230457066,-1.22929279655766,-0.269697,0.084910266,0.9575313,343.6362,-86.23035,-3.2398322,JUM
2589513407000,2.955053,1.46189067888698,0.384942212847581,-1.81174728399312,-0.30757064,0.6753115,1.0537425,343.4643,-86.42231,-2.9114473,JUM
2589518363000,2.960009,1.62179735303215,0.22831155006512,-2.06252928420838,-0.30726522,1.1255192,1.1646146,343.25732,-86.72031,-2.5212011,JUM
2589523364000,2.96501,1.80697820556573,0.199072466747049,-1.79450433259056,-0.26816985,1.3756685,1.2776246,342.93805,-87.018616,-2.105625,JUM
2589528321000,2.969967,1.93097344898615,0.166347270825136,-1.38198642668139,-0.22571471,1.4263704,1.3738359,342.55634,-87.375435,-1.6490647,JUM
2589534025000,2.975671,1.97484099943786,0.12247969174463,-0.663654807070869,-0.20280726,1.3014483,1.4376713,342.15506,-87.71361,-1.1678418,JUM
2589538277000,2.979923,1.94968742705276,0.109189277723126,-0.163941551646172,-0.20311269,1.0372492,1.4767667,341.75977,-87.97676,-0.62299204,JUM
2589543366000,2.985012,1.8433605842027,0.118855354804641,0.38702493788576,-0.20250183,0.64660084,1.4618006,341.43866,-88.120384,-0.07020497,JUM
2589548320000,2.989966,1.54770483744352,0.073315345700985,0.599803193725682,-0.19792034,0.24617869,1.4065173,341.17136,-88.00815,0.50975055,JUM
2589553477000,2.995123,0.94025220456216,-0.0597918026348801,0.316647989057676,-0.19058995,0.0729984,1.3341297,340.95096,-87.74833,1.0846347,JUM
2589558261000,2.999907,0.376735936246386,-0.183271460893321,0.0539730813338561,-0.16890424,-0.19517145,1.2831224,340.84988,-87.33316,1.6461654,JUM
2589563386000,3.005032,-0.226947357047582,-0.315552658337825,-0.227425100540011,-0.16737708,-0.35308012,1.1548407,340.7652,-86.891685,2.1673138,JUM
2589568282000,3.009928,-0.776948782214778,-0.407946484365472,-0.506192680403923,-0.21227567,-0.3827071,1.0112875,340.71982,-86.43164,2.6743803,JUM
2589573370000,3.015016,-1.28792012166133,-0.426871344581027,-0.818452967826002,-0.28955013,-0.28496864,0.8454375,340.6816,-85.98188,3.140201,JUM
2589578304000,3.01995,-1.75727253723308,-0.39694926938386,-1.06082126850125,-0.42485678,-0.0729984,0.66798115,340.7483,-85.82575,3.3039541,JUM
2589583378000,3.025024,-2.16160288736842,-0.221577059592982,-1.12902157649123,-0.5867361,0.18234327,0.47769663,340.77634,-85.69295,3.4134705,JUM
2589588311000,3.029957,-2.5118268733763,-0.00367973293981159,-1.15584609010412,-0.7816021,0.40225476,0.28038713,340.81033,-85.71539,3.3450608,JUM
2589593324000,3.03497,-2.7450859636589,0.353349504186812,-1.07015903271195,-0.95233893,0.57787853,0.09773844,340.7859,-85.75242,3.2208416,JUM
2589598318000,3.039964,-2.96309749652673,0.684578253572939,-1.01376472068861,-1.110553,0.6808093,-0.052839845,340.75406,-85.873924,2.9511428,JUM
2589604058000,3.045704,-3.16232744719621,0.977889057942213,-1.05250391307762,-1.2305881,0.73639804,-0.20830505,340.6878,-85.988434,2.622938,JUM
2589608325000,3.049971,-3.28036793739225,1.11294013830377,-1.07871777461607,-1.314582,0.7867944,-0.3268129,340.6042,-86.10072,2.1995733,JUM
2589615119000,3.056765,-3.35772644215793,1.02268871769543,-1.11095040079263,-1.3509285,0.93492925,-0.49602258,340.48074,-86.172905,1.7133105,JUM
2589618371000,3.060017,-3.34896145654248,0.954513593875941,-1.13140069438429,-1.3399329,0.9957104,-0.550695,340.39188,-86.20217,1.1889666,JUM
2589623367000,3.065013,-3.22164212360066,0.787681360868049,-1.17530392686732,-1.3313808,1.112691,-0.65087694,340.24982,-86.15409,0.6004256,JUM
2589628424000,3.07007,-3.08723778857113,0.62404476359962,-1.22708752647742,-1.2660183,1.2104294,-0.73456544,340.10822,-86.0344,-0.011016239,JUM
2589633352000,3.074998,-2.89300120942381,0.524436273873997,-1.36155894834318,-1.1869112,1.2843442,-0.8191703,339.94336,-85.82804,-0.65232277,JUM
2589638414000,3.08006,-2.67630344466833,0.436181744167581,-1.50267689295761,-1.0864239,1.3454307,-0.8848383,339.74506,-85.561615,-1.2846766,JUM
2589643362000,3.085008,-2.38796944271322,0.412547815892269,-1.65393411881297,-0.97005403,1.3665055,-0.95447695,339.53958,-85.241875,-1.9428378,JUM
2589648376000,3.090022,-2.08511947850449,0.381433151926605,-1.80371794610832,-0.82863873,1.3408492,-1.003957,339.31842,-84.913765,-2.5765069,JUM
2589653477000,3.095123,-1.72368643021604,0.313965641192661,-1.93865290719148,-0.68691796,1.3020593,-1.0390818,339.09543,-84.55295,-3.2262886,JUM
2589658336000,3.099982,-1.38136955907502,0.250229101798022,-2.05007849719309,-0.61117065,1.1682798,-1.0516045,338.88367,-84.21594,-3.8159406,JUM
2589663399000,3.105045,-1.03748742300469,0.187264787183099,-2.05492190328639,-0.47342056,0.95814216,-1.070236,338.7036,-83.87597,-4.4147797,JUM
2589668325000,3.109971,-0.712271692234418,0.129202428132105,-2.03769458955312,-0.3555236,0.62980205,-1.0928379,338.5637,-83.58049,-4.930314,JUM
2589673909000,3.115555,-0.413547414633477,0.0872762085476284,-1.8542674130733,-0.21624629,0.183565,-1.1261301,338.51532,-83.278275,-5.447719,JUM
2589678318000,3.119964,-0.1932048049744,0.0657851925441556,-1.68927913648541,-0.076052725,-0.37323865,-1.1389582,338.5619,-83.03275,-5.873231,JUM
2589683368000,3.125014,-0.10202653584362,0.161762316626315,-1.29097406628299,-0.03726278,-0.99387777,-1.1951579,338.7532,-82.75283,-6.311905,JUM
2589688328000,3.129974,-0.0563593393463057,0.269135847593681,-0.919392817816203,0.007330383,-1.5375478,-1.2415836,339.0573,-82.51739,-6.6703906,JUM
2589693336000,3.134982,-0.559943859709277,0.541718277294095,-0.790031681663616,-0.03848451,-1.7880026,-1.3115277,339.4543,-82.24177,-7.046954,JUM
2589698680000,3.140326,-1.07325770238528,0.909088098107944,-0.686875060804528,-0.2761111,-1.1145236,-1.4810427,339.73843,-81.89786,-7.4347057,JUM
2589703451000,3.145097,-1.2164171172832,2.23908533069739,-1.05170071006671,-0.93828905,0.7687739,-1.7235563,339.74658,-81.461784,-7.8783236,JUM
2589708635000,3.150281,-1.36260016875562,3.80571971904048,-1.21842836374813,-2.044566,3.454443,-1.949271,339.4061,-80.81347,-8.49371,JUM
2589713367000,3.155013,-1.3943065552024,6.55511435212394,1.12331291173413,-3.3041701,5.739079,-2.005165,338.6415,-80.062294,-9.15486,JUM
2589718636000,3.160282,-1.45918696276151,9.56901955239221,3.82367894211388,-4.067446,6.3578854,-1.8811595,337.6286,-79.344154,-9.78261,JUM
2589723365000,3.165011,-1.84229136527197,11.7523032314444,7.267500024668,-3.8414261,4.902499,-1.7458528,336.5765,-78.60895,-10.40504,JUM
2589728345000,3.169991,-2.2457297083682,14.0514685352465,10.8941079737311,-2.5137105,1.7605137,-1.8099937,335.94492,-77.883385,-10.784503,JUM
2589733374000,3.17502,-2.46253406086074,15.5279489972594,12.6472852850183,-0.69913524,-1.8710803,-2.1557434,335.90308,-77.23036,-11.128056,JUM
2589738270000,3.179916,-2.63386682773041,16.7891483102923,13.9560767295981,0.7086037,-4.1651845,-2.6374106,336.39514,-76.67268,-11.460321,JUM
2589743684000,3.18533,-1.72870710851459,17.5434588040528,11.3358840576315,1.319469,-4.2186356,-2.7956247,337.29605,-75.8638,-11.749757,JUM
2589748301000,3.189947,-0.791611489147611,18.0900973556423,8.48760663069344,0.82711154,-3.503923,-2.4275784,338.6131,-75.12627,-11.972531,JUM
2589753373000,3.195019,-0.389689227338268,18.4988539529507,6.10367127830055,-0.24465153,-1.5265522,-2.0564778,339.5815,-74.2921,-12.271982,JUM
2589758280000,3.199926,-0.265796687292638,18.8133507578584,4.11186046935713,-0.68752885,0.065973446,-1.1667526,340.3854,-73.71046,-12.348241,JUM
2589763373000,3.205019,-0.908262332692345,19.0176869575817,4.3013459534861,-1.1728612,0.8723156,-0.15790866,340.60397,-73.63274,-12.091381,JUM
2589768315000,3.209961,-1.82206624739542,19.1699877835202,5.33514440399805,-1.1282681,0.98715824,0.6994407,340.51987,-73.70674,-11.70765,JUM
2589773628000,3.215274,-2.01860650595041,19.2700182433884,6.35275353479339,-0.68875057,0.6579019,1.0296134,340.23218,-74.10754,-11.19323,JUM
2589778426000,3.220072,-1.87809965338843,19.334575135124,7.23376903578512,-0.10751228,0.2779437,1.0772609,339.91318,-74.60961,-10.568924,JUM
2589783360000,3.225006,-1.74612779500051,19.3936896367929,7.81388884170003,0.33964106,-0.069027774,1.099252,339.75458,-74.953735,-10.053296,JUM
2589788348000,3.229994,-1.64804935677035,19.43292129884,7.48042222340622,0.63591075,-0.38087448,1.1117748,339.69562,-75.36331,-9.53733,JUM
2589793315000,3.234961,-1.65119053069016,19.4657533612335,6.9698342907489,0.84757555,-0.66950834,1.1496484,339.69592,-75.71168,-9.008652,JUM
2589798389000,3.240035,-1.88904032826236,19.4847812337739,6.03270598002937,1.0644327,-0.88514376,1.1798862,339.75894,-76.10437,-8.489018,JUM
2589803384000,3.24503,-2.14333803202834,19.4959347582028,5.14792303506712,1.3200798,-1.0235047,1.1917981,339.85516,-76.56492,-7.967844,JUM
2589808363000,3.250009,-2.4500234541387,19.4870451454139,4.3656527966443,1.5897768,-1.105666,1.1716396,339.99124,-77.0555,-7.4614162,JUM
2589814961000,3.256607,-2.89059970549567,18.8861633905284,3.2251906486305,1.89918,-1.1505647,1.1154399,340.14023,-77.648445,-7.023286,JUM
2589818336000,3.259982,-3.15047577900689,17.9837364599753,2.53694757564941,2.2131648,-1.1688906,1.0906999,340.3041,-78.282265,-6.6002164,JUM
2589823262000,3.264908,-3.52977934585616,16.6665942200035,1.53241857490723,2.5100453,-1.1548407,1.0454959,340.50397,-78.98919,-6.269244,JUM
2589828381000,3.270027,-3.61650624057265,15.7304484614682,1.03763522016448,2.7852402,-1.0781772,0.9850202,340.6969,-79.72714,-5.969694,JUM
2589833270000,3.274916,-3.64502952732257,14.9127807094121,0.662078333308965,3.0170634,-0.9795224,0.90102625,340.88614,-80.47889,-5.7077794,JUM
2589838371000,3.280017,-3.62071211648063,14.0283213791389,0.516739735471344,3.1902437,-0.84604836,0.8219192,341.08496,-81.23373,-5.583733,JUM
2589843320000,3.284966,-3.5895922325673,13.1658556535972,0.410042907066879,3.280041,-0.7687739,0.72326446,341.2821,-81.94609,-5.50334,JUM
2589848477000,3.290123,-3.47227383604799,12.1415471500049,0.463336990389154,3.3261611,-0.77121735,0.6151413,341.48746,-82.60409,-5.4832172,JUM
2589853333000,3.294979,-3.33620145075588,11.1391475986541,0.563123352593387,3.320358,-0.79381937,0.56779927,341.68433,-83.17305,-5.4868097,JUM
2589858349000,3.299995,-3.07548791848805,10.1026790855677,0.825766225606427,3.296229,-0.9111055,0.4831944,341.92322,-83.60389,-5.5513577,JUM
2589863352000,3.304998,-2.76475764671377,9.06845762772239,1.15504762719195,3.1929927,-1.0906999,0.41905355,342.1916,-83.89832,-5.633333,JUM
2589868373000,3.310019,-2.36745116495066,8.00908112174178,1.5088727207956,3.011871,-1.2907583,0.38912117,342.4947,-84.05689,-5.7303405,JUM
2589873374000,3.31502,-1.92403693263811,6.94196302007325,1.87432401395869,2.7430904,-1.5097535,0.36743546,342.85748,-84.07982,-5.8527856,JUM
2589878379000,3.320025,-1.51905659385266,5.91086678439068,2.02395505041802,2.3924537,-1.7296649,0.3387248,343.2544,-84.03566,-5.9547124,JUM
2589883382000,3.325028,-1.13262530688502,4.89766288548244,2.07108087953182,1.9947804,-1.9233092,0.30634892,343.70447,-96.07437,-6.0735464,JUM
2589888369000,3.330015,-0.748389514668972,3.98152648271128,1.8119381641615,1.5409076,-2.0992384,0.27091873,344.19843,-96.14268,-6.129718,JUM
2589893345000,3.334991,-0.365527623616394,3.11887577704668,1.38545903453676,1.0931433,-2.2119431,0.23976462,344.7235,-96.22732,-6.201049,JUM
2589898354000,3.34,-0.0496272283711379,2.41899798403808,0.627404670559134,0.66614854,-2.2311852,0.23426682,345.2725,-96.24107,-6.2081614,JUM
2589903332000,3.344978,0.230725683560161,1.80489149577149,-0.284854790021469,0.29352075,-2.117259,0.24984388,345.80783,-96.24937,-6.2212386,JUM
2589908332000,3.349978,0.494102759865869,1.23714512753302,-1.36657734636814,0.005497787,-1.824349,0.28924468,346.26453,-96.21105,-6.1913967,JUM
2589913336000,3.354982,0.741329035284771,0.713025460199133,-2.59776425309534,-0.1863139,-1.3057245,0.33628133,346.61398,-96.16419,-6.155533,JUM
2589918339000,3.359985,1.03466967723343,0.271190408007411,-3.6931561798065,-0.29626966,-0.61727935,0.408058,346.89856,-96.03949,-6.0323787,JUM
2589923369000,3.365015,1.36189364553314,-0.115528851729107,-4.69961771181556,-0.3417791,0.20830505,0.50946164,346.9921,-95.891655,-5.886592,JUM
2589928808000,3.370454,1.71120065111421,-0.326611791058496,-5.11048020821727,-0.33108896,1.0320568,0.61941737,346.91324,-95.70395,-5.69205,JUM
2589933337000,3.374983,2.00029890417827,-0.421539558969359,-5.18814859331476,-0.25992316,1.704925,0.7486154,346.64157,-95.48487,-5.460153,JUM
2589938416000,3.380062,2.30028733515672,-0.369337998057497,-4.66169012186065,-0.1423316,2.1169536,0.8717047,346.20294,-95.226326,-5.1588717,JUM
2589943323000,3.384969,2.57705016817728,-0.233302027624276,-3.82201964256339,-0.013744468,2.2495112,0.98899084,345.65588,-94.961845,-4.816339,JUM
2589948338000,3.389984,2.71449009088299,-0.0320313922599485,-2.8514254622154,0.055283304,2.2379048,1.1038336,345.01276,-94.64779,-4.3702784,JUM
2589953321000,3.394967,2.76645332985547,0.204165545381113,-1.82160692557909,0.077579886,2.080607,1.1414018,344.3808,-94.38728,-3.906294,JUM
2589958327000,3.399973,2.72587107578288,0.396665911725185,-1.03763045397609,0.08277224,1.7782288,1.1716396,343.7585,-94.03532,-3.3229837,JUM
2589963390000,3.405036,2.62464489958246,0.562308831988992,-0.40726695757639,0.05497787,1.3692545,1.1801916,343.21866,-93.75383,-2.7322907,JUM
2589968333000,3.409979,2.438508716497,0.67835331105128,0.0323074795471411,0.043066,0.9233228,1.1685852,342.74753,-93.410324,-2.0953424,JUM
2589973329000,3.414975,2.16539064343069,0.751184814630387,0.305425505082295,0.02565634,0.48258355,1.1239921,342.39468,-93.153114,-1.4667027,JUM
2589978367000,3.420013,1.83987620266172,0.815602718853659,0.560465602835631,0.017104227,0.13439035,1.0525209,342.1308,-92.90683,-0.8544012,JUM
2589983372000,3.425018,1.44340860409332,0.866431911902439,0.784114022528102,-0.040927973,-0.10781772,0.98990715,341.96185,-92.75413,-0.25443047,JUM
2589988370000,3.430016,0.963557342701212,0.846252555434933,1.01888226393656,-0.14752395,-0.25717425,0.9095783,341.87524,-92.66056,0.2591203,JUM
2589993319000,3.434965,0.412608389269037,0.762209476975667,1.26167331989755,-0.35124752,-0.38637227,0.7892379,341.84787,-92.61506,0.74121493,JUM
2589999054000,3.4407,-0.233685647677528,0.712290768475785,1.34386398240071,-0.5882632,-0.46089783,0.6435465,341.84045,-92.55265,1.0924661,JUM
2590003371000,3.445017,-0.72503643329999,0.704101594344855,1.28244513366346,-0.82650065,-0.42913285,0.4718934,341.83008,-92.481995,1.399235,JUM
2590008363000,3.450009,-1.31300893557561,0.68057393287394,1.08642506010938,-1.0372492,-0.29779682,0.28527406,341.85748,-92.312035,1.5414495,JUM
2590015165000,3.456811,-2.14427341339896,0.627135508799562,0.629229625206453,-1.20371,-0.07422013,-0.048258353,341.84222,-92.08479,1.5927838,JUM
2590018296000,3.459942,-2.48803593700676,0.610362213256635,0.469269313520032,-1.3356569,0.22113322,-0.15149458,341.8321,-91.80084,1.5205005,JUM
2590023366000,3.465012,-2.95843881560198,0.600562157549702,0.322268380701383,-1.3625349,0.52595496,-0.32436943,341.75378,-91.45298,1.3350631,JUM
2590028310000,3.469956,-3.3505712124492,0.620052669728342,0.208581822117647,-1.4092661,0.7837401,-0.4474588,341.68927,-91.00072,0.96328294,JUM
2590033369000,3.475015,-3.58374858438503,0.713323564395722,0.167128078529412,-1.3939945,0.98868537,-0.50793445,341.5605,-89.43342,0.56645304,JUM
2590038289000,3.479935,-3.71385090844233,0.787595527497027,0.120250985017836,-1.357648,1.1236867,-0.537256,341.44727,-89.70181,0.025144488,JUM
2590043320000,3.484966,-3.70907674268728,0.840111400653983,0.0629609560760999,-1.2922854,1.1609493,-0.5366451,341.30933,-89.23279,-0.521499,JUM
2590048294000,3.48994,-3.60641740023108,0.855157381837088,0.0178424041016753,-1.2232577,1.1887437,-0.52656585,341.17166,-88.62206,-1.1220481,JUM
2590053385000,3.495031,-3.34822816363374,0.812908243388215,-0.0103236980011554,-1.1817188,1.149343,-0.52564955,341.04837,-87.99954,-1.7209072,JUM
2590058263000,3.499909,-3.07390537588863,0.77356544458827,-0.0712615413862559,-1.1004738,1.0885619,-0.52412236,340.9302,-87.397804,-2.31281,JUM
2590063359000,3.505005,-2.72696166546209,0.735016141752567,-0.211002737120853,-1.0341948,1.0152581,-0.52626044,340.83224,-86.79922,-2.9008267,JUM
2590068558000,3.510204,-2.37494760659287,0.721463936863773,-0.363968880048548,-0.9654725,0.9288206,-0.535118,340.73663,-86.26482,-3.4223335,JUM
2590073330000,3.514976,-2.0554566696087,0.756962941703078,-0.523714385608312,-0.93492925,0.84757555,-0.5308419,340.66522,-85.73961,-3.9368074,JUM
2590078344000,3.51999,-1.70587583534897,0.824428042953753,-0.7349173513987,-0.91354895,0.79320854,-0.50426924,340.5791,-85.2944,-4.3704805,JUM
2590083374000,3.52502,-1.31114036713761,0.987766848727512,-1.08428091200904,-0.89980453,0.7696902,-0.4746423,340.51053,-84.85607,-4.7996273,JUM
2590088357000,3.530003,-0.922160406986439,1.1526117419789,-1.42968691192366,-0.9086621,0.75686204,-0.46883908,340.41785,-84.49185,-5.1519494,JUM
2590093320000,3.534966,-0.549752965012556,1.33881542557509,-1.76867312303365,-0.9257663,0.68966687,-0.49388456,340.3494,-84.12994,-5.5025635,JUM
2590098321000,3.539967,-0.166855985656705,1.56328654130948,-2.15071612154935,-0.93584555,0.5830709,-0.5311473,340.2436,-83.86228,-5.767541,JUM
2590103344000,3.54499,0.272949366304562,2.05511186786276,-2.82697596407786,-0.94042706,0.44409904,-0.5864306,340.16678,-83.583755,-6.0426507,JUM
2590108336000,3.549982,0.665689676222746,2.53235425754272,-3.42145667731291,-0.895223,0.2742785,-0.6637051,340.0879,-83.39902,-6.24065,JUM
2590113339000,3.554985,0.613927690885877,2.89468805662935,-3.23793688878413,-0.8216137,0.070554934,-0.7675522,340.0585,-83.19618,-6.458461,JUM
2590118439000,3.560085,0.547298528689969,3.33130054645014,-3.03620508753342,-0.81122905,-0.11178834,-0.9080512,340.02423,-83.113525,-6.5878215,JUM
2590123333000,3.564979,0.315251333526092,4.56579171737796,-2.66492959659372,-0.8765916,-0.12156218,-1.0763446,339.9976,-82.99409,-6.751578,JUM
2590128551000,3.570197,0.0720966597612099,6.01646064075352,-2.2076380578562,-1.1258247,0.41874814,-1.287093,339.87033,-82.81214,-6.958603,JUM
2590133336000,3.574982,-0.102173785051738,8.88584388882993,-1.08501224220218,-1.7281377,1.9666806,-1.5460999,339.45425,-82.544685,-7.231583,JUM
2590138269000,3.579915,-0.281834412901742,11.8439771307862,0.0723363781993456,-2.8790078,4.3438625,-1.8240436,338.68878,-82.162865,-7.56194,JUM
2590143333000,3.584979,-0.649478602183304,13.8746334181747,3.96006262869819,-4.3359213,5.425705,-2.1096232,337.85794,-81.636894,-7.965891,JUM
2590148312000,3.589958,-1.06701733872154,15.5633452203736,8.60866017073555,-5.2494707,6.3444467,-2.2348504,336.4007,-81.027725,-8.41589,JUM
2590153361000,3.595007,-1.20502278555241,16.6876806657224,11.7036714617564,-5.292231,5.309335,-2.4382687,335.36298,-80.375824,-8.722047,JUM
2590158262000,3.599908,-1.22876615706192,17.5519400828612,14.0827588737353,-4.392732,2.7104092,-2.4394903,334.55423,-79.72956,-8.973724,JUM
2590163405000,3.605051,-0.967372639025077,18.1024569088945,13.3266762421339,-2.437047,-0.30085114,-2.2989914,334.08075,-78.59492,-9.326244,JUM
2590168373000,3.610019,-0.614350324570301,18.5091031303654,11.4543174390908,-0.6597345,-2.1905627,-2.072971,334.0466,-77.56614,-9.611138,JUM
2590173366000,3.615012,-1.39752501020926,18.8032998888663,8.94626653925233,0.21227567,-2.5445592,-1.7336355,334.4417,-76.574326,-9.739132,JUM
2590178369000,3.620015,-2.88688967483239,19.0271912540634,6.04541258457944,0.3454443,-2.1713204,-1.2721269,335.13776,-75.85966,-9.738471,JUM
2590183359000,3.625005,-5.12562759771116,19.1778953342111,4.31558120823374,0.16035213,-1.5140295,-0.73945236,335.74167,-75.6177,-9.569578,JUM
2590188361000,3.630007,-7.77936934650598,19.2894783331983,3.21430286411789,-0.06078109,-0.6722572,-0.19639318,336.1477,-75.481636,-9.324418,JUM
2590193317000,3.634963,-8.50295311153885,19.3614169355688,3.67178915555668,-0.28527406,0.1133155,0.29565877,336.4425,-75.5639,-9.228076,JUM
2590198435000,3.640081,-8.27950686232398,19.4160371067774,4.93301710226927,-0.35033122,0.5354234,0.41538838,336.5902,-75.65255,-9.124263,JUM
2590203351000,3.644997,-7.28967332618807,19.4515714552073,5.97423104064712,-0.1160644,0.56169057,0.3472769,336.80804,-75.6697,-9.361595,JUM
2590208367000,3.650013,-5.9539556364004,19.4807144659252,6.96509061557128,0.34300083,0.34574974,0.32925636,336.96484,-75.7482,-9.545673,JUM
2590214968000,3.656614,-4.68842635660141,19.5032348835953,7.39882992994503,0.838718,-0.112704635,0.37751472,337.15326,-75.75726,-9.69735,JUM
2590218417000,3.660063,-4.09592427979554,19.5127912313627,7.50395121894107,1.2483032,-0.7257079,0.45173484,337.44464,-75.84633,-9.816471,JUM
2590223362000,3.665008,-3.54444590902707,19.5203939839231,7.09251676405803,1.5558738,-1.3051136,0.49877146,337.73477,-76.03526,-9.736885,JUM
2590228350000,3.669996,-3.14721588522591,19.5248082003141,6.37750279495519,1.781894,-1.7486018,0.52839845,338.1534,-76.296326,-9.622237,JUM
2590233374000,3.67502,-2.91041577338873,19.512277739853,5.4608191831256,1.9788979,-2.0118847,0.5326745,338.59814,-76.66437,-9.379662,JUM
2590238368000,3.680014,-2.84927600884202,19.4817072457654,4.33992378350911,2.122146,-2.0677788,0.50946164,339.1,-77.05573,-9.13806,JUM
2590243303000,3.684949,-2.81405307777669,19.2614315417481,3.41192097313258,2.2708917,-2.0448713,0.46700647,339.59476,-77.55669,-8.861864,JUM
2590248426000,3.690072,-2.79486571974971,18.901670018772,2.5724756497458,2.3469443,-1.9339994,0.43890667,340.06897,-78.048836,-8.606344,JUM
2590253909000,3.695555,-2.74521423029212,18.30940132493,1.76702050414166,2.479502,-1.7858646,0.4071417,340.51938,-78.61337,-8.388013,JUM
2590258328000,3.699974,-2.69017637218888,17.7251525854342,1.16583730432173,2.595261,-1.6007724,0.40744713,340.91977,-79.15847,-8.190181,JUM
2590263395000,3.705041,-2.63366419224262,16.9029716401038,0.603719940634432,2.7049112,-1.4101825,0.40561453,341.26306,-79.70678,-8.044209,JUM
2590268342000,3.709988,-2.58356886253004,15.9830403025089,0.152862515332116,2.7782152,-1.2250903,0.40133846,341.55225,-80.22501,-7.917784,JUM
2590273330000,3.714976,-2.49231393305722,15.0057608823193,-0.288897146089689,2.8087585,-1.0714576,0.42088616,341.79343,-80.72521,-7.818792,JUM
2590278329000,3.719975,-2.3555688415786,13.9710564107398,-0.717365105735504,2.802039,-0.89858276,0.462425,341.97668,-81.17777,-7.730735,JUM
2590283366000,3.725012,-2.16937485223437,12.8833673910413,-1.03657523395606,2.726597,-0.69027776,0.5009095,342.12665,-81.57515,-7.6656666,JUM
2590288388000,3.730034,-1.90391201752468,11.724519435198,-1.16930667796412,2.5702155,-0.48899764,0.5513059,342.23044,-81.91081,-7.596578,JUM
2590293318000,3.734964,-1.62007766422546,10.6278419490031,-1.16405206878355,2.3506095,-0.34880406,0.5900958,342.31992,-82.20067,-7.5237994,JUM
2590298340000,3.739986,-1.30657681092791,9.55364038535276,-1.01652222573332,2.097406,-0.28038713,0.61850107,342.37482,-82.42237,-7.4478836,JUM
2590303294000,3.74494,-0.990683502773506,8.51109947590485,-0.783648500128166,1.840537,-0.26206118,0.62980205,342.4137,-82.604004,-7.353378,JUM
2590308304000,3.74995,-0.661077565062032,7.48292578319492,-0.414686631472368,1.5714508,-0.2959642,0.6426302,342.4504,-82.73854,-7.256172,JUM
2590313300000,3.754946,-0.36473880312697,6.50876007591436,0.00483538038953316,1.303281,-0.40225476,0.6588182,342.4901,-97.131645,-7.130277,JUM
2590318296000,3.759942,-0.108651054619487,5.59822577998811,0.488556652368917,1.0177015,-0.5873469,0.689056,342.564,-97.01731,-7.002091,JUM
2590323975000,3.765621,0.0916286413150183,4.5611558029304,0.8674552003663,0.7501425,-0.8035932,0.7125743,342.64536,-96.88193,-6.851872,JUM
2590328311000,3.769957,0.173848290130779,3.76773627060687,1.02367255342045,0.5002986,-1.026559,0.7348709,342.78073,-96.73855,-6.698383,JUM
2590333277000,3.774923,0.248962783290687,2.88323430871764,1.02873026734008,0.31795537,-1.201572,0.7626653,342.9195,-96.56304,-6.5286193,JUM
2590338342000,3.779988,0.297070025698701,2.01730401569969,0.773761909703461,0.1994475,-1.3005321,0.77763146,343.09384,-96.382645,-6.3589478,JUM
2590343316000,3.784962,0.328842266557012,1.26932351943117,0.504567179028013,0.13622294,-1.3100005,0.7901542,343.29724,-96.18244,-6.1701164,JUM
2590348314000,3.78996,0.337043216852566,0.674754229089351,0.205232286007196,0.11575896,-1.2339478,0.8029824,343.49414,-95.98231,-5.9786,JUM
2590353379000,3.795025,0.355317058568453,0.0825119100317878,-0.118445668623918,0.100792766,-1.0302242,0.81489426,343.65985,-95.790474,-5.790013,JUM
2590358253000,3.799899,0.498577611500603,-0.357502627085389,-0.68637140699989,0.11301007,-0.7696902,0.84635377,343.77823,-84.40524,-5.5944595,JUM
2590363260000,3.804906,0.657826304296281,-0.756802271281487,-1.2091445992403,0.17165314,-0.5018258,0.88606006,343.97736,-84.670944,-5.3289742,JUM
2590368260000,3.809906,0.858858821289484,-0.972194264484206,-1.52026635053978,0.26450464,-0.28405234,0.9502009,344.11508,-95.04752,-5.0474854,JUM
2590373251000,3.814897,1.04821702269039,-1.14894249244305,-1.76006518185551,0.3652974,-0.118507855,1.0152581,344.20032,-94.74809,-4.7452254,JUM
2590378250000,3.819896,1.19798562588718,-1.19106491972822,-1.75070465331899,0.44440445,-0.046120327,1.0684034,344.25052,-94.440056,-4.427261,JUM
2590383256000,3.824902,1.33095205456013,-1.23093273422115,-1.75318169507667,0.48655418,-0.04734206,1.1071932,344.26944,-94.106255,-4.0661874,JUM
2590388248000,3.829894,1.38400711315577,-1.25987177925747,-1.8110599362389,0.48533243,-0.099571034,1.1282681,344.28412,-93.78368,-3.693389,JUM
2590393261000,3.834907,1.40365095503317,-1.29762637332949,-1.85431691134506,0.44043383,-0.17256944,1.1139128,344.2956,-93.45741,-3.2878716,JUM
2590398285000,3.839931,1.28337781514277,-1.37164065041823,-1.8358133662244,0.38331795,-0.25259277,1.0516045,344.32587,-93.173645,-2.8881457,JUM
2590403312000,3.844958,1.1501366125444,-1.4322055521498,-1.71506348808165,0.32070425,-0.26847526,0.9605856,344.35886,-92.9369,-2.4890156,JUM
2590408330000,3.849976,0.926133354675721,-1.39744645534035,-0.873120316000964,0.21960606,-0.22999077,0.84329945,344.40027,-92.76149,-2.1129768,JUM
2590415429000,3.857075,0.590950059137247,-1.3375970981636,0.22705870253332,0.12522738,-0.10934488,0.6258314,344.43268,-92.6911,-1.8149136,JUM
2590418337000,3.859983,0.282110953181402,-1.21292808489673,-0.175282165591617,-0.061391957,-0.06566802,0.56016344,344.47763,-92.61936,-1.5052849,JUM
2590423364000,3.86501,-0.251772879569641,-0.997415316776885,-0.87080057826839,-0.13927728,0.077579886,0.4269948,344.44122,-92.50277,-1.3034772,JUM
2590428350000,3.869996,-0.708007059856736,-0.706017673145913,-1.14589676315376,-0.2415972,0.19914207,0.28680122,344.39694,-92.352486,-1.1208844,JUM
2590433364000,3.87501,-1.13207037798057,-0.376190603111569,-1.22599761486606,-0.3747658,0.32620203,0.13988814,344.30792,-92.197334,-0.97551525,JUM
2590438348000,3.879994,-1.47540828219588,-0.0420617991999601,-1.21796812092259,-0.5119051,0.40225476,-0.029626964,344.26672,-92.22526,-1.0144444,JUM
2590443318000,3.884964,-1.77416232553552,0.294629219221879,-1.16106258649995,-0.5748242,0.58368176,-0.10598512,344.15836,-92.24799,-1.0672625,JUM
2590448373000,3.890019,-1.98362512998012,0.548684384516899,-1.04264580166998,-0.59315014,0.7305948,-0.27214047,344.06958,-92.368225,-1.300338,JUM
2590453349000,3.894995,-2.13520907733598,0.747638249264413,-0.891061903777336,-0.5888741,0.7892379,-0.41416663,343.95325,-92.507515,-1.5493286,JUM
2590458327000,3.899973,-2.19599412134831,0.890427823820225,-0.719874585505618,-0.53969944,0.7663304,-0.52839845,343.8325,-92.746185,-1.9121407,JUM
2590463340000,3.904986,-2.2007258874039,0.99925856167948,-0.535335575934358,-0.45723262,0.6713409,-0.6261369,343.7147,-93.046524,-2.3122034,JUM
2590468309000,3.909955,-2.13535537686445,1.06810366008683,-0.330451116761216,-0.32803464,0.5140431,-0.68783426,343.62582,-93.417305,-2.7684584,JUM
2590473334000,3.91498,-2.01928335515678,1.10988955299566,-0.107592861261939,-0.21655174,0.31948254,-0.7244862,343.57642,-93.83489,-3.2462747,JUM
2590478317000,3.919963,-1.90185447058143,1.1772870032398,0.148754933360332,-0.124311075,0.10720685,-0.752586,343.5699,-94.27464,-3.7359078,JUM
2590483322000,3.924968,-1.78168958918137,1.26972154966734,0.439923662913895,-0.089186326,-0.09621128,-0.7602218,343.62155,-94.73378,-4.229525,JUM
2590488331000,3.929977,-1.66987930653831,1.38498377825913,0.768138289659045,-0.13194689,-0.23426682,-0.7657196,343.7194,-95.147575,-4.6723213,JUM
2590493317000,3.934963,-1.56932280653831,1.52863582825913,1.14163376965905,-0.2611449,-0.27091873,-0.7690793,343.85492,-95.557335,-5.1127896,JUM
2590498312000,3.939958,-1.44371905213284,1.69304456698817,1.24304993574625,-0.4822781,-0.21044308,-0.77854776,344.00287,-95.88707,-5.5024405,JUM
2590503345000,3.944991,-1.28556039264194,1.88475212251168,0.998622793695933,-0.7657196,-0.03573562,-0.7819075,344.13385,-96.204506,-5.886656,JUM
2590508288000,3.949934,-1.03337095686187,2.16556902210822,0.820486963449811,-1.058324,0.21166481,-0.7699956,344.19727,-96.46262,-6.24435,JUM
2590513321000,3.954967,-0.646128097926629,2.57613983360759,0.722509882266964,-1.3878858,0.4746423,-0.72143185,344.21063,-96.71338,-6.5880594,JUM
2590518271000,3.959917,-0.336827232115655,2.97350771077009,0.504480972761299,-1.7455474,0.78984874,-0.63285637,344.12845,-96.92521,-6.8681517,JUM
2590523331000,3.964977,-0.150918716219706,3.36799642790306,0.0601142537569009,-2.091908,1.1475104,-0.55833083,343.96268,-97.14543,-7.133538,JUM
2590528285000,3.969931,-0.0173540733203731,3.74235654328233,-0.37216563728778,-2.3408356,1.5091426,-0.5027421,343.678,-82.75657,-7.2428536,JUM
2590533344000,3.97499,-0.0528962506598197,4.08254592852651,-0.803749234793544,-2.4874432,1.8099937,-0.47586402,343.3122,-82.63614,-7.3360324,JUM
2590538259000,3.979905,-0.128626420103448,4.46114076724138,-1.03379980172414,-2.5256224,1.9208658,-0.47983465,342.91235,-82.5937,-7.32759,JUM
2590543451000,3.985097,-0.304094989310143,4.97250643814277,-0.838277656533575,-2.5274549,2.058616,-0.49938235,342.42465,-82.53094,-7.3127437,JUM
2590548327000,3.989973,-0.50409846396325,5.64306586784333,-0.478917210386847,-2.5534167,2.1337523,-0.5555819,341.89816,-82.3876,-7.3589687,JUM
2590553327000,3.994973,-0.777324585820116,6.69892249260155,0.229618282843327,-2.6529877,2.1484132,-0.6658431,341.35794,-82.20389,-7.4226074,JUM
2590558310000,3.999956,-1.07602647765363,7.88497532402235,0.932855863128492,-2.8341093,2.1905627,-0.84635377,340.84033,-81.99064,-7.499284,JUM
2590563345000,4.004991,-1.45097588792843,9.45393849328099,1.63543100528461,-3.1077769,2.298686,-1.106277,340.31177,-81.6983,-7.6254053,JUM
2590568342000,4.009988,-1.82309549133323,11.0110604310735,2.33270369353767,-3.4003813,2.1954496,-1.4245378,339.83273,-81.2111,-7.853917,JUM
2590573317000,4.014963,-2.49602698048322,14.8975779328859,6.04646691205369,-3.5185838,1.6927075,-1.736079,339.45538,-80.6408,-8.137712,JUM
2590578370000,4.020016,-2.01156379703997,16.3504738861164,7.65040259111873,-3.3215797,1.0476339,-1.9871446,339.16727,-80.01567,-8.474889,JUM
2590583343000,4.024989,-1.34415401038079,17.2262729387417,8.6613733236755,-2.7892108,0.3827071,-2.1025982,339.01895,-79.209946,-8.923968,JUM
2590588295000,4.029941,-0.679562563862346,18.0983736643803,9.66807492585147,-1.9712621,-0.18234327,-2.0683897,339.00244,-78.27186,-9.372346,JUM
2590593339000,4.034985,-0.281859413846605,18.6708440134831,9.16951848082071,-1.1930199,-0.63591075,-1.7730364,339.14716,-77.471504,-9.746875,JUM
2590598356000,4.040002,-0.173888985754763,18.9149520674157,7.10399747366878,-0.61208695,-1.1435398,-1.1823297,339.4589,-76.87641,-9.991954,JUM
2590603354000,4.045,-0.521491455299647,19.1033261073247,5.04208745440658,-0.15149458,-1.6371188,-0.5693264,339.75082,-76.55307,-9.842941,JUM
2590608317000,4.049963,-1.41511669658049,19.2243373830787,2.98954199383079,0.20158553,-1.711339,-0.14019357,340.04645,-76.39594,-9.598403,JUM
2590614793000,4.056439,-2.58979847226824,19.3405626300768,1.65930095066361,0.39614612,-1.2589933,0.049480084,340.28336,-76.610054,-9.254504,JUM
2590618333000,4.059979,-3.23596769689652,19.3845425642151,1.56457456367628,0.4269948,-0.46761733,0.052839845,340.42838,-76.88408,-8.88937,JUM
2590623285000,4.064931,-3.82707265225276,19.4323802006234,2.16560938991216,0.3549127,0.29565877,-0.0067195175,340.49347,-77.301254,-8.681834,JUM
2590628322000,4.069968,-3.94098212116747,19.4597185454803,3.91981517313687,0.3371976,0.8188649,0.005497787,340.40762,-77.7161,-8.49813,JUM
2590633285000,4.074931,-3.81073153041825,19.4832670038023,5.59183581368821,0.41416663,0.9257663,0.11362094,340.2919,-78.013275,-8.476951,JUM
2590638332000,4.079978,-3.03090820713185,19.4981683867023,7.14154799753366,0.6075055,0.79504114,0.22937989,340.10822,-78.31091,-8.463289,JUM
2590643332000,4.084978,-2.38546979994032,19.5111664337014,8.03905025037302,0.7150178,0.30634892,0.3042109,340.0088,-78.41963,-8.447083,JUM
2590648456000,4.090102,-1.98032317827514,19.5209292006366,7.67295413578036,0.9596693,-0.31429017,0.43463063,339.98376,-78.62337,-8.372041,JUM
2590653371000,4.095017,-1.75185895967177,19.5285853361608,7.07674021670662,1.2327261,-0.874759,0.5421429,340.01236,-78.808105,-8.167835,JUM
2590658327000,4.099973,-1.83500397040384,19.5329610189932,5.99585535135534,1.5128077,-1.2935071,0.6401868,340.17004,-79.06319,-7.9182973,JUM
2590663339000,4.104985,-1.93860116185291,19.4520192177858,4.93525254350531,1.7980819,-1.5314392,0.7287622,340.38202,-79.44014,-7.5914507,JUM
2590668336000,4.109982,-2.14539102260825,18.918501045372,4.05019211739694,2.068695,-1.5906931,0.7825184,340.6529,-79.87178,-7.2506757,JUM
2590673329000,4.114975,-2.35201535215625,18.3854099437387,3.16584016471351,2.288912,-1.543351,0.78801614,340.93988,-80.40176,-6.9370136,JUM
2590678319000,4.119965,-2.49674125880597,17.7006548270647,2.45367698690547,2.4630086,-1.4101825,0.7165449,341.2139,-80.94864,-6.6468005,JUM
2590683271000,4.124917,-2.62886874895522,16.9928297436816,1.77888282754229,2.6041186,-1.2522738,0.6206391,341.46286,-81.502556,-6.3794284,JUM
2590688332000,4.129978,-2.64880107074532,16.3003880498206,1.41434724946194,2.6676486,-1.1355985,0.5207626,341.71292,-82.03704,-6.20619,JUM
2590693322000,4.134968,-2.64403938959745,15.6242281335193,1.12388450055799,2.7149906,-1.0659598,0.43279803,341.93356,-82.53301,-6.071634,JUM
2590698411000,4.140057,-2.51952036842887,14.8984268339768,0.821255997956638,2.7000244,-1.029308,0.35430184,342.1528,-82.9508,-6.0166483,JUM
2590703305000,4.144951,-2.37567964725275,14.1931428571429,0.528934398241758,2.649017,-0.979217,0.28619036,342.3512,-83.290085,-5.9942007,JUM
2590708333000,4.149979,-2.13221458633127,13.3925925715343,0.269433924704522,2.5402832,-0.9462303,0.2406809,342.55563,-83.53917,-6.0089636,JUM
2590713310000,4.154956,-1.86773414591695,12.5815201599001,0.0225856011042264,2.402533,-0.9068295,0.20861048,342.74582,-83.6985,-6.0468473,JUM
2590718760000,4.160406,-1.49248671103835,11.5110225226068,-0.132310444594117,2.218357,-0.88422745,0.18325958,342.93457,-83.78137,-6.0985675,JUM
2590723301000,4.164947,-1.14443584022451,10.5437116445276,-0.213672992014344,1.9920316,-0.9059132,0.16310102,343.12555,-83.79377,-6.163445,JUM
2590728317000,4.169963,-0.798493893242261,9.51335956,-0.256263119319902,1.7486018,-0.9492846,0.15607607,343.3043,-83.77913,-6.214174,JUM
2590733326000,4.174972,-0.468477619241278,8.49973832,-0.279835704693858,1.505172,-0.97341377,0.16890424,343.4837,-96.270065,-6.2696524,JUM
2590738330000,4.179976,-0.19996135559387,7.5388380835249,-0.296948747120542,1.2702943,-1.0173961,0.18325958,343.68134,-96.29468,-6.2833548,JUM
