timestamp,rel_time,acc_x,acc_y,acc_z,gyro_x,gyro_y,gyro_z,azimuth,pitch,roll,label
77709851515000,0,1.49070224391513,1.31749994633271,9.42652715356035,-0.036651913,0.0036651916,0.0076358155,271.2831,-48.217148,3.7801607,SIT
77709856522000,0.005007,1.48973920730044,1.31629614805037,9.44145423114387,-0.029626964,0.0027488936,0.014049901,271.09442,-47.684708,3.8252351,SIT
77709861546000,0.010031,1.48877290093892,1.31508826257594,9.45643198983762,-0.03604105,-0.0012217305,0.009162978,270.90698,-47.156635,3.8666875,SIT
77709866524000,0.015009,1.48781544212767,1.31389143656247,9.47127261140958,-0.039095376,-0.004276057,0.0070249503,270.71753,-46.638866,3.9093869,SIT
77709871516000,0.020001,1.48685529058373,1.31269124462609,9.48615497036643,-0.03481932,-0.008857546,0.009773844,270.5289,-46.128933,3.9524703,SIT
77709876537000,0.025022,1.48588956123636,1.31148408042086,9.50112378533485,-0.03268129,0.0030543262,0.017104227,270.33667,-45.62498,3.992619,SIT
77709881533000,0.030018,1.48492864034022,1.31028292679222,9.51601806925881,-0.030848695,0.00580322,0.014049901,270.14847,-45.12982,4.0331583,SIT
77709886518000,0.035003,1.48396983516263,1.3090844178173,9.53087955952321,-0.029932396,0.004581489,0.013133603,269.9564,-44.642113,4.0732546,SIT
77709891496000,0.039981,1.48301237635139,1.30788759180382,9.54572018109517,-0.022602014,0.004276057,0.015577064,269.76318,-44.164036,4.1118813,SIT
77709896529000,0.045014,1.48204433894741,1.30667754252182,9.56072477096492,-0.032070424,0.004276057,0.016493361,269.57028,-43.688732,4.149392,SIT
77709901520000,0.050005,1.48108437974152,1.30547759100851,9.57560414867999,-0.03359759,0.004276057,0.012217305,269.3777,-43.224964,4.185606,SIT
77709906519000,0.055004,1.48012288183124,1.30427571611068,9.59050737632929,-0.041233405,0.009162978,0.0070249503,269.18378,-42.763847,4.219957,SIT
77709911540000,0.060025,1.47915715248386,1.30306855190545,9.60547619129771,-0.04153884,0.006414085,0.016798794,268.98877,-42.311108,4.257145,SIT
77709916522000,0.065007,1.47819892432042,1.30187076419971,9.62032873783678,-0.03359759,0.008857546,0.013439035,268.7953,-41.86605,4.2878423,SIT
77709921519000,0.070004,1.47723781108623,1.30066937014802,9.63522600300252,-0.02687807,0.0036651916,0.012217305,268.601,-41.427135,4.322174,SIT
77709926813000,0.075298,1.47621957345129,1.29939657044626,9.65100869697639,-0.02687807,0.01038471,0.0106901415,268.40442,-40.995457,4.3518777,SIT
77709931524000,0.080009,1.47531346889931,1.29826393739092,9.66505332699356,-0.034513887,0.0125227375,0.010995574,268.20923,-40.570198,4.3829174,SIT
77709936514000,0.084999,1.47435370203147,1.29706422630067,9.67992972346686,-0.032375857,0.004581489,0.003970624,268.0163,-40.15459,4.412212,SIT
77709941497000,0.089982,1.47339528152998,1.29586619817188,9.6947852512477,-0.024129177,-0.0018325958,0.016187929,267.81805,-39.74454,4.4434934,SIT
77709946559000,0.095044,1.47242166632257,1.29464917662101,9.70987629712903,-0.031154128,0.011301007,0.011301007,267.62274,-39.337933,4.466916,SIT
77709951564000,0.100049,1.47145901438398,1.2934458591848,9.72479741222899,-0.035124753,0.007330383,0.0076358155,267.42847,-38.94051,4.497072,SIT
77709956562000,0.105047,1.47049770881175,1.29224422471004,9.73969765863651,-0.026267206,-0.0021380284,0.013744468,267.2314,-38.550903,4.5255756,SIT
77709961594000,0.110079,1.46952986374582,1.2910344158511,9.75469926726449,-0.029626964,-0.002443461,0.01160644,267.0358,-38.16329,4.5499344,SIT
77709966557000,0.115042,1.46857529000532,1.28984119618359,9.76949517020977,-0.03726278,0.0036651916,0.011301007,266.8387,-37.782867,4.575463,SIT
77709971550000,0.120035,1.46761494612333,1.28864076382415,9.7843805104084,-0.025961773,0.002443461,0.01160644,266.6431,-37.412994,4.601529,SIT
77709976546000,0.125031,1.4666540252272,1.28743961019552,9.79927479433237,-0.03023783,0.002443461,0.014660766,266.545152171125,-37.2280293760144,4.61362831990783,SIT
77709981531000,0.130016,1.46569522004961,1.28624110122059,9.81413628459677,-0.027183503,-0.002443461,0.009468411,266.44742,-37.043472,4.625701,SIT
77709986524000,0.135009,1.46473487616762,1.28504066886115,9.8290216247954,-0.03573562,0.0061086523,0.010995574,266.2485,-36.68085,4.646886,SIT
77709991508000,0.139993,1.46377626332808,1.28384240030929,9.84388013381802,-0.03481932,0.002443461,0.013439035,266.05264,-36.326435,4.670879,SIT
77709996513000,0.144998,1.46281361138949,1.28263908287308,9.85880124891799,-0.028405234,0.008857546,0.004581489,265.85568,-35.977184,4.6880684,SIT
77710001520000,0.150005,1.46185057477481,1.28143528459074,9.87372832650151,-0.034513887,0.012217305,0.0106901415,265.65567,-35.629803,4.7088914,SIT
77710006513000,0.154998,1.46089023089282,1.2802348522313,9.88861366670014,-0.028405234,0.011911872,0.004886922,265.45993,-35.293934,4.72476,SIT
77710011540000,0.160025,1.45992334751715,1.27902624548768,9.90360036911923,-0.021380283,0.008857546,0.01038471,265.25992,-34.961586,4.7425933,SIT
77710016525000,0.16501,1.45896454233956,1.27782773651276,9.91846185938363,-0.016798794,0.016493361,0.015271631,265.05963,-34.635895,4.756127,SIT
77710021546000,0.170031,1.45799881299218,1.27662057230752,9.93343067435205,-0.030543262,0.008857546,0.012217305,264.86288,-34.31235,4.7727695,SIT
77710026533000,0.175018,1.45703962313849,1.27542158248647,9.94829812710001,-0.031154128,0.021380283,0.013439035,264.65942,-33.99877,4.7835503,SIT
77710031532000,0.180017,1.4560781252282,1.27421970758864,9.9632013547493,-0.023518313,0.023518313,0.0125227375,264.46014,-33.688976,4.7969327,SIT
77710036516000,0.185001,1.45526044007253,1.27592416351785,9.95371785644499,-0.027183503,0.011301007,0.01740966,264.2595,-33.380703,4.8111362,SIT
77710041508000,0.189993,1.45454405533311,1.27974490041358,9.92649512164714,-0.025045475,0.0106901415,0.013744468,264.05896,-33.08153,4.8198385,SIT
77710046527000,0.195012,1.45382379591662,1.28358630235262,9.89912514850001,-0.02687807,0.004886922,0.016187929,263.88287,-32.73101,4.8200197,SIT
77710051514000,0.199999,1.45310812871,1.28740321238849,9.87192968006313,-0.022296581,0.005192355,0.013439035,263.70807,-32.389973,4.817331,SIT
77710056504000,0.204989,1.45239203098371,1.29122241854027,9.84471785180967,-0.025045475,0.0018325958,0.0018325958,263.53632,-32.053127,4.8157253,SIT
77710061535000,0.21002,1.45167004948852,1.29507300494301,9.81728243939621,-0.018936822,0.004581489,0.009468411,263.35962,-31.726105,4.814855,SIT
77710066489000,0.214974,1.45095911799832,1.29886465770372,9.79026692894177,-0.02687807,-0.0036651916,0.01282817,263.18896,-31.401073,4.814846,SIT
77710071522000,0.220007,1.45023684949002,1.3027167748504,9.76282060998392,-0.029626964,-0.01160644,0.010995574,263.0173,-31.08535,4.8142653,SIT
77710076533000,0.225018,1.44951773812599,1.30655205381365,9.73549426301436,-0.023518313,-0.004886922,0.01740966,262.84183,-30.775612,4.813536,SIT
77710081529000,0.230014,1.44880077936035,1.31037585219728,9.70824971512772,-0.030848695,-0.008857546,0.0143553335,262.67194,-30.467514,4.815374,SIT
77710086520000,0.235005,1.44808453812749,1.31419582372104,9.68103243360206,-0.026572637,-0.004276057,0.018936822,262.49637,-30.169844,4.8151674,SIT
77710091498000,0.239983,1.4473701624799,1.31800584540914,9.65388604461494,-0.031154128,0.004276057,0.023823744,262.32156,-29.873314,4.8141775,SIT
77710096525000,0.24501,1.44664875501094,1.32185337032397,9.62647244529026,-0.025961773,0.008552114,0.012217305,262.14975,-29.586653,4.811062,SIT
77710101522000,0.250007,1.44593165273873,1.32567793407958,9.59922244413143,-0.026267206,0.005192355,0.013439035,261.97357,-29.302067,4.809907,SIT
77710106577000,0.255062,1.44520622708614,1.3295468894097,9.57165615318528,-0.032375857,0.013439035,0.01282817,261.79858,-29.022968,4.8026123,SIT
77710111875000,0.26036,1.44444592933987,1.33360183012957,9.54276471709573,-0.028710667,0.01160644,0.013744468,261.62503,-28.751682,4.798757,SIT
77710116528000,0.265013,1.44377819332374,1.33716310592601,9.51739064157201,-0.026572637,0.011301007,0.008552114,261.45197,-28.483496,4.791267,SIT
77710121513000,0.269998,1.44306281313024,1.34097848521793,9.49020607967952,-0.029932396,0.015577064,0.004886922,261.27814,-28.219706,4.783152,SIT
77710126527000,0.275012,1.44234327124654,1.3448160602971,9.46286337289338,-0.024129177,0.0076358155,0.01160644,261.10492,-27.963852,4.7786317,SIT
77710131529000,0.280014,1.44162545144154,1.34864445091258,9.43558610537357,-0.025961773,0.004581489,0.009773844,260.93372,-27.709974,4.7699285,SIT
77710136517000,0.285002,1.44090964072836,1.35246212632042,9.4083851836645,-0.021991149,0.00580322,0.003970624,260.76263,-27.46398,4.7622385,SIT
77710141505000,0.28999,1.44019383001518,1.35627980172825,9.38118426195543,-0.016798794,0.0027488936,0.005192355,260.59143,-27.222221,4.7568,SIT
77710146530000,0.295015,1.43947270955934,1.36012579589914,9.35378156917513,-0.022907447,-0.00580322,0.015577064,260.4202,-26.98273,4.752613,SIT
77710151516000,0.300001,1.43875718585928,1.36394194056303,9.32659155401045,-0.027488936,0.0027488936,0.008857546,260.2515,-26.749897,4.7424846,SIT
77710156541000,0.305026,1.43803606540344,1.36778793473392,9.29918886123016,-0.024740042,0.010995574,0.0021380284,260.08154,-26.521397,4.7355967,SIT
77710161537000,0.310022,1.4373191066378,1.37161173311755,9.27194431334352,-0.03634648,0.010079277,0.014966198,259.90872,-26.291359,4.730198,SIT
77710166522000,0.315007,1.43660372644429,1.37542711240947,9.24475975145103,-0.02687807,0.013744468,0.014049901,259.7398,-26.072762,4.7186623,SIT
77710171519000,0.320004,1.43588662417209,1.37925167616507,9.21750975029221,-0.03726278,0.018325957,0.011911872,259.5683,-25.848965,4.7083125,SIT
77710176531000,0.325016,1.43516736930151,1.38308772050029,9.19017795005045,-0.02565634,0.022296581,0.0021380284,259.399,-25.638311,4.695853,SIT
77710181879000,0.330364,1.43439989622731,1.38718092981888,9.16101385035115,-0.02565634,0.03145956,0.016187929,259.22327,-25.424746,4.6833262,SIT
77710186527000,0.335012,1.43373287774398,1.39073837875546,9.1356670411884,-0.044898596,0.035430185,0.014049901,259.05484,-25.21346,4.667732,SIT
77710191507000,0.339992,1.43301821508327,1.3945499311875,9.10850974565689,-0.041233405,0.03970624,0.01160644,258.88214,-25.012062,4.6512146,SIT
77710196528000,0.345013,1.43229766865366,1.39839286387049,9.08112886596538,-0.040011674,0.032070424,0.014049901,258.71017,-24.808142,4.636949,SIT
77710201519000,0.350004,1.43158142742081,1.40221283539425,9.05391158443972,-0.03573562,0.031154128,0.011911872,258.53918,-24.609964,4.6188703,SIT
77710206537000,0.355022,1.43086131151087,1.40605347196132,9.02654706456479,-0.034513887,0.028099801,0.013744468,258.36816,-24.414667,4.603947,SIT
77710211555000,0.36004,1.43014119560094,1.40989410852839,8.99918254468986,-0.036651913,0.022602014,0.015882496,258.19852,-24.22315,4.589531,SIT
77710216522000,0.365007,1.42942839852549,1.41369571112476,8.97209614169689,-0.030543262,0.02321288,0.018325957,258.0285,-24.037678,4.574401,SIT
77710221519000,0.370004,1.42871129625328,1.41752027488037,8.94484614053806,-0.03145956,0.021991149,0.020158553,257.8594,-23.852892,4.561161,SIT
77710226523000,0.375008,1.42799318943517,1.4213501962398,8.91755796647386,-0.048563786,0.007941248,0.021991149,257.69162,-23.668406,4.5512094,SIT
77710231529000,0.380014,1.42727479560394,1.42518164834317,8.89025888586528,-0.03848451,0.009773844,0.022602014,257.52255,-23.494589,4.537282,SIT
77710236516000,0.385001,1.42886113595416,1.41723232315941,8.88536735716026,-0.031154128,0.01282817,0.026572637,257.35406,-23.318182,4.5270114,SIT
77710241497000,0.389982,1.43241842354272,1.39920871785279,8.89959653227771,-0.035124753,0.02321288,0.034208454,257.184,-23.14442,4.514535,SIT
77710246530000,0.395015,1.43601284804246,1.38099695204107,8.91397425529842,-0.042455133,0.018020526,0.033292156,257.05298,-23.009996,4.5126777,SIT
77710251881000,0.400366,1.43983437903751,1.36163451237117,8.92926040588133,-0.05131268,0.027488936,0.04428773,256.91418,-22.875181,4.5060077,CHU
77710256511000,0.404996,1.44314099247558,1.34488099047404,8.94248688265182,-0.054367006,0.027183503,0.046120327,256.78,-22.741867,4.5017157,CHU
77710261536000,0.410021,1.44672970360436,1.32669817243232,8.95684175214895,-0.047647487,0.028710667,0.051923547,256.64087,-22.610186,4.4957004,CHU
77710266523000,0.415008,1.45029127622113,1.30865285629819,8.97108806740908,-0.04795292,0.031154128,0.058337633,256.50128,-22.477304,4.489381,CHU
77710271516000,0.420001,1.45385713386612,1.29058582933655,8.9853515228119,-0.049480084,0.021991149,0.053450707,256.36462,-22.347826,4.484724,CHU
77710276520000,0.425005,1.45743084739616,1.27247899919113,8.99964640180964,-0.04886922,0.018936822,0.04886922,256.22562,-22.220392,4.4781475,CHU
77710281529000,0.430014,1.46100813178304,1.25435407668945,9.01395556425961,-0.06719518,0.028405234,0.050701816,256.08618,-22.088774,4.470416,CHU
77710286516000,0.435001,1.46456970439981,1.23630876055532,9.02820187951975,-0.08032878,0.021380283,0.051618114,255.95068,-21.960629,4.466859,CHU
77710291496000,0.439981,1.468126277817,1.21828877371995,9.04242819794676,-0.092240654,0.011911872,0.05467244,255.81377,-21.82927,4.461501,CHU
77710296525000,0.44501,1.47171784563126,1.20009148179323,9.05679449420567,-0.09315695,0.015882496,0.05467244,255.6771,-21.69918,4.4538064,CHU
77710301524000,0.450009,1.47528798830446,1.18200274400408,9.07107508975117,-0.10995574,0.014966198,0.048258353,255.54321,-21.563112,4.4491153,CHU
77710306505000,0.45499,1.47884527589301,1.16397913869746,9.08530426486863,-0.105374254,0.07574729,0.03970624,255.40337,-21.434805,4.4262824,CHU
77710311591000,0.460076,1.4824775514753,1.14557559390937,9.09983339248303,-0.11911872,0.10415252,0.04062254,255.26666,-21.298344,4.412217,CHU
77710316556000,0.465041,1.48602341232196,1.12760988414278,9.11401686055333,-0.14355333,0.15210545,0.04153884,255.1243,-21.162247,4.37579,CHU
77710321551000,0.470036,1.48959069830968,1.10953562023863,9.12828602933705,-0.14782938,0.14355333,0.04428773,254.98459,-21.029871,4.347269,CHU
77710326537000,0.475022,1.49315155675508,1.09149392257575,9.14252948790674,-0.14446963,0.10445796,0.037873644,254.8458,-20.89496,4.313635,CHU
77710331532000,0.480017,1.4967188427428,1.07341965867161,9.15679865669045,-0.14049901,0.06811147,0.035124753,254.70639,-20.760916,4.282543,CHU
77710336515000,0.485,1.50027755867409,1.05538881642248,9.1710335451888,-0.14263703,0.04520403,0.03268129,254.57172,-20.628256,4.2578187,CHU
77710341509000,0.489994,1.50384413049044,1.03731817098958,9.18529985728206,-0.14202617,0.010995574,0.028099801,254.44366,-20.499605,4.2453012,CHU
77710346515000,0.495,1.50741927236322,1.01920410390166,9.19960044966069,-0.15393804,-0.014966198,0.029626964,254.31651,-20.368668,4.2369084,CHU
77710351524000,0.500009,1.51099655675011,1.00107918139999,9.21390961211067,-0.1469131,-0.006414085,0.025045475,254.19263,-20.24551,4.227007,CHU
77710356502000,0.504987,1.51455170182455,0.983066431507122,9.22813021715678,-0.16890424,-0.0009162979,0.019547688,254.07187,-20.112648,4.2244687,CHU
77710361542000,0.510027,1.51815112552388,0.964829336396629,9.24252793701061,-0.18906279,0.033292156,0.026267206,253.94577,-19.984083,4.212243,CHU
77710366525000,0.51501,1.52170984145517,0.946798494147506,9.25676282550896,-0.20586158,0.056199603,0.014660766,253.8271,-19.852768,4.1988626,CHU
77710371561000,0.520046,1.52530640846901,0.928575872922021,9.27114911860101,-0.20861048,0.06078109,0.016493361,253.70184,-19.721369,4.182993,CHU
77710376521000,0.525006,1.52884869845882,0.910628255511695,9.28531830321907,-0.21655174,0.058948494,0.010995574,253.58052,-19.586292,4.160813,CHU
77710381515000,0.53,1.53241527027517,0.892557610078799,9.29958461531234,-0.22021692,0.04337143,0.010995574,253.45853,-19.453651,4.1418185,CHU
77710386512000,0.534997,1.53598398460563,0.874476109232146,9.31385949747694,-0.2049453,0.014049901,0.022602014,253.33676,-19.326202,4.12762,CHU
77710391503000,0.539988,1.53954841390788,0.856416319213005,9.32811723949887,-0.19303341,0.0076358155,0.02565634,253.21704,-19.199108,4.110543,CHU
77710396563000,0.545048,1.54316212103458,0.838106854677471,9.34257209316165,-0.19333886,-0.019547688,0.02565634,253.10019,-19.074753,4.1075597,CHU
77710401485000,0.54997,1.54667727251237,0.820296739174725,9.35663272354272,-0.183565,-0.04734206,0.029932396,252.98242,-18.958477,4.1068807,CHU
77710406532000,0.555017,1.55028169541127,0.802034314765468,9.37105044022968,-0.17348573,-0.060170226,0.027794369,252.868,-18.844273,4.108479,CHU
77710411509000,0.559994,1.55383612631435,0.784025183343856,9.38526818858535,-0.1600467,-0.06291912,0.03359759,252.75235,-18.73541,4.1154213,CHU
77710416483000,0.564968,1.55738841470332,0.766026907336001,9.39947736686967,-0.1469131,-0.07819075,0.03268129,252.6419,-18.6313,4.1277876,CHU
77710421489000,0.569974,1.5609635565761,0.74791284024808,9.4137779592483,-0.13530666,-0.079107046,0.03145956,252.52939,-18.532146,4.136875,CHU
77710426491000,0.574976,1.5645358417634,0.729813247045166,9.42806712486515,-0.13683382,-0.086132,0.03145956,252.41922,-18.434555,4.151099,CHU
77710431522000,0.580007,1.56812883792041,0.711608718175943,9.44243913450496,-0.13927728,-0.080634214,0.022602014,252.31128,-18.341724,4.16058,CHU
77710437264000,0.585749,1.5699394841985,0.704689829168916,9.45088589471501,-0.14874569,-0.07788532,0.029321533,252.20049,-18.247581,4.173433,CHU
77710441502000,0.589987,1.56872235023841,0.715035458297847,9.44824876301505,-0.14202617,-0.07269296,0.035124753,252.09213,-18.159048,4.1826115,CHU
77710446530000,0.595015,1.56727833193936,0.727309602531038,9.44512004706712,-0.13805555,-0.07360926,0.03390302,252.02023,-17.947834,4.208846,CHU
77710451519000,0.600004,1.56584551425958,0.739488541588196,9.4420155992023,-0.1459968,-0.057726767,0.032986723,251.94455,-17.739138,4.228846,CHU
77710456532000,0.605017,1.56440580389102,0.751726068445991,9.43889621713249,-0.14049901,-0.048258353,0.038789943,251.86792,-17.539324,4.2505302,CHU
77710461542000,0.610027,1.56296695510856,0.763956271828705,9.4357787018383,-0.12705997,-0.028405234,0.04642576,251.78864,-17.343483,4.2644243,CHU
77710466524000,0.615009,1.56153614779634,0.776118122777345,9.43267860978328,-0.1142318,-0.0125227375,0.04062254,251.71097,-17.153074,4.2755365,CHU
77710471516000,0.620001,1.56010246853046,0.788304385309582,9.42957229514285,-0.111177474,-0.0070249503,0.04062254,251.62881,-16.967117,4.2847285,CHU
77710476589000,0.625074,1.55864552643995,0.800688381668966,9.42641557756053,-0.10323623,-0.005192355,0.04734206,251.54543,-16.789747,4.290287,CHU
77710481524000,0.630009,1.55722821730992,0.812735498174694,9.42334473165697,-0.087659165,0.0027488936,0.05100725,251.46198,-16.61896,4.2920823,CHU
77710486519000,0.635004,1.55579367645795,0.824929084182011,9.42023655024091,-0.07269296,0.006414085,0.04520403,251.3796,-16.453667,4.294008,CHU
77710491505000,0.63999,1.55436172036426,0.83710069976409,9.41713396915172,-0.07238753,0.004886922,0.053450707,251.29227,-16.291416,4.29635,CHU
77710496528000,0.645013,1.55291913804204,0.849362638205482,9.41400836449649,-0.062002823,-0.00030543262,0.055283304,251.20847,-16.139624,4.2974763,CHU
77710501518000,0.650003,1.5514860331669,0.861544018421,9.41090329437314,-0.06078109,-0.01160644,0.061086524,251.12209,-15.987989,4.301435,CHU
77710507259000,0.655744,1.54983724457206,0.875558708564745,9.40733090808493,-0.058337633,-0.023823744,0.059253927,251.03796,-15.842634,4.306342,CHU
77710511546000,0.660031,1.54860603803905,0.886023954453308,9.40466328571643,-0.056505036,-0.033292156,0.062002823,250.95184,-15.700001,4.3140726,CHU
77710516524000,0.665009,1.54717637950829,0.898176040768508,9.40156568269558,-0.064446285,-0.041233405,0.070249505,250.86575,-15.557892,4.3246155,CHU
77710521519000,0.670004,1.54574183865631,0.910369626775825,9.39845750127951,-0.07391469,-0.05222898,0.07360926,250.78139,-15.418552,4.3379807,CHU
77710526540000,0.675025,1.54429983072482,0.922626682900498,9.39533314114136,-0.08460484,-0.050701816,0.07269296,250.69577,-15.279139,4.34986,CHU
77710531527000,0.680012,1.54286758743577,0.934800739640937,9.39222993779364,-0.083383106,-0.037873644,0.07666359,250.60805,-15.142863,4.3616834,CHU
77710536517000,0.685002,1.54143448256063,0.946982119856455,9.38912486767028,-0.0888809,-0.029932396,0.07727446,250.52197,-15.004347,4.37353,CHU
77710541508000,0.689993,1.54000109049011,0.959165941230333,9.38601917528839,-0.098043874,-0.025350908,0.07849618,250.43413,-14.867603,4.382607,CHU
77710546530000,0.695015,1.53855879536326,0.971425438513365,9.3828941928917,-0.108123146,-0.022907447,0.07941248,250.34604,-14.731578,4.3896556,CHU
77710551516000,0.700001,1.53712683926958,0.983597054095444,9.37979161180251,-0.090713486,-0.016493361,0.08032878,250.25723,-14.603307,4.3940134,CHU
77710556526000,0.705011,1.53568799048711,0.995827257478158,9.37667409650833,-0.10048734,-0.0033597588,0.082161374,250.16748,-14.466914,4.3955655,CHU
77710561533000,0.710018,1.53425000329075,1.00805013738579,9.37355844798976,-0.09193522,-0.0012217305,0.07696902,250.08011,-14.343273,4.3976135,CHU
77710566502000,0.714987,1.53282292951828,1.02018025327576,9.37046644529579,-0.0888809,0.0018325958,0.086437434,249.98743,-14.217309,4.3966727,CHU
77710571523000,0.720008,1.5313809215868,1.03243730940043,9.36734208515764,-0.089491755,0.0061086523,0.093462385,249.89694,-14.09523,4.3940234,CHU
77710576721000,0.725206,1.52988808007557,1.04512645055479,9.3641075852576,-0.0729984,-0.0018325958,0.087659165,249.80838,-13.981231,4.393466,CHU
77710581498000,0.729983,1.52851614781333,1.05678786403967,9.36113505620364,-0.07086037,0.0061086523,0.089491755,249.71472,-13.864835,4.388121,CHU
77710586513000,0.734998,1.52707586305404,1.06903027321418,9.35801442961674,-0.08246681,0.004276057,0.079107046,249.62767,-13.751696,4.3862333,CHU
77710591498000,0.739983,1.52564419415572,1.0811994476379,9.3549124707861,-0.07880162,0.004276057,0.087659165,249.581414497154,-13.6983744724858,4.38390668455009,CHU
77710596526000,0.745011,1.52420017585667,1.09347359187109,9.35178375483816,-0.080634214,0.008552114,0.08582657,249.53476,-13.644593,4.38156,CHU
77710601546000,0.750031,1.52275845512055,1.1057282068374,9.34866001695855,-0.086132,0.0070249503,0.07849618,249.44958,-13.534673,4.377186,CHU
77710606530000,0.755015,1.5213270734176,1.11789494010276,9.34555868038645,-0.080634214,-0.004276057,0.07819075,249.36133,-13.430097,4.3751307,CHU
77710611487000,0.759972,1.51990344598952,1.1299957620924,9.34247414479498,-0.0870483,-0.010995574,0.08002335,249.27463,-13.322645,4.3717394,CHU
77710616491000,0.764976,1.51846632037926,1.14221131852496,9.33936036305204,-0.101098195,-0.015882496,0.07696902,249.1904,-13.216616,4.3704476,CHU
77710621492000,0.769977,1.51703005635508,1.15441955148244,9.33624844808473,-0.10781772,-0.02321288,0.07452556,249.10645,-13.112701,4.3716393,CHU
77710626481000,0.774966,1.5155972386753,1.1665984905396,9.33314400021992,-0.10262536,-0.0076358155,0.071776666,249.0226,-13.010211,4.3673263,CHU
77710631481000,0.779966,1.5141612618465,1.17880428233871,9.33003270751115,-0.11728613,-0.013744468,0.07086037,248.94113,-12.902098,4.370779,CHU
77710636470000,0.784955,1.50478077049252,1.17797592528584,9.33855165760774,-0.11575896,-0.007941248,0.076052725,248.85728,-12.801903,4.366593,CHU
77710641498000,0.789983,1.47513569133685,1.14409574006157,9.37666672779244,-0.11942416,-0.005497787,0.07727446,248.77573,-12.698082,4.3645225,CHU
77710646772000,0.795257,1.4469615412317,1.11033383717485,9.41716770155039,-0.11881329,0.006414085,0.07574729,248.74011,-12.624551,4.3553767,CHU
77710651519000,0.800004,1.4587085467528,1.10250247290267,9.46024028682171,-0.11453723,0.009468411,0.071776666,248.70514,-12.552521,4.3479466,CHU
77710656530000,0.805015,1.47110885108527,1.09423557457364,9.50570831395349,-0.10995574,0.0143553335,0.076052725,248.71716,-12.439016,4.3394113,CHU
77710661532000,0.810017,1.47257555483177,1.06585055704346,9.52385126681456,-0.1151481,0.016493361,0.079107046,248.72925,-12.326877,4.330729,CHU
77710666457000,0.814942,1.46940485535948,1.02938748000403,9.530192632651,-0.113926366,0.018936822,0.07880162,248.73947,-12.2205515,4.3209305,CHU
77710671516000,0.820001,1.46614788710968,0.991932311122315,9.53670653514168,-0.10598512,0.02321288,0.07941248,248.83072,-12.061294,4.321604,CHU
77710676506000,0.824991,1.46293534084232,0.954987995502672,9.54313159413129,-0.10415252,0.018020526,0.07880162,248.91911,-11.905703,4.3246555,CHU
77710681518000,0.830003,1.45970863104433,0.917880799132802,9.54958498003428,-0.09437868,0.018020526,0.08002335,249.13269,-11.68074,4.3390923,CHU
77710686483000,0.834968,1.45651217969816,0.881121575274781,9.5559778493496,-0.09285152,0.01985312,0.08155051,249.33781,-11.463208,4.3553667,CHU
77710691500000,0.839985,1.43569474556003,0.83152972589127,9.56764311846168,-0.08674286,0.01282817,0.08124508,249.7309,-11.139158,4.4026155,CHU
77710696517000,0.845002,1.40871979138205,0.77757986448021,9.58113085374754,-0.080634214,0.009773844,0.07269296,250.10611,-10.83339,4.4492993,CHU
77710701521000,0.850006,1.40448251532353,0.747164575201202,9.56757768494474,-0.081855945,0.0106901415,0.06383542,250.73772,-10.348729,4.5540757,CHU
77710706579000,0.855064,1.41487847201416,0.731570802993883,9.53639003197768,-0.07452556,0.005497787,0.061086524,251.3279,-9.903717,4.662151,CHU
77710711534000,0.860019,1.43468061652342,0.707061516784162,9.4908339917914,-0.064446285,0.0021380284,0.058643065,252.03656,-9.373247,4.8281384,CHU
77710716531000,0.865016,1.45778789303718,0.679332727059392,9.43999778078223,-0.06841691,0.006414085,0.053145275,252.70149,-8.880437,4.9911594,CHU
77710721516000,0.870001,1.45900162277611,0.64225233607976,9.41732838592585,-0.056199603,0.0018325958,0.049480084,253.46289,-8.3382845,5.215995,CHU
77710726579000,0.875064,1.44961490604975,0.600011860871165,9.4079419142387,-0.056199603,0.0070249503,0.048258353,254.17816,-7.832912,5.431675,CHU
77710731522000,0.880007,1.44754636458116,0.565354987184071,9.39283707160236,-0.0571159,0.0027488936,0.05375614,254.9863,-7.278153,5.70692,CHU
77710736518000,0.885003,1.4499221127911,0.534469910667858,9.37383073861661,-0.062002823,0.003970624,0.044898596,255.75064,-6.7653832,5.970694,CHU
77710741505000,0.88999,1.45229358123045,0.503640471799494,9.35485864442127,-0.054367006,0.020158553,0.043066,256.5982,-6.207503,6.272165,CHU
77710746560000,0.895045,1.45469738571429,0.472390659591837,9.33562785714286,-0.04062254,0.036651913,0.04062254,257.4003,-5.6934,6.563085,CHU
77710751551000,0.900036,1.47505452717605,0.45968673,9.32227276644348,-0.05467244,0.044898596,0.040317107,258.07504,-5.2550454,6.825556,CHU
77710756566000,0.905051,1.50815750224006,0.45968673,9.31281458310358,-0.034208454,0.06505715,0.0290161,258.72675,-4.857223,7.0723143,CHU
77710762145000,0.91063,1.54498332435014,0.45968673,9.30229270775896,-0.03176499,0.05009095,0.020158553,259.35123,-4.463561,7.321339,CHU
77710766566000,0.915051,1.57416542858901,0.45968673,9.29395479578574,-0.027183503,0.09010262,0.034208454,259.94775,-4.098791,7.542276,CHU
77710771555000,0.92004,1.60449523565082,0.462144283375647,9.28458704208573,-0.021991149,0.092240654,0.023518313,260.53357,-3.7576003,7.7706614,CHU
77710776584000,0.925069,1.63271224211503,0.466847112875696,9.27518166790352,-0.020158553,0.118202426,0.020463986,261.092,-3.4358969,7.974757,CHU
77710781544000,0.930029,1.65404491426641,0.477236765616459,9.27718322616008,-0.027794369,0.1282817,0.013439035,261.65256,-3.124863,8.187446,CHU
77710786550000,0.935035,1.66844393641187,0.494035615597938,9.29158227336437,-0.027488936,0.13652839,0.019242255,262.19086,-2.834546,8.386763,CHU
77710791551000,0.940036,1.68282857679331,0.510817686863894,9.3059669387796,-0.03481932,0.12186762,0.023823744,262.71448,-2.5581822,8.587522,CHU
77710796566000,0.945051,1.69725348611403,0.527646738533313,9.32039187320418,-0.026267206,0.096516706,0.012217305,263.22403,-2.3031428,8.782492,CHU
77710801557000,0.950042,1.70266558683456,0.514235034233608,9.33382816517586,-0.0021380284,0.067500606,0.010995574,263.7133,-2.0651321,8.976556,CHU
77710806549000,0.955034,1.69851383819366,0.468565755831524,9.34628367121146,0.0009162979,0.06688975,0.021685716,264.1872,-1.8379511,9.163306,CHU
77710811544000,0.960029,1.69949198487508,0.421722214976367,9.35082459216745,0.015577064,0.07269296,0.018325957,264.66156,-1.6373051,9.354516,CHU
77710816635000,0.96512,1.7248155914351,0.368542659710175,9.31790351493274,0.0012217305,0.05589417,0.022602014,265.1165,-1.4414912,9.545719,CHU
77710821446000,0.969931,1.74874642450527,0.318287927754636,9.28679306461331,0.009468411,0.045814894,0.018325957,265.54858,-1.2629166,9.724629,CHU
77710826583000,0.975068,1.77429884385291,0.264627865801693,9.25357452724251,0.019547688,0.053145275,0.026267206,265.9635,-1.0913674,9.897162,CHU
77710832233000,0.980718,1.792888073275,0.21769231189135,9.21989012952329,0.02687807,0.038789943,0.014049901,266.3747,-0.9327427,10.073572,CHU
77710836557000,0.985042,1.79666257725823,0.19504527222678,9.1972434209279,0.03176499,0.04337143,0.016187929,266.76846,-0.78508306,10.236664,CHU
77710841533000,0.990018,1.80239852231327,0.171076637776027,9.17066334173758,0.03756821,0.079107046,0.026267206,267.1473,-0.62868625,10.400181,CHU
77710846565000,0.99505,1.81758618622754,0.160951523213573,9.14028790818363,0.04734206,0.092240654,0.029626964,267.51694,-0.48431784,10.562824,CHU
77710851568000,1.000053,1.8237366861498,0.155402276674783,9.13016012515827,0.052839845,0.122478485,0.030543262,267.86758,-0.34515285,10.705387,CHU
77710856567000,1.005052,1.80042197727671,0.164728165093016,9.18611513431382,0.05222898,0.1337795,0.027488936,268.2089,-0.21528289,10.844403,CHU
77710861584000,1.010069,1.78085119730213,0.170642926464948,9.24117391578477,0.056505036,0.1282817,0.019242255,268.5656,-0.08372833,10.983797,CHU
77710866543000,1.015028,1.77849158846326,0.161204584735927,9.2907254796542,0.059253927,0.119729586,0.033292156,268.90668,0.041218914,11.115863,CHU
77710871531000,1.020016,1.77611818074229,0.151711048026035,9.34056681875093,0.062308256,0.14049901,0.048258353,269.23447,0.15128629,11.228032,CHU
77710876580000,1.025065,1.77371574778656,0.142101411528792,9.39101768504993,0.06719518,0.15515977,0.038179077,269.55713,0.2524467,11.340031,CHU
77710881512000,1.029997,1.78125739830677,0.143623491185259,9.45225133964143,0.06658431,0.1572978,0.043982297,269.85632,0.34686598,11.446822,CHU
77710886554000,1.035039,1.8485888890239,0.210954931683267,9.58691391932271,0.06169739,0.15821409,0.056199603,270.1496,0.4349233,11.546048,CHU
77710891527000,1.040012,1.90640623612418,0.27623187480715,9.71000795766698,0.06688975,0.13530666,0.0693332,270.4264,0.5154361,11.641777,CHU
77710896566000,1.045051,1.91094598167451,0.33524860488429,9.77356477460019,0.054367006,0.09773844,0.070554934,270.69717,0.5970423,11.738201,CHU
77710901876000,1.050361,1.91436725802538,0.395830330166497,9.83876106319797,0.051923547,0.069027774,0.09254608,270.97162,0.66460675,11.845641,CHU
77710906511000,1.054996,1.90310112586802,0.431881906014213,9.87706569137056,0.033292156,0.062308256,0.108123146,271.24133,0.7346296,11.953333,CHU
77710911757000,1.060242,1.89034985741117,0.472685911817259,9.92041975380711,0.01160644,0.086437434,0.10323623,271.52435,0.7946181,12.054465,CHU
77710916524000,1.065009,1.87876287747716,0.509764199210152,9.95981525812183,-0.007330383,0.11881329,0.109650314,271.79303,0.8554707,12.150656,CHU
77710921545000,1.07003,1.86141020642458,0.541833269776536,10.0093090195531,-0.040011674,0.16982053,0.12370021,272.04544,0.9171128,12.223574,CHU
77710926578000,1.075063,1.78062797900372,0.487978435875233,10.1574099650838,-0.07788532,0.24648413,0.13164146,272.2925,0.9809765,12.276769,CHU
77710931461000,1.079946,1.70225332839851,0.435728653649907,10.3010970139665,-0.10567969,0.27672195,0.13958271,272.53903,1.0324669,12.31929,CHU
77710936515000,1.085,1.66096820589657,0.354171505583374,10.3568791869502,-0.13408493,0.28863382,0.13072516,272.7836,1.0899138,12.343819,CHU
77710941478000,1.089963,1.62421250135331,0.271471215937168,10.4028237576607,-0.13622294,0.26633725,0.129198,273.01895,1.1444868,12.368455,CHU
77710946531000,1.095016,1.59055992912206,0.138914958533191,10.4379095374732,-0.10842858,0.26511553,0.12339478,273.23083,1.1947469,12.358812,CHU
77710951458000,1.099943,1.55841137401207,0.00113534551683862,10.4700582844072,-0.051923547,0.28252518,0.12064589,273.43896,1.2340434,12.350222,CHU
77710956560000,1.105045,1.51642802686808,-0.199913193750252,10.445903044713,-0.009162978,0.32284227,0.10415252,273.6272,1.2745708,12.324106,CHU
77710961507000,1.109992,1.47348861487412,-0.409839118822759,10.4077349220544,0.05467244,0.38973203,0.10415252,273.8093,1.2915968,12.285807,CHU
77710966522000,1.115007,1.4851793778915,-0.581634654833163,10.4243262405322,0.10262536,0.43035457,0.09865474,273.96964,1.3190964,12.235814,CHU
77710971738000,1.120223,1.51074365056295,-0.750358945224156,10.4550029406346,0.13775012,0.47647488,0.093767814,274.12866,1.3304219,12.166694,CHU
77710976526000,1.125011,1.59519235526552,-0.790761586579655,10.5112102222776,0.24281894,0.4859433,0.08979719,274.24454,1.3375127,12.088598,CHU
77710981509000,1.129994,1.69028300830926,-0.819288782492777,10.5730193800937,0.28130344,0.46792278,0.09162979,274.3595,1.3519275,12.007631,CHU
77710986517000,1.135002,1.71160012163265,-0.882497844520408,10.7001567954082,0.35979962,0.47342056,0.093462385,274.4535,1.351914,11.92246,CHU
77710991510000,1.139995,1.71973225809524,-0.951621063892857,10.8384030303571,0.42852196,0.44990227,0.0852157,274.54907,1.3423538,11.852964,CHU
77710996529000,1.145014,1.72143743153915,-0.991186636921699,10.977228235499,0.47708577,0.43463063,0.067500606,274.65265,1.3252311,11.790696,CHU
77711001533000,1.150018,1.71666951718237,-1.00072246563526,11.1154976522734,0.5308419,0.45753807,0.0571159,274.75574,1.2869909,11.725783,CHU
77711006514000,1.154999,1.74312506448936,-1.05300494221026,11.1114557321917,0.58184916,0.52564955,0.048563786,274.85107,1.2473094,11.6500025,CHU
77711011577000,1.160062,1.80304414330479,-1.15144344479654,10.9573781264895,0.6365216,0.61727935,0.015577064,274.95627,1.1895647,11.562736,CHU
77711016588000,1.165073,1.89141131892797,-1.22709858174204,10.7192859262982,0.6939429,0.66675943,0.007330383,275.0543,1.1181315,11.464709,CHU
77711021524000,1.170009,2.07088852317141,-1.23237731817979,10.2125271180346,0.7324274,0.7012733,0.0030543262,275.16083,1.0356753,11.347824,CHU
77711026504000,1.174989,2.23038516792231,-1.22734382187561,9.80867206415538,0.7867944,0.71959925,0.00580322,275.2569,0.9562032,11.239433,CHU
77711031524000,1.180009,2.36243495309005,-1.2084795738866,9.54457249381989,0.86345804,0.72601336,0.016798794,275.3512,0.86068046,11.1276245,CHU
77711036457000,1.184942,2.40941669353363,-1.14446751438022,9.40160544637883,0.97524637,0.7449502,0.03634648,275.44733,0.7516309,11.052759,CHU
77711041515000,1.19,2.32267662282133,-1.00471965901811,9.44497533077995,1.0668762,0.7620544,0.05009095,275.54016,0.6286014,10.978339,CHU
77711046466000,1.194951,2.19716490791745,-0.811450753202699,9.53515407560274,1.1325442,0.7626653,0.07086037,275.64648,0.49413025,10.945809,CHU
77711051521000,1.200006,2.00023657226907,-0.518459758406588,9.70806677279492,1.1771374,0.7703011,0.07941248,275.74963,0.3426209,10.906601,CHU
77711056529000,1.205014,1.76175768586011,-0.0928986392589792,9.84296241909263,1.2021828,0.75319684,0.094989546,275.85687,0.15604739,10.842945,CHU
77711061530000,1.210015,1.44940808287335,0.563488301860113,9.91539136323251,1.2305881,0.74128497,0.1020145,275.96225,-0.040043265,10.7771,CHU
77711066503000,1.214988,1.15649583494364,1.12037848639291,9.97065113486312,1.2635747,0.73456544,0.112704635,276.08682,-0.29816765,10.663134,CHU
77711071516000,1.220001,0.914906973711755,1.39095793630233,9.97548275669283,1.2867876,0.7357872,0.13041973,276.20645,-0.5554311,10.5532875,CHU
77711076504000,1.224989,0.670254815510503,1.62149792979971,9.98758002686859,1.346347,0.7296785,0.15668693,276.39026,-0.95736766,10.38116,CHU
77711081524000,1.230009,0.411910288202247,1.7436244505618,10.0204601685393,1.3884968,0.7119634,0.16523905,276.57333,-1.353014,10.216486,CHU
77711086916000,1.235401,0.172529912544039,1.86637987958465,10.0947568464676,1.4223998,0.68752885,0.15393804,276.78168,-1.8086162,10.019432,CHU
77711091503000,1.239988,0.0544198083534211,1.95190786700352,10.2454495352309,1.4382823,0.677755,0.13500121,276.98904,-2.2618506,9.827938,CHU
77711096600000,1.245085,-0.062813971203464,2.04895695114722,10.4007378709937,1.4456125,0.6411031,0.11636983,277.19196,-2.751621,9.600288,CHU
77711101518000,1.250003,-0.00815067562092671,2.16669323888938,10.4049423855906,1.4523321,0.5674938,0.0888809,277.40298,-3.2373924,9.3910675,CHU
77711106502000,1.254987,0.0472462062789037,2.28600955814659,10.4092033251495,1.455081,0.49021935,0.07849618,277.61322,-3.7397578,9.172795,CHU
77711111588000,1.260073,0.0968513787118744,2.38679140210246,10.3784767565887,1.4679092,0.41874814,0.071776666,277.83093,-4.237991,8.978395,CHU
77711116457000,1.264942,0.142877904506959,2.47884448252887,10.3416557551081,1.4795157,0.37568212,0.076358154,278.04895,-4.726885,8.802073,CHU
77711121518000,1.270003,0.192495612515038,2.58878902943609,10.3083865907895,1.5091426,0.3323107,0.07788532,278.28125,-5.2375484,8.651748,CHU
77711126497000,1.274982,0.24179185856203,2.70082598204887,10.2770156151316,1.5146403,0.29352075,0.073303826,278.51486,-5.7346854,8.515265,CHU
77711131519000,1.280004,0.296815864681936,2.84731925002,10.2599625222044,1.5189165,0.27855456,0.06566802,278.76157,-6.244362,8.390189,CHU
77711136526000,1.285011,0.354368665425085,3.01038544116823,10.2503706967393,1.518611,0.25717425,0.06811147,279.00806,-6.7439265,8.280028,CHU
77711141508000,1.289993,0.348827171604076,3.14475005641921,10.2286817289665,1.5121969,0.22602014,0.070554934,279.26813,-7.252951,8.183773,CHU
77711146526000,1.295011,0.311519916881126,3.26599881443959,10.2007012051431,1.5143349,0.19639318,0.08124508,279.5259,-7.753672,8.094731,CHU
77711151518000,1.300003,0.259787133087127,3.3637610872249,10.1526281632122,1.5311338,0.17195857,0.086437434,279.78918,-8.277194,8.018734,CHU
77711157371000,1.305856,0.187967576321978,3.46092860711486,10.0808087034971,1.5448782,0.14630222,0.09712757,280.0493,-8.789231,7.952387,CHU
77711161920000,1.310405,0.132511018702355,3.53796561713799,10.0249255935874,1.568091,0.13316862,0.103847094,280.30112,-9.3301115,7.8749833,CHU
77711166573000,1.315058,0.0861505035562281,3.66018887664807,9.96592121436678,1.5741998,0.13041973,0.10567969,280.5526,-9.8586645,7.802417,CHU
77711171452000,1.319937,0.037538220427504,3.78834861942684,9.90405094438665,1.593442,0.10629055,0.116980694,280.7885,-10.420418,7.719379,CHU
77711176557000,1.325042,-0.051376000306168,3.93973944154075,9.86280111434233,1.616044,0.05955936,0.12095132,281.02856,-10.973414,7.644076,CHU
77711181461000,1.329946,-0.144444440292296,4.08864890956156,9.82790047485757,1.649947,0.004276057,0.10751228,281.2734,-11.523809,7.578099,CHU
77711186527000,1.335012,-0.240587327113203,4.2424774913302,9.79184691865246,1.6789632,-0.04153884,0.09712757,281.50342,-12.107944,7.5108347,CHU
77711191489000,1.339974,-0.334756494978449,4.39314812353233,9.75653350651474,1.7150042,-0.05589417,0.080634214,281.74234,-12.6921625,7.4488487,CHU
77711196565000,1.34505,-0.331252468410175,4.47451164010334,9.73379616335453,1.7354681,-0.071776666,0.056505036,281.97055,-13.277308,7.392769,CHU
77711201450000,1.349935,-0.303361351220191,4.53494230340819,9.7152021952504,1.7421877,-0.105068825,0.043676864,282.2046,-13.856536,7.344542,CHU
77711206567000,1.355052,-0.0469509983899051,4.62358911787147,9.53555792487528,1.7556267,-0.108123146,0.029321533,282.46686,-14.5011425,7.251766,CHU
77711211582000,1.360067,0.267815214160227,4.71754935923897,9.31475173784603,1.7620409,-0.11453723,0.011911872,282.73776,-15.132783,7.1679764,CHU
77711216586000,1.365071,0.403536494008122,4.73317311187817,9.17628786538071,1.7702875,-0.1142318,0.007941248,282.996,-15.774004,7.0829515,CHU
77711221530000,1.370015,0.480446517463959,4.72355941604061,9.0657294848731,1.7715092,-0.13683382,-0.003970624,283.26514,-16.402391,7.0039854,CHU
77711227193000,1.375678,0.480726954403141,4.71704916320445,8.8980525409999,1.7785342,-0.15485434,-0.0027488936,283.5077,-17.046446,6.965823,CHU
77711231562000,1.380047,0.464092003187556,4.7128903407216,8.76081443882318,1.7922786,-0.13713925,-0.005192355,283.75534,-17.679663,6.92102,CHU
77711236553000,1.385038,0.408287403746625,4.73748868421158,8.62901509579042,1.8054122,-0.10476339,-0.018325957,284.00546,-18.302717,6.88533,CHU
77711241521000,1.390006,0.341685459869013,4.77078968347165,8.50532575512449,1.8249599,-0.06780604,-0.034513887,284.25653,-18.918554,6.840937,CHU
77711246581000,1.395066,0.289041312724755,4.80808273919494,8.39136254841262,1.8280143,-0.030543262,-0.04642576,284.4718,-19.547794,6.7892666,CHU
77711251548000,1.400033,0.241995515735338,4.84571929622194,8.28315701097814,1.8237382,0.0018325958,-0.06566802,284.6927,-20.167894,6.7253895,CHU
77711256585000,1.40507,0.206881744985401,4.91448511766423,8.1830420015511,1.8255708,0.021380283,-0.08582657,284.9014,-20.804752,6.6464434,CHU
77711261533000,1.410018,0.176616941817518,4.99230885080292,8.08792415063869,1.8283197,0.03390302,-0.09162979,285.11115,-21.427338,6.55996,CHU
77711266542000,1.415027,0.14744821773244,5.08413433608277,8.01124290819003,1.8374827,0.057726767,-0.09682214,285.31555,-22.063301,6.4618993,CHU
77711271561000,1.420046,0.119429568557272,5.1868695553483,7.95053582847566,1.8503108,0.08979719,-0.11026118,285.52362,-22.688128,6.356972,CHU
77711276610000,1.425095,0.0921660736108085,5.29122865399869,7.90684020461974,1.8463402,0.105068825,-0.122783914,285.7251,-23.330536,6.2450585,CHU
77711281569000,1.430054,0.0662936662933101,5.3947181427871,7.8809678189148,1.8591684,0.11148291,-0.1282817,285.92795,-23.967718,6.127149,CHU
77711286548000,1.435033,0.042027104596567,5.46400353002452,7.83200744453163,1.8826867,0.1142318,-0.13713925,286.1491,-24.615767,5.997525,CHU
77711291540000,1.440025,0.0185806021212359,5.51558570199117,7.77104677596861,1.8866574,0.10598512,-0.14172074,286.37274,-25.2481,5.870073,CHU
77711296732000,1.445217,0.00649100978187721,5.56625194962613,7.74146528118851,1.9040669,0.110872045,-0.15607607,286.56805,-25.918211,5.7387295,CHU
77711301552000,1.450037,0.00194947005932704,5.61166731365604,7.73238201869343,1.9074267,0.116675265,-0.17134771,286.76788,-26.570919,5.6097746,CHU
77711306566000,1.455051,0.0165449915721549,5.63391966943684,7.6898779889519,1.9306396,0.10567969,-0.16371189,286.94965,-27.248213,5.4814873,CHU
77711311584000,1.460069,0.0447360841728588,5.63861847596793,7.62409872055143,1.9495764,0.10170906,-0.16279559,287.1379,-27.910955,5.348645,CHU
77711316622000,1.465107,0.0600972436662365,5.62228448349052,7.55486158630001,1.9501873,0.105068825,-0.15485434,287.33008,-28.568174,5.2175107,CHU
77711321559000,1.470044,0.0647910499771667,5.58942767757371,7.48445456515437,1.971873,0.12461651,-0.14752395,287.5226,-29.222,5.084662,CHU
77711326609000,1.475094,0.0821450156634051,5.5963625378865,7.39787990956947,1.969735,0.13408493,-0.1414153,287.68152,-29.879436,4.969727,CHU
77711331561000,1.480046,0.109987097823875,5.63812582587084,7.30043278675147,1.9850066,0.16462818,-0.1423316,287.83755,-30.532925,4.8458514,CHU
77711336551000,1.485036,0.14311125825837,5.65523981097217,7.25196954592578,1.9911152,0.19028452,-0.12889257,287.96783,-31.181381,4.7337985,CHU
77711341501000,1.489986,0.181356672487898,5.6456784636547,7.25675011974587,2.0088303,0.18234327,-0.13255776,288.10654,-31.82309,4.6210837,CHU
77711346547000,1.495032,0.196407483227558,5.63250480581355,7.23569225472043,2.0018053,0.160963,-0.12522738,288.22852,-32.46885,4.5123053,CHU
77711351617000,1.500102,0.186822643598677,5.61573124513646,7.18776793147115,2.012801,0.15699236,-0.10720685,288.351,-33.109627,4.403605,CHU
77711356520000,1.505005,0.177553517622267,5.59951018635937,7.14142218060504,2.005776,0.14935656,-0.1142318,288.45538,-33.740696,4.3153954,CHU
77711361541000,1.510026,0.168061312538124,5.58289873701821,7.09396103128856,2.0073032,0.12492194,-0.12461651,288.56384,-34.362103,4.234814,CHU
77711366524000,1.515009,0.164850069844961,5.57779009968992,7.01861864641473,2.019215,0.101098195,-0.12950343,288.67773,-34.970066,4.15597,CHU
77711371566000,1.520051,0.169528967674419,5.58714789534884,6.90632519622093,2.0231857,0.10170906,-0.12522738,288.79556,-35.562214,4.077106,CHU
77711376502000,1.524987,0.17977956323317,5.60764913898896,6.79197832979165,2.02624,0.08857546,-0.14019357,288.89288,-36.172802,4.013343,CHU
77711381544000,1.530029,0.199820343448991,5.64773084171993,6.66772548659417,2.02624,0.059864793,-0.15027285,288.99506,-36.769188,3.9541397,CHU
77711386890000,1.535375,0.222202420123086,5.68901057374162,6.53786160602422,2.0228803,0.05589417,-0.14844026,289.0805,-37.37991,3.9002032,CHU
77711391568000,1.540053,0.267034105448814,5.69797690425298,6.46613086830782,2.021353,0.053145275,-0.14538592,289.17734,-37.97724,3.850164,CHU
77711396889000,1.545374,0.317685884813484,5.70942825983237,6.38589526259556,2.032654,0.032986723,-0.15332718,289.29422,-38.585075,3.801521,CHU
77711401556000,1.550041,0.35473613906604,5.74647840232108,6.34472834208345,2.026851,-0.0018325958,-0.15974127,289.41742,-39.173794,3.7563765,CHU
77711406568000,1.555053,0.394525270052501,5.78626741328175,6.30051822731878,2.0167716,-0.018936822,-0.14446963,289.5007,-39.78469,3.727096,CHU
77711411676000,1.560161,0.393827270318957,5.82756249134259,6.2289724931652,2.0091357,-0.02565634,-0.13591751,289.5962,-40.38095,3.6991374,CHU
77711416513000,1.564998,0.384009949142736,5.86683183755431,6.15534266122709,2.0134118,-0.02443461,-0.14172074,289.6977,-40.964108,3.6714168,CHU
77711421559000,1.570044,0.391537377053606,5.90444303285769,6.13137965098342,2.007914,-0.038789943,-0.1337795,289.80594,-41.53776,3.6544755,CHU
77711426512000,1.574997,0.400683913870035,5.94102914192056,6.11308645319128,1.992337,-0.048563786,-0.12858713,289.919,-42.096806,3.6326306,CHU
77711431524000,1.580009,0.368959922008316,6.00541230925156,6.06842007422037,1.9853121,-0.038179077,-0.11026118,289.99402,-42.685368,3.6163337,CHU
77711436452000,1.584937,0.329712940686071,6.07409438825364,6.01936137318087,1.9712621,-0.024129177,-0.09865474,290.0752,-43.253902,3.5990207,CHU
77711441496000,1.589981,0.295854152199353,6.13653574311477,5.98872832433598,1.9706513,-0.004886922,-0.08368854,290.13654,-43.8304,3.578329,CHU
77711446463000,1.594948,0.263219034401647,6.19714404782907,5.96075544411448,1.956296,-0.024129177,-0.08552113,290.20853,-44.385506,3.560011,CHU
77711451518000,1.600003,0.242937289286519,6.22922570882463,5.94504644558768,1.9294178,-0.046120327,-0.08827003,290.27362,-44.949966,3.5268056,CHU
77711456515000,1.605,0.224966844455501,6.25618136199775,5.93156861900113,1.9120082,-0.04795292,-0.070554934,290.33926,-45.499016,3.4960787,CHU
77711461532000,1.610017,0.198837149185766,6.27394642022517,5.87804141628468,1.9046779,-0.070249505,-0.061086524,290.4087,-46.056625,3.4739952,CHU
77711466524000,1.615009,0.170002764047045,6.28836350490551,5.81076111905911,1.8945986,-0.082161374,-0.06963864,290.48087,-46.595192,3.448672,CHU
77711471514000,1.619999,0.178802351140634,6.31329084770733,5.70509787855054,1.8756617,-0.13897185,-0.0852157,290.56296,-47.13052,3.4388583,CHU
77711476538000,1.625023,0.200267916004561,6.34191160916076,5.58584480959699,1.8512272,-0.1908954,-0.093767814,290.65112,-47.648586,3.4282074,CHU
77711482212000,1.630697,0.224510673774848,6.37423529556338,5.45116290011401,1.8573358,-0.20799962,-0.099265605,290.7328,-48.18686,3.4157255,CHU
77711486518000,1.635003,0.242908508628365,6.39876574914985,5.34895276577604,1.8374827,-0.21105394,-0.09621128,290.82642,-48.69832,3.4082575,CHU
77711491497000,1.639982,0.191041482168764,6.60006863029988,5.11228372736733,1.8185458,-0.19700404,-0.10842858,290.907,-49.214424,3.3962555,CHU
77711496528000,1.645013,0.109000385016555,6.87353891289377,4.8251397950052,1.7968601,-0.20005837,-0.122478485,290.9956,-49.711826,3.386027,CHU
77711501519000,1.650004,0.0395473827199049,7.06988276647181,4.60914173704548,1.7782288,-0.17684549,-0.13775012,291.0809,-50.243313,3.3658495,CHU
77711506510000,1.654995,-0.0220172604611117,7.21669085813931,4.43865505171901,1.7681495,-0.14202617,-0.14202617,291.16858,-50.75878,3.3414686,CHU
77711511532000,1.660017,-0.0934235486061012,7.37748860260113,4.30809043874916,1.751656,-0.10903945,-0.15821409,291.30273,-51.337994,3.273679,CHU
77711516525000,1.66501,-0.171159892679354,7.54667944198145,4.20749034598833,1.7400496,-0.061086524,-0.16218472,291.42725,-51.90213,3.1981664,CHU
77711521512000,1.669997,-0.229672766550607,7.68966404744939,4.10149421894737,1.7235563,-0.012217305,-0.17195857,291.54132,-52.517433,3.101443,CHU
77711526540000,1.675025,-0.268662393681511,7.80663292431849,3.98885760982456,1.7223345,0.03176499,-0.16829337,291.6471,-53.118843,3.0001297,CHU
77711531512000,1.679997,-0.28538252491293,7.90917533338671,3.9188356857486,1.7058412,0.09437868,-0.18051068,291.7667,-53.737648,2.8611221,CHU
77711536527000,1.685012,-0.242122995384307,7.97646788022418,3.96209518014412,1.6982054,0.13744467,-0.18692477,291.88147,-54.343094,2.722421,CHU
77711541503000,1.689988,-0.194094380772767,8.03366170728534,4.01012375680833,1.6930131,0.16584991,-0.19639318,292.00812,-54.965103,2.5602212,CHU
77711546531000,1.695016,-0.131450599635733,8.06498368343452,4.07276749106678,1.6655241,0.18387043,-0.204029,292.12988,-55.56302,2.3950033,CHU
77711551736000,1.700221,-0.0646625431068827,8.07949219830534,4.13844463525098,1.6566665,0.21074851,-0.21166481,292.24414,-56.147964,2.231143,CHU
77711556555000,1.70504,-0.000631144053515685,8.07263155269808,4.20018925177147,1.6371188,0.22235495,-0.21624629,292.36026,-56.707256,2.069425,CHU
77711561548000,1.710033,0.0657122416019028,8.0655231892374,4.26416328586294,1.6255124,0.22602014,-0.20677789,292.46667,-57.2429,1.9199085,CHU
77711566578000,1.715063,0.13254725659224,8.05836215014122,4.32861139150686,1.606881,0.23426682,-0.21594086,292.57455,-57.75764,1.7657962,CHU
77711571444000,1.719929,0.189847595997266,8.0593336278434,4.36178448157766,1.5882497,0.23884831,-0.21594086,292.59512,-58.31793,1.6455146,CHU
77711576538000,1.725023,0.237474521655765,8.07362199199453,4.34749641581568,1.5650368,0.24953845,-0.21563543,292.61716,-58.856567,1.5241468,CHU
77711581460000,1.729945,0.278842481352901,8.10268127543979,4.33371133597045,1.5302174,0.2724459,-0.21838433,292.60297,-59.357292,1.4317155,CHU
77711586495000,1.73498,0.311647857716007,8.16360531373311,4.31965179947517,1.5045611,0.27916542,-0.21960606,292.5938,-59.840145,1.34281,CHU
77711591459000,1.739944,0.333876841581188,8.24010809740523,4.29644901581188,1.4899004,0.2519819,-0.22204952,292.56805,-60.31988,1.260748,CHU
77711596490000,1.744975,0.328993314234746,8.36219679099939,4.24761374234746,1.4819591,0.2134974,-0.21533,292.5465,-60.78088,1.1835134,CHU
77711601467000,1.749952,0.304211260372181,8.47242413630014,4.2009548573638,1.4831808,0.16920967,-0.18784106,292.52106,-61.24466,1.1256226,CHU
77711606492000,1.754977,0.23218453389543,8.55885594132908,4.15773870415087,1.4899004,0.10048734,-0.16890424,292.51584,-61.69514,1.0772065,CHU
77711611480000,1.759965,0.152623512574353,8.63746087296809,4.09949004087899,1.5039502,0.0018325958,-0.13775012,292.51727,-62.166893,1.0457242,CHU
77711616489000,1.764974,0.0536052447272727,8.69934724675325,4.00459764415584,1.5204436,-0.087964594,-0.10629055,292.53555,-62.628437,1.0271037,CHU
77711622003000,1.770488,-0.0579318936872891,8.76315015052664,3.89468433856223,1.5406022,-0.1600467,-0.07880162,292.56244,-63.115265,1.007047,CHU
77711626498000,1.774983,-0.176787520751406,8.76755229951938,3.74501430655486,1.5598444,-0.2049453,-0.047036625,292.60474,-63.593475,1.0031054,CHU
77711631775000,1.78026,-0.317562227116767,8.77339602292598,3.57131541130756,1.5598444,-0.2507602,-0.03604105,292.66086,-64.10526,0.9874208,CHU
77711636520000,1.785005,-0.458823384674568,8.78663906256071,3.43888298678842,1.5674802,-0.24465153,-0.018936822,292.7146,-64.61102,0.9789109,CHU
77711641903000,1.790388,-0.618470134586719,8.79664141159989,3.2916441567666,1.5506815,-0.2134974,-0.009468411,292.77795,-65.14238,0.95285875,CHU
77711646490000,1.794975,-0.741554514631549,8.69817406864668,3.23010205671056,1.5305228,-0.20189096,-0.013133603,292.84842,-65.661316,0.9280719,CHU
77711651455000,1.79994,-0.874781884791258,8.59159234687588,3.16348846901093,1.5082263,-0.20250183,-0.022602014,292.9364,-66.193085,0.8727151,CHU
77711656511000,1.804996,-0.976337733959563,8.5179596066557,3.10890462044113,1.493871,-0.19700404,-0.03604105,293.02426,-66.70809,0.8130145,CHU
77711661530000,1.810015,-1.06933569145787,8.45286118109703,3.05775568409597,1.4828753,-0.18448131,-0.040927973,293.11386,-67.2049,0.75221497,CHU
77711666522000,1.815007,-1.16449254254678,8.42724852806938,3.04211829665906,1.4654657,-0.15027285,-0.0720821,293.1783,-67.7171,0.65125716,CHU
77711671453000,1.819938,-1.25932699291648,8.4143167498859,3.03780764391602,1.4337007,-0.113926366,-0.098043874,293.24222,-68.20899,0.55007607,CHU
77711676516000,1.825001,-1.33590236508772,8.41680101754386,3.0386357446646,1.4025466,-0.08674286,-0.11881329,293.28723,-68.70977,0.42992687,CHU
77711681523000,1.830008,-1.39528450666667,8.43164633333333,3.04358425215686,1.3753631,-0.055588737,-0.13927728,293.32773,-69.18956,0.3013596,CHU
77711686518000,1.835003,-1.41442007946955,8.48727222573674,3.0631087154224,1.3509285,-0.044898596,-0.15454891,293.3644,-69.661545,0.15696134,CHU
77711691502000,1.839987,-1.40973130068762,8.56697999626719,3.09124089852652,1.31672,-0.049785517,-0.1740966,293.40204,-70.110504,0.007825688,CHU
77711696524000,1.845009,-1.40210991400221,8.66814032855568,3.09720491400221,1.3054191,-0.06169739,-0.17806722,293.42966,-70.55917,-0.14583664,CHU
77711701518000,1.850003,-1.39252260529217,8.78318853362734,3.08761760529217,1.2672399,-0.113926366,-0.19120082,293.47437,-70.97833,-0.29912096,CHU
77711706511000,1.854996,-1.38303599158869,8.91103056347878,3.0557268702157,1.2608259,-0.19150625,-0.19914207,293.5139,-71.403366,-0.44074613,CHU
77711711550000,1.860035,-1.37352993521127,9.04886828169014,3.00819643943662,1.2452488,-0.27305678,-0.19425514,293.57053,-71.803505,-0.5739725,CHU
77711716523000,1.865008,-1.36169639873491,9.18022184109642,2.92307196858348,1.217149,-0.34574974,-0.18753563,293.63412,-72.205086,-0.7039455,CHU
77711721514000,1.869999,-1.34795349798735,9.3084892017443,2.80854770001917,1.2018774,-0.42485678,-0.18112154,293.72278,-72.5949,-0.8223112,CHU
77711726507000,1.874992,-1.34798501981581,9.40944337546311,2.66658055841008,1.1817188,-0.4700608,-0.17623462,293.82678,-72.98145,-0.9357434,CHU
77711731522000,1.880007,-1.36323673528104,9.4806179414629,2.49372767696623,1.1640037,-0.48472157,-0.17715092,293.94495,-73.353935,-1.0431299,CHU
77711736518000,1.885003,-1.38610908526751,9.51531100118017,2.29269770525177,1.144456,-0.4709771,-0.19120082,294.07718,-73.73829,-1.1538574,CHU
77711741511000,1.889996,-1.41432528055665,9.52471657966169,2.07167107949449,1.1328496,-0.44959682,-0.20525073,294.21222,-74.109276,-1.2627344,CHU
77711746525000,1.89501,-1.40513622175026,9.53982696796315,1.84197378743091,1.1206323,-0.4175264,-0.22449298,294.315,-74.52698,-1.3675352,CHU
77711751520000,1.900005,-1.36596637246673,9.55941176479018,1.60695479398158,1.1398746,-0.39828414,-0.23640485,294.4174,-74.93829,-1.4732906,CHU
77711756510000,1.904995,-1.31431922788183,9.60878062676192,1.40787375435412,1.16492,-0.34208453,-0.25900686,294.51343,-75.38381,-1.590959,CHU
77711761538000,1.910023,-1.25388492994787,9.6785124529832,1.23121969750917,1.2027937,-0.2932153,-0.28313604,294.6087,-75.82496,-1.7114117,CHU
77711766518000,1.915003,-1.19193456353908,9.73267269233709,1.07900213342251,1.2479976,-0.25320363,-0.3109304,294.69336,-76.311966,-1.8363835,CHU
77711771513000,1.919998,-1.12794582634244,9.77380818297344,0.946454038352761,1.2867876,-0.20677789,-0.32803464,294.76636,-76.79191,-1.9666747,CHU
77711776495000,1.92498,-1.02866898804359,9.79229368446624,0.878180446737772,1.2977833,-0.13683382,-0.35094208,294.82,-77.30471,-2.0992057,CHU
77711781526000,1.930011,-0.88152445528851,9.78114637966776,0.893786685095553,1.3127494,-0.063224554,-0.35094208,294.8625,-77.81228,-2.2306678,CHU
77711786445000,1.93493,-0.737655650553422,9.77024723589838,0.909045497753459,1.3090842,-0.0036651916,-0.35308012,294.8874,-78.33547,-2.3537405,CHU
77711791502000,1.939987,-0.58975068093656,9.75904232228957,0.924732388505853,1.2947289,0.021991149,-0.33444872,294.904,-78.8422,-2.47068,CHU
77711796468000,1.944953,-0.466277993866726,9.74589341595756,0.954455942314068,1.2565498,0.023518313,-0.30818152,294.9043,-79.32827,-2.586576,CHU
77711801518000,1.950003,-0.530412642280915,9.71382655774119,1.1094480544259,1.2095132,0.004886922,-0.2751948,294.9061,-79.79117,-2.692928,CHU
77711806534000,1.955019,-0.61942690593297,9.68493832286954,1.23662654557289,1.1557571,-0.03145956,-0.23854288,294.8849,-80.2297,-2.7401156,CHU
77711811538000,1.960023,-0.765437194792725,9.66281557003047,1.30299485029083,1.0965031,-0.0852157,-0.2012801,294.8769,-80.64146,-2.7758794,CHU
77711816520000,1.965005,-0.91860270731451,9.63634361964139,1.3510413420136,1.0329732,-0.16432275,-0.16768251,294.8821,-81.0039,-2.8029146,CHU
77711821514000,1.969999,-1.12067286460635,9.58212959140561,1.2869702879122,0.9786061,-0.22602014,-0.14569137,294.90024,-81.342865,-2.8217938,CHU
77711826508000,1.974993,-1.31030559861333,9.53104792248604,1.22050405196528,0.93584555,-0.2660318,-0.12705997,294.9391,-81.64621,-2.8505278,CHU
77711831523000,1.980008,-1.44925246737829,9.49271749301676,1.14384374335595,0.9025534,-0.26419923,-0.116675265,294.98547,-81.92873,-2.8752956,CHU
77711836517000,1.985002,-1.57233647377142,9.46362610784964,1.07347383346274,0.8707884,-0.25289822,-0.12644911,295.03415,-82.20787,-2.9287007,CHU
77711842015000,1.9905,-1.63714972564151,9.47359757759682,1.02361747385664,0.8503244,-0.21227567,-0.14385876,295.0761,-82.4706,-2.9824321,CHU
77711846490000,1.994975,-1.67725869536822,9.48332347965274,0.988519859058847,0.83077675,-0.18600847,-0.16890424,295.1228,-82.72269,-3.0662627,CHU
77711851516000,2.000001,-1.56566927311202,9.51418851926207,1.01701078118187,0.83260936,-0.16218472,-0.17959438,295.1607,-82.96245,-3.1509025,STD
77711856934000,2.005419,-1.44537649758792,9.54746086001085,1.04772383650668,0.8332202,-0.1151481,-0.21410827,295.19543,-83.1815,-3.2605007,STD
77711861548000,2.010033,-1.34293447723573,9.57579577699403,1.07387925128496,0.86315256,-0.11789699,-0.21868975,295.23874,-83.39733,-3.3617673,STD
77711866761000,2.015246,-1.22445770618069,9.60811358153063,1.1029431508453,0.88117313,-0.1337795,-0.2284636,295.27542,-83.59044,-3.473013,STD
77711871513000,2.019998,-1.08381913475005,9.64120524486457,1.12362527845846,0.89919364,-0.15974127,-0.22479841,295.31744,-83.77731,-3.5792239,STD
77711876681000,2.025166,-0.93086876918742,9.677193821487,1.14611796269769,0.91538155,-0.19456059,-0.226631,295.3215,-83.97484,-3.6494453,STD
77711881520000,2.030005,-0.813906354818565,9.69049002014768,1.07834136498945,0.9129381,-0.24831672,-0.20891592,295.3406,-84.16205,-3.7108932,STD
77711886500000,2.034985,-0.698196706210971,9.70055140622363,0.992816851698312,0.8933904,-0.28069258,-0.19242255,295.3662,-84.33443,-3.7719944,STD
77711891505000,2.03999,-0.630703085734584,9.68449738192668,0.851949365643649,0.8689558,-0.2947425,-0.16646078,295.38345,-84.51097,-3.7997017,STD
77711896507000,2.044992,-0.567177022402198,9.6663471864166,0.706746948707019,0.8188649,-0.30268374,-0.14263703,295.4101,-84.668976,-3.8231356,STD
77711901522000,2.050007,-0.540651390053829,9.71480977637171,0.543021871997356,0.7806858,-0.28527406,-0.121256754,295.4239,-84.837425,-3.8291829,STD
77711906498000,2.054983,-0.522649980500519,9.77781451714043,0.376508972256115,0.73426,-0.26816985,-0.099571034,295.44168,-84.988434,-3.8293538,STD
77711912218000,2.060703,-0.563759046123288,9.86487158493151,0.219676209671233,0.68752885,-0.23640485,-0.084910266,295.4508,-85.149536,-3.819762,STD
77711916486000,2.064971,-0.611136495071654,9.93378426902002,0.112000200373024,0.6621779,-0.19456059,-0.0729984,295.45407,-85.29876,-3.8068244,STD
77711921513000,2.069998,-0.709026783876822,9.99717477799718,0.0465296826143865,0.63713247,-0.15577064,-0.06658431,295.45352,-85.447685,-3.7971911,STD
77711926525000,2.07501,-0.817346010058298,10.0558476959097,-0.00311662753963329,0.63132924,-0.109650314,-0.08032878,295.44156,-85.58012,-3.792059,STD
77711931516000,2.080001,-0.93884974992272,10.0814553791345,-0.0158261546281298,0.602924,-0.05375614,-0.096516706,295.41473,-85.69279,-3.8040843,STD
77711936521000,2.085006,-1.06726087666151,10.091333098609,-0.0108872654952087,0.6065892,-0.00580322,-0.118202426,295.38007,-85.78826,-3.8224947,STD
77711941501000,2.089986,-1.11434050752208,10.0874501801953,0.0196905556380288,0.59681535,0.032070424,-0.14080444,295.3335,-85.85478,-3.8589334,STD
77711946527000,2.095012,-1.1322421334821,10.078499413947,0.0599692425544398,0.5891795,0.03726278,-0.16340645,295.286,-85.89912,-3.901082,STD
77711951518000,2.100003,-1.09273315702986,10.058245240261,0.112484395487443,0.5858198,0.034208454,-0.1740966,295.2389,-85.90864,-3.9622161,STD
77711956514000,2.104999,-1.01231222790192,10.0298615485466,0.173982757763101,0.57604593,0.01740966,-0.19058995,295.1975,-85.894264,-4.029728,STD
77711961538000,2.110023,-0.927935355831292,9.98569947385238,0.215494979045692,0.56596667,-0.044593163,-0.19608775,295.14746,-85.86001,-4.1022797,STD
77711966525000,2.11501,-0.841460520877623,9.92974511076792,0.240928748095644,0.56138515,-0.12614368,-0.19303341,295.1112,-85.81151,-4.1748896,STD
77711971511000,2.119996,-0.801522798741728,9.92762721789585,0.208353177353985,0.53878313,-0.20219639,-0.18020524,295.08603,-85.76598,-4.231507,STD
77711976522000,2.125007,-0.783113171930565,9.95063927543877,0.148521789296058,0.5326745,-0.26053402,-0.15424347,295.08154,-94.2823,-4.282094,STD
77711981756000,2.130241,-0.807304255271239,9.99777839334698,0.105548763645855,0.50426924,-0.30787608,-0.1337795,295.06967,-94.32019,-4.3146496,STD
77711986520000,2.135005,-0.854002182804504,10.0538158576254,0.0775299876212897,0.4990769,-0.36285394,-0.11026118,295.07874,-94.35656,-4.338761,STD
77711991488000,2.139973,-0.948334068799069,10.060022690947,0.0197486270824852,0.49602258,-0.3827071,-0.092240654,295.09018,-94.39093,-4.353673,STD
77711996528000,2.145013,-1.06997261488805,10.036630681642,-0.0551058564301638,0.47311515,-0.3912592,-0.06719518,295.11566,-94.42213,-4.3605037,STD
77712001518000,2.150003,-1.18561319282081,10.0187756296459,-0.097045724525626,0.45906523,-0.38148534,-0.05497787,295.14667,-94.46573,-4.3732214,STD
77712006514000,2.154999,-1.29792712341549,10.0047363516725,-0.115764711329225,0.46395215,-0.3652974,-0.047647487,295.1794,-94.509125,-4.380905,STD
77712011522000,2.160007,-1.40785135111696,9.98568132065164,-0.104490987896205,0.453262,-0.33567044,-0.04184427,295.20245,-94.57893,-4.4067807,STD
77712016525000,2.16501,-1.51535240462394,9.96231153702078,-0.0670993057799239,0.44715336,-0.3145956,-0.028405234,295.22473,-94.64999,-4.4284306,STD
77712021513000,2.169998,-1.59059864009602,9.93918960172828,-0.0412165888597216,0.43371433,-0.30085114,-0.022907447,295.24844,-94.74129,-4.466495,STD
77712026529000,2.175014,-1.63210949566971,9.91612804205473,-0.0273796443865579,0.4120286,-0.30879238,-0.018936822,295.2738,-94.83075,-4.500843,STD
77712031515000,2.18,-1.63901400559363,9.89886339618448,0.0217256390298203,0.41416663,-0.30604348,-0.0061086523,295.29028,-94.93072,-4.542177,STD
77712036517000,2.185002,-1.59465097205038,9.88999107668087,0.123760580973514,0.40561453,-0.33414328,0.0012217305,295.3189,-95.028725,-4.583624,STD
77712041497000,2.189982,-1.55646768833767,9.87473036427286,0.195423179283857,0.39278635,-0.34391713,0.011301007,295.34167,-95.12834,-4.6255684,STD
77712046530000,2.195015,-1.53718379263353,9.8385731070214,0.171318326014203,0.35705075,-0.35155296,0.015577064,295.37262,-95.22391,-4.6667275,STD
77712051460000,2.199945,-1.51829454053311,9.80315580556111,0.147706776914383,0.3491095,-0.3640757,0.02443461,295.39868,-95.29988,-4.693843,STD
77712056509000,2.204994,-1.49894934096819,9.76688360372074,0.123525293870774,0.3359759,-0.3717115,0.03176499,295.42596,-95.36955,-4.719891,STD
77712061498000,2.209983,-1.47159263730248,9.73728343307167,0.0983563193247018,0.29779682,-0.37293324,0.03940081,295.4435,-95.4373,-4.746589,STD
77712066525000,2.21501,-1.41760458425935,9.72746722775003,0.0689082937465593,0.26389378,-0.37598756,0.034513887,295.4642,-95.50442,-4.774564,STD
77712071477000,2.219962,-1.38034235095285,9.71917673565815,0.0260859784188605,0.2510656,-0.37598756,0.029626964,295.48444,-95.56865,-4.796997,STD
77712076546000,2.225031,-1.38511104506876,9.71440799174853,-0.0549810308275049,0.2284636,-0.38362336,0.02687807,295.50806,-95.62663,-4.820157,STD
77712081491000,2.229976,-1.38320048781182,9.71631851218818,-0.142104261377217,0.1872302,-0.40866885,0.010995574,295.52734,-95.68828,-4.8511143,STD
77712086520000,2.235005,-1.36035986977141,9.73915913022859,-0.256307437439059,0.16279559,-0.398895,-0.008857546,295.53915,-95.74968,-4.883187,STD
77712091534000,2.240019,-1.3414537169431,9.76156885313878,-0.362049751495906,0.14905111,-0.3866777,-0.017715093,295.56354,-95.81682,-4.9194427,STD
77712096608000,2.245093,-1.34655477543565,9.78197298057947,-0.418161432199244,0.13164146,-0.33414328,-0.032375857,295.5733,-95.88457,-4.9614167,STD
77712101520000,2.250005,-1.33252749446177,9.81068658501087,-0.445026006955864,0.10170906,-0.29443705,-0.04795292,295.5849,-95.96,-5.002785,STD
77712106505000,2.25499,-1.25582525322748,9.86934148672148,-0.381859451748417,0.086437434,-0.2510656,-0.06688975,295.58075,-96.03776,-5.047475,STD
77712111586000,2.260071,-1.1756444516182,9.92929373857598,-0.32323551032364,0.093462385,-0.22540927,-0.080634214,295.57462,-96.121666,-5.0955324,STD
77712116526000,2.265011,-1.08423407310405,9.98871023166844,-0.30495343462081,0.07880162,-0.20525073,-0.0888809,295.55835,-96.2009,-5.145447,STD
77712121675000,2.27016,-0.990160850683177,10.0472354131085,-0.288858080358668,0.07819075,-0.19120082,-0.09712757,295.53357,-96.26052,-5.1784043,STD
77712126532000,2.275017,-0.915681959809991,10.0621312327605,-0.308719124837746,0.08307768,-0.16707164,-0.09896017,295.5011,-96.31754,-5.2104115,STD
77712131566000,2.280051,-0.83589813621935,10.0665816724007,-0.337939688264588,0.08032878,-0.14660765,-0.09987647,295.46475,-96.357185,-5.229932,STD
77712136517000,2.285002,-0.745773138015586,10.0215191968257,-0.405533439270101,0.07574729,-0.09621128,-0.10262536,295.41403,-96.39697,-5.2489305,STD
77712141563000,2.290048,-0.654128193508754,9.97495548341354,-0.470004799015051,0.07391469,-0.069027774,-0.099265605,295.35974,-96.42869,-5.2567816,STD
77712146522000,2.295007,-0.566604382159312,9.92146890867206,-0.479729673712501,0.08155051,-0.033292156,-0.09682214,295.2901,-96.461006,-5.26427,STD
77712151525000,2.30001,-0.485429394369329,9.87219409228675,-0.490906946792196,0.087964594,0.003970624,-0.07971791,295.2159,-96.48588,-5.256188,STD
77712156508000,2.304993,-0.459446870272232,9.85920257023593,-0.512559053974592,0.11148291,0.034513887,-0.0729984,295.13522,-96.516014,-5.249905,STD
77712161554000,2.310039,-0.433135849482759,9.84604679655173,-0.534484908448276,0.11453723,0.042455133,-0.062308256,295.04605,-96.53415,-5.232353,STD
77712167037000,2.315522,-0.426047232901528,9.82041166450764,-0.5706646901933,0.13530666,0.0571159,-0.050701816,294.9488,-96.557076,-5.212332,STD
77712171480000,2.319965,-0.421741016688594,9.79888058344297,-0.600808221669871,0.15760323,0.058948494,-0.0290161,294.8558,-96.57569,-5.1869907,STD
77712176562000,2.325047,-0.438768043095238,9.79272623076923,-0.616380232568922,0.19456059,0.047647487,-0.00580322,294.7746,-96.59259,-5.151786,STD
77712181459000,2.329944,-0.456850798571429,9.78820592307692,-0.629942283834587,0.20769419,0.023823744,0.012217305,294.6991,-96.60571,-5.11318,STD
77712186523000,2.335008,-0.491623740170778,9.78394837208901,-0.610777896061756,0.24404067,0.018936822,0.03359759,294.6266,-96.62859,-5.0687437,STD
77712191503000,2.339988,-0.528645693301708,9.77983473917544,-0.586096601133345,0.27397305,-0.013439035,0.04520403,294.57104,-96.6516,-5.024492,STD
77712196556000,2.345041,-0.599418471812803,9.77228404626143,-0.521067922302313,0.30757064,-0.02321288,0.06566802,294.51828,-96.67981,-4.9763436,STD
77712201562000,2.350047,-0.697416132469069,9.76196829327595,-0.423070250874664,0.32498032,-0.03970624,0.07574729,294.47858,-96.71124,-4.930372,STD
77712206516000,2.355001,-0.802426167042092,9.77119740211893,-0.336707436208838,0.33505958,-0.045814894,0.08857546,294.44266,-96.745384,-4.887506,STD
77712211590000,2.360075,-0.913739082151379,9.78974944163405,-0.253222759562852,0.34025195,-0.05009095,0.0870483,294.41245,-96.7835,-4.847831,STD
77712216615000,2.3651,-1.02478700012648,9.81842511172007,-0.183663126018128,0.3463606,-0.069027774,0.07941248,294.3871,-96.820274,-4.817678,STD
77712221544000,2.370029,-1.1342399959317,9.85325123967116,-0.123961512250211,0.33841935,-0.079107046,0.077579886,294.36185,-96.85445,-4.78749,STD
77712226568000,2.375053,-1.24521261298178,9.89292672550335,-0.0829325793278044,0.34330627,-0.086132,0.07666359,294.34045,-96.89337,-4.7728066,STD
77712231557000,2.380042,-1.35515390970278,9.93415461610738,-0.0508663424325983,0.32650748,-0.07941248,0.06872234,294.3188,-96.92744,-4.7612243,STD
77712237194000,2.385679,-1.4409880295769,9.93129130816565,-0.0398914604178494,0.3036,-0.06505715,0.05589417,294.29755,-96.96403,-4.7633076,STD
77712241506000,2.389991,-1.49106755961642,9.90903388128818,-0.0417462566431459,0.28252518,-0.058643065,0.052839845,294.2775,-96.99623,-4.7649946,STD
77712246549000,2.395034,-1.54963691722063,9.88300322179303,-0.0439154907257456,0.26542094,-0.032986723,0.04337143,294.24548,-97.03146,-4.773845,STD
77712251490000,2.399975,-1.60702164772278,9.85749905987244,-0.046040849758489,0.24190263,-0.0015271631,0.027794369,294.21063,-97.06168,-4.784779,STD
77712256505000,2.40499,-1.65205208634848,9.82918839995832,-0.0493411118478533,0.20158553,0.02443461,0.014049901,294.17435,-97.08524,-4.800761,STD
77712261587000,2.410072,-1.61908512692789,9.78607772405169,-0.0594847827886619,0.16554448,0.043676864,-0.010079277,294.1313,-97.10874,-4.8228936,STD
77712266469000,2.414954,-1.58741556850771,9.74466365089621,-0.0692292537711547,0.11789699,0.055283304,-0.022907447,294.08865,-97.13544,-4.857291,STD
77712271473000,2.419958,-1.55495459547728,9.70221465006253,-0.0792172367282201,0.07941248,0.06566802,-0.036957346,294.0411,-97.16032,-4.897226,STD
77712276542000,2.425027,-1.50996518154909,9.67703970152935,-0.0980973058312778,0.046120327,0.06780604,-0.043676864,293.98685,-97.17849,-4.9364405,STD
77712281485000,2.42997,-1.43990382624568,9.6910517775037,-0.135463391256043,0.011301007,0.064446285,-0.056199603,293.9316,-97.191414,-4.9796996,STD
77712286478000,2.434963,-1.37216172244662,9.70890899461435,-0.175479006862858,-0.016187929,0.04642576,-0.06352998,293.875,-97.20134,-5.0230107,STD
77712291473000,2.439958,-1.31235502813041,9.7365121582035,-0.221484143403539,-0.034513887,0.029626964,-0.058337633,293.81995,-97.20542,-5.0647635,STD
77712296577000,2.445062,-1.2566698442433,9.77038389162442,-0.290108116835626,-0.049785517,0.00061086525,-0.053450707,293.77386,-97.20291,-5.099453,STD
77712301582000,2.450067,-1.22196174576394,9.82437418649932,-0.436653526224958,-0.06505715,-0.015882496,-0.048258353,293.7298,-97.19537,-5.1312995,STD
77712306982000,2.455467,-1.18451444670529,9.882625453697,-0.594764457434226,-0.08124508,-0.031154128,-0.027183503,293.6906,-97.18299,-5.153786,STD
77712311496000,2.459981,-1.22652377664625,9.9563641898928,-0.727118693094509,-0.0842994,-0.03848451,-0.0106901415,293.65433,-97.17001,-5.175184,STD
77712316388000,2.464873,-1.29314450099541,10.0434837427259,-0.870609491821265,-0.0888809,-0.05375614,-0.003970624,293.62518,-97.1514,-5.193029,STD
77712321459000,2.469944,-1.38313512104455,10.0879225599078,-0.999573702388633,-0.08124508,-0.054367006,0.015882496,293.60193,-97.14732,-5.1961865,STD
77712326420000,2.474905,-1.47436112872504,10.1244127724654,-1.1227288794374,-0.0842994,-0.03145956,0.026572637,293.57648,-97.14067,-5.1995254,STD
77712331467000,2.479952,-1.54623913284117,10.1403007511074,-1.23363250765661,-0.049480084,-0.0012217305,0.026572637,293.56094,-97.16474,-5.210198,STD
77712336445000,2.48493,-1.61160018884202,10.1503565001055,-1.33921577215777,-0.03756821,0.002443461,0.023518313,293.547,-97.18162,-5.2185125,STD
77712341424000,2.489909,-1.58567085017783,10.1473137277708,-1.33392505367682,-0.013744468,0.034208454,0.028405234,293.53293,-97.23305,-5.240107,STD
77712346417000,2.494902,-1.54889922661732,10.1427171728348,-1.31553921789868,0.023823744,0.07086037,0.026267206,293.51675,-97.2903,-5.2636414,STD
77712351487000,2.499972,-1.45448558363058,10.1038465491179,-1.23603961889521,0.047647487,0.09560041,0.025045475,293.5054,-97.36756,-5.2946544,STD
77712356478000,2.504963,-1.34850364970597,10.0577674892509,-1.14388140293069,0.07849618,0.12705997,0.035124753,293.483,-97.44984,-5.321079,STD
77712361502000,2.509987,-1.2468929,9.99982331362468,-0.999533053894601,0.09132435,0.13744467,0.042760566,293.458,-97.525314,-5.3424025,STD
77712366490000,2.514975,-1.14770843846154,9.93842366719399,-0.838948733859007,0.11453723,0.13469578,0.051618114,293.4296,-97.60493,-5.3595023,STD
77712371496000,2.519981,-1.0591704748802,9.85684976205379,-0.696088205901222,0.13041973,0.119729586,0.06047566,293.37875,-97.66232,-5.3568473,STD
77712376502000,2.524987,-0.974774675828851,9.76776548293399,-0.560117202030318,0.12675454,0.09896017,0.07147124,293.33258,-97.71694,-5.3514624,STD
77712381508000,2.529993,-0.925182248881566,9.70031871919313,-0.504049495406431,0.122783914,0.050396383,0.070249505,293.28558,-97.74172,-5.332664,STD
77712386521000,2.535006,-0.891623257524466,9.64278886239265,-0.484872948225484,0.12614368,0.0076358155,0.07971791,293.24503,-97.76246,-5.3088574,STD
77712391480000,2.539965,-0.900614796187506,9.60840051735238,-0.495130849657982,0.119729586,-0.03634648,0.08002335,293.2074,-97.75503,-5.2770867,STD
77712396507000,2.544992,-0.929671801815713,9.58418636706569,-0.51934502522885,0.105068825,-0.076358154,0.086437434,293.1822,-97.7437,-5.243069,STD
77712401493000,2.549978,-0.971645084746696,9.58177463215859,-0.573089641729075,0.10445796,-0.10842858,0.07513642,293.1668,-97.72995,-5.2062483,STD
77712406483000,2.554968,-1.01949076899279,9.58895137925511,-0.640073589681618,0.09407325,-0.124005646,0.077579886,293.15894,-97.707825,-5.1657076,STD
77712411499000,2.559984,-1.06758574938927,9.59616552022427,-0.707406552192631,0.08460484,-0.1441642,0.06352998,293.16385,-97.69886,-5.139923,STD
77712416503000,2.564988,-1.11556567002403,9.60336240248298,-0.774578431061273,0.086132,-0.14355333,0.064446285,293.1677,-97.68725,-5.110107,STD
77712421490000,2.569975,-1.13979685896461,9.62500438568782,-0.827320530373403,0.077579886,-0.13530666,0.064446285,293.17322,-97.67405,-5.08236,STD
77712426496000,2.574981,-1.15381892997953,9.65304862532904,-0.874060811014917,0.06414085,-0.13316862,0.05131268,293.1798,-97.66297,-5.059252,STD
77712431495000,2.57998,-1.17443942870032,9.67551457147202,-0.906288852758516,0.0693332,-0.1282817,0.05009095,293.19293,-97.68192,-5.0449486,STD
77712436492000,2.584977,-1.19869701666667,9.6949205,-0.930546385,0.070554934,-0.124311075,0.048258353,293.20532,-97.69968,-5.0351353,STD
77712441474000,2.589959,-1.2035182457205,9.72342131191935,-0.951164883613362,0.07238753,-0.11575896,0.042760566,293.2187,-97.727455,-5.029643,STD
77712446501000,2.594986,-1.19876013407788,9.7567282921526,-0.970197355025697,0.08124508,-0.108123146,0.0421497,293.23132,-97.75619,-5.02365,STD
77712451515000,2.6,-1.19122895400019,9.78595889931372,-1.00913003365611,0.07941248,-0.11056661,0.034208454,293.24664,-97.7906,-5.0251546,STD
77712456530000,2.605015,-1.18219865372755,9.81304989442512,-1.05879673230234,0.08827003,-0.08674286,0.028405234,293.2525,-97.82848,-5.025547,STD
77712461510000,2.609995,-1.16793265758135,9.82955943371931,-1.07842371399481,0.093462385,-0.06994407,0.02321288,293.25424,-97.86849,-5.022015,STD
77712466531000,2.615016,-1.14873314647634,9.83675914074666,-1.07122390672789,0.10629055,-0.050396383,0.015577064,293.24866,-97.91294,-5.020409,STD
77712471512000,2.619997,-1.1296865890547,9.84390149101617,-1.06408145701737,0.105374254,-0.03573562,0.007330383,293.25238,-97.95747,-5.016293,STD
77712476525000,2.62501,-1.11051766868636,9.85108972669195,-1.05689312126173,0.113926366,-0.016493361,0.008552114,293.24985,-98.00582,-5.0113387,STD
77712481521000,2.630006,-1.07364079852047,9.85705150486421,-1.03079170310093,0.12370021,0.0076358155,0.006414085,293.23874,-98.056145,-5.007553,STD
77712486511000,2.634996,-1.02037052582084,9.86189435346575,-0.987206925334414,0.11728613,0.020158553,0.006414085,293.22638,-98.10321,-5.0029454,STD
77712492127000,2.640612,-0.964428300625062,9.85779895094452,-0.900982303085748,0.12858713,0.031154128,0.0033597588,293.20572,-98.14994,-4.9940233,STD
77712496531000,2.645016,-0.922715072639699,9.84945613460587,-0.813384473790921,0.12797627,0.02443461,0.0067195175,293.1877,-98.19053,-4.9839263,STD
77712501521000,2.650006,-0.875698800419074,9.84740915460688,-0.756336086409478,0.1337795,0.026572637,0.016798794,293.15097,-98.223595,-4.959446,STD
77712506507000,2.654992,-0.828944688346225,9.85208465857241,-0.737634461108391,0.13439035,0.026572637,0.014966198,293.11768,-98.25616,-4.938529,STD
77712511599000,2.660084,-0.790341161643727,9.85923762610159,-0.692560826210516,0.13775012,0.02076942,0.018020526,293.07797,-98.26738,-4.90592,STD
77712516612000,2.665097,-0.76181840778889,9.86874539934647,-0.621253986248143,0.15577064,-0.0027488936,0.027488936,293.0446,-98.2811,-4.873641,STD
77712521542000,2.670027,-0.749150570389598,9.87692746048227,-0.58094572990539,0.14294247,-0.020158553,0.03726278,293.00897,-98.27994,-4.8348227,STD
77712526611000,2.675096,-0.753861142336616,9.88399322002814,-0.573879862147397,0.13316862,-0.029932396,0.042455133,292.97894,-98.2828,-4.796442,STD
77712531488000,2.679973,-0.758393290568143,9.89079134772694,-0.567081630335258,0.1337795,-0.034208454,0.050396383,292.9388,-98.270065,-4.742664,STD
77712536516000,2.685001,-0.763065761617583,9.89779995672214,-0.560072914003202,0.13164146,-0.0421497,0.051618114,292.9032,-98.25515,-4.691489,STD
77712541471000,2.689956,-0.767728431285254,9.90558589564867,-0.566542208184932,0.12186762,-0.057421334,0.05100725,292.8718,-98.2381,-4.6406946,STD
77712546532000,2.695017,-0.7726104509166,9.91535003686543,-0.600716004058219,0.12736541,-0.05467244,0.047647487,292.83807,-98.224915,-4.5916834,STD
77712551450000,2.699935,-0.787152454833877,9.92728749757645,-0.628207967861109,0.111177474,-0.050701816,0.051923547,292.80188,-98.205,-4.54583,STD
77712556507000,2.704992,-0.821297076390235,9.94435971922094,-0.64528030983608,0.10781772,-0.054367006,0.05100725,292.7675,-98.19113,-4.5039797,STD
77712562293000,2.710778,-0.860619708319476,9.96106243930576,-0.669083602140927,0.10629055,-0.049480084,0.059253927,292.726,-98.1808,-4.4614367,STD
77712566614000,2.715099,-0.890724643431719,9.96536323092912,-0.699188514799418,0.100792766,-0.046120327,0.059864793,292.6865,-98.17025,-4.42277,STD
77712571507000,2.719992,-0.924573212106465,9.96574188697984,-0.730808590416129,0.10415252,-0.023823744,0.057726767,292.65372,-98.16232,-4.385937,STD
77712576570000,2.725055,-0.958281785147482,9.94166435276592,-0.750070617787268,0.0983493,-0.016187929,0.057726767,292.6248,-98.1507,-4.349914,STD
77712581490000,2.729975,-0.989042141011958,9.91565217145963,-0.768775545132918,0.09254608,-0.010995574,0.051618114,292.5951,-98.14957,-4.323291,STD
77712586499000,2.734984,-1.00800456465066,9.87298681727443,-0.787737998472181,0.089491755,-0.010995574,0.04184427,292.575537574549,-98.1480413732921,-4.31129577630398,STD
77712591517000,2.740002,-1.02500316633781,9.83281717916338,-0.802172827512825,0.07849618,0.02076942,0.035430185,292.55594,-98.14651,-4.299279,STD
77712596532000,2.745017,-1.02737232833465,9.81149452328335,-0.783219516694949,0.076358154,0.040927973,0.029932396,292.52136,-98.15286,-4.288115,STD
77712601536000,2.750021,-1.0297362937648,9.79021863693765,-0.764307778443173,0.06963864,0.05497787,0.027183503,292.48965,-98.15914,-4.282718,STD
77712606526000,2.755011,-1.03209364538279,9.76900227545383,-0.745448950730071,0.06688975,0.058643065,0.023823744,292.45575,-98.16631,-4.278833,STD
77712611574000,2.760059,-1.03100613412667,9.74991989614477,-0.728202740440598,0.056199603,0.06536258,0.01282817,292.41104,-98.17337,-4.2761645,STD
77712616529000,2.765014,-0.989004005512392,9.75925389201416,-0.732869640912667,0.047647487,0.07880162,0.016798794,292.36478,-98.177956,-4.269912,STD
77712621747000,2.770232,-0.945336688999173,9.77249375323959,-0.736376415301902,0.03726278,0.08307768,0.0125227375,292.31726,-98.17715,-4.2693872,STD
77712626576000,2.775061,-0.911335110187483,9.82349626569249,-0.72362583156879,0.036651913,0.080634214,0.010079277,292.26904,-98.175354,-4.2670126,STD
77712631614000,2.780099,-0.875861936848635,9.87670617617866,-0.710323400248139,0.020463986,0.07666359,0.02076942,292.2093,-98.16699,-4.2584887,STD
77712636554000,2.785039,-0.867088697882753,9.93607314969678,-0.699882295765507,0.015271631,0.08124508,0.023518313,292.14865,-98.16224,-4.252749,STD
77712641851000,2.790336,-0.862585668975904,9.99825330823293,-0.689732020481928,0.006414085,0.0693332,0.018936822,292.095,-98.151825,-4.246902,STD
77712646545000,2.79503,-0.8771450504178,9.99970927526234,-0.694099830353673,0.0076358155,0.07422013,0.02107485,292.0306,-98.13442,-4.229595,STD
77712651507000,2.799992,-0.89253568755344,10.0012483695103,-0.698717016673144,0.0036651916,0.05497787,0.030848695,291.97595,-98.109566,-4.211406,STD
77712656512000,2.804997,-0.90805969780412,10.0028008013344,-0.703374214885348,0.005497787,0.055283304,0.03145956,291.91513,-98.087494,-4.194714,STD
77712661487000,2.809972,-0.923490657044306,10.0043439278728,-0.708003497823552,0.002443461,0.050701816,0.028405234,291.86224,-98.062485,-4.177533,STD
77712666525000,2.81501,-0.939117023406529,10.0059065955111,-0.712691402837155,0.005497787,0.04642576,0.034513887,291.80786,-98.03847,-4.154583,STD
77712671452000,2.819937,-0.954399101029926,10.0074348335924,-0.717276021336961,0.004581489,0.040317107,0.03848451,291.75598,-98.01363,-4.1338177,STD
77712676518000,2.825003,-0.972184313980729,9.98600750330625,-0.74001595883242,0.013133603,0.029626964,0.03481932,291.71136,-97.99033,-4.1128974,STD
77712681533000,2.830018,-0.990331924787455,9.95878599234839,-0.767237422416399,0.020158553,0.033292156,0.03756821,291.66544,-97.965195,-4.089355,STD
77712686516000,2.835001,-1.0126780367713,9.90690787443946,-0.789073467590705,0.017715093,0.03573562,0.03604105,291.626,-97.94758,-4.0752797,STD
77712691513000,2.839998,-1.03706418105381,9.84350423542601,-0.808582321903791,0.016798794,0.037873644,0.03573562,291.5864,-97.93153,-4.0603538,STD
77712696506000,2.844991,-1.04055493355795,9.79595078301887,-0.81734559180593,0.023518313,0.03390302,0.033292156,291.54285,-97.92842,-4.052415,STD
77712701527000,2.850012,-1.03592597563535,9.75429069339623,-0.821974501393916,0.028405234,0.036957346,0.028710667,291.4974,-97.92471,-4.0450287,STD
77712706505000,2.85499,-1.0312117297582,9.7319045743955,-0.848272344471757,0.0290161,0.03573562,0.03359759,291.4585,-97.927055,-4.040255,STD
77712711577000,2.860062,-1.02633829446172,9.71972098615431,-0.887259862465135,0.021380283,0.028405234,0.031154128,291.4209,-97.92984,-4.0389934,STD
77712716538000,2.865023,-1.0215715136049,9.70780403401224,-0.925394144161734,0.02076942,0.029626964,0.03176499,291.37518,-97.93703,-4.0323195,STD
77712721520000,2.870005,-1.01678455488111,9.69583663720277,-0.963689848941507,0.022602014,0.041233405,0.026572637,291.32925,-97.94363,-4.0280695,STD
77712726500000,2.874985,-1.02132190970989,9.6979092161042,-0.99846576625222,0.025961773,0.022907447,0.030543262,291.29465,-97.94779,-4.0223346,STD
77712731526000,2.880011,-1.03082121833432,9.70740822715611,-1.03171339603316,0.029626964,0.029626964,0.016493361,291.24973,-97.95536,-4.0220847,STD
77712736520000,2.885005,-1.03166001884917,9.71351713618134,-1.04650708115083,0.03268129,0.046731193,0.025350908,291.20853,-97.97469,-4.017963,STD
77712741491000,2.889976,-1.02750951555362,9.71766772615519,-1.05065758444638,0.029932396,0.040317107,0.03390302,291.17267,-97.994705,-4.018458,STD
77712746466000,2.894951,-1.0263324007539,9.73014363823195,-1.0582911022617,0.029932396,0.034513887,0.029321533,291.1356,-98.02199,-4.021486,STD
77712751520000,2.900005,-1.0313309701229,9.76013515883507,-1.07328681036869,0.034208454,0.056199603,0.029932396,291.09402,-98.04678,-4.019962,STD
77712756506000,2.904991,-1.0290854395387,9.79354894511806,-1.07349641443158,0.036957346,0.06963864,0.022296581,291.04742,-98.07656,-4.0225353,STD
77712761614000,2.910099,-1.01570638190355,9.83368602488832,-1.05119793847206,0.045814894,0.07360926,0.02107485,290.9989,-98.10683,-4.0227337,STD
77712766548000,2.915033,-1.00653563666826,9.86896568334129,-1.02944041665871,0.050701816,0.07544186,0.01282817,290.9489,-98.13975,-4.0272627,STD
77712771524000,2.920009,-1.01108495951313,9.89171229756563,-1.00669380243437,0.056505036,0.08002335,0.0143553335,290.8987,-98.172676,-4.029067,STD
77712776513000,2.924998,-1.01412233794101,9.914033313476,-0.985901518970503,0.05955936,0.09254608,0.012217305,290.83453,-98.20304,-4.0249815,STD
77712781526000,2.930011,-1.00486679554656,9.93254430161943,-0.981273747773279,0.070554934,0.090713486,0.0076358155,290.77466,-98.235725,-4.0216036,STD
77712786736000,2.935221,-0.994592696802906,9.94786041625795,-0.975439094981835,0.0729984,0.08277224,0.007330383,290.71545,-98.2592,-4.0122857,STD
77712791506000,2.939991,-0.977996389445958,9.91881713832879,-0.958842765962761,0.07238753,0.081855945,0.008246681,290.6562,-98.284,-4.003951,STD
77712796498000,2.944983,-0.960627675331517,9.88842216067212,-0.94147402917802,0.073303826,0.08246681,0.0067195175,290.5991,-98.306984,-3.9952989,STD
77712801517000,2.950002,-0.926714250280953,9.86391099418717,-0.946268672534393,0.0711658,0.076052725,0.011301007,290.5459,-98.327095,-3.985184,STD
77712806510000,2.954995,-0.889653971410579,9.84074835012594,-0.955533754345088,0.0842994,0.081855945,0.0076358155,290.49005,-98.35165,-3.9776063,STD
77712811544000,2.960029,-0.851959469585497,9.80263564145027,-0.935850648390005,0.06719518,0.061086524,0.004581489,290.44785,-98.36193,-3.9747734,STD
77712816451000,2.964936,-0.815119973546301,9.76119084536992,-0.90822102155218,0.061086524,0.03756821,0.007330383,290.40604,-98.37714,-3.97129,STD
77712821516000,2.970001,-0.80087836016793,9.73489546037272,-0.918086874085603,0.059253927,0.03634648,0.015271631,290.36835,-98.385315,-3.960183,STD
77712826491000,2.974976,-0.795999747609052,9.71538109164448,-0.942479957256809,0.055283304,0.042760566,0.01985312,290.33588,-98.39107,-3.9501307,STD
77712831521000,2.980006,-0.7986687544899,9.70329466078351,-0.955691446709855,0.054061573,0.024740042,0.0143553335,290.3083,-98.39033,-3.937121,STD
77712836470000,2.984955,-0.803504046645583,9.69362436931238,-0.965362066364007,0.04795292,0.024129177,0.02107485,290.2752,-98.384895,-3.919002,STD
77712841504000,2.989989,-0.82337259019543,9.71064981438989,-0.974825825755955,0.040317107,0.018936822,0.027183503,290.2509,-98.3836,-3.90411,STD
77712846570000,2.995055,-0.846958447914439,9.73423565240642,-0.984260160962567,0.038789943,0.018325957,0.026267206,290.22595,-98.382195,-3.8896685,STD
77712851520000,3.000005,-0.883739006005184,9.77101611491935,-1.03177129657258,0.04642576,0.028710667,0.02076942,290.20093,-98.383156,-3.876043,STD
77712856526000,3.005011,-0.925163103307412,9.81244009206989,-1.0916061171371,0.03726278,0.025045475,0.029932396,290.18106,-98.377556,-3.8595521,STD
77712861588000,3.010073,-0.936873346483318,9.8274577380523,-1.09933367538323,0.03145956,0.03970624,0.026572637,290.1571,-98.379166,-3.8546467,STD
77712866545000,3.01503,-0.934495218159503,9.82983591604048,-1.08268677711652,0.036651913,0.049785517,0.025961773,290.13626,-98.37956,-3.8469472,STD
77712871515000,3.02,-0.932110853065825,9.83222033092876,-1.06599622146078,0.030848695,0.07147124,0.03145956,290.11438,-98.38784,-3.843981,STD
77712876536000,3.025021,-0.929702020644224,9.83462921365595,-1.04913439450957,0.04184427,0.074830994,0.02565634,290.0949,-98.40284,-3.8447518,STD
77712881524000,3.030009,-0.916373568932342,9.84481337332054,-1.02186279951344,0.025961773,0.074830994,0.023823744,290.07123,-98.40708,-3.8374865,STD
77712887151000,3.035636,-0.895686932168906,9.86032812476008,-0.985661171001919,0.02076942,0.084910266,0.025045475,290.04428,-98.416725,-3.8307028,STD
77712891505000,3.03999,-0.879680247173704,9.87233296353167,-0.957649461291747,0.03268129,0.094989546,0.020158553,290.0147,-98.421196,-3.8249528,STD
77712896531000,3.045016,-0.861203077034549,9.88619063915547,-0.925314400886756,0.0125227375,0.1001819,0.022602014,289.98453,-98.414825,-3.816834,STD
77712901521000,3.050006,-0.85592901647504,9.89643429151506,-0.891830557614127,-0.002443461,0.09101892,0.016798794,289.9584,-98.41259,-3.8095796,STD
77712906503000,3.054988,-0.862872928220055,9.90337834827536,-0.857110960218309,-0.01160644,0.07819075,0.019547688,289.9328,-98.40511,-3.799464,STD
77712911503000,3.059988,-0.869841928365594,9.91034749396012,-0.822265920680153,-0.018325957,0.06719518,0.022296581,289.90015,-98.3798,-3.7761855,STD
77712916528000,3.065013,-0.876845773511862,9.91735148537331,-0.787246655944307,-0.02107485,0.070554934,0.024129177,289.86752,-98.353294,-3.7530031,STD
77712921480000,3.069965,-0.891942213320217,9.92519722105263,-0.749830494215445,-0.03023783,0.05955936,0.02443461,289.84244,-98.323746,-3.7310758,STD
77712926512000,3.074997,-0.920387171234629,9.93467856842105,-0.707163094471225,-0.03023783,0.05009095,0.026572637,289.8164,-98.29582,-3.7085874,STD
77712931461000,3.079946,-0.947822501747862,9.94227427296393,-0.673756321383414,-0.03604105,0.04337143,0.03390302,289.78992,-98.25128,-3.683893,STD
77712936521000,3.085006,-0.974854102807735,9.94677962997397,-0.655735222647824,-0.057421334,0.04795292,0.03145956,289.7627,-98.20457,-3.6619475,STD
77712941476000,3.089961,-0.995497901372599,9.95128201772087,-0.645075995508323,-0.0571159,0.03970624,0.029626964,289.74768,-98.1528,-3.6426008,STD
77712946500000,3.094985,-0.993033684051216,9.95621055528809,-0.662325542489117,-0.061391957,0.049785517,0.032070424,289.7259,-98.095406,-3.6223788,STD
77712951461000,3.099946,-0.990600367544174,9.96107728993598,-0.679358783446863,-0.073303826,0.029626964,0.03573562,289.71268,-98.036896,-3.6072662,STD
77712957133000,3.105618,-0.987818313275288,9.96664151467349,-0.698833192379001,-0.07788532,0.04184427,0.03481932,289.68707,-97.98065,-3.5915747,STD
77712961518000,3.110003,-0.98072706447098,9.96235096486248,-0.714367728110013,-0.07849618,0.04550946,0.025045475,289.66907,-97.92437,-3.578741,STD
77712966522000,3.115007,-0.961965247988646,9.93889872487031,-0.733129520103749,-0.086132,0.034513887,0.03359759,289.65213,-97.864136,-3.5613742,STD
77712971506000,3.119991,-0.944735043075802,9.91258844451531,-0.749236771282799,-0.09193522,0.04062254,0.029626964,289.6307,-97.81333,-3.5499291,STD
77712976509000,3.124994,-0.931639362390671,9.87766635586735,-0.757967225072886,-0.093462385,0.032375857,0.027794369,289.6166,-97.76146,-3.5366426,STD
77712981572000,3.130057,-0.917590331978467,9.84210402903991,-0.769354112811142,-0.09712757,0.038789943,0.028099801,289.5891,-97.71429,-3.5186229,STD
77712986526000,3.135011,-0.894159120629198,9.80461432576057,-0.811530298133149,-0.10323623,0.044593163,0.022907447,289.56387,-97.66799,-3.5034144,STD
77712991683000,3.140168,-0.870390191927685,9.76761017931469,-0.853435008072314,-0.1151481,0.028710667,0.015882496,289.53976,-97.62287,-3.484586,STD
77712996532000,3.145017,-0.85574717010721,9.75784796089973,-0.86807802989279,-0.108123146,0.03573562,0.017104227,289.5077,-97.58145,-3.464506,STD
77713001507000,3.149992,-0.84093784730932,9.75040312545848,-0.885315553531459,-0.11728613,0.03604105,0.022602014,289.48514,-97.54046,-3.4449034,STD
77713006506000,3.154991,-0.82743051451895,9.75940818950437,-0.916832643002915,-0.11911872,0.03940081,0.020158553,289.45963,-97.504684,-3.4274414,STD
77713011774000,3.160259,-0.815257072069971,9.76926437026239,-0.949332362390671,-0.11911872,0.03726278,0.022296581,289.4368,-97.46801,-3.4065497,STD
77713016536000,3.165021,-0.834251145047897,9.78350971178676,-0.968326440326947,-0.12064589,0.042455133,0.013744468,289.41058,-97.4329,-3.3896208,STD
77713021484000,3.169969,-0.854485908101952,9.79814807537961,-0.988202854880694,-0.12614368,0.03726278,0.022907447,289.3909,-97.39918,-3.366962,STD
77713026699000,3.175184,-0.881569999289588,9.81169038964208,-1.01077290730296,-0.11911872,0.043982297,0.02076942,289.3658,-97.371414,-3.3499389,STD
77713031454000,3.179939,-0.906265081475054,9.82403817570499,-1.03135212096891,-0.11728613,0.038789943,0.02321288,289.3482,-97.34409,-3.3328,STD
77713036518000,3.185003,-0.905377218821053,9.82138446652631,-1.06081179322105,-0.11148291,0.038789943,0.027794369,289.32733,-97.32003,-3.315783,STD
77713041838000,3.190323,-0.900021195448444,9.81682298535693,-1.09274932275778,-0.100792766,0.04184427,0.026572637,289.3071,-97.29859,-3.3003278,STD
77713046531000,3.195016,-0.895450936916819,9.83053357006305,-1.1156006154159,-0.09712757,0.049480084,0.027183503,289.2887,-97.282295,-3.2873359,STD
77713051831000,3.200316,-0.8903250868746,9.84336714433367,-1.13836811546693,-0.09743301,0.04520403,0.024740042,289.2785,-97.27205,-3.2787752,STD
77713056501000,3.204986,-0.886234358236532,9.82291362928748,-1.12200530342998,-0.09987647,0.051923547,0.0290161,289.2634,-97.26139,-3.2678826,STD
77713061513000,3.209998,-0.881844051612549,9.80096223369615,-1.10444418695692,-0.080634214,0.041233405,0.029321533,289.2561,-97.260506,-3.2596526,STD
77713066514000,3.214999,-0.882373435669056,9.78530797998805,-1.09871834504182,-0.07849618,0.04734206,0.021991149,289.2422,-97.25514,-3.2519712,STD
77713071850000,3.220335,-0.8840693776895,9.7700446328488,-1.09532648225143,-0.07544186,0.05375614,0.030543262,289.2319,-97.25285,-3.2403924,STD
77713076504000,3.224989,-0.885548559504182,9.75673211081243,-1.09236813715651,-0.06383542,0.042455133,0.029626964,289.22314,-97.25238,-3.2335033,STD
77713081499000,3.229984,-0.887136121421744,9.74244417622461,-1.08919303321386,-0.061086524,0.044898596,0.02443461,289.21057,-97.25048,-3.234025,STD
77713086518000,3.235003,-0.888731311264437,9.72808759090004,-1.08600267351653,-0.06963864,0.03756821,0.02565634,289.20435,-97.24788,-3.2337277,STD
77713091479000,3.239964,-0.890308066954733,9.71389691152263,-1.082849181893,-0.06261369,0.029932396,0.023518313,289.1974,-97.25098,-3.2358043,STD
77713096530000,3.245015,-0.916169348185196,9.71452868657712,-1.0675927583119,-0.07391469,0.03359759,0.028405234,289.18524,-97.24794,-3.2349553,STD
77713101454000,3.249939,-0.947615793775364,9.71902112708393,-1.04962337155378,-0.074830994,0.025350908,0.023518313,289.17847,-97.250755,-3.23814,STD
77713106506000,3.254991,-0.977438711751904,9.70399399020675,-1.0306999577802,-0.06963864,0.01863139,0.025961773,289.17062,-97.25039,-3.2385092,STD
77713111541000,3.260026,-1.00605827135226,9.68014435720645,-1.01162020157286,-0.0720821,0.011301007,0.03023783,289.16534,-97.24819,-3.240011,STD
77713116527000,3.265012,-1.02395683544648,9.68139018203224,-1.00262626507879,-0.067500606,0.014966198,0.028405234,289.15964,-97.2481,-3.2459717,STD
77713121496000,3.269981,-1.03688582063938,9.69431894222061,-0.998316618348125,-0.061086524,0.020463986,0.029626964,289.15576,-97.246956,-3.2499483,STD
77713126559000,3.275044,-1.05129818382609,9.71863286565217,-1.00341408382609,-0.06505715,0.018325957,0.02687807,289.1524,-97.24457,-3.2589324,STD
77713131526000,3.280011,-1.06680947695652,9.75482609891304,-1.01892537695652,-0.06811147,0.016187929,0.0290161,289.14783,-97.24323,-3.2657685,STD
77713136516000,3.285001,-1.06416099381443,9.80210874226804,-1.04722874587629,-0.062002823,0.011911872,0.026572637,289.14417,-97.24409,-3.2760854,STD
77713141507000,3.289992,-1.05072205975633,9.8558646656045,-1.08306595014058,-0.06536258,0.020158553,0.023823744,289.13763,-97.24154,-3.285325,STD
77713146558000,3.295043,-1.03399577611065,9.88573384327437,-1.08404942752982,-0.06352998,0.021685716,0.025045475,289.1353,-97.24402,-3.2928789,STD
77713151558000,3.300043,-1.01429848075895,9.89065774290416,-1.04957919922871,-0.055588737,0.016493361,0.025045475,289.13254,-97.24765,-3.3013265,STD
77713156560000,3.305045,-0.989706165934992,9.88491185026261,-1.02372275315628,-0.051923547,0.0061086523,0.016493361,289.1406,-97.252884,-3.3144162,STD
77713161590000,3.310075,-0.961064002076107,9.87059098018036,-1.00462799386582,-0.05131268,0.011301007,0.014049901,289.1458,-97.2585,-3.3251343,STD
77713166594000,3.315079,-0.943242385467064,9.84952655563826,-0.983834225976926,-0.035430185,0.0067195175,0.016798794,289.15503,-97.26124,-3.3341105,STD
77713171561000,3.320046,-0.93439088461109,9.82297196064384,-0.961705450730368,-0.030848695,0.0021380284,0.013133603,289.16235,-97.262505,-3.3451388,STD
77713176512000,3.324997,-0.92739402,9.8035376375,-0.951216318125,-0.029626964,-0.008552114,0.01282817,289.17047,-97.26106,-3.3507411,STD
77713181543000,3.330028,-0.923268944589041,9.79528774511986,-0.959466490483733,-0.024740042,-0.018020526,0.01038471,289.1792,-97.26254,-3.357954,STD
77713186673000,3.335158,-0.91937345,9.78803815948512,-0.9656339970578,-0.02076942,-0.017104227,0.0033597588,289.18292,-97.26157,-3.3628273,STD
77713191562000,3.340047,-0.91937345,9.79501897405695,-0.944691237468317,-0.03023783,-0.027183503,0.0009162979,289.19244,-97.25825,-3.3677156,STD
77713196882000,3.345367,-0.91937345,9.8026151969087,-0.921902225192585,-0.02107485,-0.025350908,0.01282817,289.2024,-97.260994,-3.3769248,STD
77713201554000,3.350039,-0.91937345,9.80928616554843,-0.901889017419611,-0.029626964,-0.036651913,0.0070249503,289.21808,-97.259674,-3.3922567,STD
77713206812000,3.355297,-0.919753155343054,9.81660671327274,-0.878028555669629,-0.02443461,-0.038179077,0.0015271631,289.23056,-97.262634,-3.4035072,STD
77713212369000,3.360854,-0.925068073709178,9.82192174263457,-0.835509186541496,-0.035124753,-0.04062254,0.0106901415,289.2465,-97.25837,-3.4123402,STD
77713216807000,3.365292,-0.929466896448567,9.82735393305181,-0.803935115169861,-0.041233405,-0.04062254,0.016493361,289.25305,-97.25273,-3.424715,STD
77713221554000,3.370039,-0.935937927296451,9.84676694676409,-0.797464104592902,-0.03268129,-0.040927973,0.008857546,289.25998,-97.24894,-3.4380574,STD
77713226558000,3.375043,-0.942759296237426,9.86723097048776,-0.790642757020307,-0.033292156,-0.035430185,0.014660766,289.26254,-97.232834,-3.4451673,STD
77713231544000,3.380029,-0.949556127880053,9.8876213826153,-0.783845946669197,-0.03756821,-0.0290161,0.019547688,289.2644,-97.21948,-3.4543579,STD
77713236453000,3.384938,-0.956247994413077,9.90769690069273,-0.77715410109888,-0.034513887,-0.0143553335,0.022907447,289.26227,-97.20758,-3.46162,STD
77713241516000,3.390001,-0.95394929063805,9.91572646780616,-0.745870241992813,-0.043676864,-0.016187929,0.027183503,289.26306,-97.19109,-3.4673333,STD
77713246561000,3.395046,-0.949257127070992,9.92041870486549,-0.708333080440905,-0.04184427,-0.013439035,0.01985312,289.258,-97.17957,-3.4746165,STD
77713251541000,3.400026,-0.951461628100684,9.93500297215712,-0.665529273263336,-0.043676864,0.008857546,0.022907447,289.25427,-97.15773,-3.477119,STD
77713256483000,3.404968,-0.95589856376207,9.95275052948345,-0.621160120500609,-0.04337143,0.018936822,0.02321288,289.2527,-97.1388,-3.482559,STD
77713261669000,3.410154,-0.951335136591803,9.93766945352929,-0.606511613421652,-0.049785517,0.020158553,0.019547688,289.2437,-97.11148,-3.486175,STD
77713266581000,3.415066,-0.94159773969675,9.90358845001035,-0.611380299159594,-0.06169739,0.028405234,0.01985312,289.22992,-97.08283,-3.4878857,STD
77713271556000,3.420041,-0.908253190814025,9.87265871990978,-0.602824359458684,-0.062308256,0.034208454,0.013439035,289.21338,-97.04959,-3.4952145,STD
77713276655000,3.42514,-0.863195862153988,9.84262093643633,-0.587805258618003,-0.06169739,0.038789943,0.0125227375,289.19492,-97.01371,-3.5003345,STD
77713282121000,3.430606,-0.840537886229889,9.82358285627059,-0.552724139350649,-0.064446285,0.034513887,0.01038471,289.17557,-96.98025,-3.5064971,STD
77713286563000,3.435048,-0.828169150575693,9.81121387953092,-0.519740847142857,-0.06352998,0.024129177,0.007941248,289.15665,-96.9487,-3.5127704,STD
77713291557000,3.440042,-0.806072271137017,9.80824394954857,-0.510758582509177,-0.0711658,0.008857546,0.008552114,289.13953,-96.90988,-3.5169735,STD
77713296560000,3.445045,-0.779926803601548,9.81062085851771,-0.515512316063101,-0.081855945,0.0009162979,0.012217305,289.1233,-96.87125,-3.5208025,STD
77713301542000,3.450027,-0.753891081182657,9.8129877904554,-0.520246095908324,-0.07788532,-0.006414085,0.011301007,289.10742,-96.828636,-3.5234916,STD
77713306550000,3.455035,-0.727719483857526,9.81536707490822,-0.525004580345272,-0.08124508,-0.0076358155,0.008246681,289.0919,-96.78247,-3.5256097,STD
77713311639000,3.460124,-0.721194611394534,9.83089755697267,-0.541394961568325,-0.07422013,-0.013439035,0.005192355,289.0795,-96.741005,-3.5281417,STD
77713316600000,3.465085,-0.725633808292455,9.85309354146228,-0.563590953010979,-0.08307768,-0.014660766,0.018020526,289.06625,-96.69393,-3.5266979,STD
77713321546000,3.470031,-0.730059582905863,9.87522241452931,-0.585719833010044,-0.07941248,-0.008857546,0.01863139,289.04492,-96.6539,-3.5209546,STD
77713326618000,3.475103,-0.73459810470918,9.8979150235459,-0.608412449135249,-0.07696902,-0.011301007,0.019547688,289.0266,-96.61039,-3.511898,STD
77713331557000,3.480042,-0.742974622389027,9.90643455502754,-0.642881025640998,-0.07574729,-0.011301007,0.020158553,289.00583,-96.56832,-3.5026922,STD
77713336555000,3.48504,-0.758483266864672,9.89092612647154,-0.699746093170969,-0.07269296,-0.004581489,0.026572637,288.98395,-96.52713,-3.4916294,STD
77713341509000,3.489994,-0.773289022961073,9.87612034524167,-0.739744834123887,-0.06047566,0.004276057,0.024129177,288.95822,-96.499374,-3.4788327,STD
77713346502000,3.494987,-0.787644195252677,9.86176490813569,-0.763670112949064,-0.049785517,0.020158553,0.01863139,288.92883,-96.472046,-3.4651425,STD
77713351806000,3.500291,-0.800174509931548,9.84128514325397,-0.773071600982143,-0.037873644,0.021380283,0.021685716,288.90646,-96.457535,-3.4532466,STD
77713356512000,3.504997,-0.809116652247024,9.81892977579365,-0.768600480803571,-0.04184427,0.031154128,0.019547688,288.87726,-96.443535,-3.4440243,STD
77713361537000,3.510022,-0.816341018386937,9.79277520138545,-0.768456982533399,-0.030848695,0.03756821,0.021991149,288.84766,-96.4415,-3.4333143,STD
77713366527000,3.515012,-0.821070185333993,9.76440010094013,-0.77318619886195,-0.022602014,0.05100725,0.02321288,288.81372,-96.43825,-3.4234114,STD
77713371529000,3.520014,-0.82360536,9.75579923071979,-0.783433308997429,-0.019242255,0.05375614,0.019547688,288.78174,-96.43719,-3.4159203,STD
77713376558000,3.525043,-0.82360536,9.77008494206051,-0.800099914217916,-0.01863139,0.05589417,0.015577064,288.7468,-96.43708,-3.4081151,STD
77713381506000,3.529991,-0.82360536,9.78414055942258,-0.816498077397667,-0.01038471,0.048563786,0.013133603,288.7197,-96.4386,-3.3979409,STD
77713386559000,3.535044,-0.82360536,9.79849444675697,-0.833244221000593,-0.01038471,0.044898596,0.021991149,288.69177,-96.43694,-3.3858404,STD
77713391510000,3.539995,-0.827538966951027,9.81058368088467,-0.850626197472354,0.0009162979,0.043676864,0.0106901415,288.6652,-96.443214,-3.380617,STD
77713396552000,3.545037,-0.837074181492891,9.82011907464455,-0.869696586729858,-0.01160644,0.03604105,0.018325957,288.64276,-96.439316,-3.3681345,STD
77713401452000,3.549937,-0.858750989371082,9.82935766202978,-0.879289313322884,-0.0061086523,0.030543262,0.013133603,288.61908,-96.45049,-3.3560793,STD
77713406552000,3.555037,-0.901812840370298,9.83892665693574,-0.874504665987461,-0.010079277,0.036651913,0.013744468,288.59515,-96.45408,-3.3406732,STD
77713411523000,3.560008,-0.935658293043374,9.85032354090257,-0.864781358357519,-0.01038471,0.03268129,0.010995574,288.5778,-96.46466,-3.33013,STD
77713416551000,3.565036,-0.954854673477117,9.86568094992824,-0.845584981932706,-0.0027488936,0.044593163,0.021685716,288.55505,-96.47384,-3.315446,STD
77713421516000,3.570001,-0.973810526471057,9.8808459331845,-0.826629132897465,0.004581489,0.042455133,0.01863139,288.53537,-96.49052,-3.3192499,STD
77713426566000,3.575051,-0.996882488003933,9.87925527866273,-0.815586084798427,0.002443461,0.03390302,0.01985312,288.51517,-96.504005,-3.3187265,STD
77713431476000,3.579961,-1.02000052536873,9.87463157463127,-0.806338869852507,0.0015271631,0.039095376,0.007330383,288.4918,-96.52149,-3.322734,STD
77713436552000,3.585037,-1.01706137070945,9.86985945540182,-0.796794834707095,0.00580322,0.049480084,0.01740966,288.46915,-96.53332,-3.322313,STD
77713441482000,3.589967,-1.00779562171524,9.86522648415268,-0.787529090550486,-0.0009162979,0.036651913,0.010995574,288.45142,-96.545906,-3.3305118,STD
77713446578000,3.595063,-0.99085518675835,9.85307901866405,-0.781620803209234,0.006414085,0.035124753,0.010995574,288.42316,-96.5619,-3.3324273,STD
77713451497000,3.599982,-0.97234505740668,9.83919661493124,-0.776993285367387,0.0106901415,0.044898596,0.02107485,288.39603,-96.574425,-3.3332758,STD
77713456558000,3.605043,-0.95637724279661,9.80999362589341,-0.761214377772105,0.003970624,0.03848451,0.014660766,288.3731,-96.58563,-3.3379705,STD
77713461582000,3.610067,-0.941639466525424,9.77560533591995,-0.741563992311619,0.00061086525,0.040317107,0.014966198,288.34616,-96.59579,-3.337442,STD
77713466603000,3.615088,-0.931150967533794,9.76096676349314,-0.733726058766897,0.014049901,0.030543262,0.007330383,288.32623,-96.60707,-3.339554,STD
77713471510000,3.619995,-0.922010958275795,9.751826563357,-0.729156054137897,0.01038471,0.029321533,0.007941248,288.30408,-96.61174,-3.3390074,STD
77713476551000,3.625036,-0.905939786340331,9.7525474816678,-0.724478888468608,0.0036651916,0.0143553335,0.008857546,288.28723,-96.616035,-3.3394024,STD
77713481538000,3.630023,-0.887458770982877,9.75716782596498,-0.719858640659766,0.0009162979,0.013744468,0.002443461,288.2669,-96.62109,-3.3414023,STD
77713486539000,3.635024,-0.868324359488273,9.7651370533049,-0.734187800639659,0.0067195175,0.010995574,0.0012217305,288.2612,-96.62079,-3.3439317,STD
77713491548000,3.640033,-0.848842100903645,9.77487838602904,-0.758540623870444,-0.003970624,-0.0027488936,-0.0027488936,288.25867,-96.617065,-3.3493109,STD
77713496559000,3.645044,-0.83934522237849,9.79498888810755,-0.786627187116856,-0.015882496,-0.0021380284,0.0021380284,288.25208,-96.61088,-3.3496406,STD
77713501585000,3.65007,-0.834367663247156,9.81987668376422,-0.816492573089969,-0.013744468,-0.0021380284,0.004276057,288.24997744996,-96.6085460688551,-3.34999104177342,STD
77713506551000,3.655036,-0.83004921588751,9.85400067381304,-0.829871315139311,-0.01160644,0.0036651916,0.01038471,288.2479,-96.60624,-3.3503373,STD
77713511614000,3.660099,-0.825840593292249,9.89187803107369,-0.838288542751497,-0.01282817,0.011301007,0.013439035,288.2443,-96.59973,-3.3491364,STD
77713516559000,3.665044,-0.835117124092072,9.93041371099744,-0.847363701790281,-0.017715093,0.00580322,0.0125227375,288.24152,-96.598145,-3.34685,STD
77713521557000,3.670042,-0.860620580179028,9.97121899360614,-0.857565075703325,-0.005192355,0.021380283,0.017715093,288.2309,-96.59921,-3.3413267,STD
77713526544000,3.675029,-0.868796661332546,9.98456994823344,-0.867298085770101,-0.01740966,0.027794369,0.013133603,288.23007,-96.59273,-3.339438,STD
77713531560000,3.680045,-0.864069052947545,9.97747863438638,-0.87675331734967,-0.012217305,0.039095376,0.016798794,288.22385,-96.59171,-3.3333266,STD
77713537047000,3.685532,-0.858897524397205,9.96972144956205,-0.887096390650526,-0.016798794,0.03176499,0.018020526,288.22214,-96.589035,-3.3324492,STD
77713541525000,3.69001,-0.854676984056687,9.96339072719221,-0.895537484552702,-0.012217305,0.031154128,0.011301007,288.21527,-96.59049,-3.3323486,STD
77713546560000,3.695045,-0.847504312449323,9.9429686926728,-0.888141125988332,-0.0067195175,0.044898596,0.014660766,288.2068,-96.58942,-3.3289084,STD
77713551562000,3.700047,-0.838030733175121,9.90981096736873,-0.864457148126174,-0.0067195175,0.0580322,0.01863139,288.1986,-96.58897,-3.3272665,STD
77713556531000,3.705016,-0.830890721299166,9.87221782568534,-0.843169913909416,-0.005497787,0.048258353,0.015271631,288.18735,-96.59765,-3.3322217,STD
77713561597000,3.710082,-0.826071862395709,9.82884837733413,-0.823894538676996,-0.0106901415,0.043982297,0.014660766,288.1714,-96.60345,-3.3346596,STD
77713566620000,3.715105,-0.825909947165775,9.79512711229946,-0.807114829786096,0.002443461,0.04153884,0.010079277,288.15588,-96.610825,-3.3379643,STD
77713571700000,3.720185,-0.83072776724896,9.77103811249753,-0.792661434935631,0.0033597588,0.040011674,0.0125227375,288.14185,-96.61279,-3.339484,STD
77713576513000,3.724998,-0.834948185413559,9.7534681175203,-0.788830138983093,0.0021380284,0.03268129,0.01282817,288.129,-96.615585,-3.342502,STD
77713581516000,3.730001,-0.83891907306481,9.74155562042102,-0.796771910139234,0.0036651916,0.03176499,0.016798794,288.11523,-96.618195,-3.3436,STD
77713586716000,3.735201,-0.84380216998997,9.72899280822467,-0.80514720665998,-0.0015271631,0.010995574,0.012217305,288.10846,-96.61842,-3.3482852,STD
77713591541000,3.740026,-0.857706300381143,9.71508838746239,-0.814416626920762,-0.005192355,0.004886922,0.017715093,288.09842,-96.61723,-3.3485343,STD
77713596695000,3.74518,-0.873104398413636,9.70356600890909,-0.824574359385454,-0.0009162979,0.0027488936,0.013439035,288.1037,-96.61657,-3.352272,STD
77713601527000,3.750012,-0.89413855565,9.733013974,-0.83719485812,-0.01038471,-0.009162978,0.01038471,288.11356,-96.61079,-3.3545601,STD
77713607536000,3.756021,-0.920345714974619,9.76950972081218,-0.852530252791878,-0.011911872,-0.004276057,0.0076358155,288.12515,-96.60947,-3.3583329,STD
77713611526000,3.760011,-0.938644475581841,9.79146828704147,-0.85619000109185,-0.006414085,-0.008857546,0.013439035,288.1426,-96.60698,-3.361057,STD
77713616463000,3.764948,-0.961286325486065,9.81863857312518,-0.86071836634422,-0.009468411,-0.0030543262,0.01038471,288.15662,-96.60747,-3.3694568,STD
77713621546000,3.770031,-0.974406538657453,9.84725119062191,-0.869061638657453,-0.0076358155,0.004886922,0.01038471,288.1713,-96.609375,-3.375316,STD
77713626517000,3.775002,-0.983805605350444,9.87544848884501,-0.878460705350444,-0.024129177,0.016493361,0.011911872,288.1829,-96.60634,-3.3812358,STD
77713631532000,3.780017,-0.982965233201425,9.90049433399288,-0.877620333201425,-0.020463986,0.026267206,0.007330383,288.19318,-96.61182,-3.391357,STD
77713636512000,3.784997,-0.97824694432133,9.92408577839335,-0.87290204432133,-0.021380283,0.0421497,0.0061086523,288.1983,-96.6115,-3.399412,STD
77713641504000,3.789989,-0.949664710122565,9.91869625850019,-0.861300809115373,-0.029932396,0.062002823,0.0009162979,288.20636,-96.60957,-3.4060912,STD
77713646641000,3.795126,-0.909798905152446,9.90042441243205,-0.846351140056724,-0.028099801,0.06627888,0.005497787,288.2144,-96.60881,-3.410209,STD
77713651449000,3.799934,-0.872486312141675,9.88332278971536,-0.832358924982949,-0.026572637,0.06963864,0.008857546,288.21027,-96.60733,-3.4137583,STD
77713656446000,3.804931,-0.833706980345747,9.86554891103083,-0.817816683151906,-0.03726278,0.07269296,0.009162978,288.20514,-96.60309,-3.4166634,STD
77713661486000,3.809971,-0.794593946074889,9.84762208522132,-0.803149302958099,-0.029626964,0.0842994,0.008857546,288.19675,-96.6033,-3.4183877,STD
77713666455000,3.81494,-0.756031908913799,9.82994780001351,-0.788688546572577,-0.0290161,0.069027774,0.008552114,288.19522,-96.59919,-3.4206555,STD
77713671462000,3.819947,-0.732669963695631,9.81148313846453,-0.774557441602608,-0.040927973,0.06291912,0.014049901,288.18808,-96.59305,-3.4207292,STD
77713676493000,3.824978,-0.713917066624501,9.79273033930135,-0.760492734531478,-0.038789943,0.06169739,0.016187929,288.18387,-96.59107,-3.4221096,STD
77713681461000,3.829946,-0.71563658555714,9.78402048462008,-0.773949935673253,-0.041233405,0.06169739,0.020158553,288.1759,-96.56869,-3.4087894,STD
77713686461000,3.834946,-0.725390914341006,9.77914321837441,-0.798335788189041,-0.050396383,0.050396383,0.022296581,288.17142,-96.54562,-3.3961518,STD
77713691459000,3.839944,-0.75115741126676,9.78150759415649,-0.809833327308385,-0.045814894,0.04886922,0.021991149,288.1625,-96.522064,-3.380791,STD
77713696454000,3.844939,-0.782269578942365,9.78629392770662,-0.817013062539524,-0.055283304,0.048563786,0.023518313,288.15643,-96.492874,-3.365049,STD
77713701459000,3.849944,-0.813444033239944,9.7910898435061,-0.824207171614969,-0.06994407,0.044898596,0.029321533,288.16116,-96.465614,-3.3511808,STD
77713706446000,3.854931,-0.844506371617971,9.79586851125675,-0.831375407770662,-0.06536258,0.05100725,0.030543262,288.16272,-96.44188,-3.3383415,STD
77713711487000,3.859972,-0.863093353295072,9.80783077795369,-0.840353902196715,-0.06505715,0.05222898,0.032070424,288.15753,-96.41715,-3.3248942,STD
77713716462000,3.864947,-0.877236806689096,9.8219745267168,-0.849782871126064,-0.06078109,0.051618114,0.032070424,288.15097,-96.3951,-3.3118472,STD
77713721449000,3.869934,-0.901709458389262,9.83956608843269,-0.869538521910778,-0.08032878,0.053145275,0.032070424,288.14636,-96.37484,-3.30648,STD
77713726464000,3.874949,-0.930150650922819,9.85852676796289,-0.893239524763127,-0.067500606,0.06291912,0.027488936,288.1394,-96.36456,-3.302416,STD
77713731459000,3.879944,-0.955337357144995,9.86747312813092,-0.910306030244487,-0.06536258,0.07147124,0.023518313,288.1333,-96.34969,-3.300152,STD
77713736462000,3.884947,-0.97924354436683,9.87225446043309,-0.924649722607524,-0.07513642,0.07727446,0.026572637,288.12524,-96.33494,-3.2970967,STD
77713741512000,3.889997,-0.970012452739726,9.86384861643836,-0.919111075342466,-0.071776666,0.0888809,0.02076942,288.11548,-96.33191,-3.3011777,STD
77713746546000,3.895031,-0.946758708990932,9.84989609338221,-0.905158848518233,-0.0711658,0.0888809,0.019547688,288.10767,-96.3248,-3.3032048,STD
77713751551000,3.900036,-0.932433066505429,9.84191026278381,-0.881937890426456,-0.07360926,0.09590584,0.014660766,288.08154,-96.32813,-3.3053868,STD
77713756546000,3.905031,-0.922988621095755,9.83718843455084,-0.853604524612043,-0.06994407,0.099265605,0.016798794,288.05716,-96.33195,-3.3059843,STD
77713761662000,3.910147,-0.905174422124017,9.82118198695049,-0.848438605219806,-0.06627888,0.090713486,0.02076942,288.03284,-96.33131,-3.3044534,STD
77713766567000,3.915052,-0.883437146302638,9.79944473382693,-0.857133506469227,-0.06994407,0.09040806,0.012217305,288.00543,-96.3311,-3.3056285,STD
77713771547000,3.920032,-0.874802723435496,9.78197480580662,-0.878479194112598,-0.06505715,0.095294975,0.016493361,287.96518,-96.33041,-3.2992318,STD
77713776564000,3.925049,-0.882080719790962,9.76984483721282,-0.914869125225953,-0.06352998,0.09101892,0.018325957,287.9281,-96.32934,-3.2962966,STD
77713781543000,3.930028,-0.889303590800303,9.75780674400404,-0.950983429992426,-0.0711658,0.08307768,0.014966198,287.89172,-96.32714,-3.2912283,STD
77713786562000,3.935047,-0.896584488489775,9.74567193986367,-0.987387867755617,-0.058948494,0.07819075,0.016798794,287.85663,-96.32885,-3.2843938,STD
77713791514000,3.939999,-0.909657751492748,9.74197227639001,-1.01264312046737,-0.062308256,0.07269296,0.016493361,287.82446,-96.32548,-3.2795217,STD
77713796543000,3.945028,-0.929062149005842,9.74682297179694,-1.02719642240129,-0.06505715,0.064751714,0.018325957,287.79517,-96.324394,-3.273908,STD
77713801548000,3.950033,-0.948230285930521,9.74676339682382,-1.04157254277916,-0.06780604,0.06291912,0.011911872,287.77277,-96.33696,-3.2743137,STD
77713806553000,3.955038,-0.967260339156327,9.7420062871464,-1.0558451137469,-0.06719518,0.06688975,0.015882496,287.75186,-96.34744,-3.2714076,STD
77713811642000,3.960127,-0.981695015190998,9.74204315457507,-1.0605952424045,-0.06383542,0.06414085,0.01038471,287.7319,-96.36621,-3.2806518,STD
77713816615000,3.9651,-0.991096935317343,9.74674372194255,-1.05589428234133,-0.062308256,0.058643065,0.0106901415,287.71246,-96.382645,-3.286915,STD
77713821547000,3.970032,-0.998193734004518,9.75139488007072,-1.04683127495334,-0.053450707,0.07238753,0.013439035,287.6906,-96.40554,-3.2960489,STD
77713826651000,3.975136,-1.00299483283567,9.75619607916708,-1.03242792832728,-0.06505715,0.06719518,0.01038471,287.67615,-96.42394,-3.307159,STD
77713831517000,3.980002,-0.998004581180061,9.76254613835198,-1.01148809206511,-0.055283304,0.06688975,0.0070249503,287.65662,-96.44822,-3.3159776,STD
77713836541000,3.985026,-0.980206063395912,9.77144558309442,-0.980340685942847,-0.044593163,0.08032878,0.011911872,287.6353,-96.46849,-3.3228555,STD
77713841481000,3.989966,-0.96409466530986,9.77831536238635,-0.95847140825971,-0.05375614,0.077579886,0.01038471,287.61792,-96.48497,-3.3329868,STD
77713846581000,3.995066,-0.951541780547435,9.77988450493141,-0.961609627811868,-0.03268129,0.07971791,0.014049901,287.59622,-96.50934,-3.339546,STD
77713851447000,3.999932,-0.939564851674109,9.7813816515244,-0.964603858466926,-0.03145956,0.08552113,0.014966198,287.5776,-96.51568,-3.339703,STD
77713856562000,4.005047,-0.926975046662383,9.78295540919459,-0.967751308076589,-0.03145956,0.08124508,0.009773844,287.56168,-96.526855,-3.3408782,STD
77713862190000,4.010675,-0.913122569124554,9.78468700414431,-0.97121442565297,-0.01985312,0.0729984,0.0015271631,287.53238,-96.54865,-3.35116,STD
77713866572000,4.015057,-0.902336933628683,9.78603523603303,-0.973910833119157,-0.015882496,0.071776666,0.0106901415,287.50342,-96.566055,-3.3576052,STD
77713871691000,4.020176,-0.889593441288593,9.7871471205202,-0.977184172173136,-0.020463986,0.07544186,0.0125227375,287.48114,-96.581604,-3.360624,STD
77713876557000,4.025042,-0.875714515610047,9.78252072500745,-0.98181047107118,-0.020158553,0.06841691,0.0143553335,287.4631,-96.597435,-3.361413,STD
77713881771000,4.030256,-0.863701989387145,9.77720423019432,-0.988200487144993,-0.020158553,0.053145275,0.018020526,287.44672,-96.60944,-3.3568745,STD
77713886538000,4.035023,-0.886448707276532,9.76810536442451,-1.01094717653214,-0.019547688,0.062308256,0.01863139,287.42584,-96.62145,-3.3524106,STD
77713891794000,4.040279,-0.909116084745497,9.7594465894675,-1.03327423711825,-0.021991149,0.06780604,0.016493361,287.40707,-96.63379,-3.3478947,STD
77713896640000,4.045125,-0.900030498841034,9.76853236511355,-1.01964585826155,-0.022296581,0.054367006,0.017715093,287.39172,-96.645805,-3.3427718,STD
77713901863000,4.050348,-0.891736289818391,9.77901323147881,-1.00516716203517,-0.030848695,0.042455133,0.022907447,287.38474,-96.657425,-3.339426,STD
77713906528000,4.055013,-0.915347017146152,9.80262399466705,-0.996581446266936,-0.01863139,0.03970624,0.019242255,287.37903,-96.67484,-3.338564,STD
77713911586000,4.060071,-0.940946815393485,9.82822383179591,-0.987272432257135,-0.03023783,0.040317107,0.02565634,287.37482,-96.67846,-3.3322783,STD
77713916626000,4.065111,-0.966455511155953,9.85373256630153,-0.977996546411069,-0.030543262,0.040011674,0.02076942,287.37146,-96.6898,-3.3305902,STD
77713921452000,4.069937,-0.990881099598347,9.87815819184203,-0.969114517622754,-0.030543262,0.03023783,0.021380283,287.3711,-96.69648,-3.326035,STD
