timestamp,rel_time,acc_x,acc_y,acc_z,gyro_x,gyro_y,gyro_z,azimuth,pitch,roll,label
4184600085000,0,1.15967067889325,9.81535894436291,0.635550915818283,-0.007941248,0.055283304,-0.003970624,357.89944,-149.21822,-29.299839,STD
4184604961000,0.004876,1.16340017365699,9.81675750794174,0.635084727877545,0.0012217305,0.052534413,0.0015271631,357.75754,-148.94101,-29.067019,STD
4184609947000,0.009862,1.16721380386455,9.81818762238062,0.634608022981621,-0.005192355,0.04795292,0.0067195175,357.60867,-148.66425,-28.835459,STD
4184614951000,0.014866,1.17104120169018,9.81962289968752,0.634129597129394,0.004276057,0.03756821,0.0067195175,357.530496544257,-148.533330059874,-28.7221731538769,STD
4184619968000,0.019883,1.17487854279553,9.82106190573243,0.633649928364282,0.0143553335,0.035124753,-0.006414085,357.45212,-148.40207,-28.608593,STD
4184625312000,0.025227,1.1789659956293,9.82259470387952,0.633138995559665,0.0030543262,0.03023783,-0.01282817,357.2916,-148.13329,-28.378914,STD
4184629948000,0.029863,1.18251192215201,9.82392442921821,0.632695753702966,0.00030543262,0.026267206,-0.0012217305,357.12848,-147.87434,-28.15103,STD
4184634936000,0.034851,1.1863270820949,9.82535511730909,0.632218857589675,0.018325957,0.027488936,-0.004581489,356.95364,-147.62497,-27.926605,STD
4184639983000,0.039898,1.18552044798061,9.82672234145328,0.630900433308331,0.013439035,0.026572637,-0.006414085,356.77734,-147.37123,-27.701206,STD
4184644950000,0.044865,1.18266228038145,9.82803233628339,0.629233169331444,0.011911872,0.021380283,-0.0106901415,356.5942,-147.12717,-27.477415,STD
4184649958000,0.049873,1.17978052009624,9.82935314443905,0.62755214295813,0.0070249503,0.013439035,-0.0036651916,356.4167,-146.86191,-27.235043,STD
4184654967000,0.054882,1.17689818437966,9.83067421633436,0.625870780916611,0.01282817,0.014049901,-0.005497787,356.22916,-146.60466,-26.994398,STD
4184659932000,0.059847,1.17404116764323,9.83198368368517,0.624204188276135,0.014660766,0.006414085,-0.008552114,356.04053,-146.34796,-26.756577,STD
4184664935000,0.06485,1.17116228451486,9.83330317314259,0.622524840243849,0.014966198,0.009162978,-0.004276057,355.84534,-146.09494,-26.515484,STD
4184669980000,0.069895,1.16825923326907,9.83463373966522,0.62083139414693,0.009773844,-0.0021380284,-0.0027488936,355.64728,-145.84544,-26.280413,STD
4184674935000,0.07485,1.16540797084631,9.83594056961956,0.61916815818851,0.015882496,-0.008552114,-0.016187929,355.43933,-145.60385,-26.045706,STD
4184679935000,0.07985,1.16253081401204,9.83725926785804,0.61748981716084,0.011911872,-0.004581489,-0.0067195175,355.232,-145.35823,-25.806923,STD
4184684960000,0.084875,1.15963927139359,9.83858455958771,0.615803084428032,0.025350908,-0.005192355,-0.009773844,355.01495,-145.12555,-25.575306,STD
4184689988000,0.089903,1.15674600248105,9.83991064253633,0.614115344690608,0.018936822,-0.025045475,-0.01160644,354.79816,-144.88866,-25.3452,STD
4184695349000,0.095264,1.15366111492334,9.84132455078763,0.61231582744074,0.017715093,-0.023518313,-0.0125227375,354.57132,-144.6597,-25.110945,STD
4184699932000,0.099847,1.15102391296905,9.84253326959302,0.610777460054778,0.019242255,-0.032070424,-0.009468411,354.3458,-144.43256,-24.882887,STD
4184704970000,0.104885,1.14812488974283,9.84386198993811,0.609086363635299,0.008552114,-0.028405234,-0.0018325958,354.11316,-144.20451,-24.651096,STD
4184709919000,0.109834,1.14527707990827,9.84516723745456,0.607425141686111,0.011911872,-0.03176499,-0.0033597588,353.8771,-143.98409,-24.423819,STD
4184714925000,0.11484,1.14239647048579,9.84648751813093,0.605744786649208,0.012217305,-0.029932396,-0.0143553335,353.63367,-143.7634,-24.194933,STD
4184719956000,0.119871,1.13950147527915,9.84781439229849,0.604056039907167,0.007330383,-0.028405234,-0.01160644,353.38885,-143.54323,-23.964552,STD
4184724920000,0.124835,1.13664503397408,9.84912359590965,0.602389782934897,0.0033597588,-0.03970624,-0.014966198,353.13727,-143.32846,-23.739637,STD
4184729927000,0.129842,1.13376384912024,9.85044414032567,0.600709092229789,0.004276057,-0.036957346,-0.01282817,352.87955,-143.11508,-23.509697,STD
4184734952000,0.134867,1.1308723065018,9.85176943205534,0.599022359496981,0.004886922,-0.04337143,-0.0021380284,352.62238,-142.90244,-23.283047,STD
4184739962000,0.139877,1.12798939535386,9.8530907676903,0.597340661787256,0.0067195175,-0.0421497,-0.01038471,352.35437,-142.69513,-23.057161,STD
4184744926000,0.144841,1.12513295404879,9.85439997130146,0.595674404814985,-0.008246681,-0.047036625,-0.014660766,352.08762,-142.4841,-22.83111,STD
4184749930000,0.149845,1.12225349548905,9.85571972449853,0.593994721114494,0.0030543262,-0.037873644,-0.0125227375,351.81262,-142.28261,-22.60196,STD
4184754977000,0.154892,1.11934929338053,9.85705081850046,0.592300603681164,-0.005497787,-0.04520403,-0.0125227375,351.53592,-142.07556,-22.37839,STD
4184759920000,0.159835,1.11650493613417,9.85835448357902,0.59064139574121,-0.0012217305,-0.04184427,-0.014660766,351.25055,-141.87665,-22.150377,STD
4184764926000,0.164841,1.1136243267117,9.85967476425538,0.588961040704307,-0.004276057,-0.044898596,-0.013744468,350.96423,-141.67543,-21.924505,STD
4184769976000,0.169891,1.11071839830908,9.86100664947625,0.587265916266361,0.00061086525,-0.04184427,-0.015271631,350.67047,-141.47987,-21.697262,STD
4184774941000,0.174856,1.10786138157265,9.86231611682706,0.585599323625885,-0.0018325958,-0.04428773,-0.0070249503,350.37653,-141.28217,-21.469543,STD
4184779947000,0.179862,1.10498077215017,9.86363639750343,0.583918968588982,-0.010079277,-0.046731193,-0.01160644,350.07434,-141.08794,-21.2437,STD
4184784971000,0.184886,1.1020898049631,9.86496142549345,0.58223257152438,-0.0061086523,-0.043676864,-0.005497787,349.7715,-140.89543,-21.013348,STD
4184789977000,0.189892,1.09920919554062,9.86628170616982,0.580552216487477,0.0027488936,-0.049480084,-0.01740966,349.46167,-140.7068,-20.789513,STD
4184794948000,0.194863,1.09634872621599,9.86759275595852,0.578883609837768,-0.010079277,-0.04153884,-0.0125227375,349.14926,-140.51227,-20.557484,STD
4184799932000,0.199847,1.09348077628359,9.86890723436264,0.577210639501387,-0.0027488936,-0.04337143,-0.01985312,348.8306,-140.32979,-20.33314,STD
4184804964000,0.204879,1.09058520564557,9.87023437226985,0.57552155709114,-0.002443461,-0.03726278,-0.01740966,348.5078,-140.14183,-20.102348,STD
4184809939000,0.209854,1.08772243459547,9.87154647701713,0.573851607768609,-0.004886922,-0.046120327,-0.014966198,348.18286,-139.95734,-19.8762,STD
4184814938000,0.214853,1.08484585319257,9.87286491151597,0.572173602409145,-0.009773844,-0.044898596,-0.0143553335,347.85074,-139.7735,-19.646273,STD
4184819944000,0.219859,1.08196524377009,9.87418519219234,0.570493247372242,-0.004276057,-0.049480084,-0.017715093,347.5174,-139.59314,-19.419424,STD
4184824948000,0.224863,1.07908578521035,9.87550494538941,0.568813563671751,-0.004886922,-0.035124753,-0.017715093,347.17685,-139.41068,-19.187326,STD
4184829932000,0.229847,1.07621783527795,9.87681942379352,0.56714059333537,-0.008857546,-0.03481932,-0.011301007,346.83704,-139.22949,-18.958187,STD
4184835756000,0.235671,1.07286652299739,9.87835544350171,0.56518566170634,0.004276057,-0.04520403,-0.00580322,346.49246,-139.05373,-18.72818,STD
4184839964000,0.239879,1.07044510780566,9.87946525993921,0.563773169897453,-0.0012217305,-0.04062254,-0.015577064,346.139,-138.87418,-18.496546,STD
4184844936000,0.244851,1.06758406304966,9.88077657346756,0.562104227579539,-0.004886922,-0.029321533,-0.010079277,345.9659,-138.52657,-18.219687,STD
4184849935000,0.24985,1.06470748164675,9.88209500796639,0.560426222220075,0.0027488936,-0.03481932,-0.01740966,345.78455,-138.18787,-17.950119,STD
4184854966000,0.254881,1.06181248644011,9.88342188213395,0.558737475478034,0.0012217305,-0.031154128,-0.017715093,345.59552,-137.84897,-17.674229,STD
4184859958000,0.259873,1.05893993305677,9.88473847045525,0.557061819796008,-0.012217305,-0.030543262,-0.014049901,345.4017,-137.5139,-17.401138,STD
4184864957000,0.264872,1.05606335165387,9.88605690495409,0.555383814436544,0.0015271631,-0.02076942,-0.015271631,345.19812,-137.19067,-17.12694,STD
4184869941000,0.269856,1.05319540172146,9.8873713833582,0.553710844100163,0.00030543262,-0.0070249503,-0.014966198,344.98868,-136.86392,-16.851276,STD
4184874941000,0.274856,1.05031824488719,9.88869008159668,0.552032503072494,0.0018325958,-0.010995574,-0.01282817,344.77524,-136.5458,-16.577625,STD
4184879937000,0.279852,1.04744338977838,9.89000772487657,0.550355504717646,-0.00061086525,-0.012217305,-0.015271631,344.55148,-136.23112,-16.302172,STD
4184884922000,0.284837,1.04457486441461,9.89132246702034,0.54868219871306,-0.004276057,-0.005497787,-0.005192355,344.32407,-135.91913,-16.023558,STD
4184889976000,0.289891,1.04166663428653,9.8926554071998,0.546985731602291,0.002443461,-0.002443461,-0.0070249503,344.089,-135.61502,-15.749562,STD
4184894954000,0.294869,1.03880213694233,9.89396830316603,0.545314775275143,-0.002443461,0.007941248,-0.013744468,343.84616,-135.31042,-15.472499,STD
4184899949000,0.299864,1.03592785726489,9.89528568270627,0.543638112588502,-0.0021380284,0.004276057,-0.016187929,343.6005,-135.01276,-15.19788,STD
4184905126000,0.305041,1.03294884907868,9.89665106286239,0.541900358288453,-0.0030543262,0.014049901,-0.01282817,343.3438,-134.7175,-14.919597,BSC
4184910155000,0.31007,1.03005500473477,9.89797740955066,0.540212282882822,0.0027488936,0.028405234,-0.015577064,343.07962,-134.4289,-14.643762,BSC
4184915062000,0.314977,1.02723136301762,9.8992715800019,0.538565158998268,-0.003970624,0.025350908,-0.026267206,342.81064,-134.14093,-14.371248,BSC
4184920065000,0.31998,1.02435247988924,9.90059106945933,0.536885810965981,0.0009162979,0.036651913,-0.029932396,342.53076,-133.86081,-14.093207,BSC
4184925073000,0.324988,1.02147071960403,9.90191187761499,0.535204784592668,-0.008857546,0.03359759,-0.025350908,342.24884,-133.57878,-13.819871,BSC
4184930069000,0.329984,1.01859586449523,9.90322952089488,0.53352778623782,0.00061086525,0.03573562,-0.03604105,341.95428,-133.30853,-13.548305,BSC
4184935066000,0.334981,1.01572043395506,9.90454742791442,0.531850452214767,-0.00030543262,0.044898596,-0.03726278,341.6563,-133.03488,-13.273896,BSC
4184940155000,0.34007,1.01279206372913,9.90588959898154,0.530142236716805,0.004276057,0.043676864,-0.040927973,341.3525,-132.76978,-13.00474,BSC
4184945112000,0.345027,1.00993965044363,9.90719695641517,0.528478329421973,0.005192355,0.053145275,-0.04184427,341.03952,-132.50644,-12.732415,BSC
4184950564000,0.350479,1.00680239863154,9.90863486497441,0.526648266365403,-0.00580322,0.060170226,-0.047647487,340.7207,-132.24492,-12.463531,BSC
4184955119000,0.355034,1.00418130875552,9.90983619906967,0.525119297689196,-0.0033597588,0.06566802,-0.057726767,340.39426,-131.99069,-12.195216,BSC
4184960092000,0.360007,1.00131968856815,9.91114777633766,0.523450019703075,-0.004886922,0.073303826,-0.063224554,340.06067,-131.73535,-11.926385,BSC
4184965071000,0.364986,0.998454615792584,9.91246093604354,0.521778727707722,-0.00030543262,0.08093964,-0.064446285,339.72,-131.48561,-11.658686,BSC
4184970062000,0.369977,0.995582637840612,9.91377726062519,0.520103407693902,0.0036651916,0.08857546,-0.07422013,339.37033,-131.23914,-11.3935375,BSC
4184975055000,0.37497,0.992709509025907,9.91509411268614,0.518427416343672,0.0030543262,0.08857546,-0.07422013,339.0177,-130.99442,-11.127417,BSC
4184980065000,0.37998,0.989826597877966,9.9164154483211,0.516745718633947,0.011911872,0.09315695,-0.07941248,338.65503,-130.75702,-10.863224,BSC
4184985068000,0.384983,0.986947714749592,9.91773493777852,0.51506637060166,0.011911872,0.10629055,-0.08979719,338.2851,-130.51971,-10.59953,BSC
4184990149000,0.390064,0.984023947974604,9.91907499892847,0.513360840449343,0.014966198,0.10323623,-0.10262536,337.9121,-130.28844,-10.340532,BSC
4184995124000,0.395039,0.981161176924502,9.92038710367576,0.511690891126811,0.027794369,0.10293079,-0.109650314,337.5305,-130.0622,-10.080538,BSC
4185000077000,0.399992,0.978311065364471,9.9216934061508,0.510028326504802,0.03481932,0.12003502,-0.121256754,337.13837,-129.83847,-9.822648,BSC
4185005084000,0.404999,0.97542988051063,9.92301395056681,0.508347635799694,0.04734206,0.11911872,-0.14202617,336.74356,-129.62271,-9.572458,BSC
4185010206000,0.410121,0.972482521049601,9.92436482504231,0.506628343250949,0.060170226,0.12370021,-0.15302174,336.33948,-129.41064,-9.319397,BSC
4185015062000,0.414977,0.969688226332155,9.92564554477152,0.504998338444876,0.06811147,0.1301143,-0.16401732,335.92783,-129.20358,-9.071481,BSC
4185020635000,0.42055,0.966481347324674,9.92711536582813,0.503127659535436,0.09254608,0.1328632,-0.17256944,335.51096,-129.00644,-8.825943,BSC
4185025084000,0.424999,0.963921253173538,9.92828874352074,0.501634271689015,0.10567969,0.14660765,-0.183565,335.08435,-128.81032,-8.580945,BSC
4185030066000,0.429981,0.961054454103869,9.92960269444556,0.499961972689045,0.12858713,0.14844026,-0.2012801,334.6539,-128.62553,-8.341581,BSC
4185034992000,0.434907,0.958219879190743,9.93090187595011,0.498308471108585,0.1563815,0.14874569,-0.21899518,334.21567,-128.44711,-8.103107,BSC
4185040203000,0.440118,0.966055740565129,9.9037769200515,0.49288721801052,0.17684549,0.15241088,-0.23548855,333.77045,-128.27446,-7.867933,BSC
4185045114000,0.445029,0.975679003133063,9.87232528583834,0.487019375053025,0.19303341,0.15760323,-0.25686884,333.31815,-128.1099,-7.637959,BSC
4185050139000,0.450054,0.985525652370258,9.84014355871124,0.481015320713498,0.2134974,0.16584991,-0.258396,333.04153,-127.79729,-7.4217386,BSC
4185055092000,0.455007,0.995231215290025,9.80842294289821,0.475097294615254,0.23396139,0.16187929,-0.27458394,332.75775,-127.49446,-7.216027,BSC
4185060103000,0.460018,1.00505043107661,9.7763308763044,0.46910996798931,0.25167647,0.16829337,-0.3005457,332.46524,-127.20022,-7.010823,BSC
4185065063000,0.464978,1.01476971072168,9.74456543022472,0.463183578034275,0.26236662,0.16920967,-0.31795537,332.17114,-126.91308,-6.8100533,BSC
4185070072000,0.469987,1.02458500744389,9.71248617227853,0.4571986410817,0.29138273,0.17440203,-0.33261612,331.86823,-126.640144,-6.613789,BSC
4185075069000,0.474984,1.03437678977987,9.68048376621802,0.451228042169339,0.29718593,0.17531833,-0.3491095,331.56055,-126.36748,-6.4235015,BSC
4185080060000,0.479975,1.04415681492272,9.64851978610034,0.445264612277085,0.31398472,0.18906279,-0.35185838,331.2462,-126.10867,-6.2312956,BSC
4185085083000,0.484998,1.05399954509554,9.61635086762086,0.439262947610927,0.3231477,0.19150625,-0.36163223,330.9281,-125.853134,-6.047149,BSC
4185090665000,0.49058,1.06493765376062,9.58060193213361,0.432593369238144,0.34330627,0.18509217,-0.3921755,330.60278,-125.60901,-5.868566,BSC
4185095168000,0.495083,1.07376142719646,9.55176326203345,0.427213019647917,0.37812558,0.18509217,-0.39614612,330.276,-125.373116,-5.685441,BSC
4185100063000,0.499978,1.08335333724941,9.52041409700118,0.421364294077373,0.3912592,0.18387043,-0.4071417,329.94272,-125.140884,-5.5130897,BSC
4185105081000,0.504996,1.0931862697613,9.48827720014073,0.415368603594638,0.41447207,0.1704314,-0.4196644,329.60947,-124.92361,-5.3446913,BSC
4185110160000,0.510075,1.10313873373657,9.45574963952809,0.40930002807415,0.4364632,0.18081611,-0.43493605,329.26663,-124.712265,-5.176512,BSC
4185115070000,0.514985,1.11276003677232,9.42430440963873,0.403433379953338,0.46944994,0.18051068,-0.45204028,328.92532,-124.51308,-5.0161977,BSC
4185120073000,0.519988,1.12256357630141,9.39226357763538,0.39745561202087,0.5012149,0.17592919,-0.46578476,328.57886,-124.32194,-4.858224,BSC
4185125084000,0.524999,1.13238279208799,9.36017151104157,0.391468285394927,0.5207626,0.17348573,-0.47952923,328.22748,-124.138855,-4.704431,BSC
4185130063000,0.529978,1.14213930284461,9.32828438280958,0.385519193542886,0.5513059,0.16554448,-0.5002986,327.87354,-123.97,-4.5575175,BSC
4185135087000,0.535002,1.15198399254962,9.29610906000629,0.379516334040044,0.56688297,0.15363261,-0.51893,327.5178,-123.80404,-4.414662,BSC
4185140199000,0.540114,1.16200112108704,9.26337015670804,0.373408328908967,0.59620446,0.1423316,-0.52534413,327.16098,-123.65192,-4.2751317,BSC
4185145168000,0.545083,1.17173803652179,9.2315470717141,0.367471185423772,0.6273586,0.12797627,-0.5558874,326.79968,-123.50723,-4.1482296,BSC
4185150063000,0.549978,1.18132994657474,9.20019790668184,0.361622459853228,0.63407815,0.11942416,-0.58184916,326.4382,-123.364655,-4.0226245,BSC
4185155099000,0.555014,1.19119815066599,9.16794573199287,0.355605262310172,0.64812803,0.116980694,-0.59681535,326.0745,-123.23421,-3.902791,BSC
4185160157000,0.560072,1.20110946446534,9.13555266218017,0.349561778360058,0.6646214,0.12492194,-0.6249151,325.70325,-123.1082,-3.7917504,BSC
4185165066000,0.564981,1.2107288079689,9.10411383661462,0.343696325075931,0.6792821,0.1414153,-0.64751714,325.32806,-122.98631,-3.6816707,BSC
4185170063000,0.569978,1.22052059030487,9.0721114305541,0.33772572616357,0.70554936,0.14508049,-0.66553766,324.94962,-122.873436,-3.5775142,BSC
4185175070000,0.574985,1.23033196796271,9.04004498125552,0.331743178884364,0.7290677,0.14813483,-0.6792821,324.56372,-122.7646,-3.4747536,BSC
4185180061000,0.579976,1.24011199310556,9.00808100113784,0.32577974899211,0.7443393,0.15699236,-0.71868294,324.16815,-122.66219,-3.3804662,BSC
4185185085000,0.585,1.24995668281057,8.97590567833456,0.319776889489268,0.7840455,0.16676621,-0.75319684,323.76965,-122.573395,-3.2870312,BSC
4185190142000,0.590057,1.25986603707774,8.94351901284566,0.313734600375838,0.84971356,0.1695151,-0.79717916,323.36273,-122.49742,-3.2042856,BSC
4185195090000,0.595005,1.26956180233657,8.91183041865165,0.307822548461016,0.91874135,0.16035213,-0.8359691,322.95154,-122.43393,-3.1279466,BSC
4185200060000,0.599975,1.27930067730351,8.88000092933391,0.301884210139136,0.9957104,0.16646078,-0.88025683,322.52835,-122.391754,-3.0595546,BSC
4185205081000,0.604996,1.28913948841196,8.84784481950204,0.295884935146348,1.0906999,0.19761491,-0.93523467,322.0938,-122.37431,-2.9991927,BSC
4185210183000,0.610098,1.29913702162752,8.81516995944186,0.289788878382116,1.1820242,0.18753563,-0.9896017,321.66147,-122.37706,-2.9529524,BSC
4185215062000,0.614977,1.30869757916548,8.78392326359049,0.283959270198524,1.2296717,0.1282817,-1.0403035,321.22626,-122.3933,-2.9197958,BSC
4185220071000,0.619986,1.31851287588769,8.7518440056443,0.277974333245949,1.3252722,0.028099801,-1.0870347,320.79648,-122.44763,-2.904128,BSC
4185225071000,0.624986,1.32831053682023,8.71982238661237,0.272000149823534,1.4062119,-0.057726767,-1.1169671,320.37344,-122.509186,-2.9007115,BSC
4185230047000,0.629962,1.33806116898028,8.68795447135179,0.266054642481547,1.4608842,-0.106901415,-1.1560625,319.9585,-122.588684,-2.9172401,BSC
4185234987000,0.634902,1.34774125798162,8.65631711174824,0.260152149260202,1.4413365,-0.118507855,-1.1963795,319.55188,-122.66736,-2.9450805,BSC
4185240145000,0.64006,1.2578795608931,8.5926078460442,0.209586195633288,1.3683381,-0.113926366,-1.2345587,319.14917,-122.74368,-2.9830463,BSC
4185245175000,0.64509,1.13668469440686,8.52018062571644,0.145367405155165,1.3368785,-0.09468412,-1.2559389,318.74368,-122.823425,-3.0222404,BSC
4185250059000,0.649974,1.01900761132161,8.44985566665464,0.083012619331078,1.3267993,-0.016798794,-1.2574661,318.40347,-122.88974,-3.0270677,BSC
4185255187000,0.655102,0.895451492963464,8.37601733944971,0.01754264764682,1.3393221,0.0842994,-1.2400564,318.05426,-122.94986,-3.0225074,BSC
4185260080000,0.659995,0.777557560216509,8.30556278894001,-0.0449270425737484,1.3246613,0.20158553,-1.212262,317.68524,-122.99532,-2.9981055,BSC
4185265065000,0.66498,0.657446942038791,8.23378352585175,-0.108571311069463,1.2687671,0.26053402,-1.1548407,317.3147,-123.02731,-2.9529347,BSC
4185270062000,0.669977,0.5370471909788,8.16183147416629,-0.172368785427154,1.1527027,0.27580565,-1.073901,316.93567,-123.03252,-2.8816934,BSC
4185275653000,0.675568,0.402335362246279,8.08132638691926,-0.243749949952639,1.0531317,0.23060162,-1.028697,316.56146,-123.022156,-2.8037157,BSC
4185280066000,0.679981,0.296006744790257,8.0177833802977,-0.300091405694181,1.0094548,0.18784106,-0.93309665,316.20416,-122.98819,-2.6903152,BSC
4185285067000,0.684982,0.175510616102842,7.94577373241317,-0.36393994867253,0.9450085,0.16615535,-0.84513205,315.8591,-122.91675,-2.5709262,BSC
4185290132000,0.690047,0.0534724453766349,7.87284254534356,-0.428605589581416,0.9007208,0.15393804,-0.7809912,315.53345,-122.8351,-2.4391925,BSC
4185295153000,0.695068,-0.0675055714479027,7.80054491646369,-0.492709475663058,0.8750645,0.18295415,-0.7324274,315.21417,-122.73744,-2.287324,BSC
4185300079000,0.699994,-0.18619461962111,7.72961519731168,-0.55560048200406,0.8741482,0.28527406,-0.7012733,314.88696,-122.63229,-2.1155305,BSC
4185305075000,0.70499,-0.306570276274244,7.65767754467599,-0.619385189206586,0.8894198,0.41813725,-0.68203104,314.55035,-122.523026,-1.9269066,BSC
4185310162000,0.710077,-0.429138523951285,7.5844295785115,-0.684331707529093,0.9230174,0.54458636,-0.6713409,314.19318,-122.4176,-1.7197174,BSC
4185315064000,0.714979,-0.547249306359946,7.5138454365539,-0.746916302146144,0.97249746,0.6469063,-0.67073005,313.81015,-122.31997,-1.4956807,BSC
4185320064000,0.719979,-0.667721340640505,7.44185018771914,-0.810752077969328,1.0247264,0.7125743,-0.6942484,313.40234,-122.23167,-1.2635508,BSC
4185325094000,0.725009,-0.788916207126748,7.36942296739137,-0.874970868447452,1.1059716,0.70707655,-0.7357872,312.98337,-122.16434,-1.0334173,BSC
4185330065000,0.72998,-0.90868950360848,7.29784529099985,-0.938436396770862,1.2125676,0.6010914,-0.79045963,312.56653,-122.11752,-0.8199308,BSC
4185335061000,0.734976,-1.02906516026161,7.22590763836416,-1.00222110397339,1.3130548,0.37507126,-0.850019,312.17264,-122.090126,-0.63891256,BSC
4185340095000,0.74001,-1.15035640437528,7.15342282183732,-1.06649096307217,1.4056009,0.0693332,-0.91996306,311.81384,-122.08855,-0.50333846,BSC
4185345648000,0.745563,-1.28415264564727,7.07346489848143,-1.1373869757014,1.4456125,-0.2724459,-0.99387777,311.50928,-122.09803,-0.42355236,BSC
4185350055000,0.74997,-1.39033669666216,7.01000828615847,-1.19365182851195,1.4511104,-0.63132924,-1.0574077,311.27472,-122.1216,-0.40673262,BSC
4185355060000,0.754975,-1.510929202977,6.93794104207488,-1.25755144011096,1.4147639,-0.95081174,-1.110553,311.1048,-122.142654,-0.44970766,BSC
4185360046000,0.759961,-1.63106391556157,6.86614737993685,-1.32120847576184,1.3515394,-1.2394456,-1.1459832,311.0088,-122.15639,-0.5510339,BSC
4185365043000,0.764958,-1.75146366662156,6.79419532825139,-1.38500595011953,1.2986995,-1.4132367,-1.1468995,310.96097,-122.1623,-0.6845018,BSC
4185370062000,0.769977,-1.87239349463239,6.72192649747106,-1.44908430189084,1.2425,-1.4669929,-1.1212431,310.95428,-122.149666,-0.8414993,BSC
4185375047000,0.774962,-1.9925041128101,6.6501472343828,-1.51272857038656,1.20371,-1.5100589,-1.1050552,310.98712,-122.12812,-1.0212321,BSC
4185380060000,0.779975,-2.11328937437979,6.57796479790107,-1.57673031922688,1.1264355,-1.4941764,-1.0558805,311.02908,-122.08032,-1.1814367,BSC
4185385104000,0.785019,-2.23482156256202,6.50533599087656,-1.64112784987731,1.0488557,-1.4083499,-1.0210613,311.06604,-122.02285,-1.332731,BSC
4185390151000,0.790066,-2.35642603396482,6.43266398670275,-1.70556368199323,0.97158116,-1.2098186,-1.0067059,311.0771,-121.94486,-1.4535774,BSC
4185395154000,0.795069,-2.47697035146594,6.36062554071869,-1.76943775928191,0.93462384,-0.9089675,-0.9896017,311.0488,-121.8577,-1.533393,BSC
4185400233000,0.800148,-2.59934584388814,6.28749276695234,-1.8342821403631,0.96852684,-0.64568454,-0.97158116,310.9841,-121.77047,-1.5823975,BSC
4185404957000,0.804872,-2.71316782187641,6.21947165585326,-1.89459418136085,1.0488557,-0.50671273,-0.94806284,310.8801,-121.68718,-1.5973545,BSC
4185409955000,0.80987,-2.83359166734326,6.14750520511803,-1.9584044228737,1.1258247,-0.50976706,-0.9282097,310.74878,-121.61328,-1.5893925,BSC
4185414944000,0.814859,-2.9537986631484,6.0756683458307,-2.02209975999008,1.1945469,-0.61391956,-0.91538155,310.61072,-121.55997,-1.5709438,BSC
4185419974000,0.819889,-3.07499352963464,6.00324112550293,-2.0863185504682,1.20371,-0.7626653,-0.93126404,310.483,-121.511566,-1.5611184,BSC
4185424976000,0.824891,-3.19551375272891,5.93121707856864,-2.15017986060171,1.1484267,-0.9575313,-0.9963212,310.38672,-121.46461,-1.5817568,BSC
4185429968000,0.829883,-3.31579303175462,5.85933702213201,-2.21391349918358,1.0571023,-1.0619892,-1.0732902,310.30072,-121.41024,-1.6166797,BSC
4185434926000,0.834841,-3.43525310094723,5.78794653338746,-2.27721305448985,0.9645562,-1.0262536,-1.1203269,310.2232,-121.340866,-1.6663688,BSC
4185440043000,0.839958,-3.51218155412689,5.81145082907815,-2.30395405282974,0.9315695,-0.9767735,-1.135293,310.16187,-121.264496,-1.7379279,BSC
4185444974000,0.844889,-3.57662386570826,5.85441236191628,-2.32165798786028,0.9184359,-0.97310835,-1.1261301,310.1003,-121.16954,-1.8138173,BSC
4185449972000,0.849887,-3.64194178768832,5.89795763490857,-2.33960247524268,0.9071349,-0.97249746,-1.105666,310.41922,-121.415405,-2.5221243,BSC
4185455062000,0.854977,-3.7084620403651,5.94230446154538,-2.3578772733172,0.8717047,-0.8912524,-1.0965031,310.7142,-121.65901,-3.2071888,BSC
4185460067000,0.859982,-3.77387144402861,5.98591072231498,-2.37584689303488,0.80970186,-0.74464476,-1.0940597,310.99252,-121.899025,-3.867791,BSC
4185465079000,0.864994,-3.83937232937557,6.02957797086187,-2.39384164508783,0.73792523,-0.65301496,-1.103528,311.2617,-122.133125,-4.5140786,BSC
4185470069000,0.869984,-3.90458570086027,6.07305354353725,-2.41175740980135,0.66920286,-0.43554693,-1.1078042,311.46356,-122.35602,-5.106595,BSC
4185475071000,0.874986,-3.96995589808802,6.11663366668799,-2.4297162585182,0.6560693,-0.24709499,-1.1325442,311.64392,-122.58129,-5.685997,BSC
4185480062000,0.879977,-4.03518233838464,6.16011795190299,-2.44763561356534,0.65179324,-0.113926366,-1.1578951,311.78268,-122.79471,-6.231533,BSC
4185485089000,0.885004,-4.1008792559104,6.20391588854409,-2.46568422062243,0.66706485,-0.0021380284,-1.210735,311.8717,-123.01687,-6.754195,BSC
4185490078000,0.889993,-4.16607955858318,6.24738274867986,-2.48359639500235,0.7110472,0.07971791,-1.2483032,311.93338,-123.24979,-7.25368,BSC
4185495086000,0.895001,-4.23152816868246,6.29101514706829,-2.50157678572086,0.7761043,0.16371189,-1.2794572,311.95978,-123.49834,-7.7371807,BSC
4185500119000,0.900034,-4.29730349907975,6.33486535894708,-2.51964693477961,0.8219192,0.26236662,-1.3158038,311.95605,-123.75855,-8.206528,BSC
4185505088000,0.905003,-4.36224242551411,6.37815796829056,-2.53748730248733,0.86498517,0.37812558,-1.3426818,311.9247,-124.03853,-8.656022,BSC
4185510137000,0.910052,-4.42822685690214,6.42214758080318,-2.55561489688384,0.872621,0.44806966,-1.366811,311.87595,-124.32408,-9.096193,BSC
4185515079000,0.914994,-4.49281292541464,6.46520495157707,-2.57335832558409,0.88514376,0.46731192,-1.3775011,311.81036,-124.62318,-9.520523,BSC
4185520058000,0.919973,-4.55788253996821,6.50858468631669,-2.59123459662791,0.89827734,0.44440445,-1.4025466,311.73315,-124.926575,-9.941012,BSC
4185525079000,0.924994,-4.62350104462245,6.55233034772012,-2.60926166168335,0.88606006,0.44318274,-1.4416419,311.64352,-125.22721,-10.352346,BSC
4185530061000,0.929976,-4.68860986561178,6.59573622007858,-2.62714870372799,0.8732319,0.45814893,-1.4856243,311.55215,-125.53239,-10.763156,BSC
4185535063000,0.934978,-4.75398006283953,6.63931634322933,-2.64510755244484,0.8426886,0.43401974,-1.5259414,311.4664,-125.83111,-11.180107,BSC
4185540141000,0.940056,-4.82034348977326,6.68355861939076,-2.66333926651604,0.83016586,0.40103304,-1.536326,311.37854,-126.13074,-11.590623,BSC
4185545134000,0.945049,-4.88559606769372,6.72706032968498,-2.6812658022304,0.8072584,0.4166101,-1.5393804,311.28113,-126.420746,-11.996061,BSC
4185550116000,0.950031,-4.95070488868306,6.77046620204345,-2.69915284427505,0.77304995,0.4184427,-1.5430456,311.19495,-126.703766,-12.402721,BSC
4185555083000,0.954998,-5.01561767749358,6.8137413863077,-2.71698603131555,0.7312057,0.36651915,-1.5470163,311.1192,-126.97717,-12.807684,BSC
4185560081000,0.959996,-5.08093559947364,6.85728665929999,-2.73493051869795,0.66889745,0.28191432,-1.5445728,311.0532,-127.23396,-13.208536,BSC
4185565083000,0.964998,-5.14630579670139,6.90086678245074,-2.7528893674148,0.6267477,0.25045475,-1.5512923,310.98648,-127.48485,-13.603666,BSC
4185570061000,0.969976,-5.21136234244304,6.94423780465074,-2.77076204812501,0.61361414,0.18967366,-1.5552629,310.94974,-127.72531,-14.007698,BSC
4185575104000,0.975019,-5.27726836095954,6.98817514192568,-2.78886810051986,0.5928447,0.15882497,-1.5460999,310.91614,-127.95088,-14.401872,BSC
4185580063000,0.979978,-5.3420765992747,7.03138062587301,-2.80667256489148,0.5888741,0.12767084,-1.5384641,310.89792,-128.17712,-14.798794,BSC
4185585064000,0.984979,-5.40743372769052,7.07495203648415,-2.82462782327472,0.61727935,0.09987647,-1.5586227,310.88467,-128.40768,-15.196089,BSC
4185590100000,0.990015,-5.47324826452358,7.11882838598178,-2.8427087433343,0.62888575,0.062002823,-1.577254,310.88458,-128.63084,-15.589745,BSC
4185595109000,0.995024,-5.53870994343477,7.16246949690983,-2.86069272438642,0.6453791,0.007941248,-1.6136005,310.89023,-128.86615,-15.991197,BSC
4185600960000,1.000875,-5.61517556198326,7.21344656619313,-2.88169976633809,0.6575964,-0.052839845,-1.6523905,310.90466,-129.10477,-16.39667,BSC
4185605099000,1.005014,-5.66926737452338,7.24950776765673,-2.89656015714957,0.6722572,-0.09010262,-1.6759088,310.92453,-129.34956,-16.803665,BSC
4185610126000,1.010041,-5.73496429204915,7.29330570429784,-2.91460876420666,0.6826419,-0.11789699,-1.6951511,310.9526,-129.59944,-17.218637,BSC
4185615057000,1.014972,-5.79940660363052,7.33626723713597,-2.93231269923721,0.66737026,-0.1423316,-1.706452,310.988,-129.84702,-17.634289,BSC
4185620054000,1.019969,-5.86471145679866,7.37980379758865,-2.950253596286,0.6792821,-0.15393804,-1.7217237,311.02484,-130.1055,-18.049177,BSC
4185625049000,1.024964,-5.92999017234297,7.4233229329621,-2.96818731266758,0.64599,-0.10170906,-1.745242,311.05057,-130.3498,-18.453297,BSC
4185630060000,1.029975,-5.995477988878,7.46698146896938,-2.98617847438692,0.59620446,0.032986723,-1.7675385,311.05853,-130.5931,-18.840027,BSC
4185635071000,1.034986,-6.06096580541304,7.51064000497666,-3.00416963610625,0.56291234,0.20738874,-1.781283,311.04343,-130.8324,-19.206104,BSC
4185640119000,1.040034,-6.081825874387,7.44383982220754,-3.05128659493386,0.550695,0.34269542,-1.8154916,310.99948,-131.06863,-19.55765,BSC
4185645151000,1.045066,-6.09388573961421,7.35580282418255,-3.10386759614208,0.5039638,0.42394048,-1.853976,310.92526,-131.28839,-19.885313,BSC
4185650124000,1.050039,-6.10580420340095,7.26879805646031,-3.15583208720101,0.46578476,0.44898596,-1.9147571,311.10403,-131.5112,-20.397581,BSC
4185655070000,1.054985,-6.11765795805393,7.1822656653173,-3.20751444649669,0.40591997,0.4642576,-1.9511036,311.25937,-131.72298,-20.886118,BSC
4185660073000,1.059988,-6.12964832087819,7.09473603472925,-3.25979241729255,0.37384954,0.49021935,-1.9544634,311.3979,-131.93947,-21.360624,BSC
4185665063000,1.064978,-6.14160752745287,7.00743384471639,-3.31193454686907,0.34330627,0.52656585,-1.9553796,311.52118,-132.15004,-21.8248,BSC
4185670698000,1.070613,-6.15511256333428,6.90884710308864,-3.37081649078965,0.32436943,0.5155703,-1.9504927,311.64786,-132.35794,-22.279154,BSC
4185675074000,1.074989,-6.16560023627432,6.83228710639599,-3.41654273508361,0.29260445,0.47525316,-1.9730947,311.76563,-132.56238,-22.7266,BSC
4185680064000,1.079979,-6.17755944284899,6.74498491638313,-3.46868486466013,0.27763826,0.40408736,-1.983174,311.89526,-132.76563,-23.165615,BSC
4185685061000,1.084976,-6.18953542586575,6.65756025836824,-3.5209001395086,0.27580565,0.3943135,-1.9633209,312.01956,-132.96506,-23.587917,BSC
4185690084000,1.089999,-6.2015737213817,6.56968071920299,-3.57338709679575,0.30909783,0.42424592,-1.9333885,312.1503,-133.17085,-24.004385,BSC
4185695098000,1.095013,-6.21359044718639,6.48195863889748,-3.62578001016181,0.40286562,0.4120286,-1.8985692,312.29755,-133.38725,-24.413452,BSC
4185700064000,1.099979,-6.22549213453105,6.39507633917727,-3.67767135594879,0.52320606,0.32467487,-1.8707749,312.45966,-133.6141,-24.815243,BSC
4185705150000,1.105065,-6.2376814180258,6.30609458799381,-3.73081662068349,0.5934556,0.33841935,-1.8197676,312.60992,-133.84068,-25.179388,BSC
4185710127000,1.110042,-6.24960946835088,6.21901983855613,-3.78282290904068,0.66798115,0.34788775,-1.7773124,312.7867,-134.09143,-25.54626,BSC
4185715058000,1.114973,-6.26142727348509,6.13274987884603,-3.83434852846789,0.7312057,0.2883284,-1.74738,312.985,-134.34747,-25.906155,BSC
4185720069000,1.119984,-6.27343680938603,6.0450802848271,-3.88671009386027,0.75136423,0.20616703,-1.720502,313.19455,-134.60197,-26.252396,BSC
4185725086000,1.125001,-6.28546072509447,5.95730571823501,-3.93913435520003,0.7800749,0.065973446,-1.7186694,313.43536,-134.8699,-26.61135,BSC
4185730072000,1.129987,-6.29741034513081,5.87007350993759,-3.99123468747829,0.8127562,0.058337633,-1.6930131,313.6738,-135.13216,-26.94356,BSC
4185735047000,1.134962,-6.30933360218672,5.78303375135763,-4.04322007718634,0.838718,0.13683382,-1.6236799,313.93552,-135.3891,-27.26819,BSC
4185740244000,1.140159,-6.3217889121203,5.69211000757069,-4.0975252169477,0.91538155,0.17592919,-1.5796975,314.20996,-135.66225,-27.594715,BSC
4185745101000,1.145016,-6.33342936629529,5.60713470959624,-4.14827758635715,0.98440933,0.15790866,-1.5564847,314.48932,-135.92833,-27.901274,BSC
4185750062000,1.149977,-6.34531907046702,5.52033988702033,-4.2001166855213,1.0341948,0.13408493,-1.57084,314.76227,-136.20345,-28.196001,BSC
4185755086000,1.155001,-6.35735976261756,5.43244285242621,-4.25261409213302,1.0445796,0.30543262,-1.5253305,315.0077,-136.46686,-28.436394,BSC
4185760091000,1.160006,-6.36935491871099,5.34487823098045,-4.304912961578,1.1212431,0.33383787,-1.4743233,315.29523,-136.75415,-28.704119,BSC
4185765073000,1.164988,-6.38129495220899,5.25771600439846,-4.35697149655801,1.1377366,0.3494149,-1.4443909,315.5487,-137.02321,-28.935137,BSC
4185770066000,1.169981,-6.39326134868742,5.17036132809902,-4.40914497410822,1.187522,0.3555236,-1.4132367,315.8095,-137.30304,-29.14848,BSC
4185775078000,1.174993,-6.40527328122294,5.08267423865123,-4.46151698882516,1.2241739,0.35613444,-1.3863586,316.0746,-137.57585,-29.352106,BSC
4185780084000,1.179999,-6.41727083395096,4.9950921217766,-4.51382630759471,1.2504412,0.312763,-1.4214834,316.34445,-137.86006,-29.567547,BSC
4185785003000,1.184918,-6.42905987947016,4.90903210721282,-4.56522653512715,1.2669345,0.28527406,-1.4709635,316.61414,-138.14478,-29.775581,BSC
4185790125000,1.19004,-6.44133544180994,4.8194205205904,-4.61874797554618,1.2721269,0.47861293,-1.4153748,316.85522,-138.41614,-29.93375,BSC
4185795083000,1.194998,-6.45321795607792,4.73267818430107,-4.67055572673664,1.396438,0.50885075,-1.3381003,317.14093,-138.71823,-30.130653,BSC
4185800127000,1.200042,-6.46530658092013,4.64443124112975,-4.72326211983964,1.484708,0.5448918,-1.2852604,317.38483,-139.00449,-30.282982,BSC
4185805076000,1.204991,-6.47716752547686,4.55784636370016,-4.77497582710902,1.5402967,0.53969944,-1.2528846,317.6458,-139.29607,-30.424404,BSC
4185810107000,1.210022,-6.48922499406948,4.46982686110402,-4.82754637899268,1.593442,0.5204572,-1.2373075,317.91113,-139.59567,-30.553944,BSC
4185815071000,1.214986,-6.50112188814497,4.38297955224153,-4.87941682613052,1.6468927,0.505491,-1.2198979,318.18628,-139.89732,-30.676525,BSC
4185820060000,1.219975,-6.51307869808506,4.29569485765752,-4.93154850638248,1.7098118,0.45631635,-1.2391402,318.47226,-140.21292,-30.81412,BSC
4185825082000,1.224997,-6.52511459696642,4.20783281392113,-4.98402501434506,1.7174476,0.3585779,-1.3087788,318.7687,-140.53093,-30.971397,BSC
4185830088000,1.230003,-6.53711214969444,4.1202506970465,-5.03633433311461,1.6771306,0.5830709,-1.2443326,319.0253,-140.82639,-31.052046,BSC
4185834993000,1.234908,-6.54886764232946,4.03443561848676,-5.08758827010315,1.7828102,0.64751714,-1.1948525,319.3295,-141.16658,-31.199524,BSC
4185840125000,1.24004,-6.55906207928751,3.97536371391872,-5.12896678424486,1.840537,0.6627888,-1.1731668,319.60095,-141.47731,-31.306067,BSC
4185844971000,1.244886,-6.5683765143703,3.92413432096337,-5.16622481635725,1.8490891,0.689056,-1.1685852,319.86356,-141.79022,-31.39214,BSC
4185850065000,1.24998,-6.56228209943889,3.99839316749956,-5.18629032377696,1.8454239,0.6979135,-1.1722504,319.99652,-142.4593,-31.624313,BSC
4185855058000,1.254973,-6.55389757157636,4.09062293021217,-5.2030592919516,1.8622227,0.6979135,-1.1801916,320.1263,-143.12253,-31.846882,BSC
4185860087000,1.260002,-6.53511931327377,4.11527039061902,-5.20053320015954,1.8698585,0.700357,-1.1829406,320.25626,-143.78131,-32.075974,BSC
4185865064000,1.264979,-6.50977165660498,4.09499226528398,-5.18532465909381,1.8964312,0.7244862,-1.1835514,320.38,-144.43665,-32.29518,BSC
4185870058000,1.269973,-6.52380536879607,4.03641216482391,-5.53008827194922,1.9281962,0.77182823,-1.1878275,320.53345,-145.05588,-32.49654,BSC
4185875074000,1.274989,-6.55331226609337,3.96264497293202,-6.01695212870598,1.9517145,0.68752885,-1.2406673,320.69946,-145.6766,-32.724255,BSC
4185880093000,1.280008,-6.49670423514569,3.81178251161684,-5.95654478604075,1.9349157,0.65118235,-1.3060299,320.86267,-146.27939,-32.940556,BSC
4185885088000,1.285003,-6.41471503427919,3.63869420396115,-5.7333521860598,1.9251418,0.8940013,-1.2021828,321.01154,-146.85516,-33.08645,BSC
4185890139000,1.290054,-6.26874828108981,3.52733413475724,-5.59190336520108,2.0451767,0.9166033,-1.1731668,321.05167,-147.53603,-33.290874,BSC
4185895125000,1.29504,-6.09462358179829,3.44773423957074,-5.49240341829548,2.097406,0.94806284,-1.153619,321.06174,-148.1698,-33.416187,BSC
4185900135000,1.30005,-5.98430927903814,3.40694970785454,-5.43962706880851,2.144748,0.97219205,-1.138042,321.08762,-148.82208,-33.557667,BSC
4185905075000,1.30499,-5.89572369177097,3.37897529650143,-5.40232775630236,2.2085834,0.95539325,-1.1273518,321.12143,-149.47446,-33.69254,BSC
4185910154000,1.310069,-5.78820288985281,3.388198439614,-5.45352685429379,2.2693644,0.8881981,-1.1203269,321.1684,-150.11081,-33.811928,BSC
4185915056000,1.314971,-5.67837821235988,3.41107858075836,-5.53589545797836,2.313652,0.80848014,-1.1343768,321.22092,-150.74786,-33.935234,BSC
4185920069000,1.319984,-5.56375346918367,3.4514908922449,-5.67368136122449,2.3441954,0.73761976,-1.1414018,321.2957,-151.37192,-34.055016,BSC
4185925075000,1.32499,-5.44812443538033,3.50041075020408,-5.83823016011132,2.3692408,0.6759224,-1.1392636,321.38544,-151.99373,-34.187634,BSC
4185930097000,1.330012,-5.37436318025311,3.48454166492567,-5.96812049291884,2.399784,0.627664,-1.1355985,321.47626,-152.59872,-34.293427,BSC
4185935066000,1.334981,-5.34090508055444,3.40806578031338,-6.06371529877461,2.4294112,0.5870415,-1.1294898,321.58118,-153.19675,-34.40736,BSC
4185940093000,1.340008,-5.36545259020244,3.28234898873186,-6.11959034926471,2.4468207,0.5516113,-1.1255192,321.76852,-153.73125,-34.423115,BSC
4185945091000,1.345006,-5.44315516747517,3.11323121600458,-6.13787347426471,2.475226,0.52412236,-1.1200215,321.96613,-154.26346,-34.445595,BSC
4185949995000,1.34991,-5.58713794518143,3.05692837017167,-6.37055693616855,2.4749205,0.52290064,-1.1252137,322.2649,-154.74655,-34.381012,BSC
4185955087000,1.355002,-5.83448338490051,3.15681789377682,-6.92232748661725,2.4767532,0.51343226,-1.244027,322.53616,-155.24828,-34.34669,BSC
4185960070000,1.359985,-6.08818297694616,3.14374348630651,-7.20198867349465,2.4614816,0.39950588,-1.2852604,322.98294,-155.69989,-34.236843,BSC
4185965058000,1.364973,-6.36148219626712,2.94660965156631,-7.04965790433315,2.3915374,0.5867361,-1.1884383,323.37573,-156.13274,-34.067696,BSC
4185970054000,1.369969,-6.58225253422178,2.76125057798618,-6.94240222722387,2.4947736,0.58459806,-1.1212431,323.7603,-156.63596,-33.838898,BSC
4185975054000,1.374969,-6.63477441641988,2.61418986722606,-6.97916739120325,2.5347853,0.60048056,-1.1007792,324.11685,-157.1,-33.583393,BSC
4185979995000,1.37991,-6.67686515120393,2.45032604373464,-7.03296681100737,2.5561657,0.65179324,-1.0800097,324.3847,-157.68852,-33.36295,BSC
4185985065000,1.38498,-6.70549672427518,2.25467686142506,-7.11408985051597,2.5702155,0.70432764,-1.0387764,324.66367,-158.27103,-33.163586,BSC
4185990118000,1.390033,-6.71073549141195,2.11996407210269,-7.17563472676147,2.5851817,0.74067414,-1.0076222,324.8089,-158.94388,-32.94715,BSC
4185995925000,1.39584,-6.6747869493028,2.07374434176748,-7.21158332249515,2.6163359,0.752586,-0.9801333,324.9721,-159.6057,-32.749523,BSC
4185999964000,1.399879,-6.61925484132012,2.02630431732911,-7.24301927093083,2.652377,0.7498371,-0.9660834,325.00726,-160.3625,-32.53804,BSC
4186005080000,1.404995,-6.42902191968938,1.90615735474609,-7.3080987950751,2.7003298,0.73426,-0.9416488,325.073,-161.10619,-32.350502,BSC
4186010066000,1.409981,-6.29093606592501,1.82677491351463,-7.35909140057684,2.737287,0.7012733,-0.9068295,325.12485,-161.86356,-32.135536,BSC
4186015059000,1.414974,-6.28699568989699,1.85435783372888,-7.3748531515616,2.7714956,0.700357,-0.9062186,325.1892,-162.61542,-31.945326,BSC
4186019989000,1.419904,-6.28310503221261,1.88159272190358,-7.39041602605686,2.803566,0.6722572,-0.9062186,325.1971,-163.39874,-31.7337,BSC
4186025115000,1.42503,-6.20638392741159,1.8359633917556,-7.40596168968403,2.828917,0.6423248,-0.90285885,325.22534,-164.16852,-31.547201,BSC
4186030061000,1.429976,-6.11718060780498,1.77649459826324,-7.42082866813141,2.8603766,0.6337727,-0.890947,325.2734,-164.92696,-31.383804,BSC
4186035081000,1.434996,-6.05275477782376,1.69156229330919,-7.42584159717193,2.878397,0.6270532,-0.8707884,325.29083,-165.70091,-31.19481,BSC
4186040128000,1.440043,-5.99024303965339,1.60404575543197,-7.43000913631661,2.8942795,0.6160576,-0.8597928,325.32703,-166.46184,-31.030657,BSC
4186045110000,1.445025,-5.99329524758345,1.48976223220356,-7.40765117436002,2.9303205,0.5830709,-0.86070913,325.31595,-167.25676,-30.84474,BSC
4186050094000,1.450009,-6.03728218618677,1.35780121225681,-7.36855162801556,2.9471195,0.53878313,-0.84757555,325.33194,-168.02664,-30.683344,BSC
4186055049000,1.454964,-6.0246695579992,1.29034420984362,-7.52531768364074,2.9859092,0.49968776,-0.8597928,325.2978,-168.84387,-30.509495,BSC
4186060136000,1.460051,-5.98071866328188,1.25616008996592,-7.79390700028067,2.9895744,0.41386122,-0.93401295,325.2719,-169.64218,-30.382141,BSC
4186065362000,1.465277,-5.96286127201145,0.962349121603436,-7.74213873471725,2.9718595,0.64965516,-0.7806858,325.2678,-170.4463,-30.194357,BSC
4186070063000,1.469978,-5.95825747440434,0.589441236607015,-7.55798663814296,3.0946434,0.68233645,-0.7648033,325.2334,-171.29346,-30.112988,BSC
4186075046000,1.474961,-6.02557725048831,0.390631113654927,-7.53467963622373,3.1010575,0.6627888,-0.73731434,325.18427,-172.10751,-29.921848,BSC
4186080060000,1.479975,-6.12505259672487,0.276945160536648,-7.58678596310545,3.1129694,0.6609562,-0.7324274,325.1491,-172.93146,-29.73353,BSC
4186085054000,1.484969,-6.09969130034483,0.184287491525862,-7.72037601551724,3.1471777,0.65118235,-0.7134906,325.11127,-173.82486,-29.578434,BSC
4186090102000,1.490017,-6.01170930218391,0.100936245219349,-7.8963394316092,3.157257,0.6728681,-0.6921103,325.09372,-174.68947,-29.429863,BSC
4186095069000,1.494984,-5.95446682501202,-0.0161221411035278,-7.98936360299913,3.189633,0.68600166,-0.6728681,325.06024,-175.60335,-29.288855,BSC
4186100063000,1.499978,-5.91768778881092,-0.158641014394886,-8.02614268720561,3.2125404,0.6780604,-0.6612616,325.0501,-176.48982,-29.161402,BSC
4186105060000,1.504975,-5.88088665867538,-0.301245501747092,-8.06294386537537,3.2189543,0.6395759,-0.6407976,325.0125,-177.39388,-28.989935,BSC
4186110206000,1.510121,-5.84298819646256,-0.448102154121407,-8.1008423770547,3.223536,0.6188065,-0.6264423,324.99542,-178.27644,-28.830776,BSC
4186115066000,1.514981,-5.82489482660421,-0.706815119141519,-8.06622633489487,3.2485814,0.6246097,-0.63407815,324.94638,-179.18423,-28.679478,BSC
4186120067000,1.519982,-5.83011256021353,-1.13466960200458,-7.93578299466173,3.2519412,0.47036624,-0.74464476,324.88638,179.92491,-28.591068,BSC
4186125062000,1.524977,-5.88466843214426,-1.54089772317698,-7.82931899664959,3.1719177,0.6035349,-0.6918049,324.85425,179.02519,-28.380816,BSC
4186130066000,1.529981,-5.97439284448167,-1.93285224623571,-7.73959463362239,3.2241468,0.6976081,-0.6291912,324.8095,178.10611,-28.237566,BSC
4186135249000,1.535164,-6.08093709761835,-2.19861358103499,-7.68863585686563,3.2494977,0.6918049,-0.625526,324.7332,177.13646,-28.10791,BSC
4186140175000,1.54009,-6.19190535019112,-2.35119477744781,-7.67014107568362,3.2406402,0.67164636,-0.63713247,324.69177,176.19678,-27.966763,BSC
4186145126000,1.545041,-6.23904918284177,-2.45561975284974,-7.61115674577521,3.2192597,0.61086524,-0.64873886,324.6243,175.17625,-27.880142,BSC
4186150064000,1.549979,-6.22962516040255,-2.51687653834197,-7.51691524210841,3.222925,0.5879578,-0.65484756,324.57214,174.17908,-27.793661,BSC
4186155063000,1.554978,-6.1941877220405,-2.58289603535826,-7.44390102632399,3.2174273,0.5687156,-0.6582073,324.51175,173.15607,-27.728893,BSC
4186160084000,1.559999,-6.13333209734229,-2.65311387961449,-7.39240810998832,3.2076533,0.528093,-0.68630713,324.45615,172.15868,-27.679321,BSC
4186165068000,1.564983,-6.0483628075272,-2.74531497120894,-7.34937942839173,3.186884,0.48930305,-0.6994407,324.41437,171.18143,-27.654018,BSC
4186170083000,1.569998,-5.9332921130578,-2.8651804802935,-7.31581722803235,3.1676416,0.41905355,-0.70402217,324.37656,170.23161,-27.650387,BSC
4186175003000,1.574918,-5.8458499155678,-3.01294534600472,-7.26867217997441,3.1520646,0.3491095,-0.700357,324.30948,169.23932,-27.590363,BSC
4186180065000,1.57998,-5.78860398571147,-3.20376526163157,-7.20188521199567,3.1392365,0.31856623,-0.68539083,324.25943,168.28271,-27.54417,BSC
4186184999000,1.584914,-5.73826952421126,-3.35608765849141,-7.18760643332168,3.1267138,0.2770274,-0.68203104,324.17722,167.30028,-27.481232,BSC
4186190222000,1.590137,-5.69332361721246,-3.46595507482029,-7.25003106080272,3.1019738,0.24770586,-0.6731735,324.1166,166.3574,-27.429567,BSC
4186195047000,1.594962,-5.65180265200679,-3.56745043836362,-7.30769884322584,3.0515773,0.21777347,-0.67256266,324.0342,165.38867,-27.369747,BSC
4186200066000,1.599981,-5.6086122428115,-3.67302665175719,-7.36768528881789,3.0085113,0.14752395,-0.66339964,323.96677,164.45673,-27.33437,BSC
4186205277000,1.605192,-5.66377096439041,-3.79111243940335,-7.45715751272633,2.9776626,0.12308934,-0.636827,323.90915,163.52953,-27.255205,BSC
4186210120000,1.610035,-5.83572836471805,-3.91108262741852,-7.57312869725815,2.935513,0.06169739,-0.605062,323.8612,162.64828,-27.212627,BSC
4186214990000,1.614905,-6.01637139583744,-3.99014277360426,-7.68312499289801,2.869234,0.05100725,-0.6001751,323.78888,161.74792,-27.11866,BSC
4186220084000,1.619999,-6.30028049635036,-3.56187303941606,-7.71680930656934,2.7977629,0.028710667,-0.66859204,323.71155,160.88309,-27.045586,BSC
4186225139000,1.625054,-6.55576528449578,-3.16591018541981,-7.74496178562417,2.7143798,0.025961773,-0.74189585,323.65088,160.0524,-27.0026,BSC
4186230066000,1.629981,-6.50126469724567,-3.1156019476677,-7.71142290208796,2.62275,0.038789943,-0.8011498,323.58707,159.26146,-26.95884,BSC
4186234976000,1.634891,-6.44695215748556,-3.06546729222568,-7.6779997402932,2.5601363,0.04184427,-0.8445212,323.47256,158.47162,-26.946104,BSC
4186240117000,1.640032,-6.21468638466077,-3.30693631769912,-7.65551863811209,2.4862216,0.061086524,-0.87109387,323.36115,157.72305,-26.92002,BSC
4186245081000,1.644996,-5.94824209832842,-3.61077631474926,-7.63682070953786,2.398257,0.08857546,-0.88208944,323.25488,157.01045,-26.887388,BSC
4186250061000,1.649976,-5.77493230007704,-3.84611155163713,-7.65782842642527,2.329229,0.0870483,-0.88117313,323.15216,156.33356,-26.850178,BSC
4186254992000,1.654907,-5.62940606760401,-4.05985297408513,-7.68966243817411,2.2913556,0.054061573,-0.8741482,323.05795,155.68846,-26.81445,BSC
4186260070000,1.659985,-5.51690881230284,-4.200609779722,-7.85240202775039,2.2467623,0.02443461,-0.8481864,322.9252,154.9896,-26.697594,BSC
4186265063000,1.664978,-5.42263246687697,-4.30431400579653,-8.06923747456625,2.2021692,0.03604105,-0.8063421,322.81183,154.32227,-26.584494,BSC
4186270061000,1.669976,-5.47456868039972,-4.35740737000099,-8.33142369897101,2.1398609,-0.01740966,-0.79901177,322.68848,153.66493,-26.452282,BSC
4186275085000,1.675,-5.59834061446522,-4.38597000548135,-8.61705079939646,2.0222695,0.22327125,-0.68386364,322.6664,153.07251,-26.270506,BSC
4186280065000,1.67998,-5.89032340301415,-4.55894393038753,-8.43651178367849,2.0024164,0.29840767,-0.59956425,322.56134,152.43106,-26.085014,BSC
4186285090000,1.685005,-6.27515298728727,-4.81056341265122,-8.00727869468936,1.9065105,0.32620203,-0.54519725,322.52063,151.86603,-25.872126,BSC
4186290103000,1.690018,-6.60275690878031,-5.00259217490816,-7.6666851237601,1.7825048,0.35063666,-0.4914411,322.5229,151.35616,-25.66153,BSC
4186295079000,1.694994,-6.90475349305658,-5.16890921649522,-7.36468858518553,1.6453656,0.34513888,-0.4447099,322.545,150.89355,-25.467443,BSC
4186300123000,1.700038,-7.08316297744384,-5.3386695109505,-7.07438712172421,1.4914275,0.28130344,-0.4297437,322.5599,150.37996,-25.36182,BSC
4186305072000,1.704987,-7.1472379624792,-5.50624951655574,-6.80330147795341,1.2754866,0.40042216,-0.28130344,322.66077,149.95502,-25.246845,BSC
4186309991000,1.709906,-7.11549735954848,-5.74903419241595,-6.78185428178264,1.1676689,0.3313944,-0.1994475,322.7312,149.50406,-25.257326,BSC
4186315059000,1.714974,-7.01588416521697,-6.05261690234558,-6.93364543862393,1.0216721,0.33475417,-0.10873401,322.88205,149.15059,-25.25007,BSC
4186320753000,1.720668,-6.76340812624483,-6.28109708753198,-6.9420030482287,0.90408057,0.34208453,-0.03848451,323.00983,148.7519,-25.276438,BSC
4186325061000,1.724976,-6.50357345059044,-6.39883457491636,-6.86892462386341,0.78893244,0.40775254,0.03726278,323.17902,148.41406,-25.304821,BSC
4186330091000,1.730006,-6.13277164495342,-6.86024360201001,-6.77388151515701,0.65057147,0.4914411,0.09101892,323.33517,148.07475,-25.288956,BSC
4186335079000,1.734994,-5.70420136824534,-7.61024159700656,-6.67085973665459,0.4908302,0.56046885,0.14996742,323.5259,147.79095,-25.276964,BSC
4186340082000,1.739997,-5.34377006972026,-8.36429676698432,-6.69821822828159,0.32803464,0.5925393,0.20463985,323.71042,147.50061,-25.199451,BSC
4186345001000,1.744916,-5.25205393110974,-9.11250796833692,-7.21955228634081,0.2049453,0.5910121,0.24312437,323.91553,147.25433,-25.126667,BSC
4186349994000,1.749909,-5.05967218837209,-9.8743563255814,-7.66879521395349,0.09162979,0.5833763,0.27122417,324.08694,146.91438,-24.943739,BSC
4186355057000,1.754972,-4.54106498974585,-10.654645059268,-7.8638673228535,0.046120327,0.5852089,0.27977628,324.26862,146.60251,-24.7724,BSC
4186360045000,1.75996,-3.98790103891353,-11.3994996818182,-7.91693992128603,-0.045814894,0.59864795,0.2648101,324.42596,146.32063,-24.570719,BSC
4186364984000,1.764899,-3.28236011019956,-12.0478352727273,-7.44975741241685,-0.16493362,0.62949663,0.2434298,324.59045,146.06714,-24.373848,BSC
4186370055000,1.76997,-2.60183758596422,-12.7202839572008,-6.87777431273105,-0.28924468,0.65301496,0.22632557,324.68356,145.75742,-24.094954,BSC
4186375049000,1.774964,-2.08182945031136,-13.4057488365128,-5.99848788535139,-0.4071417,0.643852,0.20738874,324.77438,145.4826,-23.822622,BSC
4186379991000,1.779906,-1.645828335403,-13.9632286080697,-5.23659827630007,-0.5497787,0.56291234,0.19608775,324.82214,145.1928,-23.529297,BSC
4186385103000,1.785018,-1.53555484567623,-14.0159681673685,-4.91776399777691,-0.7629707,0.42730024,0.1704314,324.85233,144.95168,-23.251234,BSC
4186400077000,1.799992,-1.22419078031146,-14.0798836103078,-4.04194505910271,-1.1007792,-0.2883284,0.2706133,324.65607,144.03545,-22.643988,BSC
4186405089000,1.805004,-1.21084291557286,-13.3946928487208,-4.202119621802,-1.0726794,-0.48380527,0.39522982,324.52588,143.74988,-22.554909,BSC
4186410454000,1.810369,-1.19532474233012,-12.6448650891637,-4.36307698753518,-1.0115929,-0.63071835,0.52687126,324.38077,143.49387,-22.518215,BSC
4186415080000,1.814995,-1.15524422827704,-11.6428529353639,-4.2740092818657,-0.93523467,-0.67103547,0.6618725,324.2459,143.24718,-22.520508,BSC
4186420400000,1.820315,-1.10742923276643,-10.4845344799916,-4.16463744050126,-0.89919364,-0.6985244,0.7293731,324.11694,143.07816,-22.557482,BSC
4186425100000,1.825015,-1.02684930174284,-9.32797514974726,-3.91341759003791,-0.93554014,-0.7507534,0.7501425,323.9933,142.92062,-22.62033,BSC
4186430072000,1.829987,-0.946012661272326,-8.11374986114845,-3.6473536296812,-1.0384709,-0.80939645,0.76174897,323.90137,142.86238,-22.71121,BSC
4186435051000,1.834966,-0.918540290097945,-7.01027551987709,-3.37720845602074,-1.1814134,-0.9080512,0.77182823,323.79318,142.82346,-22.820723,BSC
4186440401000,1.840316,-0.898424492202672,-5.837081653579,-3.09925415988024,-1.3295482,-1.0629056,0.7837401,323.69232,142.89172,-22.972914,BSC
4186445116000,1.845031,-1.02321854946661,-4.99264205026255,-3.04101685149701,-1.4633276,-1.1374311,0.80756384,323.5915,142.98993,-23.127586,BSC
4186449999000,1.849914,-1.15245913941778,-4.11811424899125,-2.98070449161677,-1.5005904,-1.2287555,0.8313876,323.48962,143.17276,-23.339619,BSC
4186455081000,1.854996,-1.4394046926565,-3.38537854002104,-3.04351219266702,-1.5757269,-1.2895365,0.8894198,323.39212,143.39944,-23.565279,BSC
4186460055000,1.85997,-1.75513401314045,-2.70881568798527,-3.13372066713309,-1.613906,-1.3350459,0.9669997,323.289,143.62518,-23.80827,BSC
4186465064000,1.864979,-2.12474650881176,-2.43701191633327,-3.40539297556511,-1.6282613,-1.3469579,1.0461067,323.23492,143.88608,-24.0358,BSC
4186470000000,1.869915,-2.49353497474495,-2.20533711777355,-3.68907636912382,-1.6218473,-1.3048081,1.1273518,323.202,144.15471,-24.268263,BSC
4186475051000,1.874966,-2.72905063868571,-2.38428563868571,-3.86219834933333,-1.6206255,-1.2174544,1.2064588,323.22504,144.53726,-24.57727,BSC
4186479999000,1.879914,-2.9456725236,-2.6009075236,-4.020151704,-1.627345,-1.1383474,1.2687671,323.27118,144.91933,-24.881168,BSC
4186485104000,1.885019,-3.049741883421,-3.15286841084161,-4.0085166349698,-1.6618589,-1.067487,1.3246613,323.37482,145.42847,-25.272625,BSC
4186490084000,1.889999,-3.12407272503409,-3.76609749032729,-3.95741434508085,-1.7479908,-1.0082331,1.3677273,323.50574,145.94868,-25.648418,BSC
4186495079000,1.894994,-3.24644635726155,-4.41127912653626,-3.82444319065259,-1.8869628,-1.0552697,1.3884968,323.64188,146.47424,-26.036926,BSC
4186500133000,1.900048,-3.38468751729271,-5.07316127225203,-3.66525636319889,-2.0616703,-1.1878275,1.4095715,323.78445,147.02388,-26.42953,BSC
4186505002000,1.904917,-3.5526217239661,-5.69364781743082,-3.60991051896252,-2.234545,-1.3078625,1.4489723,323.9054,147.46042,-26.753746,BSC
4186510070000,1.909985,-3.77069093797611,-6.31811872493618,-3.67433999830491,-2.39337,-1.348485,1.4944818,324.02225,147.92706,-27.084589,BSC
4186515062000,1.914977,-4.0590200894317,-6.83568013478775,-3.8397769872353,-2.5372288,-1.3481796,1.5406022,324.09503,148.3245,-27.430187,BSC
4186520063000,1.919978,-4.42224346320299,-7.25550972559834,-4.10865681371023,-2.654515,-1.3521502,1.566564,324.16644,148.74612,-27.778795,BSC
4186524964000,1.924879,-4.84707624978777,-7.54343885288443,-4.29748826502026,-2.7635543,-1.366811,1.6059648,324.22778,149.22076,-28.208588,BSC
4186530103000,1.930018,-5.37882478107274,-7.69061919814779,-4.40193876226124,-2.9150488,-1.5106697,1.647809,324.27167,149.72484,-28.660383,BSC
4186535037000,1.934952,-6.01892531593875,-7.7190892525948,-4.5964400772788,-3.084564,-1.7504344,1.6951511,324.296,150.24562,-29.162857,BSC
4186540107000,1.940022,-6.88213702408797,-7.5693994694276,-4.94571623800226,-3.1963525,-1.9657644,1.74738,324.3115,150.78203,-29.685259,BSC
4186545004000,1.944919,-7.6308242166635,-7.35032044112612,-5.0816351500856,-3.2134566,-2.0427334,1.7809776,324.32782,151.33633,-30.276278,BSC
4186550067000,1.949982,-8.29490836922199,-7.02750170234925,-4.96173128100628,-3.1835241,-2.2153027,1.8289305,324.30734,151.90082,-30.929737,BSC
4186554999000,1.954914,-8.88351571660871,-6.69696854688075,-4.77219105701575,-3.0149255,-2.3964243,1.8423696,324.30972,152.41522,-31.60304,BSC
4186560078000,1.959993,-9.37101608815709,-6.32388135080794,-4.42895106310084,-2.8157833,-2.5576928,1.7983873,324.2884,152.89882,-32.285397,BSC
4186564967000,1.964882,-9.71143174270607,-6.00856848329714,-4.20166020196393,-2.6077838,-2.6279423,1.7040086,324.28207,153.41312,-33.09497,BSC
4186570054000,1.969969,-9.84482776281749,-5.75557570507979,-4.14186165480125,-2.4113905,-2.620001,1.5830573,324.2488,153.85701,-33.881897,BSC
4186574978000,1.974893,-9.89739440148964,-5.5291327973166,-4.07287466674829,-2.244319,-2.5870142,1.4676038,324.19638,154.30884,-34.76969,BSC
4186580059000,1.979974,-9.72362741567187,-5.35040109231711,-3.96861457894092,-2.1077905,-2.5885415,1.3805555,324.12167,154.69388,-35.61716,BSC
4186585065000,1.98498,-9.56281188548786,-5.19947100564636,-3.86240162831105,-2.0137172,-2.6087,1.3158038,324.06067,155.09537,-36.48298,BSC
4186590149000,1.990064,-9.42294422149579,-5.10301022644874,-3.74664889472016,-1.9700404,-2.5735753,1.2562444,323.99445,155.45076,-37.293846,BSC
4186595088000,1.995003,-9.34711627856101,-5.11600448019446,-3.64309457602334,-1.9956968,-2.4544566,1.196685,323.9483,155.83281,-38.088203,BSC
4186600113000,2.000028,-9.41262205153136,-5.38270705141468,-3.55887264456976,-2.0650299,-2.1545217,1.1276573,323.9306,156.1891,-38.793064,BSC
4186605117000,2.005032,-9.53860630938642,-5.86985460367378,-3.49102138595884,-2.1887302,-1.7146988,1.0415252,323.95566,156.57814,-39.434967,BSC
4186610120000,2.010035,-9.85194239988459,-7.04025684708598,-3.47258986820542,-2.3280075,-1.2030991,0.9263771,324.02643,156.95149,-39.949688,BSC
4186615057000,2.014972,-10.1548433181818,-8.09076907954545,-3.46571574204545,-2.5201247,-0.8026769,0.7791586,324.10352,157.34631,-40.401817,BSC
4186620051000,2.019966,-10.4265854029276,-8.57898355835901,-3.52098533653698,-2.7189612,-0.5311473,0.59650993,324.20392,157.72624,-40.72335,BSC
4186625112000,2.025027,-10.6691482856377,-9.05715485637728,-3.55866140498392,-2.893974,-0.34880406,0.40744713,324.1641,158.07988,-41.04176,BSC
4186630061000,2.029976,-10.5675501249553,-9.35348308288675,-3.40626389874062,-3.0686815,-0.15271631,0.23518312,324.1195,158.42892,-41.255196,BSC
4186635082000,2.034997,-10.4644738742408,-9.65412240907467,-3.25164925359057,-3.2030718,0.074830994,0.082161374,324.00854,158.7521,-41.423496,BSC
4186640100000,2.040015,-9.97472572586873,-9.5970325965251,-3.05794100617761,-3.3001995,0.20097467,-0.06719518,323.85452,159.05959,-41.536865,BSC
4186645457000,2.045372,-9.36814118217287,-9.43845381612645,-2.84431360560224,-3.3512068,0.4718934,-0.20005837,323.71927,159.34955,-41.5324,BSC
4186650125000,2.05004,-8.72413790606242,-8.85258992897159,-2.67436833165266,-3.450167,0.4972443,-0.24373524,323.49075,159.63751,-41.57126,BSC
4186655433000,2.055348,-7.99350895776298,-8.18417221731671,-2.49411522167635,-3.461468,0.4156938,-0.2782491,323.23672,159.90161,-41.54558,BSC
4186660090000,2.060005,-7.38301952690793,-7.55695705700356,-2.5735625239265,-3.4684927,0.14263703,-0.24953845,322.95523,160.18248,-41.564346,BSC
4186665046000,2.064961,-6.73333397412338,-6.88947190894431,-2.65811069441215,-3.4306192,-0.24281894,-0.13958271,322.6908,160.51892,-41.627853,BSC
4186670071000,2.069986,-6.22064651227024,-6.3778219501271,-3.29549849954048,-3.3832772,-0.5852089,-0.01160644,322.39792,160.85587,-41.755325,BSC
4186674968000,2.074883,-5.74836892557685,-5.91012957946813,-4.0199633511537,-3.3426547,-0.79809546,0.12767084,322.09784,161.20123,-41.96093,BSC
4186680609000,2.080524,-5.43271036534654,-5.68219453745375,-5.53725370262026,-3.2959235,-0.8518516,0.269697,321.87485,161.62863,-42.18847,BSC
4186684989000,2.084904,-5.23134745445545,-5.56473265326533,-6.84611260151015,-3.2217033,-0.7910705,0.4129449,321.6799,162.05884,-42.453354,BSC
4186690141000,2.090056,-4.8705103334264,-5.23981778902474,-8.08220665933378,-3.0592132,-0.6649268,0.54519725,321.61932,162.5531,-42.636974,BSC
4186695135000,2.09505,-4.48833966347357,-4.8760653007028,-9.20109175734091,-2.8371637,-0.42638394,0.6805039,321.63492,163.0383,-42.785664,BSC
4186700102000,2.100017,-3.96670458238897,-4.10300921776417,-9.66665022281776,-2.595872,-0.32528573,0.7528914,321.76163,163.55585,-42.80108,BSC
4186705094000,2.105009,-3.39016030796325,-3.17413232588055,-9.89543724272588,-2.4834726,-0.40500367,0.79717916,321.92874,164.0658,-42.808945,BSC
4186710129000,2.110044,-2.90621179376894,-1.82853770030297,-9.99456022409614,-2.410169,-0.516792,0.86193085,322.21222,164.62726,-42.696033,BSC
4186715240000,2.115155,-2.47121474893961,-0.226957383033731,-10.019275950616,-2.3051,-0.5476407,0.93492925,322.50308,165.16006,-42.585392,BSC
4186720078000,2.119993,-2.32509540561724,1.32498074336102,-10.2481812732574,-2.175902,-0.59406644,1.0106765,322.90652,165.80974,-42.47492,BSC
4186725146000,2.125061,-2.3069800365774,2.96893874414482,-10.5923709205468,-2.021964,-0.62796944,1.1184943,323.331,166.44122,-42.37341,BSC
4186730050000,2.129965,-2.9090490666158,4.13018332167112,-11.0715394146318,-1.7629571,-0.57543504,1.2134838,323.95905,167.23796,-42.267784,BSC
4186735112000,2.135027,-4.13902757764212,4.90701182445631,-11.7096483556849,-1.3921618,-0.5519168,1.2455542,324.5674,167.9677,-42.171547,BSC
4186740003000,2.139918,-5.62538849217199,5.36075443256531,-11.9848596152511,-0.9691377,-0.5693264,1.2287555,325.40112,168.88916,-42.089954,BSC
4186745072000,2.144987,-7.61903537921527,5.37947401060445,-11.7508636680806,-0.7623598,-0.7296785,1.138042,326.15393,169.73419,-42.023483,BSC
4186750587000,2.150502,-9.68921923502952,5.33663430008434,-11.052340310655,-0.39492437,-1.1594223,0.7877107,326.82373,170.49725,-42.098354,BSC
4186755054000,2.154969,-11.2446951104864,5.22438345853247,-9.94185859460219,-0.010995574,-1.3585643,0.61575216,327.49457,171.19547,-42.146687,BSC
4186759995000,2.15991,-12.8297131639276,5.09096031583796,-8.81700953637601,0.042760566,-1.8099937,0.23579398,327.90408,171.78558,-42.57945,BSC
4186765064000,2.164979,-13.8562029090338,4.91310336356119,-8.12082618894588,0.092240654,-2.1410828,-0.07727446,328.2626,172.25429,-43.01422,BSC
4186770070000,2.169985,-14.6016819849819,4.63371146896264,-7.66236430965051,0.10598512,-2.2629502,-0.310625,328.5255,172.67729,-43.82563,BSC
4186775069000,2.174984,-14.6904451688143,4.10113194888292,-7.7644420637434,0.129198,-2.1881194,-0.45753807,328.70035,173.02676,-44.637104,BSC
4186780077000,2.179992,-14.7039351800242,3.52773617132501,-7.8510376850584,0.17592919,-1.9706513,-0.52290064,328.8235,173.30496,-45.56034,BSC
4186785051000,2.184966,-14.2339157178816,2.70280398050745,-7.83664924321385,0.24801129,-1.629483,-0.51893,328.93756,173.54463,-46.395065,BSC
4186790152000,2.190067,-13.7841524381378,1.84860293353582,-7.71804887199922,0.33322698,-1.2205088,-0.5149594,329.00784,173.70851,-47.131783,BSC
4186795153000,2.195068,-13.5095173879872,0.968838878091165,-7.06637176508893,0.35735616,-0.8374963,-0.54733527,329.0891,173.85342,-47.754738,BSC
4186800039000,2.199954,-13.2614329344735,0.15343414081393,-6.40607249938183,0.34055737,-0.59895337,-0.64965516,329.06998,173.8849,-48.241947,BSC
4186805083000,2.204998,-13.2315711656707,-0.194946135831444,-5.46046904873274,0.2724459,-0.48258355,-0.7171558,329.07004,173.9172,-48.642117,BSC
4186810188000,2.210103,-13.2260906844444,-0.490603213452444,-4.52326808053333,0.20189096,-0.42943826,-0.75411314,328.96634,173.8317,-49.004513,BSC
4186815063000,2.214978,-13.3381398511111,-0.503053049119111,-3.72232768053333,0.14721853,-0.45204028,-0.7849618,328.8426,173.74245,-49.34257,BSC
4186820780000,2.220695,-13.4770408232236,-0.519338421438475,-2.8279959965338,0.11026118,-0.50579643,-0.79259765,328.70267,173.61826,-49.741253,BSC
4186825064000,2.224979,-13.7377551802426,-0.566741128925477,-3.09661137608319,0.0711658,-0.5369505,-0.7828238,328.56155,173.50208,-50.128334,BSC
4186829965000,2.22988,-14.0360187338725,-0.620970977056615,-3.40391389129598,0.025350908,-0.47555858,-0.7867944,328.4588,173.42842,-50.637653,BSC
4186835041000,2.234956,-13.6837315025734,-0.588768241747906,-3.66362678223837,-0.004886922,-0.4016439,-0.80909103,328.3526,173.35423,-51.136513,BSC
4186840102000,2.240017,-13.1701418967605,-0.534963601054597,-3.90819346549601,0.0018325958,-0.17012598,-0.8347474,328.26318,173.27739,-51.559147,BSC
4186845073000,2.244988,-12.3199694923201,-0.161265079320938,-3.68170158367017,0.018325957,0.08246681,-0.89675015,328.15216,173.19629,-51.94334,BSC
4186849965000,2.24988,-11.420469305578,0.264813804559418,-3.37397797607114,0.07238753,0.24556783,-0.9138544,328.06326,173.10974,-52.276524,BSC
4186855063000,2.254978,-10.9012939896907,0.498092680463918,-3.22540935953608,0.14569137,0.2843578,-0.8552113,327.99442,173.03525,-52.513824,BSC
4186859973000,2.259888,-10.4771260594766,0.68454042001586,-3.11354074306106,0.18295415,0.2837469,-0.7678576,327.94412,172.96025,-52.71203,BSC
4186865061000,2.264976,-10.2253934094146,0.742126775712025,-3.3637928119462,0.15118915,0.25595254,-0.6933321,327.91254,172.91916,-52.877506,BSC
4186869981000,2.269896,-10.020370460443,0.770084412974684,-3.68064562879747,0.10873401,0.21563543,-0.6462954,327.90924,172.88762,-53.048637,BSC
4186875063000,2.274978,-9.7027823942088,0.869101661944969,-4.09470747370617,0.093767814,0.16554448,-0.6264423,157.70744,172.87704,-53.217133,BSC
4186880060000,2.279975,-9.36527095688885,0.98318996730903,-4.52253873050561,0.110872045,0.16249016,-0.58551437,157.79599,172.88387,-53.386528,BSC
4186884991000,2.284906,-9.04393444976399,1.10762259621424,-4.7267265450053,0.1554652,0.19211712,-0.5580254,157.84923,172.8977,-53.51806,BSC
4186890241000,2.290156,-8.70490410586649,1.24323483491956,-4.88655528741932,0.19730948,0.22571471,-0.5421429,157.91193,172.91559,-53.64968,BSC
4186895071000,2.294986,-8.47120205660377,1.30324672260396,-4.8765409848024,0.23671028,0.21594086,-0.53786683,157.93616,172.94743,-53.71738,BSC
4186900065000,2.29998,-8.25570624528302,1.34365218136675,-4.81368812187177,0.27550024,0.172264,-0.53023106,157.97366,172.97676,-53.785973,BSC
4186905077000,2.304992,-8.13767431473409,1.28468648990846,-4.7946718043265,0.3042109,0.086437434,-0.52687126,157.98901,173.01465,-53.82423,BSC
4186910102000,2.310017,-8.08522943679163,1.15881867332171,-4.80516072515257,0.3549127,0.00030543262,-0.5161811,158.02138,173.04616,-53.875675,BSC
4186915061000,2.314976,-8.09800380547481,0.85774874153876,-4.8464591119186,0.4016439,-0.062308256,-0.47739118,158.045,173.07494,-53.93941,BSC
4186920066000,2.319981,-8.13051569379845,0.500117184310077,-4.89754939534884,0.44409904,-0.07727446,-0.45570546,158.07936,173.09525,-54.012756,BSC
4186925062000,2.324977,-8.24547041606055,0.065589938848044,-4.89482333182622,0.49021935,-0.07086037,-0.43890667,158.13345,173.10643,-54.094204,BSC
4186930086000,2.330001,-8.39680175004914,-0.404955629636328,-4.86881324336544,0.52656585,-0.03023783,-0.40683624,158.2015,173.1213,-54.171185,BSC
4186935046000,2.334961,-8.54620529634362,-0.869506987057205,-4.84313449361117,0.53786683,-0.025045475,-0.38423425,158.27394,173.09468,-54.25982,BSC
4186940171000,2.340086,-8.70057892028701,-1.34951216987615,-4.81660151125418,0.5488624,-0.006414085,-0.32375857,158.3659,173.07912,-54.336166,BSC
4186945067000,2.344982,-8.86412491641379,-1.69893253874023,-4.71604497514483,0.56169057,0.018325957,-0.24984388,158.45763,173.05675,-54.40921,BSC
4186950132000,2.350047,-9.04253936675862,-1.99777741257931,-4.56885272176552,0.5751296,0.031154128,-0.17256944,158.56169,173.04805,-54.48313,BSC
4186955073000,2.354988,-9.1848986542948,-2.22887741717922,-4.36185458971368,0.5766568,0.054061573,-0.100792766,158.7208,172.94211,-54.5816,BSC
4186960106000,2.360021,-9.29223765344645,-2.39244068378579,-4.0756188064369,0.5907067,0.099571034,-0.037873644,158.8964,172.85066,-54.673153,BSC
4186965058000,2.364973,-9.2885164195,-2.42865905475,-3.7570243655,0.58032197,0.17898351,0.010079277,159.10301,172.72607,-54.781265,BSC
4186970201000,2.370116,-9.1998598426,-2.3695549273,-3.3974736354,0.5571091,0.2761111,0.050701816,159.31749,172.61768,-54.874023,BSC
4186975066000,2.374981,-9.10217669152668,-2.18799282519845,-3.1254333196511,0.50732356,0.35796702,0.0693332,159.55386,172.48798,-54.985466,BSC
4186980077000,2.379992,-8.99143886431604,-1.90893322311242,-2.89509850029537,0.4251622,0.43676865,0.08368854,159.78073,172.37904,-55.072445,BSC
4186985071000,2.384986,-8.80935624949783,-1.55538314223491,-2.65820520428164,0.32742378,0.48716503,0.07666359,160.01286,172.27763,-55.177177,BSC
4186990206000,2.390121,-8.51301588265144,-1.07707941699968,-2.40345643739296,0.2406809,0.4972443,0.06169739,160.22719,172.19122,-55.271458,BSC
4186995133000,2.395048,-8.14982057938185,-0.716984867272183,-2.19390408639083,0.20372356,0.44868052,0.058948494,160.43187,172.14702,-55.393936,BSC
4187000061000,2.399976,-7.71692973000997,-0.444075479850449,-2.01510145747757,0.19272798,0.3472769,0.062308256,160.61967,172.11053,-55.526943,BSC
4187005802000,2.405717,-7.22389439186677,-0.324572895042603,-1.94607243950426,0.17470746,0.24129178,0.079107046,160.78456,172.10822,-55.676056,BSC
4187010132000,2.410047,-6.85852376802866,-0.348663274322231,-1.97417786243222,0.14508049,0.15210545,0.10720685,160.94641,172.11214,-55.8481,BSC
4187015059000,2.414974,-6.51443544962593,-0.464109726284289,-2.17565947600998,0.129198,0.077579886,0.14813483,161.09781,172.13872,-56.02581,BSC
4187020063000,2.419978,-6.25629992922693,-0.693563316987531,-2.59632451708728,0.10445796,0.0729984,0.20891592,161.2472,172.18172,-56.210693,BSC
4187025048000,2.424963,-6.07324786238714,-0.999210864083738,-3.01442432048814,0.08002335,0.10751228,0.2919936,161.38179,172.23267,-56.361652,BSC
4187030065000,2.42998,-5.98744143292985,-1.40917494690743,-3.43392237581109,0.042760566,0.11453723,0.36987892,161.51549,172.3011,-56.52389,BSC
4187035063000,2.434978,-5.95155694331439,-1.84232780245289,-3.81487216105295,0.025961773,0.12889257,0.4129449,161.61012,172.36049,-56.59894,BSC
4187040256000,2.440171,-5.98626895608735,-2.32829572237511,-4.15703323009273,0.014966198,0.14874569,0.5366451,161.71931,172.46013,-56.680206,BSC
4187045056000,2.444971,-6.03520516406888,-2.73656571135435,-4.39366067802102,0.017104227,0.17379116,0.5723807,161.79242,172.49632,-56.68139,BSC
4187050065000,2.44998,-6.10988171239541,-3.10528020924304,-4.52901143146527,0.024740042,0.2144137,0.64812803,161.88657,172.57056,-56.68419,BSC
4187054989000,2.454904,-6.21740966522082,-3.38413246632492,-4.58062881821767,0.04550946,0.2574797,0.7113526,161.98705,172.60341,-56.631653,BSC
4187060092000,2.460007,-6.39566328060923,-3.50939184928036,-4.47464010182374,0.062002823,0.31887165,0.77213365,162.09805,172.65117,-56.568806,BSC
4187064962000,2.464877,-6.57805727430549,-3.55981928680183,-4.31088104546252,0.058948494,0.35979962,0.82344633,162.22719,172.66594,-56.48667,BSC
4187070055000,2.46997,-6.79675652253631,-3.45522403949703,-3.99709525390389,0.045814894,0.40439278,0.8472701,162.36203,172.6853,-56.390438,BSC
4187075051000,2.474966,-7.01923072219167,-3.31281448431612,-3.71078093052246,0.028710667,0.41996986,0.86162543,162.52383,172.69395,-56.32438,BSC
4187080090000,2.480005,-7.26496616080049,-3.06216428869539,-3.47978966031164,0.007941248,0.4297437,0.8775079,162.68405,172.70898,-56.25108,BSC
4187085091000,2.485006,-7.5131890461258,-2.83273394277119,-3.33283181389243,-0.033292156,0.43493605,0.8857546,162.86568,172.73244,-56.24233,BSC
4187090122000,2.490037,-7.77232063012762,-2.64387529339107,-3.36357622278943,-0.08032878,0.45051312,0.8921687,163.04091,172.76143,-56.230064,BSC
4187095122000,2.495037,-8.02930670819865,-2.47010699691449,-3.43133356179841,-0.14080444,0.45112398,0.89827734,163.21556,172.8181,-56.279713,BSC
4187100140000,2.500055,-8.28349920237046,-2.39008348763836,-3.75142720568126,-0.18967366,0.48655418,0.9056077,163.38063,172.87993,-56.315765,BSC
4187105114000,2.505029,-8.52966119539088,-2.32165870349657,-4.07683526921625,-0.26145032,0.5137377,0.91354895,163.53719,172.9768,-56.3663,BSC
4187110146000,2.510061,-8.71635304400517,-2.36952858385815,-4.49330227364657,-0.3109304,0.56382865,0.9211848,163.68637,173.0763,-56.400284,BSC
4187115131000,2.515046,-8.9001235636907,-2.42890653109824,-4.90062593404931,-0.3576616,0.63499445,0.93523467,163.804,173.20903,-56.39902,BSC
4187120062000,2.519977,-9.06770664717968,-2.63177062486926,-5.24020269356556,-0.3930918,0.73426,0.9492846,163.91162,173.34511,-56.375923,BSC
4187125072000,2.524987,-9.23797459450878,-2.83788482275869,-5.58521984326672,-0.41325033,0.8268061,0.94806284,163.98604,173.48543,-56.295048,BSC
4187130086000,2.530001,-9.34298030195382,-3.15109641271956,-5.78683688596803,-0.43676865,0.8717047,0.9392053,164.05011,173.62872,-56.201874,BSC
4187135956000,2.535871,-9.43651652112676,-3.51432345414922,-5.97665649857252,-0.44623706,1.0079277,0.9147707,164.1085,173.76442,-56.05866,BSC
4187140145000,2.54006,-9.25326252112676,-3.62122132847354,-5.7628608296536,-0.4728097,1.0445796,0.90285885,164.14923,173.8916,-55.899612,BSC
4187145454000,2.545369,-9.02101246478873,-3.75670015749905,-5.49190327264941,-0.48533243,1.0980303,0.84788096,164.20041,173.99347,-55.67962,BSC
4187150143000,2.550058,-8.74802763601533,-3.42490088122605,-5.44025017624521,-0.51343226,1.1007792,0.83199847,164.24434,174.10532,-55.47023,BSC
4187155056000,2.554971,-8.45058030996169,-3.00126296193487,-5.41771625938697,-0.5222898,1.0910053,0.79534656,164.2773,174.19534,-55.250927,BSC
4187160097000,2.560012,-8.05963807626758,-2.47423962677887,-5.41814687170856,-0.5448918,1.108415,0.7828238,164.32744,174.27371,-55.035168,BSC
4187164996000,2.564911,-7.64484285641244,-1.92451176341074,-5.42814181276097,-0.6035349,1.1588113,0.8023715,164.365,174.35603,-54.817394,BSC
4187170055000,2.56997,-7.13158289789088,-1.44416047827904,-5.50044308674126,-0.68875057,1.2131784,0.8173377,164.35454,174.50179,-54.575443,BSC
4187175072000,2.574987,-6.6034912125656,-0.987432431098129,-5.58607963533023,-0.77579886,1.1954633,0.8368854,164.33278,174.65916,-54.345963,BSC
4187180087000,2.580002,-6.03524597048622,-0.60419619199198,-6.06594272481203,-0.8405506,1.1111639,0.86467975,164.24368,174.88683,-54.09763,BSC
4187185087000,2.585002,-5.45919749930827,-0.239365445124812,-6.63719084511278,-0.883922,0.9410379,0.8857546,164.14063,175.12181,-53.88384,BSC
4187190135000,2.59005,-5.13189681448576,-0.0425152862095606,-7.27681945436987,-0.874759,0.7669413,0.90316427,164.00217,175.43814,-53.636276,BSC
4187195066000,2.594981,-4.86739202204732,0.112539273069049,-7.91527942955094,-0.7449502,0.6133087,0.9233228,163.88614,175.73701,-53.43414,BSC
4187200150000,2.600065,-5.23472648558012,0.0076468271297202,-8.18934876736451,-0.5702427,0.49388456,0.9266826,163.717,176.0877,-53.143265,BSC
4187205086000,2.605001,-5.80353365497946,-0.181955590033262,-8.32808262375269,-0.36743546,0.39187005,0.90285885,338.78687,176.39871,-52.892944,BSC
4187210131000,2.610046,-6.78999226270559,-0.494470579016242,-8.14303011749589,-0.18600847,0.28771752,0.84635377,339.13504,176.71692,-52.55446,BSC
4187215119000,2.615034,-7.93413301648849,-0.852935326915091,-7.82384887942023,-0.041233405,0.15393804,0.7333437,339.41803,176.97896,-52.25578,BSC
4187220049000,2.619964,-8.92925189998033,-1.04065361722561,-7.55042707074154,0.08032878,0.0018325958,0.59712076,339.64725,177.172,-52.03293,BSC
4187225074000,2.624989,-9.8994826361133,-1.17790582378049,-7.28538831852872,0.14935656,-0.074830994,0.4428773,339.80017,177.31287,-51.82843,BSC
4187230088000,2.630003,-10.317757350495,-1.05195060415842,-7.18737470029703,0.1863139,-0.2602286,0.3494149,339.9005,177.3676,-51.84949,BSC
4187235055000,2.63497,-10.5202752186139,-0.825884828356436,-7.15440675416832,0.18509217,-0.44073927,0.17684549,339.8881,177.36308,-51.886593,BSC
4187240146000,2.640061,-10.2006203983434,-0.519618531320428,-7.121261152846,0.19547687,-0.58032197,0.04337143,339.89407,177.32384,-52.08196,BSC
4187245092000,2.645007,-9.67143221958971,-0.191157043571222,-7.08932722739093,0.21410827,-0.6563747,-0.03573562,339.84427,177.25854,-52.301933,BSC
4187250152000,2.650067,-9.02151597826522,0.110492024158654,-7.08950357679287,0.22968534,-0.6795876,-0.07452556,339.82358,177.21675,-52.55382,BSC
4187255068000,2.654983,-8.32833683603766,0.383991202524038,-7.10836582170473,0.25045475,-0.65393126,-0.077579886,339.78564,177.16245,-52.804638,BSC
4187260078000,2.659993,-7.65269550972411,0.52630852062075,-6.92902545908296,0.23609942,-0.5195409,-0.03848451,339.8076,177.1643,-52.969387,BSC
4187265062000,2.664977,-6.99891260403147,0.586586398429182,-6.63227265706237,0.21227567,-0.35827246,0.017104227,339.8403,177.16698,-53.114475,BSC
4187270084000,2.669999,-6.45746152755151,0.605082579338764,-6.35904550608529,0.19150625,-0.22876903,0.076052725,163.65492,177.23236,-53.1585,BSC
4187275079000,2.674994,-6.00820969578342,0.591329982501198,-6.10691442045999,0.13836098,-0.13164146,0.14996742,163.67519,177.32076,-53.166294,BSC
4187280000000,2.679915,-5.73565433751343,0.586360807614025,-5.93024048010548,0.092240654,-0.081855945,0.21868975,340.2658,177.43724,-53.12525,BSC
4187285074000,2.684989,-5.6502290701631,0.591106650293974,-5.83057778382655,0.08674286,-0.058337633,0.28191432,340.47592,177.56757,-53.0658,BSC
4187290145000,2.69006,-5.74403313426933,0.600102383136247,-5.75790696828159,0.09621128,-0.050396383,0.31612277,340.70966,177.70842,-52.979553,BSC
4187295226000,2.695141,-6.06637872711094,0.614535753868895,-5.71941786578999,0.12950343,-0.03970624,0.3268129,340.95273,177.85051,-52.88736,BSC
4187299959000,2.699874,-6.4325173777212,0.609032479217059,-5.67632755340547,0.14782938,-0.03573562,0.32436943,341.19666,177.99315,-52.800358,BSC
4187305078000,2.704993,-6.93180369995453,0.573369183120851,-5.61837462684368,0.1414153,-0.046731193,0.28710666,341.419,178.12434,-52.71516,BSC
4187309969000,2.709884,-7.41046367979275,0.535457638601036,-5.56328106580311,0.12003502,-0.069027774,0.23854288,341.68118,178.26479,-52.661526,BSC
4187315058000,2.714973,-7.91550400875072,0.479342062771061,-5.50716563646133,0.08307768,-0.09712757,0.17928895,341.91074,178.39343,-52.61292,BSC
4187320064000,2.719979,-8.38151502167183,0.421794587120743,-5.47282796272446,0.02687807,-0.13469578,0.10598512,342.1182,178.50125,-52.6326,BSC
4187325115000,2.72503,-8.63111469556243,0.346914632827657,-5.58764391696594,-0.026267206,-0.15027285,0.04642576,342.29773,178.60062,-52.653316,BSC
4187330731000,2.730646,-8.78562326131591,0.278750766514232,-5.76030422109193,-0.084910266,-0.16798794,0.02321288,342.49194,178.7002,-52.741077,BSC
4187335079000,2.734994,-8.6651530244517,0.255433945952403,-5.98181402454503,-0.095294975,-0.1591304,-0.008857546,342.6499,178.7814,-52.823208,BSC
4187340257000,2.740172,-8.49192666032402,0.236184857510058,-6.23549375074481,-0.119729586,-0.12461651,-0.020158553,342.813,178.86723,-52.907063,BSC
4187344999000,2.744914,-8.01295733336958,0.310252298871371,-6.35893934885289,-0.15393804,-0.08277224,0.004276057,342.97458,178.95412,-52.984344,BSC
4187349986000,2.749901,-7.52230461045164,0.398627874720224,-6.45177829920064,-0.16920967,-0.022907447,0.042455133,343.12265,179.04843,-52.99828,BSC
4187355066000,2.754981,-7.07994173315348,0.534739459772182,-6.38372254220624,-0.17806722,0.028405234,0.08979719,343.28235,179.15167,-53.002377,BSC
4187359996000,2.759911,-6.67100727782617,0.680855743021184,-6.27680149144724,-0.20341812,0.07727446,0.14263703,343.4482,179.285,-52.931435,BSC
4187365043000,2.764958,-6.34086892898436,0.891378693050881,-5.98972486403683,-0.21624629,0.10293079,0.19394971,343.6286,179.42387,-52.85386,BSC
4187369991000,2.769906,-6.05745405672915,1.10574937938114,-5.70581659485272,-0.2507602,0.09162979,0.23365596,343.82977,179.59969,-52.741074,BSC
4187375041000,2.774956,-5.97111758792026,1.3647590863136,-5.40363862847367,-0.2764165,0.043982297,0.27030787,344.04346,179.78178,-52.63313,BSC
4187379998000,2.779913,-5.92513030190919,1.60276324478682,-5.14048936184588,-0.30024028,-0.032986723,0.28771752,344.2832,179.99153,-52.53918,BSC
4187385080000,2.784995,-6.09845068275794,1.7544186157335,-5.0610507994955,-0.30207285,-0.122783914,0.29840767,344.52582,-179.79773,-52.462997,BSC
4187395047000,2.794962,-6.43837280710258,2.05185054848155,-4.90525305235928,-0.30818152,-0.27885997,0.2733622,345.04126,-179.3464,-52.428486,BSC
4187400879000,2.800794,-6.65360043712342,2.1927630585034,-4.89708022536443,-0.31123585,-0.33444872,0.26328292,345.3234,-179.11293,-52.474182,BSC
4187404956000,2.804871,-6.83952724779397,2.21932402013605,-5.07162384600583,-0.2855795,-0.36713,0.25686884,345.5971,-178.8909,-52.531876,BSC
4187410136000,2.810051,-7.08084398802121,2.24746654158261,-5.30148517136321,-0.27488935,-0.3753767,0.24373524,345.8792,-178.66371,-52.61159,BSC
4187414968000,2.814883,-7.36474069427056,2.20897212744099,-5.60944053474056,-0.23915374,-0.38515055,0.24495697,346.16187,-178.44824,-52.69803,BSC
4187419935000,2.81985,-7.65620983939906,2.16363424501045,-5.9146751550791,-0.20616703,-0.38331795,0.23762658,346.4235,-178.2424,-52.777267,BSC
4187424956000,2.824871,-7.94804059022983,2.07273601126256,-6.13474457098796,-0.17654006,-0.37751472,0.2415972,346.68686,-178.04416,-52.855072,BSC
4187429936000,2.829851,-8.23557477822423,1.98077251056448,-6.34342098074285,-0.13744467,-0.36896262,0.2312125,346.9262,-177.86656,-52.91718,BSC
4187434930000,2.834845,-8.50742329547236,1.87297053090945,-6.46997106480792,-0.093767814,-0.35063666,0.226631,347.16434,-177.6977,-52.97234,BSC
4187439983000,2.839898,-8.77910627136988,1.76615064084578,-6.58849558302435,-0.056199603,-0.3200934,0.21930063,347.37604,-177.55644,-53.020878,BSC
4187444949000,2.844864,-9.0031012869025,1.68989703653673,-6.58372963633631,-0.008552114,-0.29626966,0.19394971,347.57114,-177.43416,-53.064945,BSC
4187449982000,2.849897,-9.22371151061608,1.61497858125653,-6.56016572410372,0.03023783,-0.26939157,0.17898351,347.74988,-177.33769,-53.110508,BSC
4187455067000,2.854982,-9.36778887051862,1.56836538803515,-6.30591205150539,0.054061573,-0.24923302,0.1469131,164.25224,-177.25993,-53.151108,BSC
4187460077000,2.859992,-9.50974119561434,1.52243970503829,-6.05540843307518,0.08552113,-0.23457226,0.12797627,164.31647,-177.20518,-53.212982,BSC
4187465059000,2.864974,-9.51211447107848,1.53198213327711,-5.86896154314912,0.0870483,-0.22388211,0.09712757,164.37122,-177.1616,-53.270058,BSC
4187470157000,2.870072,-9.47820637265602,1.55620210964381,-5.69457812806826,0.1001819,-0.2144137,0.071776666,164.43294,-177.13022,-53.322662,BSC
4187475047000,2.874962,-9.40747647252747,1.60101057472527,-5.55191704395604,0.10751228,-0.21380283,0.042455133,164.51645,-177.11746,-53.43083,BSC
4187479963000,2.879878,-9.32632248567119,1.65173196877828,-5.41496921116139,0.10842858,-0.21594086,0.009162978,164.59619,-177.1134,-53.535683,BSC
4187485044000,2.884959,-9.21317954649718,1.66098974936443,-5.34669110214088,0.10567969,-0.24312437,-0.015577064,164.68298,-177.10817,-53.666023,BSC
4187490134000,2.890049,-9.09670718245245,1.66564863419669,-5.28612564796903,0.0888809,-0.25625798,-0.035430185,164.76189,-177.10776,-53.79124,BSC
4187495083000,2.894998,-8.99826118910004,1.6251061353781,-5.28664406605455,0.09254608,-0.25900686,-0.05497787,164.8439,-177.10956,-53.928604,BSC
4187499960000,2.899875,-8.90398444761717,1.5768180248523,-5.29814119978338,0.0842994,-0.24648413,-0.06169739,164.91852,-177.10852,-54.062786,BSC
4187505054000,2.904969,-8.80551290340685,1.52638135578968,-5.31014989349153,0.08124508,-0.24495697,-0.07544186,164.97946,-177.1103,-54.200912,BSC
4187510077000,2.909992,-8.70841385225483,1.47664767131745,-5.32199121043226,0.08827003,-0.23793201,-0.070249505,165.04349,-177.10986,-54.330936,BSC
4187515058000,2.914973,-8.63856218907857,1.37370912356993,-5.30639619059599,0.095294975,-0.21991149,-0.06811147,165.10454,-177.11304,-54.455196,BSC
4187520084000,2.919999,-8.57609568733154,1.25358079946092,-5.28237058598383,0.09743301,-0.20586158,-0.06688975,165.16733,-177.11577,-54.575996,BSC
4187525083000,2.924998,-8.55437159118873,1.1419472743203,-5.21846645774955,0.116675265,-0.19547687,-0.063224554,165.22667,-177.13347,-54.669212,BSC
4187530116000,2.930031,-8.54480599464179,1.03194511141099,-5.14194303376662,0.113926366,-0.18478674,-0.058948494,165.28203,-177.14723,-54.756607,BSC
4187535057000,2.934972,-8.50393233836799,0.935419942569635,-5.09202628222832,0.1151481,-0.17256944,-0.06352998,165.34453,-177.18105,-54.837696,BSC
4187540275000,2.94019,-8.45001999921538,0.83739762219694,-5.04791627030208,0.121256754,-0.15210545,-0.051923547,165.41104,-177.20966,-54.911545,BSC
4187545061000,2.944976,-8.41180561794392,0.769645889820561,-5.0088684962243,0.12736541,-0.14874569,-0.040927973,165.47816,-177.25095,-55.001232,BSC
4187550140000,2.950055,-8.37543902859813,0.706003997714019,-4.96795586960748,0.11209377,-0.129198,-0.037873644,165.5425,-177.28775,-55.079006,BSC
4187555059000,2.954974,-8.33419231940556,0.659450720374758,-4.94828009325867,0.10995574,-0.110872045,-0.027794369,165.61937,-177.32942,-55.156784,BSC
4187560106000,2.960021,-8.2873464197717,0.623015326230885,-4.94307509596166,0.09315695,-0.093462385,-0.01282817,165.69048,-177.3632,-55.227936,BSC
4187565063000,2.964978,-8.27754345918177,0.590636551346908,-4.91617053282272,0.08277224,-0.06688975,-0.007941248,165.76503,-177.40416,-55.293983,BSC
4187570058000,2.969973,-8.28201124546983,0.559359415927517,-4.88042530318513,0.067500606,-0.0421497,-0.0015271631,165.83696,-177.43669,-55.354336,BSC
4187575091000,2.975006,-8.29491481492537,0.540389207164179,-4.85404038567164,0.05131268,-0.019547688,0.0076358155,165.90579,-177.46802,-55.404015,BSC
4187580086000,2.980001,-8.31395446268657,0.530869582089552,-4.8350010858209,0.029932396,-0.01740966,0.0143553335,165.96999,-177.49423,-55.451946,BSC
4187585065000,2.98498,-8.32765636685139,0.507784991770277,-4.83212195384383,0.019242255,-0.007330383,0.0143553335,166.03458,-177.51776,-55.499565,BSC
4187590185000,2.9901,-8.33753732201511,0.473202334803023,-4.84200270265995,-0.0015271631,0.019242255,0.01985312,166.09337,-177.53288,-55.541058,BSC
4187595109000,2.995024,-8.3722255583188,0.451980109197027,-4.89467282062953,-0.023518313,0.038179077,0.033292156,166.15306,-177.5453,-55.586002,BSC
4187600116000,3.000031,-8.42503040864458,0.438778928779481,-4.97828016335689,-0.035124753,0.04550946,0.03848451,166.2094,-177.55643,-55.626312,BSC
4187605063000,3.004978,-8.48041498348158,0.422924926048285,-5.03987041270648,-0.046731193,0.069027774,0.04153884,166.25594,-177.56767,-55.65925,BSC
4187610131000,3.010046,-8.54208584625159,0.40236785373147,-5.07070589775519,-0.04520403,0.09468412,0.046120327,166.3036,-177.57741,-55.688904,BSC
4187615058000,3.014973,-8.60914491233385,0.390280146123925,-5.0923908362588,-0.058948494,0.118507855,0.051618114,166.3414,-177.58324,-55.705006,BSC
4187620056000,3.019971,-8.68399230697811,0.385602180295152,-5.10642480213057,-0.06536258,0.12064589,0.052839845,166.38083,-177.59026,-55.72001,BSC
4187625092000,3.025007,-8.74432637930199,0.370437035075133,-5.1158196310551,-0.07238753,0.12003502,0.045814894,166.42229,-177.60042,-55.728085,BSC
4187630074000,3.029989,-8.7867265077557,0.343455170276297,-5.11967418086928,-0.07880162,0.13469578,0.046120327,166.46312,-177.6074,-55.731274,BSC
4187635481000,3.035396,-8.83079520538987,0.315708213658972,-5.12554985508768,-0.08246681,0.13225232,0.037873644,166.50432,-177.61897,-55.744984,BSC
4187640088000,3.040003,-8.84390915664322,0.311336835713861,-5.15177835098583,-0.08857546,0.12858713,0.03145956,166.54314,-177.62837,-55.754997,BSC
4187645436000,3.045351,-8.85724969741273,0.306781897677207,-5.18218697068583,-0.08399397,0.11362094,0.036651913,166.58545,-177.63757,-55.77594,BSC
4187650116000,3.050031,-8.8277997163039,0.314144439081725,-5.20795583869405,-0.07727446,0.11453723,0.030848695,166.6235,-177.65001,-55.79362,BSC
4187655823000,3.055738,-8.79188710045175,0.323122649294456,-5.23937954162628,-0.0711658,0.111177474,0.025045475,166.66145,-177.66203,-55.8139,BSC
4187660069000,3.059984,-8.74659596718517,0.336484062424888,-5.269835505114,-0.06719518,0.11178834,0.022907447,166.69966,-177.67499,-55.832653,BSC
4187665088000,3.065003,-8.68002256301939,0.356968181024931,-5.31080366745152,-0.063224554,0.10354166,0.018020526,166.73746,-177.69055,-55.854893,BSC
4187670044000,3.069959,-8.60808976651449,0.369723808681636,-5.34502255976894,-0.054061573,0.111177474,0.017104227,166.7721,-177.70486,-55.86349,BSC
4187675107000,3.075022,-8.53129071252213,0.378758997053946,-5.37664562472748,-0.036651913,0.10567969,0.019242255,166.80887,-177.72116,-55.878193,LYI
4187680069000,3.079984,-8.474971469587,0.382037710316227,-5.3927765712891,-0.029932396,0.11789699,0.024740042,166.8449,-177.7324,-55.87009,LYI
4187685069000,3.084984,-8.43635353164396,0.380005196202725,-5.39480912784923,-0.020463986,0.105068825,0.022602014,166.88406,-177.74777,-55.871284,LYI
4187690133000,3.090048,-8.39724128409525,0.37794666590857,-5.39686770113333,-0.007330383,0.105374254,0.01985312,166.92473,-177.75877,-55.849525,LYI
4187695103000,3.095018,-8.35885505377987,0.375926346879749,-5.39888806235409,0.009773844,0.073303826,0.027794369,166.96902,-177.76958,-55.84139,LYI
4187700145000,3.10006,-8.31991272515811,0.373876759647693,-5.40093769238932,0.002443461,0.05681047,0.030848695,167.0085,-177.77997,-55.82974,LYI
4187705124000,3.105039,-8.26846492624623,0.367180725758342,-5.37606006303337,0.009468411,0.059864793,0.030543262,167.05522,-177.79393,-55.822224,LYI
4187710120000,3.110035,-8.21381544431753,0.359373645265563,-5.34483174106225,0.02107485,0.052839845,0.03481932,167.10175,-177.80531,-55.822655,LYI
4187715082000,3.114997,-8.16678389938315,0.357715868615634,-5.34494861646274,0.013744468,0.039095376,0.056505036,167.15161,-177.81267,-55.809013,LYI
4187720101000,3.120016,-8.13275986034988,0.367436964621296,-5.40327509098999,0.01740966,0.049480084,0.052534413,167.20224,-177.82828,-55.791813,LYI
4187725631000,3.125546,-8.09198406439476,0.370233633236281,-5.41244416328402,0.029321533,0.06627888,0.05497787,167.25615,-177.83781,-55.776016,LYI
4187730078000,3.129993,-8.05575094589497,0.364194772445999,-5.36212042145389,0.037873644,0.070249505,0.057421334,167.30844,-177.8481,-55.76186,LYI
4187734999000,3.134914,-8.015655785981,0.357512237265208,-5.30643273682469,0.03756821,0.07147124,0.061086524,167.36436,-177.85332,-55.727566,LYI
4187740095000,3.14001,-7.97413476689512,0.350592058585811,-5.24876469356714,0.043982297,0.050396383,0.06994407,167.4237,-177.85902,-55.69984,LYI
4187744969000,3.144884,-7.94161909674663,0.349657824552525,-5.21243823264322,0.040927973,0.014660766,0.074830994,167.47473,-177.86084,-55.680286,LYI
4187750123000,3.150038,-7.96324641892869,0.392912389876219,-5.32057439189396,0.024740042,0.019242255,0.08155051,167.52469,-177.85902,-55.656174,LYI
4187755055000,3.15497,-7.97019690271605,0.4213795,-5.37717582824691,0.018936822,0.047036625,0.081855945,167.58028,-177.86055,-55.64534,LYI
4187760174000,3.160089,-7.94598769817284,0.4213795,-5.32875749499753,0.022907447,0.0421497,0.09468412,167.63646,-177.85664,-55.64282,LYI
4187764987000,3.164902,-7.92322565451852,0.4213795,-5.28323347899259,0.019547688,0.043066,0.0888809,167.67468,-177.85046,-55.62095,LYI
4187770045000,3.16996,-7.8993049362963,0.4213795,-5.23539211748148,0.022602014,0.026572637,0.09010262,167.71758,-177.84163,-55.60603,LYI
4187775060000,3.174975,-7.88657024747821,0.432310618969738,-5.22935592437567,0.00580322,0.0015271631,0.09315695,167.75343,-177.8303,-55.594246,LYI
4187780059000,3.179974,-7.90532420820684,0.474507270498482,-5.34188022727451,-0.0027488936,0.02321288,0.09560041,167.79117,-177.82098,-55.57456,LYI
4187785070000,3.184985,-7.92280817091135,0.514078788632532,-5.4281899786139,0.0009162979,0.047647487,0.09896017,167.83292,-177.8108,-55.57061,LYI
4187790093000,3.190008,-7.93561439164966,0.54395989309433,-5.41965261698465,0.014049901,0.06414085,0.0983493,167.87389,-177.8016,-55.563206,LYI
4187795729000,3.195644,-7.95119653368176,0.579013065737515,-5.41285361672474,0.0076358155,0.06963864,0.101098195,167.90231,-177.77417,-55.538097,LYI
4187800123000,3.200038,-7.9734119592968,0.619000878238834,-5.43062586442825,0.00580322,0.05955936,0.0870483,167.93115,-177.75453,-55.51407,LYI
4187805139000,3.205054,-7.99437206360253,0.666076387682359,-5.45071061639375,-0.004886922,0.05589417,0.09682214,167.96075,-177.72359,-55.489193,LYI
4187810136000,3.210051,-7.96765717547451,0.728411159192408,-5.46852044882769,-0.00030543262,0.045814894,0.09162979,167.98799,-177.7025,-55.470432,LYI
4187815067000,3.214982,-7.94129513557871,0.789922617730741,-5.48609505033495,-0.0021380284,0.03573562,0.09407325,168.01695,-177.68044,-55.447796,LYI
4187820055000,3.21997,-7.96450179580413,0.803317997526644,-5.51283918396543,-0.004886922,-0.008552114,0.09162979,168.04434,-177.66202,-55.438877,LYI
4187825109000,3.225024,-7.99238531795487,0.812612500057609,-5.54072280316851,-0.00580322,0.00030543262,0.1001819,168.07324,-177.64113,-55.418114,LYI
4187830063000,3.229978,-7.99303854834021,0.846383162476225,-5.50542645666607,0.011301007,0.01985312,0.09896017,168.0984,-177.61838,-55.400475,LYI
4187834999000,3.234914,-7.98879746770142,0.884552932510318,-5.45877448106944,0.022602014,0.022602014,0.10629055,168.12424,-177.59149,-55.38531,LYI
4187840084000,3.239999,-8.01921424442371,0.903435604368825,-5.4814307439517,0.021380283,-0.007330383,0.09987647,168.14745,-177.56348,-55.374012,LYI
4187845089000,3.245004,-8.07182899102085,0.908697062546652,-5.5498298101427,0.027183503,-0.00061086525,0.10262536,168.17694,-177.53557,-55.351875,LYI
4187850065000,3.24998,-8.07556885772123,0.924308637703875,-5.58226457686524,0.02321288,0.01863139,0.09407325,168.20345,-177.50671,-55.341766,LYI
4187855079000,3.254994,-8.06631127568922,0.942823410275689,-5.60540804862155,0.032375857,0.018936822,0.09010262,168.23499,-177.48027,-55.33542,LYI
4187860081000,3.259996,-8.04675126036205,0.92441619683945,-5.57140122486893,0.05131268,0.019242255,0.096516706,168.26483,-177.45644,-55.319782,LYI
4187865248000,3.265163,-8.0222763738253,0.890151330131566,-5.51266149718073,0.043982297,0.015577064,0.094989546,168.28806,-177.43343,-55.306095,LYI
4187870051000,3.269966,-8.03361629328535,0.884307893688622,-5.50194952530073,0.045814894,-0.02565634,0.102319926,168.31671,-177.40967,-55.29853,LYI
4187875049000,3.274964,-8.0595734176198,0.889027376664366,-5.50902872758825,0.057726767,-0.09132435,0.09040806,168.34193,-177.39203,-55.300148,LYI
4187880059000,3.279974,-8.08559286398146,0.893758190931769,-5.51612492676001,0.059864793,-0.10720685,0.10048734,168.3643,-177.36807,-55.311234,LYI
4187885069000,3.284984,-8.11161231034313,0.898489005199172,-5.52322112593177,0.06352998,-0.08246681,0.10170906,168.3863,-177.35185,-55.329453,LYI
4187890102000,3.290017,-8.12721489003573,0.903261320897181,-5.53494184620881,0.08124508,-0.062002823,0.10354166,168.4134,-177.34167,-55.35214,LYI
4187895089000,3.295004,-8.13669469397578,0.908001247614133,-5.54916172534736,0.07086037,-0.043066,0.098043874,168.43358,-177.32944,-55.36799,LYI
4187900139000,3.300054,-8.13877555803571,0.90979666,-5.53038814021349,0.07360926,-0.019547688,0.093767814,168.46288,-177.32135,-55.379536,LYI
4187905087000,3.305002,-8.13641200446429,0.90979666,-5.49257004903232,0.073303826,-0.027488936,0.09468412,168.48865,-177.31152,-55.39457,LYI
4187910132000,3.310047,-8.13400211607143,0.90979666,-5.45401057651636,0.086132,-0.033292156,0.093767814,168.51727,-177.3079,-55.400307,LYI
4187915098000,3.315013,-8.13162996428571,0.90979666,-5.4160549094174,0.0711658,-0.01282817,0.08979719,168.53856,-177.30045,-55.40095,LYI
4187920049000,3.319964,-8.13627560390328,0.911188316788444,-5.4054939747248,0.07727446,-0.025350908,0.090713486,168.56807,-177.29764,-55.412636,LYI
4187925120000,3.325035,-8.14561343003413,0.913522783071672,-5.41249738088737,0.07391469,-0.008246681,0.089491755,168.59044,-177.29243,-55.41035,LYI
4187930053000,3.329968,-8.15469714060472,0.915793720199491,-5.4193101993847,0.07788532,0.031154128,0.087964594,168.62187,-177.29001,-55.415936,LYI
4187935087000,3.335002,-8.16396683430274,0.91811115330337,-5.42626250595587,0.0852157,0.023823744,0.08155051,168.65193,-177.28917,-55.43011,LYI
4187940110000,3.340025,-8.16287379366418,0.914254957191059,-5.4300494,0.070249505,0.018020526,0.086132,168.68639,-177.27797,-55.42905,LYI
4187945075000,3.34499,-8.14950419504194,0.903113652150991,-5.4300494,0.07971791,-0.018020526,0.07971791,168.7248,-177.27625,-55.439533,LYI
4187949968000,3.349883,-8.13632847579549,0.892133912863771,-5.4300494,0.059864793,-0.06078109,0.07666359,168.75334,-177.26537,-55.453438,LYI
4187955066000,3.354981,-8.12260073888186,0.880694159974694,-5.4300494,0.059253927,-0.07727446,0.07880162,168.78798,-177.25961,-55.470196,LYI
4187960074000,3.359989,-8.11408881027937,0.869800199026574,-5.44102922396574,0.05222898,-0.05681047,0.08368854,168.8167,-177.2556,-55.48732,LYI
4187965060000,3.364975,-8.12803315691619,0.860504000292028,-5.50145461281028,0.053145275,-0.03023783,0.084910266,168.8467,-177.25323,-55.507015,LYI
4187970083000,3.369998,-8.13605571375921,0.849918773161671,-5.54850543921376,0.04795292,0.016798794,0.08552113,168.87442,-177.24371,-55.512123,LYI
4187975077000,3.374992,-8.10315298402948,0.831117165637346,-5.50150146948403,0.051618114,0.04550946,0.08124508,168.90344,-177.23698,-55.51496,LYI
4187979997000,3.379912,-8.07355382826251,0.812805273774202,-5.45725089062107,0.06505715,0.04520403,0.081855945,168.92714,-177.22406,-55.507637,LYI
4187985076000,3.384991,-8.07763073573045,0.796498001488559,-5.43686677897913,0.055283304,0.040011674,0.093767814,168.94687,-177.20673,-55.493946,LYI
4187990099000,3.390014,-8.08166269206269,0.780370529803034,-5.41670741832202,0.038179077,0.033292156,0.093767814,168.9691,-177.19592,-55.485023,LYI
4187995086000,3.395001,-8.07236419660494,0.793155693666667,-5.38648789565844,0.050701816,-0.015882496,0.09712757,168.99796,-177.18517,-55.489822,LYI
4188000080000,3.399995,-8.05760261080247,0.817757802333333,-5.35204481199589,0.04886922,-0.037873644,0.10323623,169.0194,-177.16916,-55.489086,LYI
4188005056000,3.404971,-8.05049283301905,0.830807934628821,-5.37266843834855,0.04917465,-0.04337143,0.108123146,169.0535,-177.16096,-55.49816,LYI
4188010099000,3.410014,-8.04569983088527,0.840394259213974,-5.41101365660977,0.052534413,-0.045814894,0.10995574,169.08795,-177.1526,-55.512543,LYI
4188015085000,3.415,-8.06224424396517,0.835668287605857,-5.45238081317768,0.048258353,-0.03145956,0.11636983,169.12328,-177.1387,-55.52626,LYI
4188020097000,3.420012,-8.08598727997625,0.82617105336763,-5.4951183771666,0.04795292,-0.022296581,0.1160644,169.15907,-177.12761,-55.54214,LYI
4188025053000,3.424968,-8.09587212611933,0.813193159096488,-5.52054686688802,0.06352998,-0.02076942,0.122478485,169.19771,-177.11359,-55.54834,LYI
4188030066000,3.429981,-8.10070228956636,0.798702219860147,-5.53986802505282,0.057421334,-0.0106901415,0.12034045,169.22917,-177.09866,-55.54991,LYI
4188035066000,3.434981,-8.08457252348462,0.79835606166815,-5.49971676106002,0.06627888,-0.015882496,0.122478485,169.26692,-177.08762,-55.551758,LYI
4188040087000,3.440002,-8.06079861228122,0.803110838943933,-5.43790459193118,0.06994407,-0.04520403,0.12797627,169.3016,-177.0749,-55.557972,LYI
4188045076000,3.444991,-8.09059647186416,0.78315870646813,-5.42959818620322,0.071776666,-0.052839845,0.13591751,169.33704,-177.06412,-55.557724,LYI
4188050658000,3.450573,-8.14762328349187,0.749893152363766,-5.44385483948795,0.06872234,-0.047036625,0.13652839,169.37132,-177.05391,-55.562237,LYI
4188055049000,3.454964,-8.16660098528927,0.730169207168734,-5.44437307144582,0.07238753,-0.053145275,0.13805555,169.4141,-177.03142,-55.5789,LYI
4188060086000,3.460001,-8.16130519552091,0.714282169645406,-5.43378171309694,0.07941248,-0.044593163,0.14172074,169.45679,-177.0092,-55.589664,LYI
4188065069000,3.464984,-8.17723366048847,0.702752167149339,-5.42411792908582,0.09132435,-0.046731193,0.1459968,169.50417,-176.99289,-55.60965,LYI
4188070050000,3.469965,-8.20486308813592,0.693542389989381,-5.41490824809345,0.09437868,-0.036651913,0.1459968,169.55038,-176.97707,-55.6237,LYI
4188075003000,3.474918,-8.22078454501288,0.693414699096342,-5.41478054501288,0.09407325,-0.018325957,0.14049901,169.59953,-176.96556,-55.636684,LYI
4188080092000,3.480007,-8.22788783267745,0.700518085658067,-5.42188383267745,0.09437868,-0.02565634,0.14294247,169.65012,-176.95325,-55.653988,LYI
4188085086000,3.485001,-8.23485851819463,0.707488868226206,-5.42885451819463,0.11056661,-0.03359759,0.13775012,169.70885,-176.95064,-55.66857,LYI
4188090103000,3.490018,-8.24186130738959,0.714491754919108,-5.43585730738959,0.10842858,-0.038789943,0.14049901,169.76419,-176.94296,-55.68434,LYI
4188095070000,3.494985,-8.26198463323917,0.720304813145009,-5.46211348728813,0.10170906,-0.05100725,0.14049901,169.82175,-176.9452,-55.703346,LYI
4188100142000,3.500057,-8.29857514924671,0.724878591826742,-5.51242514830509,0.1001819,-0.051618114,0.1386664,169.87933,-176.9477,-55.72063,LYI
4188104999000,3.504914,-8.31921374991214,0.729352893392579,-5.53663522051514,0.11759156,-0.03726278,0.13897185,169.93834,-176.94283,-55.736965,LYI
4188110138000,3.510053,-8.30932948963197,0.734294920324346,-5.50945402078626,0.10629055,-0.01160644,0.13836098,169.98903,-176.93405,-55.750305,LYI
4188114970000,3.514885,-8.30003570763669,0.738941714279259,-5.48389660551288,0.11728613,-0.013439035,0.14202617,170.0508,-176.9215,-55.76196,LYI
4188120723000,3.520638,-8.28897049078677,0.744474207164734,-5.45346783687302,0.11636983,-0.028710667,0.13041973,170.10356,-176.90958,-55.770977,LYI
4188125002000,3.524917,-8.28850602899244,0.751559849478519,-5.4441949653813,0.10751228,-0.03145956,0.13072516,170.15862,-176.895,-55.77692,LYI
4188130101000,3.530016,-8.30252376595541,0.765577342493541,-5.45821250718592,0.118507855,-0.047036625,0.119729586,170.21355,-176.88933,-55.79177,LYI
4188135091000,3.535006,-8.31209846203111,0.780277608600183,-5.4683566,0.118507855,-0.05222898,0.12644911,170.26822,-176.88431,-55.809498,LYI
4188140115000,3.54003,-8.3098974168344,0.797885602451967,-5.4683566,0.11484267,-0.06536258,0.112399206,170.31873,-176.888,-55.834793,LYI
4188145081000,3.544996,-8.30772178179323,0.815290319304666,-5.4683566,0.12003502,-0.07360926,0.115453534,170.37286,-176.88553,-55.859077,LYI
4188150122000,3.550037,-8.30551328879232,0.832957894345837,-5.4683566,0.116980694,-0.057421334,0.11759156,170.42119,-176.88474,-55.880356,LYI
4188155061000,3.554976,-8.30334948261665,0.850267982250686,-5.4683566,0.12614368,-0.035430185,0.108123146,170.47166,-176.88876,-55.90232,LYI
4188160084000,3.559999,-8.26394297715164,0.826237043914959,-5.39006041804303,0.12308934,-0.0571159,0.09865474,170.51828,-176.8899,-55.931946,LYI
4188164993000,3.564908,-8.22059137684426,0.797335894891393,-5.30335706653689,0.11728613,-0.077579886,0.10048734,170.56604,-176.89153,-55.954937,LYI
4188170064000,3.569979,-8.19563802347552,0.816136959845405,-5.32999341803607,0.116980694,-0.098043874,0.09193522,170.60674,-176.89253,-55.984882,LYI
4188174981000,3.574896,-8.17316969367306,0.838605303724592,-5.3659426987976,0.12003502,-0.11362094,0.09590584,170.64877,-176.88982,-56.018494,LYI
4188180092000,3.580007,-8.20251966160962,0.861372211851989,-5.42470560562442,0.13072516,-0.108123146,0.08857546,170.69434,-176.89621,-56.060818,LYI
4188185052000,3.584967,-8.24206705846439,0.88334306639408,-5.48622401302498,0.1255328,-0.07788532,0.087964594,170.73831,-176.89798,-56.099445,LYI
4188190103000,3.590018,-8.25022974652548,0.888983942014967,-5.48509556667515,0.1337795,-0.052839845,0.07574729,170.77959,-176.90486,-56.129284,LYI
4188194977000,3.594892,-8.24310099735275,0.886607644319096,-5.45420384054371,0.1301143,-0.053450707,0.07238753,170.81776,-176.90704,-56.15726,LYI
4188200117000,3.600032,-8.23558319457313,0.884101659469531,-5.42162618926844,0.12308934,-0.052534413,0.06688975,170.85074,-176.9107,-56.171894,LYI
4188205076000,3.604991,-8.2283301237591,0.881683920389961,-5.39019572765871,0.10995574,-0.05681047,0.058643065,170.88,-176.91414,-56.188316,LYI
4188210137000,3.610052,-8.22463799109222,0.873710317987651,-5.37848749739852,0.10903945,-0.0693332,0.057421334,170.91068,-176.91618,-56.206646,LYI
4188214998000,3.614913,-8.22228179122381,0.86428571533556,-5.37377524527786,0.09712757,-0.076358154,0.052839845,170.93349,-176.91708,-56.22479,LYI
4188220003000,3.619918,-8.21985579238789,0.854581922643992,-5.3689233995951,0.096516706,-0.11362094,0.05009095,170.96307,-176.92543,-56.262367,LYI
4188225073000,3.624988,-8.21739828707359,0.844752106670716,-5.36400854292945,0.08368854,-0.1328632,0.040011674,170.98488,-176.93253,-56.296665,LYI
4188230088000,3.630003,-8.24670429462272,0.856005383902862,-5.40275108254987,0.062308256,-0.1142318,0.03940081,171.0055,-176.94159,-56.329548,LYI
4188235070000,3.634985,-8.28394658100607,0.872557549592368,-5.45240749320035,0.060170226,-0.080634214,0.033292156,171.02525,-176.95493,-56.36316,LYI
4188240069000,3.639984,-8.31089966666667,0.888874991692308,-5.44409537333333,0.06963864,-0.0580322,0.038179077,171.04535,-176.96597,-56.394802,LYI
4188245079000,3.644994,-8.3269461884058,0.904921770354515,-5.37455947768116,0.055283304,-0.051923547,0.03359759,171.05682,-176.97621,-56.42142,LYI
4188250141000,3.650056,-8.33846175017138,0.899836241980218,-5.32023367593771,0.039095376,-0.048258353,0.023823744,171.06966,-176.97945,-56.436436,LYI
4188255065000,3.65498,-8.34769877103124,0.885981694429537,-5.27405194721379,0.030543262,-0.053145275,0.028710667,171.08241,-176.9791,-56.45165,LYI
4188260114000,3.660029,-8.34495796793377,0.884075162620486,-5.25014461701318,0.023518313,-0.046120327,0.033292156,171.096,-176.97775,-56.47276,LYI
4188265060000,3.664975,-8.33594367762501,0.888582227769161,-5.23887698943813,0.014660766,-0.033292156,0.020158553,171.10509,-176.97784,-56.493458,LYI
4188270080000,3.669995,-8.32679451924449,0.893156725756696,-5.22744078029402,0.005192355,-0.028099801,0.013744468,171.11807,-176.98097,-56.5221,LYI
4188275082000,3.674997,-8.31767816661116,0.897714821161806,-5.21604557747752,-0.008552114,-0.03023783,0.009773844,171.12631,-176.98438,-56.548904,LYI
4188280090000,3.680005,-8.31726594123273,0.893322717689692,-5.21438110927737,-0.0076358155,-0.020158553,0.008857546,171.13538,-176.9892,-56.570282,LYI
4188285087000,3.685002,-8.32743677449522,0.878065958006376,-5.22455231426142,-0.020463986,-0.015882496,0.01160644,171.13803,-176.9896,-56.593334,LYI
4188290088000,3.690003,-8.33703260980505,0.868883785550459,-5.23414792889908,-0.018020526,-0.009162978,0.011911872,171.14436,-176.99008,-56.614307,LYI
4188295077000,3.694992,-8.34616528325688,0.864317782568807,-5.24327993486239,-0.01863139,-0.0027488936,0.005192355,171.14641,-176.98914,-56.63373,LYI
4188300129000,3.700044,-8.35330188397956,0.854935093778179,-5.23413528755636,-0.024129177,0.005497787,0.0061086523,171.14925,-176.98749,-56.649868,LYI
4188305072000,3.704987,-8.3580448066326,0.840706622963631,-5.20567834592726,-0.040317107,0.01160644,0.0033597588,171.14789,-176.98647,-56.664665,LYI
4188310131000,3.710046,-8.36289668581724,0.826151279591632,-5.20234768436593,-0.038179077,0.011301007,0.0067195175,171.15538,-176.98839,-56.675262,LYI
4188315068000,3.714983,-8.36762910989891,0.811954284067661,-5.22600931062957,-0.038179077,0.029932396,0.012217305,171.15846,-176.98749,-56.678528,LYI
4188319994000,3.719909,-8.36581667334046,0.815234860464574,-5.23420028593644,-0.052534413,0.023518313,0.0070249503,171.1605,-176.98814,-56.694054,LYI
4188325112000,3.725027,-8.35628900573428,0.839053551952571,-5.22467286704247,-0.057421334,0.026267206,0.007330383,171.16652,-176.98756,-56.70122,LYI
4188329964000,3.729879,-8.35841114532738,0.848618207926948,-5.21192479644453,-0.055283304,0.035124753,0.0076358155,171.16563,-176.98186,-56.707626,LYI
4188335075000,3.73499,-8.3774306787449,0.839108391567904,-5.19290511407616,-0.056505036,0.03573562,0.008857546,171.1631,-176.97473,-56.71533,LYI
4188340239000,3.740154,-8.3911444106266,0.842489058770379,-5.18663679582597,-0.067500606,0.040317107,0.005497787,171.158,-176.96497,-56.71932,LYI
4188345050000,3.744965,-8.3956695478295,0.865114272284424,-5.20021187668435,-0.07269296,0.03604105,-0.002443461,171.15356,-176.95697,-56.725613,LYI
4188349973000,3.749888,-8.3930249570192,0.872313583738932,-5.21415932031639,-0.06963864,0.04337143,-0.0021380284,171.15895,-176.95197,-56.728058,LYI
4188355048000,3.754963,-8.37368279952243,0.843300175819321,-5.22866606467018,-0.07696902,0.043676864,-0.00580322,171.15875,-176.94746,-56.733917,LYI
4188359985000,3.7599,-8.3507382430576,0.82921368127171,-5.24412181541556,-0.06658431,0.04886922,-0.0036651916,171.1631,-176.94218,-56.73392,LYI
4188364987000,3.764902,-8.31783380993033,0.848015841460112,-5.26292395597095,-0.06566802,0.051923547,-0.0027488936,171.16269,-176.9356,-56.734547,LYI
4188369992000,3.769907,-8.29046649746983,0.863131601012067,-5.27803970101207,-0.07544186,0.047647487,-0.005497787,171.16296,-176.92819,-56.731083,LYI
4188375623000,3.775538,-8.27734685928377,0.868379456286493,-5.28328755628649,-0.070554934,0.053450707,-0.0018325958,171.16801,-176.92162,-56.72384,LYI
4188380087000,3.780002,-8.26694620844687,0.872539716621253,-5.28744781662125,-0.07727446,0.057726767,-0.002443461,171.16286,-176.91098,-56.712032,LYI
4188385002000,3.784917,-8.25549477500973,0.877120289996107,-5.29202838999611,-0.07422013,0.06047566,-0.0033597588,171.16162,-176.90208,-56.699207,LYI
4188400239000,3.800154,-8.20578476314673,0.889617551274385,-5.30811476378287,-0.06414085,0.06291912,-0.00580322,171.14156,-176.84001,-56.66247,LYI
4188404942000,3.804857,-8.19145936132315,0.880067120508906,-5.33199076590331,-0.06566802,0.069027774,-0.004276057,171.12924,-176.81654,-56.64974,LYI
4188410085000,3.81,-8.17408101435456,0.868782208612734,-5.35614219138727,-0.06780604,0.061391957,-0.0021380284,171.11821,-176.79185,-56.636112,LYI
4188414951000,3.814866,-8.15019056587717,0.8544479395263,-5.3704764604737,-0.06566802,0.06047566,-0.0027488936,171.10762,-176.76865,-56.619194,LYI
4188419932000,3.819847,-8.13359567823844,0.844683478952589,-5.38697659738147,-0.057421334,0.053145275,-0.0018325958,171.09763,-176.75266,-56.60029,LYI
4188424977000,3.824892,-8.14797207677048,0.854267878079746,-5.41093759519937,-0.050701816,0.054061573,0.0015271631,171.08804,-176.7368,-56.57965,LYI
4188429971000,3.829886,-8.15760829644775,0.860539565167266,-5.42959172172242,-0.049785517,0.04734206,-0.00030543262,171.07568,-176.72025,-56.559956,LYI
4188434962000,3.834877,-8.14818866610829,0.853474805527911,-5.42723680184264,-0.0580322,0.04153884,-0.0009162979,171.06342,-176.70273,-56.540062,LYI
4188439964000,3.839879,-8.13874827521309,0.846394475390452,-5.42487669179682,-0.05009095,0.04184427,0.0076358155,171.055,-176.68558,-56.518208,LYI
4188445281000,3.845196,-8.12871337749421,0.838868262807311,-5.4223679542691,-0.04917465,0.038789943,0.003970624,171.04091,-176.66959,-56.49973,LYI
4188449947000,3.849862,-8.11935228304858,0.836741625230505,-5.42106583691896,-0.046120327,0.032986723,-0.0012217305,171.02814,-176.64944,-56.48364,LYI
4188455093000,3.855008,-8.10524069070344,0.86496474115682,-5.42576968466164,-0.033292156,0.03940081,0.0012217305,171.0186,-176.63065,-56.465126,LYI
4188460201000,3.860116,-8.09130489638025,0.890277524442254,-5.42968386673237,-0.047647487,0.028099801,0.008246681,171.00282,-176.61009,-56.45267,LYI
4188465082000,3.864997,-8.07874029011737,0.88608931069259,-5.42549567922229,-0.040317107,0.02443461,0.003970624,170.99384,-176.59753,-56.436832,LYI
4188471325000,3.87124,-8.06384067812898,0.880896525414465,-5.42064227458553,-0.038789943,0.022296581,0.003970624,170.98248,-176.57562,-56.41968,LYI
4188475150000,3.875065,-8.06550910703224,0.879228131353616,-5.42231066864638,-0.03268129,0.01740966,0.0018325958,170.97295,-176.55772,-56.404884,LYI
4188479983000,3.879898,-8.06761721602296,0.87712006638732,-5.42441873361268,-0.02565634,0.015577064,0.01038471,170.96536,-176.5386,-56.38914,LYI
4188485078000,3.884993,-8.06983960694116,0.874897721880124,-5.42664107811988,-0.0290161,0.008246681,0.00580322,170.95433,-176.52296,-56.37711,LYI
4188490116000,3.890031,-8.07203713499727,0.872700239715795,-5.4288385602842,-0.022907447,0.009773844,0.016187929,170.95096,-176.50485,-56.362633,LYI
4188495001000,3.894916,-8.07430647882821,0.870430943276386,-5.43322479227544,-0.020158553,0.009468411,0.0143553335,170.95113,-176.49727,-56.346676,LYI
4188500116000,3.900031,-8.07687362876009,0.867863846955246,-5.4409261348496,-0.01985312,0.0027488936,0.009468411,170.95311,-176.4888,-56.332344,LYI
4188505074000,3.904989,-8.07936198249659,0.865375545183943,-5.44839109212871,-0.022907447,0.0076358155,0.009773844,170.95523,-176.48021,-56.31501,LYI
4188510133000,3.910048,-8.08190102677916,0.862836553925165,-5.45600811892883,-0.01740966,0.008246681,0.015882496,170.95941,-176.47298,-56.301167,LYI
4188515422000,3.915337,-8.07965655862598,0.855575849587411,-5.45244311725197,-0.017715093,0.008246681,0.01740966,170.96063,-176.46553,-56.286633,LYI
4188520057000,3.919972,-8.075397357417,0.847057625062368,-5.443924714834,-0.014660766,0.002443461,0.017104227,170.96443,-176.45865,-56.27385,LYI
4188525050000,3.924965,-8.07839516373025,0.840185404698259,-5.44734683965168,-0.013133603,0.0015271631,0.01282817,170.96158,-176.4506,-56.26142,LYI
4188530077000,3.929992,-8.08814452020049,0.835310701012556,-5.46197105251114,-0.010995574,0.003970624,0.0106901415,170.95981,-176.44293,-56.249893,LYI
4188535073000,3.934988,-8.10259040015193,0.845918225448675,-5.45307342265692,-0.0125227375,0.00580322,0.019242255,170.9548,-176.43088,-56.242683,LYI
4188540096000,3.940011,-8.12086203366252,0.86875758847213,-5.42566628242332,0.00061086525,0.008552114,0.018936822,170.95203,-176.42435,-56.23498,LYI
4188545084000,3.944999,-8.13512918752529,0.879961147349251,-5.39984547349251,-0.00030543262,-0.0067195175,0.0143553335,170.94568,-176.41519,-56.230858,LYI
4188550128000,3.950043,-8.14490359606435,0.877517532456495,-5.37540932456495,-0.013133603,-0.006414085,0.016187929,170.94054,-176.40498,-56.22154,LYI
4188555061000,3.954976,-8.15446290560502,0.875127692594091,-5.35151092594091,-0.005192355,-0.0106901415,0.016798794,170.9423,-176.39728,-56.223797,LYI
4188560077000,3.959992,-8.16418305493727,0.872697642573857,-5.32721042573857,0.0021380284,-0.009773844,0.004886922,170.93921,-176.39034,-56.224792,LYI
4188565098000,3.965013,-8.16195492496596,0.873843083485703,-5.32925005176036,-0.008552114,-0.013744468,0.0067195175,170.93608,-176.37865,-56.22786,LYI
4188570065000,3.96998,-8.1480758748298,0.878469417428516,-5.35700795880179,-0.005497787,-0.0106901415,0.004581489,170.93541,-176.37424,-56.229115,LYI
4188575003000,3.974918,-8.14650923551637,0.885215355566751,-5.37673769924433,-0.01038471,-0.02076942,0.008857546,170.93694,-176.36613,-56.24398,LYI
4188580073000,3.979988,-8.16118567229219,0.894999643345088,-5.38652185420655,-0.0076358155,-0.020158553,0.004581489,170.93936,-176.36241,-56.255005,LYI
4188585130000,3.985045,-8.169016,0.893955760685052,-5.388609997219,-0.0015271631,-0.0125227375,0.0027488936,170.9379,-176.34842,-56.261806,LYI
4188590078000,3.989993,-8.169016,0.880777715017381,-5.38202107300116,-0.002443461,-0.007330383,0.0106901415,170.93645,-176.33289,-56.26868,LYI
4188595070000,3.994985,-8.169016,0.867482483818308,-5.37537355689455,-0.008246681,-0.014966198,0.010995574,170.93806,-176.323,-56.274292,LYI
4188600118000,4.000033,-8.169016,0.854038107397451,-5.36865146929316,-0.008246681,-0.010995574,0.004276057,170.94093,-176.314,-56.275074,LYI
4188605093000,4.005008,-8.17038516441267,0.842074414219474,-5.36095822836167,-0.005192355,-0.008246681,0.013744468,170.95506,-176.3017,-56.272495,LYI
4188610131000,4.010046,-8.17970658375193,0.837413680216383,-5.34697592901855,-0.0018325958,0.0021380284,0.013133603,170.96635,-176.29373,-56.26734,LYI
4188615106000,4.015021,-8.18792753183479,0.833666138857035,-5.33476533885703,-0.009773844,-0.008857546,0.01282817,170.97865,-176.28566,-56.270126,LYI
4188620046000,4.019961,-8.18494667713125,0.839627879390082,-5.34072707939008,-0.011911872,-0.009162978,0.005497787,170.99161,-176.28104,-56.267406,LYI
4188625443000,4.025358,-8.18169006319703,0.84614114126394,-5.34724034126394,-0.012217305,-0.00030543262,0.015271631,171.00555,-176.27165,-56.269047,LYI
4188630058000,4.029973,-8.17890531735555,0.851710662025077,-5.35280986202508,-0.016493361,-0.008246681,0.016187929,171.0153,-176.26534,-56.27608,LYI
4188634983000,4.034898,-8.17593351383026,0.857654300107114,-5.35875350010711,-0.009468411,0.0015271631,0.01740966,171.0291,-176.2586,-56.27528,LYI
4188640116000,4.040031,-8.17283620063323,0.863848958843173,-5.36494815884317,-0.014049901,-0.008246681,0.016187929,171.03871,-176.25,-56.282345,LYI
4188645194000,4.045109,-8.16977207508979,0.869977241925525,-5.37107644192553,-0.015577064,-0.006414085,0.004886922,171.04907,-176.24535,-56.28371,LYI
4188650129000,4.050044,-8.17234359403605,0.881471994481457,-5.37591612454468,-0.0067195175,-0.009468411,0.0009162979,171.0491,-176.24545,-56.29581,LYI
4188655063000,4.054978,-8.17680267849391,0.894848996429178,-5.38037511588185,-0.008857546,-0.0012217305,0.01160644,171.04688,-176.24272,-56.30374,LYI
4188659993000,4.059908,-8.19038992387218,0.891372102424812,-5.37921615363409,-0.016493361,-0.00030543262,0.0125227375,171.0458,-176.23824,-56.307995,LYI
4188665191000,4.065106,-8.2111835523183,0.875776767098998,-5.37401771938179,-0.016187929,-0.003970624,0.007941248,171.04694,-176.2336,-56.311005,LYI
4188670067000,4.069982,-8.21386721001378,0.88362032560588,-5.36955593668351,-0.019547688,-0.0033597588,0.014660766,171.047,-176.22293,-56.31154,LYI
4188675136000,4.075051,-8.20940732824988,0.901459508053284,-5.3650962411943,-0.025045475,-0.004276057,0.017715093,171.04532,-176.21414,-56.31376,LYI
4188680062000,4.079977,-8.21227715516893,0.907319634145256,-5.36548897412503,-0.010995574,0.00061086525,0.009162978,171.0558,-176.21101,-56.31309,LYI
4188685067000,4.084982,-8.22197427938499,0.902471173291523,-5.37033733372446,-0.021685716,0.0061086523,0.008246681,171.06067,-176.20084,-56.312202,LYI
4188690094000,4.090009,-8.2183322812795,0.889360444815941,-5.3535846531935,-0.029321533,-0.0061086523,0.010079277,171.06737,-176.19221,-56.315655,LYI
4188695077000,4.094992,-8.20331743356057,0.869341034582066,-5.31855074015732,-0.025045475,-0.004276057,0.008246681,171.0735,-176.18513,-56.313786,LYI
4188700762000,4.100677,-8.21227637199644,0.854647376070405,-5.31644883589439,-0.02321288,-0.008246681,0.013133603,171.08163,-176.17673,-56.315407,LYI
4188705084000,4.104999,-8.22864766182142,0.846461688420844,-5.32872736736873,-0.025961773,-0.0033597588,0.009773844,171.08795,-176.17085,-56.314404,LYI
4188710121000,4.110036,-8.24185758485742,0.851465695457227,-5.33718363181908,-0.023518313,-0.00030543262,0.01160644,171.09969,-176.16597,-56.31869,LYI
4188715095000,4.11501,-8.2512255294002,0.865517318820059,-5.34186750627335,-0.026267206,-0.00061086525,0.008857546,171.10812,-176.16183,-56.322803,LYI
4188720049000,4.119964,-8.24250116425301,0.874030567149397,-5.3463993671494,-0.018936822,-0.00061086525,0.011911872,171.12065,-176.15918,-56.32574,LYI
4188725117000,4.125032,-8.2198275108848,0.87856529782304,-5.35093409782304,-0.018325957,0.0030543262,0.00580322,171.1289,-176.15793,-56.32814,LYI
