timestamp,rel_time,acc_x,acc_y,acc_z,gyro_x,gyro_y,gyro_z,azimuth,pitch,roll,label
6607562436000,0,-3.90831091643908,9.0407484341935,-0.32772116030701,-0.043066,0.037873644,0.0070249503,47.305054,-62.894344,-13.838172,STD
6607567444000,0.005008,-3.91119805197901,9.04147023315207,-0.333976624663142,-0.04642576,0.021685716,-0.00061086525,47.21275,-63.109104,-13.908439,STD
6607572440000,0.010004,-3.91407826946253,9.04219030256042,-0.34021709988743,-0.038789943,0.01740966,-0.00061086525,47.113052,-63.31938,-13.993064,STD
6607577428000,0.014992,-3.91695387490845,9.0429092189353,-0.346447582357155,-0.05009095,0.007941248,-0.0012217305,47.021145,-63.517693,-14.075748,STD
6607583037000,0.020601,-3.92018748977335,9.04371763953407,-0.353453752399795,-0.058948494,0.0033597588,-0.00061086525,46.92994,-63.713375,-14.156497,STD
6607587416000,0.02498,-3.92271200385669,9.04434878123526,-0.35892353642845,-0.06505715,-0.0015271631,-0.0067195175,46.843193,-63.900776,-14.236502,STD
6607592434000,0.029998,-3.92560490444362,9.04507202148569,-0.365191491727784,-0.053450707,0.010079277,-0.004581489,46.753147,-64.08676,-14.313838,STD
6607597423000,0.034987,-3.92848108639424,9.04579108198975,-0.37142322329183,-0.055588737,0.017104227,-0.01282817,46.66843,-64.26059,-14.392946,STD
6607602442000,0.040006,-3.93137456348587,9.04651446636935,-0.377692427685485,-0.05131268,0.017715093,-0.0061086523,46.581345,-64.43673,-14.46646,STD
6607607440000,0.045004,-3.93425593397879,9.04723482403608,-0.383935401098414,-0.05131268,0.022296581,-0.011911872,46.494354,-64.60332,-14.545025,STD
6607612425000,0.049989,-3.93712980991061,9.0479533080234,-0.390162136285178,-0.04062254,0.020158553,-0.004581489,46.407856,-64.77215,-14.616065,STD
6607617441000,0.055005,-3.94002155748814,9.04867626001545,-0.396427593395872,-0.043982297,0.02687807,-0.0067195175,46.320137,-64.93071,-14.690952,STD
6607622438000,0.060002,-3.94290235147636,9.04939647355299,-0.402669317714481,-0.055588737,0.027488936,-0.0076358155,46.23469,-65.0869,-14.761165,STD
6607627431000,0.064995,-3.94578083944578,9.05011611057379,-0.408906045655808,-0.04062254,0.020158553,0.0018325958,46.149643,-65.245544,-14.827503,STD
6607632422000,0.069986,-3.9486581744058,9.05083545933622,-0.415140275408494,-0.053145275,0.012217305,-0.005192355,46.067253,-65.38817,-14.897014,STD
6607637448000,0.075012,-3.95155568703033,9.05155985262012,-0.421418223462391,-0.051618114,-0.00580322,-0.0033597588,45.988743,-65.536476,-14.958485,STD
6607642432000,0.079996,-3.95442898645745,9.05227819247825,-0.427643709554835,-0.058643065,-0.01160644,-0.0027488936,45.91072,-65.674675,-15.021199,STD
6607647416000,0.08498,-3.95730228588456,9.05299653233639,-0.43386919564728,-0.06811147,-0.018325957,0.0015271631,45.838264,-65.80986,-15.079305,STD
6607652695000,0.090259,-3.96034565419831,9.0537573903041,-0.440463164564216,-0.06963864,-0.022296581,0.0070249503,45.767273,-65.94192,-15.135365,STD
6607657478000,0.095042,-3.96310307618063,9.05444676019605,-0.446437582698277,-0.07727446,-0.026267206,0.006414085,45.69911,-66.06668,-15.190099,STD
6607662431000,0.099995,-3.96595850396204,9.05516063204944,-0.452624346866792,-0.06780604,-0.017715093,0.0036651916,45.62896,-66.19202,-15.24358,STD
6607667453000,0.105017,-3.96885371056777,9.05588444881661,-0.458897298543408,-0.06261369,-0.019242255,0.0012217305,45.563515,-66.31138,-15.294757,STD
6607672437000,0.110001,-3.97172700999488,9.05660278867474,-0.465122784635852,-0.055283304,-0.015577064,-0.0012217305,45.495193,-66.42944,-15.3468075,STD
6607677991000,0.115555,-3.97492891710126,9.05740328216833,-0.472060254490875,-0.052839845,-0.025961773,0.00061086525,45.431816,-66.54469,-15.395868,STD
6607682422000,0.119986,-3.97748340942902,9.05804191858715,-0.477594991424186,-0.04550946,-0.014966198,-0.00030543262,45.36254,-66.65837,-15.447451,STD
6607687443000,0.125007,-3.98037803953005,9.05876559122513,-0.483866694006481,-0.04886922,-0.016798794,-0.0021380284,45.300423,-66.76736,-15.495702,STD
6607692434000,0.129998,-3.98325537449007,9.05948493998756,-0.490100923759168,-0.03573562,-0.009773844,-0.0018325958,45.233246,-66.87851,-15.544285,STD
6607697414000,0.134978,-3.98612636789839,9.06020270332895,-0.496321413474331,-0.03145956,-0.01160644,-0.00030543262,45.16982,-66.98397,-15.591081,STD
6607702514000,0.140078,-3.98906654187075,9.06093776217255,-0.502691794507931,-0.03634648,-0.0009162979,-0.0033597588,45.101875,-67.08645,-15.639661,STD
6607707519000,0.145083,-3.99195194789658,9.06165912874357,-0.508943511581102,-0.0290161,-0.00580322,-0.0070249503,45.039463,-67.18957,-15.685528,STD
6607712431000,0.149995,-3.99478373898526,9.06236709130038,-0.515079062882483,-0.028710667,-0.010079277,-0.0009162979,44.973923,-67.28876,-15.729456,STD
6607717446000,0.15501,-3.99767491005809,9.06308989916325,-0.521343270898857,-0.05100725,-0.02321288,-0.0033597588,44.914,-67.37963,-15.774606,STD
6607722446000,0.16001,-4.00055743356041,9.06381054508834,-0.527588742500426,-0.05467244,-0.018936822,-0.0012217305,44.850067,-67.47381,-15.816916,STD
6607727432000,0.164996,-4.00343188599693,9.06452917320484,-0.533816726781511,-0.051923547,-0.01160644,0.005497787,44.78942,-67.562706,-15.856897,STD
6607732417000,0.169981,-4.00630576192875,9.06524765719216,-0.540043461968276,-0.0580322,-0.010995574,0.013744468,44.72979,-67.64745,-15.894767,STD
6607737440000,0.175004,-4.00920154503918,9.06597161808851,-0.546317662739212,-0.06505715,-0.013439035,0.0076358155,44.670162,-67.72864,-15.934221,STD
6607742427000,0.179991,-4.0120765739804,9.0666903903342,-0.552546896114617,-0.06627888,-0.020158553,0.013439035,44.610558,-67.81165,-15.967029,STD
6607747426000,0.18499,-4.01495852097802,9.06741089213011,-0.558791118621866,-0.064751714,-0.024740042,0.012217305,44.55271,-67.88892,-16.002617,STD
6607752538000,0.190102,-4.01790561300679,9.06814768052392,-0.56517648878731,-0.06872234,-0.037873644,0.01160644,44.499317,-67.96412,-16.034527,STD
6607757434000,0.194998,-4.02072818002027,9.06885333701378,-0.571292054579567,-0.074830994,-0.030543262,0.009773844,44.4421,-68.03663,-16.067572,STD
6607762432000,0.199996,-4.02629582691535,9.0664325123392,-0.581112496056853,-0.06658431,-0.032070424,0.007330383,44.391823,-68.1089,-16.098612,STD
6607767455000,0.205019,-4.03495053719952,9.0604223038372,-0.595056189822783,-0.06780604,-0.030848695,0.007330383,44.339138,-68.17642,-16.129536,STD
6607772440000,0.210004,-4.04353977286875,9.05445756376503,-0.608894396755525,-0.07696902,-0.018020526,0.004581489,44.266975,-68.24436,-16.187954,STD
6607777432000,0.214996,-4.05214106965126,9.04848444792947,-0.622752035473328,-0.070554934,-0.009468411,0.0036651916,44.196255,-68.31306,-16.24426,STD
6607782415000,0.219979,-4.06072685928813,9.04252210093256,-0.63658469046748,-0.06169739,0.00030543262,0.008246681,44.12201,-68.37884,-16.29942,STD
6607787442000,0.225006,-4.06938846163703,9.03650710628005,-0.650539488110588,-0.058948494,-0.005192355,-0.003970624,44.051754,-68.438614,-16.357634,STD
6607792459000,0.230023,-4.0780328338241,9.03050407700381,-0.664466526060751,-0.06047566,-0.011301007,-0.0027488936,43.978287,-68.50102,-16.41015,STD
6607797456000,0.23502,-4.08664274568753,9.02452497848011,-0.678338044625026,-0.06872234,-0.03359759,0.004276057,43.91229,-68.55925,-16.46158,STD
6607802504000,0.240068,-4.09534053137625,9.01848485653743,-0.692351137623317,-0.06780604,-0.052534413,0.0070249503,43.848022,-68.616196,-16.51239,STD
6607807539000,0.245103,-4.10401591785461,9.0124602895839,-0.70632814302078,-0.079107046,-0.07849618,0.0070249503,43.8212421727775,-68.642566654445,-16.535552517328,STD
6607812459000,0.250023,-4.11249315747199,9.0065733244575,-0.719985911949384,-0.080634214,-0.0870483,0.007330383,43.795074,-68.668335,-16.558186,STD
6607817507000,0.255071,-4.12119094316071,9.00053320251482,-0.733999004947675,-0.086132,-0.09010262,0.0015271631,43.73933,-68.71935,-16.604698,STD
6607822478000,0.260042,-4.1297560566034,8.99458521396943,-0.747798348310294,-0.08827003,-0.09040806,-0.0018325958,43.69314,-68.767586,-16.64734,STD
6607827466000,0.26503,-4.13835046132118,8.98861688428439,-0.761644883150919,-0.08124508,-0.0852157,0.0018325958,43.646637,-68.81513,-16.688843,STD
6607832433000,0.269997,-4.14690868269913,8.98267368188951,-0.775433122636361,-0.087659165,-0.0842994,-0.00061086525,43.602608,-68.85628,-16.731735,STD
6607837471000,0.275035,-4.15558923822603,8.9766455253231,-0.789418455941707,-0.08582657,-0.08277224,-0.0021380284,43.557045,-68.899605,-16.772802,STD
6607842471000,0.280035,-4.164204319138,8.97066283718652,-0.803298302413865,-0.081855945,-0.076358154,0.00030543262,43.510185,-68.9411,-16.812897,STD
6607847468000,0.285032,-4.17281423100143,8.96468373866283,-0.81716982097814,-0.0729984,-0.06505715,0.004276057,43.461926,-68.98236,-16.852486,STD
6607852575000,0.290139,-4.18161367464492,8.95857302100013,-0.831346696164803,-0.071776666,-0.061086524,-0.0027488936,43.414963,-69.01965,-16.893509,STD
6607857519000,0.295083,-4.19013226665067,8.95265733897068,-0.845071088356472,-0.0888809,-0.06169739,0.00061086525,43.36562,-69.05735,-16.930073,STD
6607862442000,0.300006,-4.1986146753166,8.94676678423141,-0.858737185192959,-0.10140363,-0.07269296,0.0061086523,43.31897,-69.09362,-16.966711,STD
6607867499000,0.305063,-4.20732796815097,8.94071589345008,-0.8727752619149,-0.10629055,-0.07391469,0.009773844,43.270027,-69.12752,-17.002638,STD
6607872471000,0.310035,-4.21589480460983,8.93476670836707,-0.886577381246814,-0.12675454,-0.09285152,0.019242255,43.229233,-69.1584,-17.032888,STD
6607878016000,0.31558,-4.22544892934121,8.92813190722361,-0.901970130984437,-0.12064589,-0.08552113,0.022602014,43.1817,-69.19122,-17.064604,STD
6607882469000,0.320033,-4.23312152040141,8.92280372516917,-0.914331522252541,-0.13133603,-0.08368854,0.02565634,43.14113,-69.219246,-17.091675,STD
6607887510000,0.325074,-4.24180724497686,8.91677197898987,-0.928325183465771,-0.13408493,-0.07941248,0.024740042,43.09813,-69.24846,-17.11891,STD
6607892466000,0.33003,-4.25034651317681,8.9108419385089,-0.942082887288974,-0.1255328,-0.064446285,0.030543262,43.051228,-69.27923,-17.14358,STD
6607897461000,0.335025,-4.25895297900787,8.90486523306046,-0.95594885391466,-0.12461651,-0.06261369,0.03390302,43.007523,-69.30673,-17.168098,STD
6607902504000,0.340068,-4.26764214961568,8.89883109380591,-0.969948067066479,-0.12797627,-0.03940081,0.037873644,42.953197,-69.33561,-17.192377,STD
6607908083000,0.345647,-4.27725485689726,8.89215561038312,-0.985435199760113,-0.13072516,-0.029932396,0.032070424,42.903187,-69.362366,-17.21722,STD
6607912475000,0.350039,-4.28482234397033,8.88690041712395,-0.997627256901256,-0.13164146,-0.010079277,0.03145956,42.843235,-69.390305,-17.240858,STD
6607917505000,0.355069,-4.29348911536778,8.88088183285856,-1.01159038245225,-0.13408493,0.0036651916,0.038179077,42.78272,-69.41724,-17.263657,STD
6607922470000,0.360034,-4.30204389071336,8.87494102353894,-1.0253730699991,-0.12492194,0.0061086523,0.027183503,42.721325,-69.44068,-17.291458,STD
6607927467000,0.365031,-4.31065380257679,8.86896192501524,-1.03924458856338,-0.13255776,-0.002443461,0.028099801,42.658615,-69.465034,-17.31358,STD
6607932457000,0.370021,-4.31925165332694,8.86299120225494,-1.05309667534259,-0.13652839,-0.0067195175,0.028710667,42.59518,-69.48797,-17.338594,STD
6607937479000,0.375043,-4.32790464059492,8.85698219029056,-1.06703759313922,-0.1459968,-0.00580322,0.02076942,42.53373,-69.50647,-17.364946,STD
6607942469000,0.380033,-4.33650249134507,8.85101146753026,-1.08088967991844,-0.1600467,-0.012217305,0.016493361,42.475986,-69.52419,-17.388866,STD
6607947458000,0.385022,-4.34509861907903,8.84504194130758,-1.09473899072836,-0.17073683,-0.022602014,0.009162978,42.420303,-69.53786,-17.415092,STD
6607952509000,0.390073,-4.35380157381631,8.83899822975202,-1.10876041163453,-0.19150625,-0.020158553,0.011911872,42.3629,-69.54902,-17.439419,STD
6607957551000,0.395115,-4.36248902140794,8.83296528703509,-1.12275684881706,-0.20097467,-0.013744468,0.0106901415,42.308495,-69.55723,-17.465958,STD
6607962467000,0.400031,-4.37172403731217,8.82806714789848,-1.11716542345528,-0.22204952,-0.0018325958,0.005497787,42.25228,-69.56019,-17.492678,STD
6607967495000,0.405059,-4.38207070438993,8.82421722304452,-1.0887722446169,-0.20952678,0.014966198,0.0033597588,42.19309,-69.566986,-17.518879,STD
6607972472000,0.410036,-4.39231242317394,8.82040634874099,-1.0606670634159,-0.23396139,0.029321533,0.0027488936,42.104404,-69.54662,-17.605125,STD
6607978125000,0.415689,-4.40394522130254,8.81607786322001,-1.02874450176647,-0.2312125,0.052534413,0.0070249503,42.008835,-69.53234,-17.689999,STD
6607982470000,0.420034,-4.41288640436794,8.81275090946296,-1.00420823246401,-0.24373524,0.06414085,0.008246681,41.913517,-69.51134,-17.774092,STD
6607987471000,0.425035,-4.42317751058431,8.80892165842982,-0.975967522963067,-0.24801129,0.059253927,0.008246681,41.8660930684411,-69.5017598374024,-17.8149341672003,STD
6607992464000,0.430028,-4.43345215432322,8.80509853297321,-0.947771989562106,-0.24862215,0.053450707,0.007330383,41.818745,-69.492195,-17.855711,STD
6607997415000,0.434979,-4.44364037005552,8.80130756679342,-0.919813630686049,-0.26236662,0.030543262,0.0067195175,41.72501,-69.47042,-17.93499,STD
6608002483000,0.440047,-4.45406934952053,8.79742701405678,-0.891194571347761,-0.26145032,0.010079277,0.010079277,41.634422,-69.45073,-18.01124,STD
6608007563000,0.445127,-4.46452302270172,8.79353727295532,-0.862507747859502,-0.28069258,-0.01282817,0.013133603,41.552166,-69.42628,-18.084816,STD
6608012467000,0.450031,-4.47461452137899,8.78978229453769,-0.834814798570836,-0.28527406,-0.025350908,0.014966198,41.473522,-69.40455,-18.155706,STD
6608017481000,0.455045,-4.48493237912121,8.78594308944268,-0.806500677907424,-0.29718593,-0.03634648,0.015577064,41.401814,-69.37989,-18.223549,STD
6608022471000,0.460035,-4.49520084943108,8.78212226107727,-0.778322085543957,-0.29138273,-0.034513887,0.020463986,41.330322,-69.35869,-18.288267,STD
6608027474000,0.465038,-4.50549607126681,8.77829147864999,-0.75007008201802,-0.30298916,-0.025350908,0.029626964,41.260284,-69.335144,-18.350056,STD
6608032437000,0.470001,-4.51570898071528,8.7744913241054,-0.72204395899199,-0.31764993,0.00030543262,0.02321288,41.18593,-69.30947,-18.414406,STD
6608037471000,0.475035,-4.52606799465113,8.77063680506903,-0.693616898078624,-0.32253686,0.00061086525,0.032070424,41.11578,-69.290054,-18.469818,STD
6608042466000,0.48003,-4.5363467540094,8.76681214821829,-0.665410070652668,-0.32925636,-0.004581489,0.034208454,41.040977,-69.26552,-18.528585,STD
6608047982000,0.485546,-4.54769763221166,8.76258856319553,-0.634261149715416,-0.3472769,-0.005192355,0.043676864,40.96461,-69.243454,-18.58176,STD
6608052557000,0.490121,-4.55711211150377,8.75908549911302,-0.60842606753849,-0.3622431,-0.01160644,0.04062254,40.892708,-69.21863,-18.636166,STD
6608057496000,0.49506,-4.56727563351989,8.75530372129804,-0.580535472812405,-0.39187005,-0.018325957,0.036957346,40.82129,-69.19243,-18.686905,STD
6608062470000,0.500034,-4.57751117887486,8.75149514408571,-0.5524472326489,-0.41416663,-0.034513887,0.040927973,40.75503,-69.16694,-18.734524,STD
6608067518000,0.505082,-4.58789900214624,8.74762990529041,-0.523941113560567,-0.45081854,-0.06566802,0.044898596,40.696022,-69.13569,-18.781115,STD
6608072476000,0.51004,-4.59810162254631,8.74383357923115,-0.495943225597026,-0.48563787,-0.09590584,0.04153884,40.642277,-69.101685,-18.826963,STD
6608077367000,0.514931,-4.60816636969773,8.7400885548754,-0.468323687470829,-0.5012149,-0.1386664,0.04886922,40.6013,-69.07004,-18.865786,STD
6608082461000,0.520025,-4.61864885221445,8.736188094015,-0.439557805807603,-0.52656585,-0.1554652,0.05375614,40.56222,-69.03223,-18.905209,STD
6608087466000,0.52503,-4.62894818966954,8.73235578019359,-0.41129450825667,-0.5503896,-0.16310102,0.056505036,40.533146,-68.994774,-18.94093,STD
6608092465000,0.530029,-4.63923518026654,8.72852806055458,-0.383065092780723,-0.5708536,-0.1704314,0.06352998,40.5087,-68.95775,-18.972662,STD
6608097455000,0.535019,-4.64950365057641,8.72470723218917,-0.354886500417256,-0.5751296,-0.17012598,0.06841691,40.484337,-68.92073,-19.003624,STD
6608102458000,0.540022,-4.65979887241214,8.72087644976189,-0.326634496891319,-0.5852089,-0.13744467,0.087964594,40.45151,-68.8869,-19.029072,STD
6608107449000,0.545013,-4.67006940053169,8.71705485569942,-0.298450257515354,-0.6044512,-0.09743301,0.09987647,40.416603,-68.85145,-19.055159,STD
6608112456000,0.55002,-4.68037285360614,8.71322101048387,-0.270175665939425,-0.60139686,-0.086132,0.10751228,40.379948,-68.82211,-19.076675,STD
6608117645000,0.555209,-4.6910508280426,8.70924780840208,-0.240873318088918,-0.61941737,-0.096516706,0.12003502,40.337265,-68.792885,-19.093868,STD
6608122482000,0.560046,-4.70100445347122,8.70554413168796,-0.213558718637597,-0.6395759,-0.13439035,0.1301143,40.29948,-68.765724,-19.108442,STD
6608127466000,0.56503,-4.711260576923,8.70172789750496,-0.185414008349116,-0.66981375,-0.18570304,0.13225232,40.26887,-68.73687,-19.1203,STD
6608132430000,0.569994,-4.72147554418115,8.6979269772633,-0.157382238310588,-0.6948592,-0.2501493,0.13408493,40.253193,-68.70919,-19.126812,STD
6608137473000,0.575037,-4.73185307840413,8.69406556695333,-0.128904354284743,-0.7312057,-0.29626966,0.1255328,40.247776,-68.674706,-19.13401,BSC
6608142479000,0.580043,-4.7421544736689,8.69023248743485,-0.100635409721313,-0.7651087,-0.35369098,0.11026118,40.265022,-68.63654,-19.139011,BSC
6608147460000,0.585024,-4.75240442369164,8.68641855034305,-0.0725076404703249,-0.8051204,-0.38789943,0.09254608,40.289326,-68.5907,-19.146036,BSC
6608152482000,0.590046,-4.76273874391131,8.68257321967149,-0.0441483437069314,-0.83260936,-0.38637227,0.0729984,40.32042,-68.53828,-19.15687,BSC
6608157504000,0.595068,-4.77307306413098,8.67872788899994,-0.015789046943538,-0.8555168,-0.35643986,0.06169739,40.353073,-68.47956,-19.170074,BSC
6608162471000,0.600035,-4.75889251739782,8.68260877540636,0.0219068345869017,-0.87872964,-0.29565877,0.065973446,40.375565,-68.417046,-19.185867,BSC
6608167427000,0.604991,-4.71338638705401,8.69635539858181,0.0719161723172954,-0.90133166,-0.23701571,0.06872234,40.38983,-68.349266,-19.20645,BSC
6608172449000,0.610013,-4.66727424286784,8.71028508816759,0.122591493964196,-0.91354895,-0.21594086,0.06872234,40.411278,-68.17902,-19.27742,BSC
6608177465000,0.615029,-4.62121719084917,8.72419813535243,0.173206271618686,-0.91446525,-0.21838433,0.0693332,40.42269,-68.010956,-19.347265,BSC
6608182423000,0.619987,-4.57569269644953,8.73795030599486,0.223235790679883,-0.9263771,-0.23365596,0.056199603,40.4331,-67.839134,-19.419453,BSC
6608187430000,0.624994,-4.52971828268208,8.75183838957829,0.273759752345759,-0.92179567,-0.23273966,0.0580322,40.439156,-67.676155,-19.48613,BSC
6608192438000,0.630002,-4.48373468688672,8.76572924689521,0.324293804677037,-0.9120218,-0.23060162,0.059253927,40.45068,-67.51165,-19.554106,BSC
6608197416000,0.63498,-4.43802655192879,8.77953689220744,0.374525137046266,-0.89949906,-0.21471913,0.067500606,40.457653,-67.35317,-19.618776,BSC
6608202513000,0.640077,-4.39122575564905,8.79367461180495,0.425957258598287,-0.87964594,-0.20616703,0.07819075,40.46627,-67.20077,-19.680557,BSC
6608207497000,0.645061,-4.34546252852363,8.80749889951811,0.476249134959926,-0.8582657,-0.2144137,0.093767814,40.47467,-67.05635,-19.737064,BSC
6608212469000,0.650033,-4.29980948573319,8.8212899024294,0.526419923336746,-0.8381071,-0.2770274,0.113926366,40.496067,-66.92099,-19.785128,BSC
6608217471000,0.655035,-4.25388098210532,8.83516411734538,0.576893431675613,-0.80848014,-0.34788775,0.11636983,40.52272,-66.79203,-19.831432,BSC
6608222473000,0.660037,-4.20795247847744,8.84903833226137,0.627366940014481,-0.78038037,-0.42119157,0.1337795,40.566425,-66.67663,-19.862902,BSC
6608227467000,0.665031,-4.16209743107288,8.86289035730943,0.677759723030136,-0.7583892,-0.47616947,0.16462818,40.62433,-66.57052,-19.88584,BSC
6608233164000,0.670728,-4.10978741804449,8.87869231700082,0.735246243823126,-0.7263188,-0.49632803,0.19242255,40.69202,-66.47524,-19.90181,BSC
6608237490000,0.675054,-4.07006596528676,8.8906914880777,0.778898462350503,-0.7107417,-0.49754974,0.22999077,40.766785,-66.39206,-19.903929,BSC
6608242504000,0.680068,-4.02402727732391,8.90459898779556,0.82949305867419,-0.7174612,-0.47586402,0.2556471,40.83862,-66.31528,-19.901787,BSC
6608247414000,0.684978,-3.97894352026416,8.91821801923048,0.87903822579611,-0.7324274,-0.44012842,0.27397305,40.90354,-66.247765,-19.892282,BSC
6608252544000,0.690108,-3.93183971706324,8.93244727203316,0.930803339306384,-0.7687739,-0.38820487,0.28496864,40.954987,-66.18111,-19.8805,BSC
6608257532000,0.695096,-3.88603976182617,8.94628265468028,0.98113557832963,-0.79229224,-0.3717115,0.28955013,41.004677,-66.11768,-19.865793,BSC
6608262469000,0.700033,-3.84070809001273,8.95997657691943,1.03095319341739,-0.8164214,-0.4392121,0.29626966,41.062252,-66.05248,-19.84554,BSC
6608267464000,0.705028,-3.79484386058026,8.97383137570098,1.08135606709845,-0.78954333,-0.54153204,0.28008172,41.125957,-65.98809,-19.829344,BSC
6608272472000,0.710036,-3.7488602647849,8.9877222330179,1.13189011942973,-0.7348709,-0.5128214,0.24098633,41.171185,-65.92137,-19.82244,BSC
6608278019000,0.715583,-3.69792755594367,9.00310813268583,1.18786304041247,-0.7287622,-0.42852196,0.204029,41.230095,-65.84856,-19.816935,BSC
6608282478000,0.720042,-3.65698489347332,9.01547621031685,1.23285731743827,-0.7883216,-0.40194935,0.19120082,41.29766,-65.77113,-19.813929,BSC
6608287440000,0.725004,-3.61142367096202,9.02923947589324,1.28292719916107,-0.87872964,-0.42577308,0.1872302,41.35662,-65.68409,-19.820967,BSC
6608292442000,0.730006,-3.56549516733415,9.04311369080922,1.33340070749994,-0.9202685,-0.44073927,0.19303341,41.404736,-65.595955,-19.831087,BSC
6608297457000,0.735021,-3.51944729734339,9.05702396426057,1.38400539448903,-1.0143417,-0.35369098,0.20311269,41.42902,-65.48608,-19.84653,BSC
6608303276000,0.74084,-3.46601707690944,9.07316431943772,1.44272297646101,-1.0974194,-0.10873401,0.21777347,41.40961,-65.37509,-19.86951,BSC
6608307436000,0.745,-3.4278198407855,9.08470305075529,1.48470014453172,-1.2125676,-0.035124753,0.22327125,41.41446,-65.24503,-19.88606,BSC
6608312469000,0.750033,-3.38160669429228,9.09866325140945,1.53548646349804,-1.2351695,0.049785517,0.24037547,41.342163,-65.12511,-19.913492,BSC
6608317456000,0.75502,-3.33581592108312,9.11249586032309,1.58580861185588,-1.239751,0.055283304,0.26267207,41.271267,-64.993996,-19.936874,BSC
6608322456000,0.76002,-3.28990578151107,9.12636452777209,1.63626193886395,-1.2153164,0.015271631,0.2687807,41.189552,-64.86691,-19.962137,BSC
6608327454000,0.765018,-3.24401400599486,9.14022764775411,1.68669508454121,-1.1737776,-0.04795292,0.2706133,41.11243,-64.74873,-19.980385,BSC
6608332415000,0.769979,-3.19846196551147,9.15398813959701,1.73675487559861,-1.1279627,-0.14721853,0.2678644,41.0582,-64.63819,-19.991768,BSC
6608337472000,0.775036,-3.15202845034831,9.16801490985494,1.78778337053457,-1.063211,-0.3100141,0.29168814,41.039227,-64.546684,-19.984966,BSC
6608342476000,0.78004,-3.1060815826646,9.1818946722379,1.83827706020424,-1.0115929,-0.514654,0.34300083,41.059555,-64.468254,-19.95995,BSC
6608347456000,0.78502,-3.06035508365085,9.1957078650171,1.88852857390427,-0.98899084,-0.655153,0.40744713,41.105053,-64.40558,-19.91717,BSC
6608352447000,0.790011,-3.01452758233003,9.2095515688647,1.93889108492372,-1.0054842,-0.73426,0.45081854,41.18856,-64.35221,-19.855696,BSC
6608357486000,0.79505,-2.96825934366932,9.2235284119198,1.98973794788245,-1.0396926,-0.72265357,0.4868596,41.279915,-64.312225,-19.776325,BSC
6608362475000,0.800039,-2.92798075120434,9.21600073265274,2.03931291686074,-1.0644327,-0.6270532,0.54092115,41.3624,-64.2841,-19.682789,BSC
6608367481000,0.805045,-2.89643526283399,9.17417907726711,2.08782605467579,-1.074512,-0.49266282,0.5925393,41.42523,-64.25928,-19.586647,BSC
6608372671000,0.810235,-2.86373029187071,9.13082022959403,2.13812233618998,-1.0720685,-0.43310347,0.5696318,41.523888,-64.24704,-19.310152,BSC
6608377475000,0.815039,-2.83345771373824,9.09068614400223,2.1846778923353,-1.0604621,-0.42363504,0.5290093,41.588356,-64.2367,-19.043766,BSC
6608382473000,0.820037,-2.80196263765453,9.04893132306389,2.23311350216342,-1.0613784,-0.4447099,0.5122105,41.638927,-64.22033,-18.79044,BSC
6608387475000,0.825039,-2.7704423554275,9.0071430849019,2.28158787598501,-1.0732902,-0.52595496,0.5131268,41.701477,-64.19558,-18.548498,BSC
6608392468000,0.830032,-2.73897878702295,8.9654300354931,2.3299750308213,-1.0848967,-0.6169739,0.5216789,41.769222,-64.16572,-18.315145,BSC
6608397469000,0.835033,-2.70746480633175,8.92365015163702,2.37843971364452,-1.1160508,-0.7049385,0.5131268,41.85599,-64.12323,-18.087988,BSC
6608402478000,0.840042,-2.6759004133539,8.88180343333367,2.42698192445466,-1.1233811,-0.79381937,0.5119051,41.962173,-64.08338,-17.856943,BSC
6608407531000,0.845095,-2.64405875279949,8.83958912557027,2.47595053919285,-1.0961977,-0.78984874,0.5360342,42.059677,-64.04485,-17.63062,BSC
6608412473000,0.850037,-2.61291656272232,8.79830214576288,2.52384345311254,-1.0543534,-0.77457714,0.5497787,42.17441,-64.00278,-17.408983,BSC
6608417479000,0.855043,-2.58137107435197,8.75648049037725,2.57235659092758,-1.0122037,-0.7816021,0.54825157,42.2879,-63.965748,-17.191572,BSC
6608422487000,0.860051,-2.54981298290995,8.71464212637981,2.62088911073935,-0.98868537,-0.7684685,0.57451874,42.382057,-63.93934,-16.974295,BSC
6608427466000,0.86503,-2.51843763600704,8.67304603725375,2.66914059159854,-1.0094548,-0.74372846,0.6200282,42.468254,-63.913403,-16.760263,BSC
6608432416000,0.86998,-2.48724503364322,8.63169222299908,2.71711103350514,-1.0644327,-0.7632761,0.62858033,42.559788,-63.880753,-16.55326,BSC
6608437448000,0.875012,-2.45553570534126,8.58965335565979,2.76587613727768,-1.1270463,-0.7901542,0.6395759,42.637432,-63.848732,-16.342102,BSC
6608442621000,0.880185,-2.42293786048712,8.54643653118719,2.81600767181967,-1.1737776,-0.8170323,0.67347896,42.71334,-63.812016,-16.127445,BSC
6608447445000,0.885009,-2.39253925163802,8.50613535947719,2.86275704793229,-1.1878275,-0.88300574,0.68600166,42.80488,-63.765266,-15.915663,BSC
6608452508000,0.890072,-2.3606345757253,8.46383750865469,2.91182257265413,-1.2095132,-0.93492925,0.7431176,42.887756,-63.718906,-15.688429,BSC
6608457514000,0.895078,-2.32908908735494,8.42201585326906,2.96033571046917,-1.2284501,-0.8518516,0.8029824,42.94579,-63.67102,-15.471477,BSC
6608462425000,0.899989,-2.29814224488854,8.38098785694489,3.00792820343954,-1.2452488,-0.75625116,0.82924956,43.008038,-63.620937,-15.251843,BSC
6608467450000,0.905014,-2.26647702733739,8.33900746974697,3.05662547022352,-1.2528846,-0.67347896,0.84757555,43.04191,-63.576134,-15.033057,BSC
6608472453000,0.910017,-2.23495044357453,8.29721087727907,3.10510953504347,-1.2434162,-0.6203337,0.85918194,43.053005,-63.533882,-14.82275,BSC
6608477397000,0.914961,-2.20379565042571,8.25590718885987,3.15302183095988,-1.2388347,-0.6630942,0.86529064,43.064556,-63.490387,-14.613639,BSC
6608482421000,0.919985,-2.17213673441039,8.21393515596786,3.20170940674549,-1.2315043,-0.70371675,0.8686504,43.058704,-63.451107,-14.413711,BSC
6608487438000,0.925002,-2.1405219291459,8.17202160321722,3.25032914554255,-1.2229522,-0.8136725,0.8753699,43.080997,-63.41433,-14.204703,BSC
6608492439000,0.930003,-2.1090079484547,8.13024171936114,3.29879382836577,-1.1826351,-0.8903361,0.895223,43.101784,-63.389153,-13.996198,BSC
6608497410000,0.934974,-2.07768301383843,8.08871246468237,3.34696778123804,-1.1316279,-0.90469146,0.90224797,43.134033,-63.36698,-13.790251,BSC
6608502513000,0.940077,-2.04552627649246,8.04608044162346,3.39642094589448,-1.0806206,-0.93401295,0.9059132,43.186703,-63.35598,-13.576274,BSC
6608507459000,0.945023,-2.01435888027197,8.00476004459244,3.44435262380762,-1.0384709,-0.91324353,0.9230174,43.22478,-63.35708,-13.3672695,BSC
6608512439000,0.950003,-1.98297723183323,7.96315560116047,3.49261379566518,-1.029308,-0.91813046,0.93584555,43.275223,-63.360886,-13.158571,BSC
6608517419000,0.954983,-1.95159558339448,7.9215511577285,3.54087496752273,-1.010982,-0.9596693,0.93859446,43.326836,-63.376736,-12.952275,BSC
6608522438000,0.960002,-1.91996817505832,7.87962089636605,3.58951408831652,-1.0106765,-0.9957104,0.95539325,43.372894,-63.3927,-12.744905,BSC
6608527430000,0.964994,-1.8885109081896,7.83791620126316,3.63789155215445,-1.0571023,-1.0064005,0.98563105,43.41904,-63.40201,-12.537439,BSC
6608532413000,0.969977,-1.85711035514336,7.79628669491346,3.6861817970071,-1.1096367,-1.0363328,0.9981538,43.477715,-63.407764,-12.330016,BSC
6608537501000,0.975065,-1.82504814083486,7.75377998644321,3.73548959668807,-1.1417072,-1.061073,1.0290025,43.529755,-63.41207,-12.115386,BSC
6608542470000,0.980034,-1.79373580929026,7.71226744037626,3.78364416756361,-1.1591167,-1.0809261,1.0687088,43.583504,-63.408276,-11.898535,BSC
6608547468000,0.985032,-1.76224073320655,7.67051261943791,3.83207977739173,-1.1844677,-1.0910053,1.1047498,43.63552,-63.396614,-11.679234,BSC
6608552437000,0.990001,-1.73092840166195,7.62900007337095,3.88023434826727,-1.1664472,-1.1450669,1.1212431,43.699806,-63.39291,-11.453837,BSC
6608558305000,0.995869,-1.69395098940521,7.57997700629088,3.93710112667291,-1.1441506,-1.2464706,1.1242975,43.774292,-63.385612,-11.222443,BSC
6608562365000,0.999929,-1.63202250951807,7.50177989598394,3.9532404562249,-1.1313224,-1.3133603,1.1420126,43.8477,-63.38306,-10.987428,BSC
6608567482000,1.005046,-1.44505750186747,7.27053362389558,3.90403916546185,-1.1224649,-1.3081679,1.1771374,43.923424,-63.385933,-10.7508745,BSC
6608572367000,1.009931,-1.2992318158182,7.062288603203,3.8562392046882,-1.128879,-1.2391402,1.215011,44.053425,-63.239697,-10.427963,BSC
6608577466000,1.01503,-1.24680399544601,6.88316041842176,3.80381133869554,-1.1603385,-1.1640037,1.2342533,44.173183,-63.08953,-10.110774,BSC
6608582701000,1.020265,-1.18637956240202,6.71169226510255,3.76359245927199,-1.1743884,-1.1187997,1.2425,44.27965,-62.94194,-9.767416,BSC
6608587464000,1.025028,-1.05903359986041,6.69210059822828,3.87624464608612,-1.1468995,-1.0873401,1.2534955,44.362682,-62.798042,-9.434105,BSC
6608592448000,1.030012,-0.919110116154698,6.69436364412327,4.00659005702488,-1.1472049,-1.0458013,1.2709051,44.41396,-62.64205,-9.120042,BSC
6608597472000,1.035036,-0.744661590599255,6.81066259032128,4.20042173522006,-1.1600331,-1.0806206,1.2596041,44.475506,-62.48771,-8.8124275,BSC
6608602480000,1.040044,-0.565756621233191,6.9353014155892,4.38339661723279,-1.1337659,-1.1398746,1.2507466,44.52675,-62.329853,-8.480367,BSC
6608607467000,1.045031,-0.365945827000697,7.09705308898297,4.5213611600259,-1.1230757,-1.1960741,1.2684617,44.580338,-62.165028,-8.147575,BSC
6608612437000,1.050001,-0.183244078072724,7.27028814347568,4.58806548113544,-1.1081096,-1.2791518,1.2519683,44.658585,-61.990505,-7.781728,BSC
6608617465000,1.055029,-0.0782853890886753,7.50405985491925,4.31135620397305,-1.1038336,-1.2880094,1.2651019,44.721615,-61.81853,-7.413656,BSC
6608622446000,1.06001,0.0132299815702144,7.72678642741378,4.03515077807096,-1.097114,-1.2162327,1.289842,44.77238,-61.65114,-7.0167737,BSC
6608628264000,1.065828,0.0407612894063643,7.93051762002174,3.69926888146062,-1.0833695,-1.1194105,1.3219124,44.811836,-61.486187,-6.6250286,BSC
6608632459000,1.070023,0.059993863350278,8.06549263760921,3.5183316223193,-1.0812315,-1.0210613,1.348485,44.78235,-61.388798,-6.2469773,BSC
6608637476000,1.07504,0.0790752119213662,8.15135895125099,3.69006385111199,-1.0821478,-0.9611965,1.3603969,44.73276,-61.29401,-5.8803444,BSC
6608642452000,1.080016,0.0876289483862094,8.21223354140802,3.83470395118994,-1.1481212,-0.97005403,1.3616186,44.618782,-61.252216,-5.552782,BSC
6608647457000,1.085021,0.0182315486468193,8.09078803842186,3.78699318067143,-1.2672399,-0.9462303,1.3906348,44.474556,-61.196796,-5.2343116,BSC
6608652458000,1.090022,-0.0511103886352366,7.96943959477875,3.73932054063886,-1.4199562,-0.883922,1.4117095,44.33569,-61.08937,-4.910291,BSC
6608657481000,1.095045,0.0605898956435644,7.74845833465347,3.83114411265127,-1.527774,-0.82894415,1.4153748,44.18941,-60.96183,-4.592683,BSC
6608662364000,1.099928,0.186864099837984,7.52397087029703,3.9340342310031,-1.6242907,-0.7858781,1.4208726,44.02563,-60.796867,-4.283083,BSC
6608667552000,1.105116,0.324761929604216,7.35732656388226,4.04279711233095,-1.6997325,-0.752586,1.4321736,43.82409,-60.60356,-4.010375,BSC
6608672371000,1.109935,0.453264082052506,7.21046705966587,4.14376302147971,-1.743104,-0.7473936,1.4370605,43.617813,-60.395767,-3.7457547,BSC
6608678009000,1.115573,0.699208922564246,6.98027150752266,4.35471825577049,-1.7458528,-0.75900006,1.4239268,43.40983,-60.13005,-3.446862,BSC
6608682483000,1.120047,0.903412124444444,6.79208422222222,4.53089355555556,-1.7146988,-0.7715228,1.4202617,43.197754,-59.867073,-3.1515083,BSC
6608687475000,1.125039,0.984020610403967,6.60660952505424,4.63039343868168,-1.7015651,-0.8381071,1.4092661,43.005657,-59.55688,-2.8138645,BSC
6608692399000,1.129963,1.01812466478975,6.43121714360988,4.69860170007232,-1.6966782,-0.86437434,1.351234,42.813194,-59.256985,-2.4998276,BSC
6608698197000,1.135761,1.07490029011108,6.30606710459058,4.72091303717684,-1.6914859,-0.7067711,1.3695599,42.59182,-58.893196,-2.1188352,BSC
6608702461000,1.140025,1.11905547084439,6.2257850340116,4.72894128614961,-1.7348573,-0.66523224,1.3909402,42.41187,-58.52003,-1.7392949,BSC
6608707468000,1.145032,1.09215198988257,6.25505548210378,4.90912535984141,-1.7641789,-0.61422503,1.4022411,42.185677,-58.111366,-1.3649238,BSC
6608712441000,1.150005,1.04434964507678,6.31719841554753,5.13379634548831,-1.8396207,-0.6218608,1.3643675,41.967552,-57.683304,-1.0032744,BSC
6608717464000,1.155028,1.22808391999022,6.58741219695695,5.14751215294521,-1.9077321,-0.6017023,1.3692545,41.705795,-57.229103,-0.628016,BSC
6608722459000,1.160023,1.47147722043053,6.91037643389433,5.10538617041096,-1.9156734,-0.6084218,1.3726143,41.459667,-56.77876,-0.26601806,BSC
6608727462000,1.165026,1.56506019598015,7.21318470220737,5.00018880391859,-1.9104811,-0.5681047,1.4074335,41.201973,-56.281303,0.09160483,BSC
6608732420000,1.169984,1.60833039296274,7.50646024189956,4.87518620786756,-1.9120082,-0.5140431,1.4492778,40.94299,-55.790234,0.44079745,BSC
6608737472000,1.175036,1.67208835974271,7.62886209472832,4.89277132166247,-1.9226984,-0.4569272,1.4789047,40.649242,-55.344883,0.8208802,BSC
6608742468000,1.180032,1.74095590062073,7.69772968055056,4.95303038060453,-1.9850066,-0.4092797,1.5106697,40.341618,-54.894512,1.1939725,BSC
6608747471000,1.185035,1.76898992833803,7.70129028338028,5.02344790338028,-2.03693,-0.3820962,1.5381587,39.99117,-54.52012,1.5381604,BSC
6608752577000,1.190141,1.76398105348015,7.65120153480154,5.10359000571063,-2.0937407,-0.37751472,1.543351,39.64001,-54.137024,1.872214,BSC
6608757594000,1.195158,1.75905948568502,7.60198585685019,5.18233519321383,-2.1545217,-0.37751472,1.5360206,39.269295,-53.719555,2.2287343,BSC
6608762484000,1.200048,1.75426250212548,7.5540160212548,5.25908703034571,-2.1881194,-0.31948254,1.5522085,38.88798,-53.30565,2.571859,BSC
6608767884000,1.205448,1.7316649147909,7.46731138263634,5.40477801316182,-2.2162192,-0.29749137,1.5598444,38.520157,-52.878582,2.9147897,BSC
6608772481000,1.210045,1.70542598585477,7.37984828618258,5.55346523146916,-2.2226331,-0.24923302,1.5925257,38.135395,-52.46051,3.243653,BSC
6608777462000,1.215026,1.71906798555358,7.16261530370041,5.6329852625222,-2.2489004,-0.22327125,1.6154331,37.76922,-51.984722,3.5842454,BSC
6608782460000,1.220024,1.75685353629366,6.87450023271166,5.66604781669627,-2.2834144,-0.13744467,1.6676621,37.37631,-51.51729,3.9100866,BSC
6608787468000,1.225032,1.68602198245614,6.52701392631579,5.84470855789474,-2.3109033,0.053450707,1.7391334,36.97137,-51.009464,4.222991,BSC
6608792473000,1.230037,1.54508720631187,6.14179212963834,6.11718246498089,-2.375655,0.1133155,1.713477,36.5919,-50.497196,4.523726,BSC
6608797473000,1.235037,1.46277472784559,5.90022154627369,6.47513797656049,-2.4110851,0.07147124,1.6627752,36.194725,-49.914825,4.85454,BSC
6608802545000,1.240109,1.42421278044061,5.7652549065198,6.90413928282227,-2.4016168,0.03940081,1.6044376,35.797523,-49.345642,5.154573,BSC
6608807567000,1.245131,1.42927078007445,5.84202868738245,7.12711255668103,-2.3967297,-0.02076942,1.5137241,35.46056,-48.669567,5.4469614,BSC
6608812468000,1.250032,1.46605444626763,6.07192649306426,7.19608198480603,-2.3726006,-0.07452556,1.4431691,35.142323,-48.021046,5.725134,BSC
6608817481000,1.255045,1.48928993840501,6.34293553097626,7.11813558916476,-2.3506095,-0.10354166,1.4083499,34.855587,-47.297455,5.9975715,BSC
6608822474000,1.260038,1.49878779566988,6.64686716180356,6.89968462413348,-2.3561072,-0.12034045,1.395827,34.590748,-46.593212,6.256959,BSC
6608827461000,1.265025,1.52041684445654,6.83100165413747,6.86300838873319,-2.363743,-0.13591751,1.3836098,34.33341,-45.92284,6.511308,BSC
6608832405000,1.269969,1.55403812747112,6.89376124512403,7.00870060732816,-2.346639,-0.07147124,1.378112,34.068775,-45.276974,6.7415824,BSC
6608837502000,1.275066,1.58869987494793,6.95846303219087,7.15890150501799,-2.3542747,-0.008857546,1.3652838,33.80149,-44.71107,6.954116,BSC
6608842476000,1.28004,1.62252517060216,7.02160344593827,7.30547777833744,-2.3606887,0.06169739,1.3500122,33.52896,-44.169064,7.141592,BSC
6608847436000,1.285,1.63720999806654,7.03893103415448,7.44870099672196,-2.371379,0.105374254,1.3338243,33.26008,-43.641953,7.31107,BSC
6608852534000,1.290098,1.59887648042988,6.92872237108647,7.58766019829228,-2.3762658,0.13591751,1.3112222,32.992306,-43.132698,7.457482,BSC
6608857546000,1.29511,1.58376704454327,6.80431272353588,7.6829919393364,-2.384207,0.16890424,1.2815952,32.697296,-42.570164,7.609669,BSC
6608862474000,1.300038,1.63564988156106,6.63451426277234,7.65469213841695,-2.3973405,0.15821409,1.2495248,32.42046,-42.02529,7.752164,BSC
6608867447000,1.305011,1.68565986490098,6.48409791202705,7.6468512448881,-2.3930645,0.16737708,1.2226468,32.133247,-41.438725,7.8822117,BSC
6608872486000,1.31005,1.72839315673,6.40251629108839,7.70900878240219,-2.3811526,0.17898351,1.1954633,31.864265,-40.87205,8.000281,BSC
6608877978000,1.315542,1.77496811976332,6.3136005811866,7.77675420729351,-2.3808472,0.17806722,1.1728612,31.601366,-40.27196,8.135771,BSC
6608882466000,1.32003,1.85721488863588,6.24838895498835,7.83150124939631,-2.3787093,0.15088372,1.1643091,31.35267,-39.69597,8.264442,BSC
6608887454000,1.325018,1.95839917870155,6.17756009457742,7.89221179173904,-2.377793,0.12583824,1.1468995,31.11869,-39.14009,8.3801,BSC
6608892469000,1.330033,1.96460314771685,6.0565066225324,7.95017982787637,-2.3811526,0.12308934,1.1398746,30.886463,-38.56771,8.504035,BSC
6608897392000,1.334956,1.95520203377866,5.92959138803589,8.00658641333998,-2.370768,0.12889257,1.1267409,30.668829,-38.018227,8.620565,BSC
6608902531000,1.340095,1.86924358615548,5.70787801030109,8.0117666812857,-2.364354,0.118507855,1.1203269,30.45193,-37.45692,8.75378,BSC
6608907461000,1.345025,1.7732529684771,5.47932886149676,8.00719560857779,-2.375655,0.13041973,1.0955868,30.242527,-36.911797,8.86874,BSC
6608912468000,1.350032,1.83207336160401,5.35431831332331,8.04407556310777,-2.3808472,0.14813483,1.0650436,30.017439,-36.283215,9.012352,BSC
6608917453000,1.355017,1.93257945734336,5.25859836730827,8.09193556110276,-2.4098635,0.12522738,1.0613784,29.803516,-35.665073,9.154555,BSC
6608922475000,1.360039,2.03424349802499,5.24618725211608,8.04826153486497,-2.417194,0.1554652,1.0454959,29.579208,-35.010727,9.265944,BSC
6608927417000,1.364981,2.1343946916969,5.25572540175332,7.98149423841193,-2.4645357,0.17745635,1.0296134,29.367853,-34.358017,9.375742,BSC
6608932432000,1.369996,2.15107674704236,5.29101067661874,7.83452837089646,-2.4846945,0.18142697,1.0219775,29.140028,-33.682518,9.4999485,BSC
6608937474000,1.375038,2.14641726372672,5.33294602645952,7.66678706884107,-2.510656,0.13500121,1.02717,28.924356,-33.01351,9.622387,BSC
6608942469000,1.380033,2.10507424255238,5.31710461143453,7.40910885339907,-2.5207355,0.16187929,1.0158689,28.69069,-32.339558,9.744133,BSC
6608947470000,1.385034,2.05058254616479,5.28077697189722,7.11848659910875,-2.561358,0.183565,1.0097603,28.469976,-31.671606,9.870939,BSC
6608953439000,1.391003,1.84777579501564,5.2156656634043,6.97054698910302,-2.6077838,0.16646078,1.02717,28.23873,-31.001423,10.01294,BSC
6608957483000,1.395047,1.6680244221572,5.16486615215417,6.9314706711129,-2.6645942,0.095294975,1.0516045,28.01971,-30.33988,10.154372,BSC
6608962471000,1.400035,1.50754187572677,5.17210515100703,6.99959858536006,-2.67223,0.14996742,1.0186177,27.769424,-29.6723,10.271591,BSC
6608967429000,1.404993,1.38123651956109,5.21721442547026,7.13041493962569,-2.7464502,0.115453534,1.0021244,27.540648,-28.991047,10.425203,BSC
6608972418000,1.409982,1.26968994441246,4.97409974924199,7.12729519321947,-2.77455,0.11178834,0.9837985,27.292587,-28.284424,10.532996,BSC
6608977439000,1.415003,1.17126193213715,4.47273213498369,7.00426020196379,-2.8053987,0.07147124,0.9850202,27.060934,-27.578037,10.651072,BSC
6608985701000,1.423265,1.01774911496447,3.66561466684264,6.80737129506599,-2.8145616,0.038789943,0.97249746,26.82969,-26.850187,10.745865,BSC
6608987651000,1.425215,1.03481236724873,3.58788208410152,6.79599582653807,-2.8145616,0.038789943,0.97249746,26.601511,-26.13577,10.837415,BSC
6608992400000,1.429964,1.07636794935025,3.3985733479797,6.76829218549238,-2.8955014,0.0036651916,0.95325524,26.406178,-25.309149,10.929962,BSC
6608997446000,1.43501,1.14811678584019,3.26450377630024,6.7821602674092,-2.9385672,-0.014660766,0.9324858,26.215942,-24.519152,11.009073,BSC
6609002475000,1.440039,1.25540208670218,3.21785808437772,6.85212887835351,-2.989269,-0.015577064,0.9285152,26.035082,-23.730305,11.083451,BSC
6609007411000,1.444975,1.34624933396189,3.20668377730191,6.92171164353059,-3.0677652,-0.032375857,0.90316427,25.857214,-22.877756,11.1763735,BSC
6609012473000,1.450037,1.41432241945838,3.25530735902708,6.99464709227683,-3.1383202,-0.0693332,0.8597928,25.69392,-22.041956,11.262961,BSC
6609017393000,1.454957,1.45913000158404,3.29521085887357,7.07696248958639,-3.2045991,-0.06383542,0.82772243,25.514807,-21.148996,11.363902,BSC
6609022913000,1.460477,1.46946811364036,3.32622535696685,7.19068193810502,-3.2623258,-0.040927973,0.8155051,25.349558,-20.268091,11.457492,BSC
6609027413000,1.464977,1.41333483906683,3.23731699450234,7.19414895697485,-3.3255503,-0.04153884,0.806953,25.163363,-19.346699,11.563995,BSC
6609032439000,1.470003,1.22465008201549,2.91517216310355,7.02387236341906,-3.3603697,-0.03359759,0.8054258,24.980103,-18.442898,11.652993,BSC
6609037383000,1.474947,1.10295078838131,2.61376865036338,6.87452942246343,-3.407101,-0.021685716,0.78801614,24.791878,-17.501629,11.741441,BSC
6609042473000,1.480037,1.19496765945257,2.35612140175555,6.78251259943369,-3.445891,-0.014966198,0.7611381,24.610615,-16.57694,11.820691,BSC
6609047495000,1.485059,1.31607989619865,2.11216452599632,6.7187555329859,-3.4593298,0.009162978,0.763887,24.41116,-15.587985,11.871731,BSC
6609052603000,1.490167,1.64100235473125,1.93220743108522,6.83372796916002,-3.506672,0.03848451,0.7467828,24.227945,-14.604583,11.908243,BSC
6609057438000,1.495002,1.92848693511983,1.75101199413995,6.934392544595,-3.551265,0.0421497,0.74464476,24.023493,-13.569373,11.966052,BSC
6609062452000,1.500016,2.12514317435534,1.50822652393063,6.99751682211548,-3.5784485,0.0421497,0.7623598,23.821304,-12.550678,12.0088005,BSC
6609067460000,1.505024,2.32156408502376,1.26573158280413,7.06056556200829,-3.613268,0.064751714,0.78893244,23.59499,-11.468087,12.093199,BSC
6609072483000,1.510047,2.51857331710992,1.02251031897057,7.12380314597027,-3.6016614,0.06383542,0.8304713,23.366926,-10.41813,12.176233,BSC
6609077362000,1.514926,2.63388175579852,0.73715797678934,7.17212261175322,-3.5827246,-0.019547688,0.8539896,23.1256,-9.350353,12.27615,BSC
6609082460000,1.520024,2.43371110488091,0.23196552072335,7.16735664861382,-3.5949419,-0.015271631,0.8735373,22.87421,-8.300214,12.34507,BSC
6609087428000,1.524992,2.26077617213002,-0.216179273248552,7.1627077964647,-3.5375206,-0.07696902,0.8885035,22.602697,-7.1478276,12.527448,BSC
6609092869000,1.530433,2.19937109685751,-0.451565760246489,7.15759075583816,-3.458719,-0.15943582,0.9062186,22.332045,-6.0355096,12.70124,BSC
6609097461000,1.535025,2.12412471861766,-0.68380618444167,7.14651732900519,-3.3658676,-0.2406809,0.94042706,22.042145,-4.8612103,12.852239,BSC
6609102558000,1.540122,1.88035229364762,-1.17135096820016,7.0880117922493,-3.2672129,-0.31612277,0.9599747,21.757738,-3.7415566,13.013018,BSC
6609107457000,1.545021,1.72862216073972,-1.60740146110562,7.04072873674842,-3.1764994,-0.35063666,0.91690874,21.468498,-2.5963643,13.174395,BSC
6609112466000,1.55003,2.15082845249209,-1.82562043835047,7.05496020134494,-3.1065552,-0.3585779,0.9257663,21.162857,-1.4982482,13.338919,BSC
6609117448000,1.555012,2.53492797944882,-1.94802050062992,7.0909614503937,-3.0616567,-0.37384954,0.9425651,20.865063,-0.34500113,13.470548,BSC
6609122471000,1.560035,2.60121343534449,-1.2236152071063,7.32296076850394,-3.0274482,-0.41905355,0.9822713,20.560019,0.76828176,13.602082,BSC
6609127471000,1.565035,2.67774265548786,-0.601960428624465,7.53728156565445,-2.9761355,-0.3830125,0.99296147,20.234224,1.8988199,13.7762375,BSC
6609132433000,1.569997,2.88582697137554,-1.23073680256069,7.5418050391623,-2.9538388,-0.3707952,0.981355,19.90481,3.0048895,13.958928,BSC
6609137819000,1.575383,3.10470424517685,-1.89269339025322,7.54591734738746,-2.9000828,-0.39522982,0.98349303,19.553446,4.009965,14.155354,BSC
6609142456000,1.58002,3.14486387081994,-2.02655894884445,7.53253071231913,-2.842356,-0.4092797,0.99296147,19.207182,4.983555,14.334947,BSC
6609147856000,1.58542,3.19092045,-2.19052898575424,7.52859213975387,-2.7837129,-0.3726278,1.0177015,18.802538,6.145677,14.553503,BSC
6609152574000,1.590138,3.22040795,-2.45591705757971,7.70130516130897,-2.737287,-0.31490102,1.0204504,18.40904,7.25483,14.75418,BSC
6609157431000,1.594995,3.2507642,-2.7291238962521,7.87910659108708,-2.682004,-0.2611449,1.0253373,17.987223,8.387839,14.945939,BSC
6609162462000,1.600026,3.2365530177593,-2.84769444398239,7.9300035822407,-2.6340508,-0.20280726,1.0403035,17.572725,9.474463,15.104824,BSC
6609167425000,1.604989,3.21329980878669,-2.93140621966732,7.95325679121331,-2.626415,-0.18875736,1.0528263,17.167042,10.522314,15.24753,BSC
6609172480000,1.610044,3.08576804838584,-3.0312980269092,7.77648848756462,-2.6303856,-0.13683382,1.0662653,16.735,11.6349745,15.35255,BSC
6609177384000,1.614948,2.9346090043597,-3.13207075481323,7.55204030428167,-2.6401596,-0.057421334,1.0751228,16.314861,12.710999,15.4325075,BSC
6609182467000,1.620031,2.90614375629113,-3.4567419045084,7.33912156782241,-2.6371052,0.039095376,1.0684034,15.890784,13.797152,15.478875,BSC
6609187425000,1.624989,2.92479885828504,-3.85316203052745,7.13857945270602,-2.6279423,0.112399206,1.0671816,15.4788065,14.852494,15.498129,BSC
6609192473000,1.630037,2.6991957156074,-3.88253221536605,7.09766962506034,-2.579684,0.2098322,1.0125091,15.081707,15.940923,15.469467,BSC
6609197448000,1.635012,2.37338774849155,-3.7531673063757,7.12641761052896,-2.5448647,0.32162055,0.96761054,14.703573,16.998638,15.407605,BSC
6609202456000,1.64002,2.13775873720527,-3.8079543820229,6.94054082920797,-2.4740043,0.38026363,0.9804387,14.271501,18.217138,15.350693,BSC
6609207454000,1.645018,1.93968445228563,-3.9369329883938,6.66876429797902,-2.379931,0.40530908,0.90285885,13.90551,19.36,15.273677,BSC
6609212473000,1.650037,1.76785904005084,-3.94970784549059,6.610159289212,-2.3499987,0.3735441,0.8888089,13.555229,20.42874,15.1230345,BSC
6609217418000,1.654982,1.61377324228775,-3.89674088707677,6.67275675453991,-2.26631,0.33414328,0.86284715,13.246217,21.418116,14.971508,BSC
6609222438000,1.660002,1.50596767597317,-3.76850315194634,6.9143952284785,-2.164601,0.23487769,0.8396343,12.898299,22.495178,14.822154,BSC
6609227427000,1.664991,1.42341476041264,-3.60339732082529,7.24460678930786,-2.0748038,0.14508049,0.81122905,12.572405,23.512175,14.678043,BSC
6609232457000,1.670021,1.48840851473046,-3.5329519310921,7.15499980584842,-1.9666806,0.10354166,0.7867944,12.264153,24.44756,14.514082,BSC
6609237478000,1.675042,1.61754115367018,-3.50425582239905,6.88238657350308,-1.8500054,0.17867808,0.788627,11.973097,25.327627,14.339745,BSC
6609242472000,1.680036,1.85467657032771,-3.67693263428004,6.63132732011917,-1.7137824,0.3707952,0.78893244,11.735644,26.064304,14.120116,BSC
6609247460000,1.685024,2.13929888405164,-3.9378364383714,6.3893982742006,-1.5784758,0.56688297,0.7849618,11.518194,26.751942,13.880448,BSC
6609252487000,1.690051,2.32802281250493,-4.67932136718565,5.84086507346275,-1.4929546,0.74372846,0.768163,11.303251,27.446434,13.630964,BSC
6609257478000,1.695042,2.46932501620024,-5.64017670642491,5.15319414552621,-1.459357,0.8881981,0.8145888,11.1057,28.106094,13.333496,BSC
6609262471000,1.700035,3.43419818640619,-8.0803841558655,5.57574629426825,-1.4825699,1.0778717,0.7874053,10.8954935,28.898611,13.049318,BSC
6609267464000,1.705028,4.84111783719908,-11.314472362094,6.59439251196026,-1.4611896,1.2443326,0.784351,10.702695,29.646875,12.727142,BSC
6609272459000,1.710023,5.74651930272727,-13.6941125285714,7.4220625548052,-1.527774,1.4969252,0.8717047,10.504351,30.604452,12.346048,BSC
6609278061000,1.715625,6.30927389307692,-15.5913991197802,8.17776194549451,-1.4871514,2.0528126,1.3814718,10.296767,31.520262,11.788933,BSC
6609282467000,1.720031,6.34369841551499,-16.6168926601143,8.67525141470264,-1.1768318,2.395508,1.6242907,10.141195,32.51824,11.375649,BSC
6609287441000,1.725005,6.10960783820078,-17.4624846324341,9.17209669722194,-1.0134255,3.0857859,2.2464569,9.943049,33.56176,10.6116,BSC
6609292440000,1.730004,6.02063570313316,-18.0759347689295,10.4760268237598,-0.47983465,3.4223726,2.7116308,9.7326355,34.511883,9.856889,BSC
6609297445000,1.735009,6.04951613133159,-18.499515689295,12.4302702375979,0.24037547,2.982244,3.0192015,9.434296,35.33575,9.057092,BSC
6609302420000,1.739984,6.32761187995459,-18.7956052606187,12.8734124763977,1.1151345,1.7418822,2.8112018,9.108641,35.98614,8.31225,BSC
6609307449000,1.745013,6.80599461295053,-18.9960702110491,12.1353359607417,2.0048597,0.655153,2.2504275,8.772925,36.377552,7.660463,BSC
6609312407000,1.749971,6.92962121427158,-18.7438405387965,10.7986247073238,2.58396,-0.087964594,1.5280794,8.364716,36.526928,7.255584,BSC
6609317460000,1.755024,6.61352415795725,-17.9152825653207,8.66257417814727,2.8301387,-0.32834008,0.77763146,8.00672,36.46519,7.0933843,BSC
6609322403000,1.759967,5.60060437941786,-16.764670278145,6.57772124942279,2.6645942,-0.22388211,0.14477506,7.6899405,36.349293,7.1944003,BSC
6609327453000,1.765017,3.59164840803157,-15.1183757591515,4.45424039643809,2.2391264,0.4810564,-0.45051312,7.602956,36.19657,7.3258657,BSC
6609332394000,1.769958,1.35899984859009,-13.8763387277135,3.35425879162956,1.3426818,1.0170907,-0.8585711,7.615822,36.2121,7.533271,BSC
6609337464000,1.775028,-1.35047752718908,-13.1797537351341,3.75779783437222,0.4813618,1.0772609,-1.0290025,7.745255,36.31784,7.744648,BSC
6609342440000,1.780004,-3.46961461128731,-12.2977690699627,4.02679330393657,0.01740966,1.0528263,-1.1545353,8.13725,36.55061,7.6831775,BSC
6609348295000,1.785859,-4.92895670293843,-10.8802719314366,4.10002193094216,-0.13500121,1.047023,-1.2486086,8.568163,36.93083,7.632947,BSC
6609352340000,1.789904,-5.71606583348075,-9.65509363132348,4.42563116773811,-0.018020526,1.0485502,-1.1307116,9.109883,37.372116,7.1880326,BSC
6609357377000,1.794941,-5.93459768938626,-7.28245854470931,5.77844962285622,0.23945917,0.93126404,-0.84299403,9.602911,37.812756,6.767312,BSC
6609362319000,1.799883,-5.83847098913353,-5.3453350319256,6.68869579439119,0.57757306,0.8017606,-0.52503866,10.0603485,38.134724,6.142738,BSC
6609367360000,1.804924,-5.1787157977318,-4.07622235400019,6.86279783088166,0.92271197,0.6282749,-0.38973203,10.459033,38.37775,5.542806,BSC
6609372337000,1.809901,-4.3393173726849,-2.97079814381603,6.90086013424487,1.0317514,0.70005155,-0.2180789,10.793034,38.313366,4.8579264,BSC
6609377350000,1.814914,-2.93695492436296,-2.29448150870106,6.54281021814792,1.217149,0.8784242,-0.18081611,11.110215,38.131077,4.1890388,BSC
6609382349000,1.819913,-1.61665033825808,-1.6548525006991,6.42363277036606,1.3500122,1.1096367,-0.24648413,11.429034,37.75528,3.6190803,BSC
6609387376000,1.82494,-0.452701481887562,-1.08456431730265,6.80226656655986,1.3206906,1.1383474,-0.34422258,11.736683,37.376343,3.051125,BSC
6609392352000,1.829916,0.53201237426245,-0.550235719134634,7.18058109638326,1.2431108,0.98471475,-0.41599923,11.9810505,36.9025,2.7052503,BSC
6609397335000,1.834899,1.05612354053399,-0.0984157107934104,7.56914639697027,1.1960741,0.73823065,-0.43799037,12.221618,36.43153,2.3798764,BSC
6609402417000,1.839981,1.52105533079585,0.248731873356401,7.82292562906575,1.1911873,0.5326745,-0.43249258,12.387798,35.852337,2.2982507,BSC
6609407413000,1.844977,1.62662739245775,0.0159935352991324,7.35265015226919,1.2333369,0.51893,-0.3943135,12.54076,35.275974,2.225466,BSC
6609412404000,1.849968,1.73209379753272,-0.216511878080337,6.88284532747104,1.2336423,0.6017023,-0.35460728,12.643369,34.616478,2.2801082,BSC
6609417494000,1.855058,1.83965220302894,-0.453629200080237,6.40372159310466,1.2330315,0.71776664,-0.31612277,12.741269,33.948273,2.3214643,BSC
6609422423000,1.859987,1.89907417503223,-0.752310115176004,6.03865132187407,1.2177598,0.8445212,-0.2687807,12.841163,33.284218,2.3289933,BSC
6609427430000,1.864994,1.75405606415469,-1.37279748884482,6.12185847699554,1.2165382,0.8927795,-0.22907446,12.93923,32.620266,2.320939,BSC
6609432454000,1.870018,1.60854558102132,-1.99539157019336,6.20534814093208,1.2443326,0.89919364,-0.17165314,13.012374,32.079998,2.3076766,BSC
6609437421000,1.874985,1.46468599309866,-2.61092198461577,6.28789056942985,1.3228287,0.92271197,-0.10445796,13.0813465,31.530897,2.2716796,BSC
6609442393000,1.879957,1.33661464919829,-3.19026167431855,6.40688630865847,1.391551,0.893085,-0.053450707,13.130981,30.98216,2.2417505,BSC
6609447387000,1.884951,1.30679224818279,-3.54386983845537,6.7519739329592,1.4682146,0.79626286,0.003970624,13.154005,30.41511,2.212967,BSC
6609452464000,1.890028,1.27647420053447,-3.9033549504543,7.10279689422769,1.5418239,0.7189884,0.0421497,13.0282955,30.050552,2.0389616,BSC
6609457438000,1.895002,1.32941695543023,-4.03354536371254,7.15793030290042,1.6184875,0.6621779,0.053145275,12.88889,29.675486,1.8857765,BSC
6609462616000,1.90018,1.40190852099694,-4.10279500118211,7.25740840603455,1.6258179,0.6743952,0.02076942,12.754422,29.311218,1.741387,BSC
6609467435000,1.904999,1.56977061990576,-3.6678796337191,8.2035400805241,1.539075,0.6783658,0.00030543262,12.563463,28.977196,1.5729989,BSC
6609472422000,1.909986,1.74348472807308,-3.2178022447301,9.18265580176903,1.4761559,0.6270532,-0.038789943,12.389084,28.605585,1.4307342,BSC
6609477986000,1.91555,1.8064921141404,-2.98550997718804,9.98410413062746,1.3472633,0.43463063,-0.035124753,12.198432,28.291468,1.3290337,BSC
6609482408000,1.919972,1.8022269706617,-2.91300258258636,10.5001870259845,1.144456,0.35705075,-0.02565634,12.032158,28.0283,1.2239814,BSC
6609487423000,1.924987,1.80924512064554,-2.90022981064263,10.8426579066589,1.1166617,0.22876903,0.004276057,11.912369,27.568853,1.2791133,BSC
6609492432000,1.929996,1.82319399857517,-2.92812751795095,11.0425916294465,1.1386528,0.19975294,0.046120327,11.791219,27.164806,1.3253361,BSC
6609497417000,1.934981,1.95620648263078,-2.93179472228542,11.2331922240731,1.2116512,0.26206118,0.11484267,11.667342,26.709986,1.3795459,BSC
6609502460000,1.940024,2.18186498125952,-2.91707787036059,11.4196059891315,1.2947289,0.35277468,0.19486602,11.531205,26.258192,1.4247265,BSC
6609507399000,1.944963,2.31451123450476,-3.0615881449459,11.5686054852492,1.387275,0.44501534,0.31581733,11.376948,25.785892,1.4411603,BSC
6609512438000,1.950002,2.39038092192731,-3.31597441500046,11.698030380468,1.4278975,0.39064834,0.42424592,11.199825,25.317892,1.4631032,BSC
6609517417000,1.954981,2.35535380588918,-3.55201790256464,11.5163859975726,1.428203,0.17440203,0.48808134,10.988301,24.831324,1.5397646,BSC
6609522447000,1.960011,2.17741220736675,-3.77063194836939,10.9317205632718,1.3588698,-0.059253927,0.50488013,10.75533,24.366936,1.6273056,BSC
6609527463000,1.965027,2.07153777452553,-4.09334204163569,10.2508784826844,1.2651019,-0.24648413,0.49846604,10.460168,23.882761,1.7321513,BSC
6609532417000,1.969981,2.02512458113872,-4.49713632007435,9.49898564155743,1.1374311,-0.2864958,0.4978552,10.154162,23.446596,1.8574274,BSC
6609537434000,1.974998,1.95696246818393,-4.80699914818021,8.75593979493624,0.9392053,-0.14874569,0.47952923,9.832287,23.116186,1.9314954,BSC
6609542454000,1.980018,1.86746128397096,-5.01732700818207,8.03097992711533,0.7076874,0.109650314,0.43676865,9.53379,22.845959,1.9906316,BSC
6609547459000,1.985023,1.73670203246131,-5.14891220345482,7.49406764304543,0.47708577,0.44532076,0.39553526,9.277083,22.691076,1.98061,BSC
6609552581000,1.990145,1.52609255252122,-5.1391160652022,7.28835641123315,0.26083946,0.7519751,0.34147367,9.066588,22.602627,1.9210914,BSC
6609557576000,1.99514,1.25472908215345,-5.13125491278084,7.14240720121874,0.064751714,0.9202685,0.29535335,8.946397,22.611835,1.8211306,BSC
6609562472000,2.000036,0.882049671555744,-5.12628596051293,7.08774732533913,-0.124311075,0.9636399,0.24495697,8.863618,22.679958,1.6837426,BSC
6609567446000,2.00501,0.429057374561745,-5.17550095477211,7.11866748700818,-0.27366763,1.0076222,0.22724187,8.827318,22.788935,1.4722927,BSC
6609572477000,2.010041,-0.115253708180756,-5.28811715574601,7.25005292415271,-0.33505958,1.0054842,0.18173242,8.8131485,22.923628,1.2747962,BSC
6609577412000,2.014976,-0.642033523223075,-5.44090842596968,7.36619054213428,-0.42210788,0.91354895,0.11148291,8.828474,23.09596,1.0277406,BSC
6609582416000,2.01998,-1.16569759114983,-5.65792231964954,7.46526215583776,-0.5012149,0.8127562,0.030543262,8.859168,23.279871,0.7951741,BSC
6609587372000,2.024936,-1.67937762213855,-5.92339527412651,7.58158953202811,-0.56688297,0.70249504,-0.06078109,8.933481,23.484041,0.49248725,BSC
6609592445000,2.030009,-2.19642710301205,-6.28435435144578,7.73280211365462,-0.6224717,0.6068946,-0.16035213,9.023144,23.703215,0.22834995,BSC
6609597398000,2.034962,-2.63907062997409,-6.61700539958729,7.89875400124772,-0.6979135,0.4886922,-0.2678644,9.158727,23.956936,-0.09120399,BSC
6609602597000,2.040161,-2.99747708543046,-6.93240321611479,8.10423999779249,-0.7464773,0.3817908,-0.37965274,9.312976,24.213387,-0.3703011,BSC
6609607423000,2.044987,-3.29621834729078,-7.19116549704011,8.34481147358272,-0.820392,0.26328292,-0.5174029,9.521859,24.528652,-0.6952561,BSC
6609612450000,2.050014,-3.52829800291169,-7.38147064695334,8.71149748746626,-0.8689558,0.10445796,-0.6545421,9.7425585,24.84382,-0.9611826,BSC
6609617379000,2.054943,-3.70726138114044,-7.54292776042716,9.04551736812412,-0.87598073,-0.08368854,-0.7901542,10.004054,25.18514,-1.236745,BSC
6609622479000,2.060043,-3.71218196143462,-7.61673667036067,9.2964675796897,-0.83077675,-0.2968805,-0.8897252,10.267903,25.517273,-1.4446028,BSC
6609627394000,2.064958,-3.63791079923775,-7.66242411578947,9.44664591597096,-0.7049385,-0.5580254,-0.9440922,10.533564,25.813465,-1.6207744,BSC
6609632422000,2.069986,-3.30145725161524,-7.62528307368421,9.29808197568058,-0.5122105,-0.8781188,-0.956615,10.776913,26.068953,-1.7130042,BSC
6609637962000,2.075526,-2.93074272221416,-7.58435996842105,9.13438980598911,-0.29168814,-1.2186762,-0.9236283,10.9825,26.263298,-1.7268641,BSC
6609642471000,2.080035,-2.62901856823049,-7.55105269736842,9.00116092636116,-0.096516706,-1.5039502,-0.8549059,11.145043,26.402924,-1.6731224,BSC
6609647459000,2.085023,-2.29524165980944,-7.51420712894737,8.85377887899274,0.045814894,-1.6924021,-0.7516697,11.256295,26.488941,-1.5650818,BSC
6609652637000,2.090201,-1.71885151768623,-7.43860027748648,8.22937639812734,0.12522738,-1.7620409,-0.63713247,11.323531,26.53297,-1.4256972,BSC
6609657404000,2.094968,-1.14890598235539,-7.36260759234291,7.57393889363296,0.1554652,-1.7534887,-0.5140431,11.346495,26.547188,-1.2741047,BSC
6609662472000,2.100036,-0.590753266191279,-7.33320488840436,7.08998806442022,0.124005646,-1.6783522,-0.40225476,11.305264,26.576279,-0.99924135,BSC
6609667439000,2.105003,-0.0486006346383548,-7.30963305213082,6.63740851260654,0.03940081,-1.5430456,-0.34330627,11.253869,26.610268,-0.7561592,BSC
6609672484000,2.110048,0.397328296608644,-7.31897353542716,6.45036042001648,-0.010079277,-1.38025,-0.23823744,11.143232,26.688168,-0.4565849,BSC
6609677979000,2.115543,0.869556673248604,-7.33342949623661,6.28170754390624,-0.115453534,-1.1273518,-0.10445796,11.037677,26.804373,-0.23157348,BSC
6609682426000,2.11999,1.14113948593767,-7.37158131579503,6.33944848325409,-0.26511553,-1.0506883,-0.070554934,10.896574,26.978134,0.09507413,BSC
6609687426000,2.12499,1.4143288942842,-7.42217191273111,6.46086581024828,-0.312763,-0.95417154,-0.027183503,10.752861,27.150427,0.32916445,BSC
6609692432000,2.129996,1.57345274145548,-7.47637493663575,6.3939522046476,-0.3631594,-0.8509353,0.0143553335,10.578656,27.377907,0.62096703,BSC
6609697420000,2.134984,1.70592900340442,-7.53119266072487,6.28431685186956,-0.38545597,-0.75319684,0.03359759,10.40969,27.607615,0.88243157,BSC
6609702563000,2.140127,1.72213452218351,-7.5534716200542,6.2606030926055,-0.36163223,-0.70280045,0.043982297,10.224405,27.82921,1.1689285,BSC
6609708123000,2.145687,1.69121291475029,-7.56377871490515,6.27091029508324,-0.32284227,-0.71959925,0.049480084,10.038549,28.048887,1.4414678,BSC
6609712426000,2.14999,1.61362914940687,-7.52319740145682,6.20418731896982,-0.2773328,-0.7632761,0.03023783,9.85153,28.272621,1.7338921,BSC
6609717454000,2.155018,1.50339519369407,-7.45805942601457,6.0989638358897,-0.23945917,-0.8020661,0.015882496,9.659251,28.483517,2.0236495,BSC
6609722440000,2.160004,1.3499607711995,-7.35303730134319,5.89541186433778,-0.21380283,-0.82863873,0.010079277,9.466743,28.68419,2.313657,BSC
6609727394000,2.164958,1.18200170460225,-7.23447798145564,5.65829317298001,-0.20005837,-0.8445212,0.010079277,9.271441,28.873753,2.6074545,BSC
6609732420000,2.169984,1.04808451915013,-7.12518590858547,5.44345492895548,-0.18112154,-0.8335256,0.0076358155,9.087626,29.053131,2.8804438,BSC
6609737476000,2.17504,0.92211141937753,-7.01787540220659,5.23349992506263,-0.17379116,-0.83169305,-0.0036651916,8.901515,29.228542,3.156822,BSC
6609742427000,2.179991,0.821443867398119,-6.95300940360502,5.0945536369906,-0.17562376,-0.79045963,-0.013133603,8.738651,29.405865,3.391189,BSC
6609747412000,2.184976,0.72790862468652,-6.90156496541928,4.9776344859326,-0.19333886,-0.7470882,-0.02687807,8.57937,29.582521,3.6232593,BSC
6609752479000,2.190043,0.647533489022159,-6.85478004675747,4.97601451414922,-0.18387043,-0.7107417,-0.043066,8.436263,29.754025,3.8240159,BSC
6609757500000,2.195064,0.574218059656434,-6.81079092183371,5.02489138199837,-0.14996742,-0.70280045,-0.056505036,8.297254,29.920712,4.019727,BSC
6609762430000,2.199994,0.599135330609298,-6.7726526599769,5.07100051100202,-0.10262536,-0.6927212,-0.059864793,8.171544,30.082466,4.18753,BSC
6609767465000,2.205029,0.659473182904996,-6.7355216553085,5.11741410932717,-0.08155051,-0.7180721,-0.08246681,8.049309,30.238922,4.364298,BSC
6609772437000,2.210001,0.756124220544383,-6.65626885835872,5.08238752107455,-0.0061086523,-0.766025,-0.087659165,7.9380317,30.356401,4.527619,BSC
6609777743000,2.215307,0.879986587816372,-6.54788914688198,4.99981282871217,0.07574729,-0.8491027,-0.098043874,7.8243165,30.463379,4.7073207,BSC
6609782412000,2.219976,0.961115038410928,-6.43728101623455,4.83805927325527,0.17134771,-0.95447695,-0.10323623,7.702585,30.529829,4.9143577,BSC
6609787446000,2.22501,1.03727562712573,-6.31184020123594,4.62749763957811,0.25503623,-1.072374,-0.09743301,7.566105,30.575293,5.1418753,BSC
6609792434000,2.229998,1.06449025108557,-6.16982934827586,4.32432164279481,0.33658674,-1.1863003,-0.095294975,7.409777,30.587208,5.419085,BSC
6609797403000,2.234967,1.04929640715198,-6.01282608275862,3.93941077115794,0.40530908,-1.2724323,-0.09315695,7.237966,30.57898,5.7140565,BSC
6609802529000,2.240093,1.00943842882496,-5.86912483453925,3.56095748349098,0.46761733,-1.3319917,-0.095294975,7.048205,30.5525,6.051105,BSC
6609807501000,2.245065,0.958363334588006,-5.73911568887372,3.20343194504144,0.4999932,-1.3552046,-0.094989546,6.8488545,30.515718,6.395882,BSC
6609812430000,2.249994,0.880541223485286,-5.6582497214849,2.90166547480285,0.5225952,-1.3240504,-0.10842858,6.6468587,30.479298,6.747829,BSC
6609817441000,2.255005,0.783620951081939,-5.60748170846317,2.62936572037892,0.5207626,-1.2315043,-0.118202426,6.447999,30.441723,7.0862665,BSC
6609822434000,2.259998,0.653301865903516,-5.62405982313982,2.49444881868357,0.50335294,-1.0769554,-0.12370021,6.2688184,30.42055,7.40172,BSC
6609827427000,2.264991,0.492022148221586,-5.70225630660262,2.48467434755724,0.4877759,-0.8854492,-0.14813483,6.114178,30.399185,7.6865816,BSC
6609832411000,2.269975,0.25836378250483,-5.87106006789026,2.71586016880796,0.49235737,-0.70341134,-0.17562376,5.9892535,30.396505,7.9222655,BSC
6609837448000,2.275012,-0.0352043866132148,-6.11337032465224,3.13990311814142,0.49968776,-0.58246,-0.22632557,5.894074,30.396202,8.130689,BSC
6609842429000,2.279993,-0.221252859027928,-6.05883618528172,3.60844612631063,0.49754974,-0.4914411,-0.27366763,5.842732,30.409462,8.267838,BSC
6609847513000,2.285077,-0.302360573838315,-5.69623693573738,4.13803178451739,0.5448918,-0.42088616,-0.34025195,5.8229723,30.40433,8.388698,BSC
6609852460000,2.290024,-0.271254382724726,-5.36829098123089,4.68084356396094,0.65026605,-0.3933972,-0.36071593,5.850036,30.379202,8.4095125,BSC
6609857507000,2.295071,-0.109171251545912,-5.06319328541276,5.26720301844363,0.7861836,-0.40530908,-0.3866777,5.899892,30.329716,8.431616,BSC
6609862390000,2.299954,0.12052595590438,-4.82844351682907,5.71620841407886,0.94225967,-0.4474588,-0.40103304,5.988223,30.128555,8.419323,BSC
6609867444000,2.305008,0.459920449316274,-4.66976545233585,6.0159334884801,1.0140363,-0.5207626,-0.4175264,6.0773735,29.91572,8.420391,BSC
6609872367000,2.309931,0.786647283991956,-4.55727231141277,6.23889718712921,1.131017,-0.62858033,-0.41080686,6.174378,29.520077,8.455808,BSC
6609877965000,2.315529,1.14243651892408,-4.60039830145802,6.21194347853193,1.2391402,-0.7431176,-0.37843102,6.2566514,29.116257,8.508468,BSC
6609882408000,2.319972,1.41954868107035,-4.67017916965611,6.13049474506115,1.3316863,-0.8732319,-0.3680463,6.311235,28.609991,8.668364,BSC
6609887431000,2.324995,1.71620946572593,-4.86124890232048,5.8489185014111,1.3393221,-1.0100657,-0.36468655,6.340869,28.111578,8.852974,BSC
6609892364000,2.329928,1.9962882338878,-5.08074287615157,5.5465953895374,1.3148874,-1.105666,-0.3707952,6.3236475,27.61687,9.135745,BSC
6609897423000,2.334987,2.25856168208661,-5.37639646279528,5.1794124226378,1.2770138,-1.0955868,-0.3594942,6.295666,27.136898,9.419774,BSC
6609902530000,2.340094,2.46828330781689,-5.66041540248279,4.86571720626515,1.2186762,-1.069625,-0.36774087,6.217345,26.74299,9.805213,BSC
6609907435000,2.344999,2.55028666859664,-5.90186974784211,4.68804322619533,1.1612549,-1.0256428,-0.38545597,6.1413393,26.367569,10.178327,BSC
6609912400000,2.349964,2.6230130518225,-6.10259805606181,4.57248111212361,1.1129965,-0.9786061,-0.42852196,6.024786,26.093992,10.623604,BSC
6609917421000,2.354985,2.66111535990491,-6.15498882914025,4.67726265828051,1.0803152,-0.9230174,-0.47586402,5.9191422,25.835215,11.05283,BSC
6609922410000,2.359974,2.71552412331288,-6.18585338650307,4.83957762822086,1.0323622,-0.88514376,-0.50579643,5.797072,25.654568,11.500418,BSC
6609927539000,2.365103,2.83606264270882,-6.13485626474752,5.23364574182161,0.9993755,-0.8249735,-0.52015173,5.6910477,25.479513,11.926419,BSC
6609932441000,2.370005,2.96206018251572,-6.09132683115304,5.63486448612159,0.96852684,-0.75747293,-0.52320606,5.5979443,25.311798,12.340399,BSC
6609937468000,2.375032,3.19419439597484,-6.0963731698218,6.28080321287212,0.97035944,-0.6835582,-0.5366451,5.5177145,25.144768,12.734466,BSC
6609942447000,2.380011,3.45912012910462,-6.09170268162831,6.92165530274608,1.0143417,-0.6365216,-0.5491679,5.448749,24.927687,13.120283,BSC
6609947421000,2.384985,3.87365830061884,-6.04564292220073,7.56649217520789,1.1258247,-0.6197228,-0.5467244,5.383352,24.694752,13.488339,BSC
6609952582000,2.390146,4.29812321676367,-5.97759044272501,8.22148730237996,1.2901474,-0.64751714,-0.54305923,5.325261,24.37611,13.866764,BSC
6609957466000,2.39503,4.66756370693203,-5.79773128009769,8.76106499329661,1.5082263,-0.68600166,-0.5384777,5.265863,24.018333,14.235928,BSC
6609963049000,2.400613,5.05072651392261,-5.5785626616085,9.23201248520486,1.720502,-0.7877107,-0.53023106,5.1921363,23.53321,14.683612,BSC
6609967408000,2.404972,5.27243908663695,-5.38060519195751,9.31119588647572,1.7922786,-0.9059132,-0.51068336,5.1065044,23.040503,15.133814,BSC
6609972403000,2.409967,5.5121196704645,-5.14347019836401,9.39557541893076,1.8912388,-0.9682214,-0.5131268,5.0209394,22.395384,15.640618,BSC
6609977430000,2.414994,5.58244186386211,-4.78248259625085,9.40495166243062,1.9333885,-0.9825767,-0.52106804,4.9225698,21.766684,16.15088,BSC
6609982448000,2.420012,5.65263815717207,-4.42214128186776,9.41431111933976,1.9147571,-0.97127575,-0.5299256,4.8076663,21.075613,16.716284,BSC
6609987413000,2.424977,5.7220930388548,-4.06560588411725,9.42357172188139,1.8637499,-0.95478237,-0.55771995,4.6988916,20.402203,17.272387,BSC
6609992756000,2.43032,5.78579941588652,-3.67826808089835,9.43575408983452,1.8124372,-0.9202685,-0.57696223,4.6031933,19.74876,17.806896,BSC
6609997587000,2.435151,5.59329975807092,-3.2451437366052,9.4970038605201,1.790446,-0.8527679,-0.57360244,4.513833,19.120808,18.315128,BSC
6610002428000,2.439992,5.40040163273759,-2.81112284016076,9.55838041607565,1.8060231,-0.8008443,-0.58246,4.465708,18.33978,18.84118,BSC
6610007459000,2.445023,5.28758851262193,-2.3802091681428,9.65627796820133,1.8463402,-0.75411314,-0.5882632,4.419039,17.587635,19.33723,BSC
6610012371000,2.449935,5.19123023216933,-1.96265591679672,9.757225030238,1.8924606,-0.72784597,-0.5992588,4.376745,16.855783,19.814295,BSC
6610017420000,2.454984,5.22946475302107,-1.58324421618895,9.82817675781484,1.9462167,-0.7180721,-0.6105598,4.4017935,16.008524,20.213661,BSC
6610022403000,2.459967,5.30095360910816,-1.22103376318786,9.89013356736243,1.992337,-0.7287622,-0.6230826,4.424591,15.186024,20.60458,BSC
6610027431000,2.464995,5.43743244492739,-0.954293843959301,9.65398653501926,2.0299053,-0.71685034,-0.62125,4.512605,14.249635,20.940145,BSC
6610033072000,2.470636,5.60820456716388,-0.682125429349007,9.30710487809938,2.0295997,-0.6618725,-0.6093381,4.592306,13.358928,21.261503,BSC
6610037481000,2.475045,5.64667405528302,-0.442171127275283,8.67063272150943,2.0048597,-0.57543504,-0.59803706,4.690677,12.432105,21.577173,BSC
6610042469000,2.480033,5.67821986132075,-0.167273390761321,7.90452486037736,1.9398025,-0.46120325,-0.59406644,4.7830443,11.562461,21.863636,BSC
6610047462000,2.485026,5.65762500162421,-0.106062889731039,7.63171998602987,1.8402315,-0.3408628,-0.57696223,4.861587,10.706054,22.180553,BSC
6610052552000,2.490116,5.61049780696089,-0.150833659704452,7.60108722584232,1.7180585,-0.23487769,-0.5546656,4.9346,9.913168,22.463127,BSC
6610057463000,2.495027,5.56502793407454,-0.194029976274085,7.57153172775173,1.557401,-0.17715092,-0.52839845,4.9851003,9.163258,22.806957,BSC
6610062436000,2.5,5.51898401677382,-0.237771634246145,7.5416030997728,1.4731015,-0.06658431,-0.5161811,5.035054,8.455866,23.100525,BSC
6610067396000,2.50496,5.52923360179104,-0.322867017477612,7.6905758761194,1.320996,0.021991149,-0.4999932,5.0951996,7.803693,23.373203,BSC
6610072446000,2.51001,5.59179249930348,-0.447984897925373,8.00818268706468,1.20371,0.08277224,-0.47739118,5.146221,7.19329,23.617792,BSC
6610078005000,2.515569,5.63893853812567,-0.529262128682226,8.22017496078995,1.1093313,0.10354166,-0.47739118,5.211523,6.6312647,23.826708,BSC
6610082410000,2.519974,5.66317461087253,-0.559557172165171,8.3050011837702,1.0500773,0.08399397,-0.48258355,5.266055,6.114013,24.02658,BSC
6610087409000,2.524973,5.69067883962657,-0.593937404258528,8.40126594850987,1.0235047,0.076358154,-0.4908302,5.348389,5.6165338,24.196314,BSC
6610092436000,2.53,5.68043282238443,-0.610445707335766,8.52708641727494,1.0461067,0.09132435,-0.4999932,5.4262166,5.13983,24.362082,BSC
6610097437000,2.535001,5.65615586739659,-0.620156484260949,8.66303766940389,1.0903945,0.113926366,-0.50701815,5.4999204,4.6813526,24.524595,BSC
6610102857000,2.540421,5.58679194445537,-0.650284197045812,8.65603851710578,1.1496484,0.14721853,-0.5186246,5.5883684,4.210296,24.66879,BSC
6610107368000,2.544932,5.5188391309477,-0.680013545194652,8.61356806409752,1.2104294,0.17531833,-0.52412236,5.6713834,3.7447562,24.804955,BSC
6610112541000,2.550105,5.40932743630858,-0.667590177985782,8.51221287993681,1.2782356,0.17806722,-0.52473325,5.7737665,3.2569091,24.915636,BSC
6610117442000,2.555006,5.29398562304722,-0.638754683807267,8.3968703354397,1.3640621,0.18509217,-0.5164866,5.8691473,2.7671807,25.015009,BSC
6610122489000,2.560053,5.15367800806129,-0.544806089756829,8.29055031212525,1.4248432,0.16646078,-0.49541172,5.982822,2.2667894,25.108828,BSC
6610127431000,2.564995,4.99076585056629,-0.376638812717078,8.20121183666445,1.4740179,0.12980886,-0.49571714,6.0937266,1.7634296,25.204575,BSC
6610132433000,2.569997,4.85587533404129,-0.194146268555764,8.09283583404129,1.4779885,0.081855945,-0.48899764,6.2172756,1.2565507,25.294647,BSC
6610137512000,2.575076,4.73575143993875,-0.00194790252494319,7.97271193993875,1.4492778,0.04062254,-0.48716503,6.3355036,0.7621614,25.392145,BSC
6610142429000,2.579993,4.62561755534468,0.195245750403186,7.81595696111712,1.4196508,0.03634648,-0.48380527,6.475698,0.24333312,25.46659,BSC
6610147471000,2.585035,4.51640473150752,0.404174400122923,7.63077013692595,1.382999,0.07696902,-0.46486846,6.60273,-0.24589822,25.538857,BSC
6610152449000,2.590013,4.48324557991708,0.531924570290204,7.55066203102584,1.382388,0.106901415,-0.46303585,6.7507133,-0.76251197,25.599575,BSC
6610157445000,2.595009,4.50169749572889,0.605732064948901,7.5414361935403,1.4245378,0.17195857,-0.46944994,6.88754,-1.2617248,25.638098,BSC
6610162430000,2.599994,4.56492017943548,0.67863064134879,7.59365676778226,1.459357,0.17989981,-0.44868052,7.0309362,-1.7856061,25.6781,BSC
6610167419000,2.604983,4.6708811078629,0.750876677248992,7.70443399231855,1.5170839,0.16493362,-0.39828414,7.15902,-2.305184,25.706898,BSC
6610172486000,2.61005,4.79936052618831,0.850293643781411,7.86120627443738,1.5796975,0.118507855,-0.35369098,7.2860847,-2.848919,25.743584,BSC
6610177422000,2.614986,4.94247613260672,0.969556713887375,8.05202703318196,1.6288722,0.05100725,-0.3100141,7.3911157,-3.3792536,25.792227,BSC
6610182403000,2.619967,5.08001818428008,1.15467385579882,8.30336709447732,1.6526959,-0.018325957,-0.28710666,7.492414,-3.9279418,25.863447,BSC
6610187461000,2.625025,5.21377619617357,1.39830439739645,8.60909975009862,1.6224581,-0.064446285,-0.26908615,7.5760984,-4.4512196,25.948238,BSC
6610192448000,2.630012,5.24070286187578,1.55647664483725,8.86155436066841,1.5632042,-0.053450707,-0.26175576,7.658565,-4.9867864,26.042505,BSC
6610197518000,2.635082,5.17035424900995,1.64089466685985,9.07259892601179,1.491733,-0.0067195175,-0.27947086,7.7374153,-5.4930716,26.138279,BSC
6610202421000,2.639985,5.05776348568477,1.7106528818477,9.22185963990555,1.4413365,0.062308256,-0.32406402,7.835559,-6.0168767,26.216564,BSC
6610207444000,2.645008,4.88738252508855,1.76744663421881,9.30705098504526,1.4107933,0.1469131,-0.36285394,7.9290323,-6.510313,26.275173,BSC
6610212428000,2.649992,4.70604682515736,1.7401787168731,9.43287141502538,1.3924674,0.2144137,-0.38759398,8.047611,-7.0070157,26.275757,BSC
6610217431000,2.654995,4.50661292184772,1.59425146683249,9.6177122022335,1.3839152,0.25473082,-0.40469822,8.166791,-7.4845304,26.259499,BSC
6610222392000,2.659956,4.30609908723404,1.42755544255319,9.84679134042553,1.3301591,0.27366763,-0.4260785,8.310749,-7.955455,26.182495,BSC
6610227434000,2.664998,4.09874056302947,1.22962234831154,10.1389783406207,1.2635747,0.22174409,-0.43860126,8.451701,-8.404708,26.11654,BSC
6610232403000,2.669967,3.94061347002316,1.0977801938979,10.4342612451918,1.1936307,0.15149458,-0.44684792,8.610155,-8.827855,25.9894,BSC
6610237411000,2.674975,3.85368455458665,1.06397450456147,10.7433417325546,1.1114693,0.06719518,-0.4382958,8.764125,-9.215092,25.885162,BSC
6610242406000,2.67997,3.88742973656379,1.14070088627875,11.0562414460389,1.0201449,0.013439035,-0.45204028,8.946721,-9.566046,25.719608,BSC
6610247495000,2.685059,4.10299275380381,1.38500539905642,11.3819814633379,0.91629785,-0.01038471,-0.4538729,9.119798,-9.877482,25.575117,BSC
6610252430000,2.689994,4.43570516285686,1.98760125248185,11.7757804391724,0.8371908,-0.02443461,-0.44165558,9.301473,-10.168774,25.393862,BSC
6610257445000,2.695009,4.98033406308565,3.21062800459564,12.3060769054014,0.8008443,-0.052839845,-0.43157628,9.481147,-10.434717,25.228714,BSC
6610262365000,2.699929,5.27963055873138,4.25922517195579,12.8409985969246,0.7819075,-0.025045475,-0.41508293,9.657157,-10.710902,25.06586,BSC
6610267425000,2.704989,5.14922767204229,5.05561412226814,13.4184970534358,0.77091193,-0.06169739,-0.38087448,9.824698,-10.96631,24.93581,BSC
6610272438000,2.710002,4.92850776703152,5.74066836590866,13.8673228297792,0.73548174,-0.20311269,-0.35705075,10.023556,-11.330674,24.886404,BSC
6610278073000,2.715637,4.41930485752029,6.21422694946216,14.0200835431213,0.602924,-0.31520647,-0.32834008,10.203373,-11.647405,24.84417,BSC
6610282420000,2.719984,4.03833957283771,6.50983901495172,14.1074515686845,0.31520647,-0.28344148,-0.32467487,10.43113,-11.9808445,24.727406,BSC
6610288091000,2.725655,3.60976895431419,6.49292169946008,14.0454215100197,-0.039095376,-0.121256754,-0.31948254,10.639443,-12.246103,24.611158,BSC
6610292393000,2.729957,3.40474030899881,6.3106275375447,13.8956210628725,-0.42058071,0.037873644,-0.344528,10.893868,-12.472172,24.395927,BSC
6610297484000,2.735048,3.55486160131108,5.54065070083433,13.3823033402861,-0.76174897,0.16310102,-0.3481932,11.121829,-12.606186,24.156471,BSC
6610302399000,2.739963,3.81344588009923,4.75438223970967,12.7341553919515,-0.97127575,0.21380283,-0.36010507,11.367245,-12.686744,23.845158,BSC
6610307388000,2.744952,4.48508656725469,3.80179356247703,11.5269576560088,-1.0201449,0.1826487,-0.3173445,11.586684,-12.711645,23.538548,BSC
6610312554000,2.750118,5.18429965347779,2.8208958,10.2642244400867,-0.86590147,0.1740966,-0.21624629,11.750098,-12.698591,23.274504,BSC
6610317425000,2.754989,5.89186296055255,1.96676595,8.90974657833153,-0.58184916,0.20708331,-0.1441642,11.905607,-12.705482,23.016514,BSC
6610322416000,2.75998,6.49720781513294,1.19427902268459,7.57755940743303,-0.28405234,0.23182335,-0.111177474,11.965568,-12.6941185,22.967775,BSC
6610327409000,2.764973,6.61536794730651,0.839798971631907,6.47158152970248,-0.06566802,0.23518312,-0.0983493,12.008064,-12.730935,22.91982,BSC
6610332401000,2.769965,6.63172377940752,0.54666278730403,5.47999312417043,0.06383542,0.2489276,-0.098043874,11.963811350065,-12.7711602574743,23.047309919808,BSC
6610337410000,2.774974,6.15188321104165,0.551276636606713,5.04167695864192,0.13775012,0.33261612,-0.10781772,11.919408,-12.8115225,23.175234,BSC
6610342420000,2.779984,5.65934534158215,0.564202133488844,4.65856259563895,0.12705997,0.43066,-0.13316862,11.846787,-12.878531,23.377443,BSC
6610347484000,2.785048,5.0396072693712,0.657654658356998,4.80611938955375,0.061391957,0.5299256,-0.16707164,11.771254,-12.950996,23.555037,BSC
6610352487000,2.790051,4.44209104466539,0.770459579426386,4.98006499086998,-0.032375857,0.5723807,-0.19425514,11.720626,-13.033896,23.675169,BSC
6610358217000,2.795781,3.86501058347992,1.04850744596558,5.3840214999522,-0.081855945,0.7162395,-0.20738874,11.658814,-13.112151,23.740345,BSC
6610362650000,2.800214,3.43172168030663,1.26377844451542,5.68859914327432,-0.1133155,0.75594574,-0.21166481,11.639796,-13.180415,23.71787,BSC
6610367426000,2.80499,3.11449677912028,1.49752315442599,5.92651786274868,-0.074830994,0.84207773,-0.20769419,11.606981,-13.253875,23.645359,BSC
6610372391000,2.809955,2.78471837995985,1.74051781202774,6.17385170742836,0.029321533,0.9074403,-0.183565,11.616123,-13.370799,23.456251,BSC
6610377433000,2.814997,2.4936899039016,1.85849818727694,6.36977191995161,0.18081611,0.9682214,-0.16157386,11.618303,-13.5079775,23.248957,BSC
6610382425000,2.819989,2.21414253404577,1.950074034197,6.55292331182579,0.33261612,0.9822713,-0.14905111,11.614607,-13.668195,23.042356,BSC
6610387441000,2.825005,1.99695246576577,1.83682919897625,6.75624873423423,0.47128254,0.98807454,-0.13652839,11.646028,-13.922626,22.737907,BSC
6610392433000,2.829997,1.79139224954955,1.69000051691237,6.96180895045045,0.54550266,0.95569867,-0.12614368,11.675422,-14.190147,22.44846,BSC
6610397502000,2.835066,1.80119050472724,1.41271547068586,7.35421967589444,0.5671884,0.88086766,-0.1441642,11.7359085,-14.485078,22.114313,BSC
6610402485000,2.840049,1.83318905438,1.12701435781886,7.7587724985871,0.54458636,0.754724,-0.16493362,11.80007,-14.775655,21.812046,BSC
6610407536000,2.8451,1.86562426896882,0.837414453927391,8.16884601001006,0.48716503,0.5766568,-0.20861048,11.894764,-15.036676,21.499218,BSC
6610412410000,2.849974,1.89692287041525,0.55796287373198,8.56454949341444,0.40866885,0.41141775,-0.27397305,12.010843,-15.281139,21.220491,BSC
6610417424000,2.854988,1.82813143504075,0.586879515490881,8.93655619635235,0.30879238,0.258396,-0.32253686,12.147586,-15.4986515,20.98996,BSC
6610422429000,2.859993,1.72118204301513,0.735678641325184,9.29460403007373,0.19150625,0.17256944,-0.3894266,12.315086,-15.691395,20.782845,BSC
6610427955000,2.865519,1.66707492293789,1.10620724483623,9.57630004733373,0.09040806,0.17562376,-0.43768495,12.452679,-15.734487,20.541836,BSC
6610432413000,2.869977,1.64575803480128,1.47712055974935,9.76388862732175,-0.0061086523,0.25045475,-0.48288897,12.609607,-15.751971,20.301886,BSC
6610437413000,2.874977,1.76877037623963,1.87465388593479,9.92382175120587,-0.108123146,0.38453966,-0.49754974,12.7867985,-15.752805,20.0002,BSC
6610442445000,2.880009,1.96867305677214,2.26516145467876,10.0586396427745,-0.1853976,0.49571714,-0.51159966,12.97195,-15.737182,19.68476,BSC
6610447451000,2.885015,2.21770658338175,2.71383947993589,10.2642658266052,-0.23640485,0.52503866,-0.5326745,13.181669,-15.762955,19.335793,BSC
6610452460000,2.890024,2.50121292268857,3.20396900099169,10.5189410884504,-0.27152961,0.5653558,-0.5296202,13.377082,-15.7683325,18.961132,BSC
6610457408000,2.894972,2.78699296028527,3.61062985461867,10.7849881185717,-0.28863382,0.56107974,-0.5177083,13.589254,-15.824481,18.624424,BSC
6610462434000,2.899998,3.08122741654376,3.97024971308946,11.0652112709102,-0.34269542,0.51007247,-0.46822822,13.787979,-15.852475,18.300219,BSC
6610467420000,2.904984,3.38266335677481,4.22203285965649,11.2365011524809,-0.39828414,0.4251622,-0.40286562,13.980494,-15.9195,18.03246,BSC
6610472439000,2.910003,3.69454200534351,4.38255867832061,11.3144709343511,-0.45020768,0.3200934,-0.32498032,14.157689,-15.961678,17.79576,BSC
6610478047000,2.915611,4.05451578587349,4.22711534207209,11.178790133195,-0.4859433,0.20433442,-0.22571471,14.301538,-16.023438,17.629301,BSC
6610482409000,2.919973,4.34347614229498,3.8450456466144,10.899461881408,-0.4886922,0.06169739,-0.118202426,14.428681,-16.067652,17.510109,BSC
6610487415000,2.924979,4.67509822946737,3.4065676788333,10.5788939702559,-0.45570546,-0.067500606,-0.028405234,14.523197,-16.117773,17.4806,BSC
6610492435000,2.929999,4.76081462486698,2.94065902346682,10.1141711070662,-0.40591997,-0.14874569,0.018020526,14.604947,-16.162762,17.482033,BSC
6610497593000,2.935157,4.79770219691963,2.456508575021,9.60696584784841,-0.32986724,-0.1554652,0.039095376,14.670606,-16.21527,17.50245,BSC
6610502451000,2.940015,4.76857777777778,2.15825378830409,9.06867574269006,-0.25473082,-0.10170906,0.033292156,14.676833,-16.228355,17.61873,BSC
6610507423000,2.944987,4.71288677407407,1.91692575021442,8.49320066471735,-0.19456059,0.0290161,0.02687807,14.669723,-16.255497,17.713394,BSC
6610512466000,2.95003,4.51138774623731,1.86789823758188,8.15071229471474,-0.15424347,0.19333886,0.0106901415,14.629401,-16.247229,17.816639,BSC
6610517457000,2.955021,4.23175635859293,1.92764851105055,7.94517148974449,-0.12889257,0.3475823,0.015577064,14.574167,-16.25017,17.885881,BSC
6610522470000,2.960034,3.95089237416871,1.98766215979799,7.73872467441372,-0.13805555,0.47067168,0.022602014,14.493298,-16.245243,17.938961,BSC
6610527468000,2.965032,3.67086879663983,2.04749623449172,7.53289559341967,-0.15882497,0.54550266,0.040317107,14.399288,-16.242773,17.964638,BSC
6610532415000,2.969979,3.37600351004155,2.15911894099723,7.50257908698061,-0.15454891,0.591623,0.07574729,14.290933,-16.242584,17.967556,BSC
6610537477000,2.975041,3.06426458691136,2.30299852872972,7.56972280110803,-0.1414153,0.6047566,0.12003502,14.172711,-16.237179,17.96262,BSC
6610542456000,2.98002,2.79085484855927,2.36744380224328,7.69835051063624,-0.09590584,0.5849035,0.16340645,14.078174,-16.282866,17.88332,BSC
6610547497000,2.985061,2.53411362825372,2.386115876813,7.86639932799265,-0.031154128,0.569021,0.20861048,13.970934,-16.332487,17.806444,BSC
6610552505000,2.990069,2.28572509650066,2.34755139072928,8.01326434950806,0.044898596,0.50946164,0.22724187,13.894773,-16.423422,17.691639,BSC
6610557474000,2.995038,2.04438647689421,2.26549621067045,8.14358697124455,0.08093964,0.45631635,0.27152961,13.801557,-16.51181,17.58972,BSC
6610562464000,3.000028,1.8201918375,2.129043865625,8.289324375,0.1386664,0.4016439,0.2950479,13.733535,-16.62383,17.450598,BSC
6610567467000,3.005031,1.60826995292308,1.95397797561538,8.44596253230769,0.18203785,0.36560285,0.31337386,13.659926,-16.734407,17.328676,BSC
6610572465000,3.010029,1.41706507250996,1.74638629442231,8.65680506527735,0.20433442,0.33383787,0.3231477,13.59785,-16.832558,17.1749,BSC
6610577464000,3.015028,1.2458928065073,1.50674498924303,8.92089923761365,0.20616703,0.3203988,0.3286455,13.536034,-16.932032,17.031446,BSC
6610582453000,3.020017,1.13965061440756,1.29051417276229,9.1817111812179,0.18967366,0.28099802,0.31856623,13.494234,-16.995344,16.85961,BSC
6610587460000,3.025024,1.08687980077036,1.09262370198092,9.44116782318415,0.16187929,0.22876903,0.29138273,13.46075,-17.054972,16.697798,BSC
6610592467000,3.030031,1.05533476565787,0.92199428482507,9.68474763640266,0.13561209,0.1685988,0.2773328,13.437433,-17.062256,16.507872,BSC
6610597501000,3.035065,1.06050858098304,0.797822608971882,9.90204809615797,0.11362094,0.105374254,0.23762658,13.436401,-17.067204,16.33181,BSC
6610602442000,3.040006,1.0998389447867,0.768475363417691,9.98475467452398,0.07727446,0.044593163,0.20372356,13.437333,-17.016983,16.14535,BSC
6610607566000,3.04513,1.17553379979754,0.83234290505182,9.93744542101711,0.03634648,-0.0106901415,0.16982053,13.456387,-16.963568,15.974233,BSC
6610613133000,3.050697,1.25777292115691,0.90173217208484,9.88604600371174,0.007941248,-0.032375857,0.14110987,13.485568,-16.883371,15.800095,BSC
6610617461000,3.055025,1.32170877839479,0.955678058148952,9.84608611901663,-0.027183503,-0.043066,0.13041973,13.524284,-16.793001,15.639328,BSC
6610622419000,3.059983,1.40487729951,1.05497775598203,9.7403829673336,-0.07788532,-0.047036625,0.11942416,13.571915,-16.698744,15.480906,BSC
6610627471000,3.065035,1.50859538554512,1.22784130146999,9.51813003634136,-0.1160644,-0.035124753,0.11759156,13.620348,-16.600164,15.323361,BSC
6610632402000,3.069966,1.59628230484211,1.37520933747368,9.33022941052632,-0.14172074,-0.008246681,0.12217305,13.661423,-16.514511,15.198193,BSC
6610637467000,3.075031,1.66436164263659,1.49191673742356,9.18434471629073,-0.15088372,0.015882496,0.13194689,13.701462,-16.424538,15.072587,BSC
6610642363000,3.079927,1.74158252888932,1.55750419528831,9.07160107701238,-0.13958271,0.029932396,0.12889257,13.73742,-16.364588,14.974305,BSC
6610647434000,3.084998,1.84025164876161,1.54810719465944,9.00112320433436,-0.1282817,0.04642576,0.13408493,13.766719,-16.302353,14.871641,BSC
6610652413000,3.089977,1.9513808039405,1.52514737178603,8.94975444626145,-0.11789699,0.058948494,0.13775012,13.79541,-16.268497,14.787306,BSC
6610657460000,3.095024,2.0942262671855,1.47277063895183,8.93547010875776,-0.095294975,0.07849618,0.1469131,13.819592,-16.241148,14.698625,BSC
6610662373000,3.099937,2.22574746320845,1.42476389106628,8.9321157271854,-0.053450707,0.08582657,0.14477506,13.82199,-16.22605,14.62724,BSC
6610667469000,3.105033,2.34295066582133,1.38257077337176,8.9555563481268,-0.042455133,0.089186326,0.14508049,13.82061,-16.208359,14.553808,BSC
6610672403000,3.109967,2.45339920306988,1.34890546898656,8.97441752426351,-0.027488936,0.07849618,0.14996742,13.799576,-16.189863,14.510471,BSC
6610677993000,3.115557,2.5656840445705,1.3412496897893,8.9795212171799,-0.0125227375,0.07422013,0.1591304,13.777259,-16.174595,14.465761,BSC
6610683115000,3.120679,2.66856829468967,1.3342348595481,8.98419762417771,0.0015271631,0.050701816,0.17134771,13.745573,-16.154615,14.452043,BSC
6610687470000,3.125034,2.75604602004481,1.32827047342931,8.98817375703118,0.028099801,0.04337143,0.17959438,13.712191,-16.142382,14.435987,BSC
6610692699000,3.130263,2.85884010947429,1.32192950729829,8.99361134257654,0.03573562,0.017715093,0.18692477,13.679899,-16.128395,14.4327,BSC
6610697457000,3.135021,2.92464948902369,1.32631679926825,9.00677349335644,0.052839845,0.0030543262,0.1966986,13.644976,-16.123846,14.429618,BSC
6610702912000,3.140476,2.99853240519735,1.33051492986843,9.02168262470841,0.06261369,0.00030543262,0.19761491,13.590639,-16.113312,14.469136,BSC
6610707485000,3.145049,3.0230512293459,1.31416904710273,9.02985531006811,0.074830994,0.0076358155,0.19730948,13.5349245,-16.1078,14.510137,BSC
6610712368000,3.149932,3.04923216490622,1.29671509006252,9.03858201520948,0.079107046,0.008857546,0.19486602,13.47569,-16.103148,14.56585,BSC
6610717586000,3.15515,3.02588569107457,1.30063316238011,9.04826932452535,0.079107046,0.024740042,0.19914207,13.413406,-16.100283,14.615421,LYI
6610722375000,3.159939,2.99222208625954,1.30961012366412,9.05724647328244,0.077579886,0.045814894,0.19792034,13.353447,-16.09881,14.661964,LYI
6610727455000,3.165019,2.95651293769818,1.31913256328049,9.06676911176356,0.0888809,0.05467244,0.19120082,13.282035,-16.09884,14.708673,LYI
6610732418000,3.169982,2.92162622425132,1.32843568686631,9.07607242963398,0.099265605,0.069027774,0.1908954,13.207726,-16.097874,14.7481785,LYI
6610737560000,3.175124,2.89838049926403,1.34414496688132,9.09178169917203,0.095294975,0.074830994,0.17501289,13.139682,-16.101723,14.784117,LYI
6610742452000,3.180016,2.88114045219871,1.36138496894204,9.10902161122355,0.11026118,0.07238753,0.17195857,13.06838,-16.11251,14.819287,LYI
6610747484000,3.185048,2.86802420879647,1.35192103909544,9.11962896109621,0.109650314,0.08827003,0.16523905,13.007878,-16.121637,14.8312435,LYI
6610753144000,3.190708,2.85763624310081,1.31556296933691,9.12482307953239,0.1151481,0.09193522,0.15088372,12.952396,-16.137032,14.846492,LYI
6610757429000,3.194993,2.86466660456598,1.28951205201204,9.12023000220773,0.096516706,0.096516706,0.1432479,12.890701,-16.144112,14.851224,LYI
6610762467000,3.200031,2.88887529417963,1.26046157391872,9.10570448509784,0.093767814,0.10934488,0.12644911,12.835512,-16.158497,14.851154,LYI
6610767407000,3.204971,2.89952007497915,1.23372277489575,9.07994669391159,0.08307768,0.10567969,0.11209377,12.783605,-16.160133,14.852363,LYI
6610772417000,3.209981,2.89451801409508,1.2087124704754,9.03993041576314,0.07147124,0.106595986,0.094989546,12.736578,-16.162125,14.847657,LYI
6610777406000,3.21497,2.87451681357695,1.18952424569222,9.01630079164191,0.059253927,0.118202426,0.07849618,12.687869,-16.157286,14.845217,LYI
6610782413000,3.219977,2.84127678942365,1.17527854230541,9.0068034577144,0.03359759,0.11789699,0.063224554,12.645362,-16.146847,14.844831,LYI
6610787431000,3.224995,2.80161147256503,1.15895186443896,8.99513414011771,0.016493361,0.12003502,0.053145275,12.604712,-16.13414,14.841284,LYI
6610792467000,3.230031,2.75582756825517,1.14063825490792,8.98139916005316,0.0015271631,0.12614368,0.032070424,12.571888,-16.11734,14.834891,LYI
6610797429000,3.234993,2.71933749223222,1.12805269844644,8.98754138491415,-0.0125227375,0.1255328,0.02321288,12.541698,-16.094551,14.824275,LYI
6610802533000,3.240097,2.69435794031071,1.12305678806214,9.02251244460343,-0.025350908,0.12583824,0.008246681,12.51923,-16.070625,14.809914,LYI
6610807454000,3.245018,2.67711768598383,1.12268054555256,9.05805830188679,-0.03756821,0.11209377,-0.0015271631,12.502804,-16.041534,14.79115,LYI
6610812431000,3.249995,2.66760106774483,1.12743882982929,9.09612487421384,-0.048563786,0.102319926,-0.011911872,12.490961,-16.011171,14.77044,LYI
6610817407000,3.254971,2.65190956256109,1.14050595924731,9.12129696412512,-0.05467244,0.101098195,-0.028710667,12.487018,-15.978781,14.743728,LYI
6610822658000,3.260222,2.62733098152493,1.1650845916129,9.13112808856305,-0.053145275,0.089186326,-0.033292156,12.484656,-15.946206,14.723217,LYI
6610827401000,3.264965,2.60717465006681,1.19071118738309,9.13262628927276,-0.053145275,0.101098195,-0.03970624,12.486581,-15.9123535,14.691338,LYI
6610832411000,3.269975,2.58885826602405,1.22276485945791,9.12346838413819,-0.056505036,0.09712757,-0.04184427,12.491168,-15.878866,14.667482,LYI
6610837449000,3.275013,2.57011948713091,1.25857850924116,9.11485435377406,-0.061391957,0.086132,-0.043982297,12.496741,-15.848181,14.636397,LYI
6610842456000,3.28002,2.55079018640532,1.30206937280056,9.10760573354832,-0.065973446,0.08582657,-0.043066,12.501749,-15.817353,14.604112,LYI
6610847374000,3.284938,2.53180446621989,1.34478718126575,9.10048595837952,-0.05955936,0.08368854,-0.04795292,12.507063,-15.799142,14.56933,LYI
6610852610000,3.290174,2.51159112118311,1.39026714164063,9.09290581547919,-0.053450707,0.07880162,-0.044593163,12.510277,-15.779437,14.53677,LYI
6610857452000,3.295016,2.48684714001631,1.4218496220058,9.09137714894002,-0.057726767,0.07880162,-0.04153884,12.514939,-15.759495,14.503659,LYI
6610862477000,3.300041,2.4497889031301,1.43492898500181,9.10009692154376,-0.064446285,0.08155051,-0.03604105,12.518315,-15.740547,14.47219,LYI
6610867408000,3.304972,2.4134238949538,1.44776367931691,9.10865357800326,-0.06811147,0.07849618,-0.0421497,12.527077,-15.736882,14.434253,LYI
6610872477000,3.310041,2.37604116803316,1.46095756807846,9.11744970284472,-0.07422013,0.07452556,-0.048258353,12.534337,-15.730356,14.397021,LYI
6610878197000,3.315761,2.33382398656215,1.4750105131019,9.12760856550952,-0.07452556,0.057726767,-0.0421497,12.541336,-15.724071,14.365374,LYI
6610882461000,3.320025,2.30201287326549,1.47699870508788,9.13754952543941,-0.070554934,0.06658431,-0.042455133,12.550211,-15.718339,14.327432,LYI
6610887407000,3.324971,2.26511377233556,1.47930489588588,9.14908047942938,-0.07086037,0.057421334,-0.04184427,12.569577,-15.7143,14.283395,LYI
6610892465000,3.330029,2.22737910745411,1.48166330936268,9.16087254681338,-0.06078109,0.04917465,-0.047036625,12.58991,-15.714642,14.237087,LYI
6610897465000,3.335029,2.19007714533327,1.48399467895224,9.17252939476119,-0.067500606,0.045814894,-0.04520403,12.608436,-15.709665,14.193394,LYI
6610902501000,3.340065,2.17160617265929,1.50027943645428,9.19045535357463,-0.07391469,0.03359759,-0.040317107,12.628908,-15.707606,14.154988,LYI
6610907411000,3.344975,2.15754033718217,1.5190338837571,9.20920970296141,-0.065973446,0.032070424,-0.040317107,12.64957,-15.707829,14.115044,LYI
6610912455000,3.350019,2.14898495381421,1.54010215873338,9.21675230973451,-0.053145275,0.026267206,-0.04428773,12.683693,-15.708815,14.064732,LYI
6610917391000,3.354955,2.14197386693034,1.56113544378801,9.22142622123894,-0.043676864,0.018936822,-0.042455133,12.716197,-15.7105055,14.016574,LYI
6610922467000,3.360031,2.13476392425965,1.58276529689524,9.22623269911504,-0.03390302,0.0030543262,-0.029321533,12.740534,-15.716699,13.967718,LYI
6610927368000,3.364932,2.12780255132249,1.60364943993672,9.23087346902655,-0.03573562,-0.011911872,-0.02076942,12.766041,-15.722124,13.921354,LYI
6610932415000,3.369979,2.11597323204267,1.62570014833992,9.21860377954566,-0.015577064,-0.024740042,-0.028099801,12.790239,-15.735226,13.878865,LYI
6610937424000,3.374988,2.10273764171802,1.64775951161593,9.20095641791594,-0.005497787,-0.02687807,-0.02321288,12.808816,-15.743229,13.839966,LYI
6610942470000,3.380034,2.08262643728362,1.66560418080508,9.17316216224521,-0.0061086523,-0.038789943,-0.021991149,12.832657,-15.762993,13.802402,LYI
6610947493000,3.385057,2.05799032782956,1.6803857847383,9.1386720617638,-0.0061086523,-0.03848451,-0.013133603,12.85192,-15.783986,13.763853,LYI
6610952494000,3.390058,2.03669751991015,1.70781139015724,9.12351216346743,-0.003970624,-0.04184427,-0.015577064,12.876503,-15.810392,13.727325,LYI
6610957567000,3.395131,2.0168555324076,1.74253486828671,9.11855156299775,0.0061086523,-0.041233405,-0.0015271631,12.893345,-15.836282,13.692388,LYI
6610962466000,3.40003,2.00464097633136,1.7622882693787,9.1138757204142,-0.0036651916,-0.041233405,-0.010079277,12.916911,-15.866359,13.652174,LYI
6610967456000,3.40502,1.99521528954635,1.77642684876726,9.1091627785996,-0.0027488936,-0.039095376,-0.015577064,12.935278,-15.899795,13.6133995,LYI
6610972481000,3.410045,2.07170224486922,1.78766421026157,9.12667739738431,-0.0033597588,-0.03634648,-0.013744468,12.956007,-15.935398,13.571152,LYI
6610977471000,3.415035,2.19189407565392,1.79727954869215,9.15552351307847,-0.0067195175,-0.043676864,-0.0125227375,12.9788885,-15.969573,13.531484,LYI
6610982432000,3.419996,2.22194816769977,1.80673825486682,9.17760104396475,0.0036651916,-0.03970624,-0.01985312,13.00384,-16.013073,13.485521,LYI
6610987486000,3.42505,2.20757016575899,1.81632358949401,9.19677161313001,-0.01282817,-0.0421497,-0.018020526,13.026729,-16.046032,13.44506,LYI
6610992462000,3.430026,2.21827493921411,1.83832450705694,9.19082359382518,-0.01863139,-0.042760566,-0.015271631,13.040427,-16.083324,13.426172,LYI
6610997503000,3.435067,2.24247133496391,1.8673601819567,9.17146657828789,-0.028099801,-0.040011674,-0.02076942,13.055574,-16.114252,13.406944,LYI
6611002445000,3.440009,2.27472293039016,1.88309743259754,9.1529173979088,-0.038789943,-0.04062254,-0.016798794,13.06917,-16.142216,13.386272,LYI
6611008075000,3.445639,2.31648293348824,1.89353743337206,9.13203750537322,-0.040317107,-0.043676864,-0.021991149,13.0866,-16.170057,13.364813,LYI
6611012461000,3.450025,2.34413694471349,1.8947932891713,9.11396718438863,-0.049480084,-0.047036625,-0.02443461,13.10055,-16.19643,13.350469,LYI
6611017475000,3.455039,2.37302436657141,1.89238600611119,9.09230143575475,-0.061086524,-0.04734206,-0.02321288,13.114611,-16.220692,13.33636,LYI
6611022464000,3.460028,2.40176775461473,1.88999072585853,9.07074371339048,-0.06994407,-0.04153884,-0.023823744,13.127654,-16.242802,13.331139,LYI
6611027471000,3.465035,2.43061484700456,1.8875868035845,9.0491082121121,-0.06811147,-0.03481932,-0.023518313,13.139694,-16.26368,13.326013,LYI
6611032408000,3.469972,2.44889194645373,1.8866309,9.03778258670269,-0.07086037,-0.024740042,-0.021380283,13.150304,-16.28002,13.318583,LYI
6611037529000,3.475093,2.4607231711956,1.8866309,9.03305024505452,-0.08246681,-0.020158553,-0.02321288,13.16157,-16.293951,13.310674,LYI
6611042458000,3.480022,2.47211081164721,1.8866309,9.02849533156422,-0.08399397,-0.013744468,-0.022296581,13.167788,-16.312681,13.31394,LYI
6611047509000,3.485073,2.48378031294992,1.8866309,9.02382767726527,-0.077579886,0.0009162979,-0.02107485,13.173075,-16.329897,13.313511,LYI
6611052444000,3.490008,2.4963750545212,1.87168507278387,9.02989242810554,-0.07422013,-0.00061086525,-0.015271631,13.179389,-16.347263,13.316016,LYI
6611057480000,3.495044,2.51067353207827,1.83832195848404,9.04895696531278,-0.086437434,0.007330383,-0.01740966,13.185332,-16.361889,13.311445,LYI
6611062399000,3.499963,2.52660451106673,1.805760606426,9.06657538289688,-0.08307768,0.011911872,-0.0067195175,13.183874,-16.380156,13.315139,LYI
6611067462000,3.505026,2.5457345460719,1.77228310758988,9.08331421970706,-0.087659165,0.013439035,-0.008857546,13.186082,-16.393316,13.316274,LYI
6611072365000,3.509929,2.56426003720965,1.7398635585491,9.09952407885782,-0.07666359,0.01038471,-0.0036651916,13.177761,-16.407087,13.319163,LYI
6611078631000,3.516195,2.58793548641811,1.6984315996893,9.12024016644474,-0.07574729,0.004276057,0.004276057,13.169463,-16.416405,13.322596,LYI
6611082380000,3.519944,2.60369918513211,1.67210280627864,9.13843517412499,-0.06078109,0.008552114,0.004581489,13.167229,-16.434772,13.324729,LYI
6611087443000,3.525007,2.62733540351955,1.63428480749732,9.17152558369894,-0.06414085,0.009162978,0.013744468,13.161047,-16.446684,13.330908,LYI
6611092365000,3.529929,2.64112759978714,1.60614203304952,9.1951147623102,-0.06536258,0.01282817,0.012217305,13.151829,-16.45161,13.3403225,LYI
6611097507000,3.535071,2.63413967505321,1.59682480007095,9.19977347608912,-0.06414085,0.0067195175,0.017104227,13.139125,-16.455078,13.353414,LYI
6611102437000,3.540001,2.62743985612317,1.58789170816423,9.20424011532094,-0.05681047,0.011301007,0.021991149,13.130889,-16.45039,13.368241,LYI
6611107466000,3.54503,2.62060549721868,1.5787792296249,9.20879644974221,-0.0571159,0.004581489,0.02687807,13.1228,-16.4437,13.387914,LYI
6611112400000,3.549964,2.61406382365363,1.57019182365363,9.21329248479337,-0.05375614,0.011911872,0.028099801,13.112837,-16.440037,13.402297,LYI
6611117475000,3.555039,2.60915301633828,1.56528101633828,9.21820339466505,-0.041233405,0.010079277,0.034513887,13.101436,-16.438126,13.421564,LYI
6611122415000,3.559979,2.6058796922803,1.55854901413996,9.22345316132448,-0.03970624,-0.00580322,0.039095376,13.091883,-16.430643,13.439108,LYI
6611127460000,3.565024,2.61518086775436,1.53529602689383,9.23275404543267,-0.040927973,0.0021380284,0.039095376,13.080025,-16.425716,13.450583,LYI
6611132632000,3.570196,2.62370777125992,1.50976211612154,9.23858204838398,-0.034513887,-0.0067195175,0.046731193,13.063097,-16.42064,13.469558,LYI
6611137436000,3.575,2.61925577327269,1.4652421827366,9.19851415947358,-0.034208454,-0.007330383,0.046120327,13.047288,-16.414131,13.48324,LYI
6611142799000,3.580363,2.61379087464991,1.4158432911939,9.15474957818671,-0.028099801,0.0012217305,0.04428773,13.026876,-16.407982,13.4978075,LYI
6611147830000,3.585394,2.59649073791741,1.3769179383842,9.13744953177738,-0.028099801,-0.005497787,0.042760566,13.008132,-16.400305,13.516491,LYI
6611152478000,3.590042,2.58050762610413,1.34095589508079,9.12146650341113,-0.038179077,-0.01160644,0.048563786,12.989485,-16.383604,13.535846,LYI
6611157473000,3.595037,2.55815328051608,1.31676997449854,9.09190895494406,-0.035124753,-0.003970624,0.040927973,12.974657,-16.371918,13.551721,LYI
6611162368000,3.599932,2.53452736886403,1.29786928464873,9.05883255034775,-0.03023783,-0.004886922,0.03359759,12.959584,-16.357927,13.571766,LYI
6611167423000,3.604987,2.51777469784173,1.27886594264048,9.01857527629788,-0.028099801,-0.009773844,0.033292156,12.948372,-16.341959,13.587615,LYI
6611172426000,3.60999,2.50380049100719,1.26023368307408,8.97665289898892,-0.04428773,-0.004276057,0.02687807,12.940262,-16.323544,13.599494,LYI
6611177433000,3.614997,2.49361065281978,1.24268994365771,8.96982700213485,-0.04520403,-0.01038471,0.017715093,12.935672,-16.308826,13.612341,LYI
6611182449000,3.620013,2.48506466847536,1.22559788573208,8.97837320957125,-0.03848451,-0.008552114,0.0125227375,12.930738,-16.292377,13.62109,LYI
6611187423000,3.624987,2.47367185169269,1.22521599988471,8.99872748443559,-0.049785517,-0.012217305,0.005497787,12.931566,-16.270472,13.631699,LYI
6611192441000,3.630005,2.45856131306991,1.24536331458967,9.03398496960486,-0.060170226,-0.020463986,-0.009162978,12.936266,-16.252008,13.641769,LYI
6611197483000,3.635047,2.4543108490953,1.2572100490953,9.05802721320869,-0.06414085,-0.02565634,-0.0012217305,12.9371805,-16.228128,13.650692,LYI
6611202475000,3.640039,2.4591165774427,1.2620157774427,9.07244469933655,-0.0571159,-0.024740042,-0.010079277,12.9470825,-16.207228,13.657337,LYI
6611207526000,3.64509,2.45285299909744,1.28091118937436,9.08160820984615,-0.05497787,-0.014049901,-0.017715093,12.956331,-16.18417,13.658843,LYI
6611212433000,3.649997,2.43839355477949,1.30983022899487,9.08642763876923,-0.05009095,-0.016798794,-0.020463986,12.967639,-16.16462,13.663254,LYI
6611217408000,3.654972,2.44097849449614,1.33571527329242,9.10532810690952,-0.04917465,-0.009773844,-0.021685716,12.975569,-16.145199,13.66095,LYI
6611222473000,3.660037,2.45538346078994,1.35972363401307,9.13413824005147,-0.050701816,-0.0018325958,-0.023518313,12.984502,-16.127113,13.658769,LYI
6611227462000,3.665026,2.47805513539752,1.38349662542948,9.15425809328805,-0.050701816,0.010079277,-0.02321288,12.9942045,-16.114487,13.650255,LYI
6611232417000,3.669981,2.50649283655613,1.40719475921894,9.16847724081103,-0.053145275,0.010995574,-0.018020526,13.003203,-16.100817,13.642893,LYI
6611237490000,3.675054,2.57032301914484,1.44182040645223,9.16371280200308,-0.03756821,0.0143553335,-0.016798794,13.011717,-16.095415,13.632726,LYI
6611242472000,3.680036,2.65762287765794,1.48317287758089,9.14533352080123,-0.035430185,0.01740966,-0.018020526,13.019355,-16.085623,13.622744,LYI
6611247521000,3.685085,2.71057767969046,1.51843589542686,9.13379366220669,-0.03481932,0.02443461,-0.0061086523,13.020391,-16.0821,13.617049,LYI
6611252569000,3.690133,2.72988619148278,1.54739871351972,9.12896693749376,-0.036651913,0.025350908,-0.00061086525,13.023774,-16.078993,13.611672,LYI
6611257571000,3.695135,2.72663496870498,1.56841853877701,9.12423060223431,-0.027488936,0.025350908,-0.005497787,13.0164585,-16.086697,13.623692,LYI
6611262462000,3.700026,2.70368424657259,1.58218897205645,9.11964036194816,-0.028710667,0.02321288,0.004886922,13.003432,-16.089376,13.637575,LYI
6611267452000,3.705016,2.68026897291881,1.59623813624871,9.11495720941741,-0.02076942,0.021380283,0.004276057,12.993674,-16.103018,13.653861,LYI
6611272478000,3.710042,2.65668477143907,1.61038865713656,9.1102402706159,-0.024740042,0.0143553335,0.009773844,12.979924,-16.111483,13.673274,LYI
6611278005000,3.715569,2.63392044195006,1.61616074457023,9.107543,-0.013439035,0.017104227,0.009468411,12.967342,-16.126387,13.68976,LYI
6611282475000,3.720039,2.61828764380335,1.61225256033688,9.107543,-0.0125227375,0.013439035,0.012217305,12.953496,-16.136257,13.710373,LYI
6611287421000,3.724985,2.60099014500388,1.60792820256995,9.107543,-0.02076942,0.008552114,0.011301007,12.941687,-16.150173,13.7200575,LYI
6611292436000,3.73,2.58345133455517,1.60354351712695,9.107543,-0.021380283,0.004886922,0.009773844,12.9295435,-16.165699,13.730557,LYI
6611297585000,3.735149,2.56565010052847,1.60026060272211,9.10785430740851,-0.02443461,0.0076358155,0.011911872,12.916557,-16.177565,13.740782,LYI
6611302432000,3.739996,2.55176479151461,1.61414596006581,9.1124828565161,-0.02107485,0.01160644,0.009162978,12.905632,-16.19101,13.751049,LYI
6611307650000,3.745214,2.53653414472357,1.62772721118089,9.11761482633933,-0.025350908,0.0106901415,0.009468411,12.903214,-16.200378,13.755716,LYI
6611312464000,3.750028,2.51898624665525,1.62334023666381,9.12419519649824,-0.019242255,0.01038471,0.01160644,12.900605,-16.213165,13.759067,LYI
6611317800000,3.755364,2.49953556445903,1.61847756611476,9.13148910077077,-0.021991149,0.02076942,0.011301007,12.899543,-16.224346,13.756285,LYI
6611322455000,3.760019,2.48256725006185,1.61423548751546,9.13785213007898,-0.029626964,0.013744468,0.002443461,12.901717,-16.2358,13.757908,LYI
6611327429000,3.764993,2.46443612314207,1.60970270578552,9.14465120801218,-0.03390302,0.01985312,0.0076358155,12.895199,-16.246876,13.753412,LYI
6611333040000,3.770604,2.4657779496346,1.58621025182701,9.16854324817299,-0.041233405,0.013744468,0.00030543262,12.896296,-16.255985,13.75256,LYI
6611337374000,3.774938,2.46993310542597,1.56543447287016,9.18931902712984,-0.040317107,0.013133603,-0.0018325958,12.893473,-16.265013,13.749546,LYI
6611342463000,3.780027,2.45935912456946,1.56865748362036,9.17845811251435,-0.03970624,0.009162978,0.0036651916,12.892915,-16.267784,13.740744,LYI
6611347410000,3.784974,2.44576083823192,1.57772300784539,9.1603271587256,-0.03848451,0.004581489,-0.005497787,12.897189,-16.271872,13.731158,LYI
6611352407000,3.789971,2.43848484505856,1.57657220745839,9.14462447277584,-0.044898596,0.013439035,-0.0018325958,12.901495,-16.26878,13.721855,LYI
6611357368000,3.794932,2.43360401408465,1.5716913255188,9.12998203081981,-0.04642576,0.009162978,-0.0106901415,12.91326,-16.268715,13.715748,LYI
6611362349000,3.799913,2.42872210067471,1.5857437391331,9.10018882334901,-0.043066,0.019547688,-0.010995574,12.920749,-16.269688,13.702377,LYI
6611367420000,3.804984,2.42375742474954,1.60560223547332,9.06543624739317,-0.05467244,0.026572637,-0.008857546,12.930509,-16.266312,13.690761,LYI
6611372374000,3.809938,2.42096871411829,1.60104987446639,9.06358589477359,-0.064751714,0.02565634,-0.008552114,12.935816,-16.260952,13.678047,LYI
6611377350000,3.814914,2.41859221006882,1.59154375900658,9.06833905176541,-0.06841691,0.025350908,-0.012217305,12.941013,-16.254295,13.663385,LYI
6611382362000,3.819926,2.41619851266208,1.58196886939956,9.07312659654897,-0.05375614,0.027794369,-0.0070249503,12.943759,-16.253965,13.649884,LYI
6611387367000,3.824931,2.41380815840814,1.57240735254339,9.07790745481747,-0.047036625,0.03176499,-0.003970624,12.948037,-16.250877,13.635822,LYI
6611392372000,3.829936,2.43015953728195,1.57619768559277,9.08628147513095,-0.05009095,0.036957346,-0.0021380284,12.954478,-16.247427,13.622639,LYI
6611397378000,3.834942,2.45089444268826,1.58310932874718,9.09549695122303,-0.040317107,0.030848695,0.0012217305,12.960201,-16.249012,13.612088,LYI
6611403161000,3.840725,2.47484769038397,1.59109375390937,9.10614279585756,-0.043676864,0.03176499,0.003970624,12.9646845,-16.242437,13.59719,LYI
6611407468000,3.845032,2.49268733033303,1.59704030745831,9.11407149252727,-0.04062254,0.036957346,0.0033597588,12.969312,-16.240355,13.583046,LYI
6611412458000,3.850022,2.51845808017769,1.59302283994077,9.12657565844028,-0.04184427,0.043982297,0.014660766,12.967677,-16.236952,13.568616,LYI
6611417418000,3.854982,2.54659288452122,1.58364457182626,9.14064286475814,-0.03604105,0.04428773,0.009468411,12.971057,-16.23749,13.553513,LYI
6611422441000,3.860005,2.56007195939351,1.57710840860528,9.13665605382066,-0.031154128,0.040317107,0.014660766,12.964747,-16.23729,13.547532,LYI
6611427437000,3.865001,2.56487617600161,1.57230414183151,9.12224345416206,-0.03970624,0.038789943,0.018936822,12.96001,-16.23517,13.540541,LYI
6611432410000,3.869974,2.55817891497987,1.5593894517112,9.10591323947657,-0.03145956,0.037873644,0.016798794,12.957783,-16.236212,13.5410185,LYI
6611437535000,3.875099,2.54470501422035,1.54142414127013,9.08794806972914,-0.029626964,0.038179077,0.022602014,12.952176,-16.23218,13.542616,LYI
6611442433000,3.879997,2.53567441123908,1.52575106544877,9.07663364297061,-0.03634648,0.021685716,0.021685716,12.950065,-16.230093,13.549695,LYI
6611447410000,3.884974,2.53094215985902,1.51155416306593,9.0719012433479,-0.038789943,0.02107485,0.025045475,12.943779,-16.228825,13.553181,LYI
6611452458000,3.890022,2.51606617283664,1.51021905644878,9.07811654677819,-0.045814894,0.025961773,0.023518313,12.936362,-16.220545,13.556712,LYI
6611457434000,3.894998,2.4890011055917,1.52498183207869,9.0978001105948,-0.05009095,0.027794369,0.022296581,12.928341,-16.212187,13.561501,LYI
6611462426000,3.89999,2.46184901240706,1.53979207644052,9.11754696561338,-0.04734206,0.018325957,0.02321288,12.922773,-16.199963,13.568409,LYI
6611467417000,3.904981,2.43470235834366,1.55459935400661,9.13728986493185,-0.04062254,0.0106901415,0.01985312,12.9185705,-16.188372,13.573791,LYI
6611472867000,3.910431,2.4244569422037,1.54729604754337,9.15347413140808,-0.045814894,-0.00030543262,0.018325957,12.914762,-16.174337,13.5828,LYI
6611477971000,3.915535,2.42682541286946,1.52598000940014,9.1653163610815,-0.03756821,0.009162978,0.022296581,12.909286,-16.16594,13.588313,LYI
6611482409000,3.919973,2.42888483152437,1.50744541353813,9.17561334683593,-0.039095376,-0.0018325958,0.013439035,12.917102,-16.15779,13.588264,LYI
6611487484000,3.925048,2.43123984497044,1.48625048924799,9.18738829111348,-0.03604105,-0.005192355,0.006414085,12.9218,-16.152782,13.584103,LYI
6611492406000,3.92997,2.42835582498513,1.45613891243308,9.19581063087448,-0.047036625,-0.008246681,0.002443461,12.92095,-16.143415,13.580526,LYI
6611497419000,3.934983,2.41883599583581,1.41329968126115,9.20057064485425,-0.040317107,-0.007330383,0.0067195175,12.919706,-16.139688,13.576989,LYI
6611502441000,3.940005,2.40537877890427,1.38464868945213,9.19633141489569,-0.05100725,-0.0012217305,-0.00030543262,12.9261055,-16.118992,13.57341,LYI
6611507437000,3.945001,2.38672185053617,1.37532022526808,9.1800065051667,-0.051618114,-0.0015271631,-0.007330383,12.931715,-16.102962,13.571682,LYI
6611512358000,3.949922,2.36834500015598,1.36613180007799,9.1639266651394,-0.050701816,-0.0106901415,-0.0070249503,12.937485,-16.077835,13.568682,LYI
6611517414000,3.954978,2.34946400939754,1.35669130469877,9.14740569964905,-0.06688975,-0.02076942,-0.0143553335,12.9474535,-16.049326,13.564869,LYI
6611522371000,3.959935,2.33965674150462,1.35907700929091,9.12752589726969,-0.06536258,-0.005497787,-0.0143553335,12.946835,-16.026619,13.555238,LYI
6611527432000,3.964996,2.34917710779808,1.38763805846592,9.09896519603221,-0.06658431,-0.00580322,-0.014966198,12.950613,-15.999799,13.552008,LYI
6611532374000,3.969938,2.36641421366049,1.41831012739109,9.07618304166249,-0.05589417,0.006414085,-0.013744468,12.954306,-15.9755335,13.535399,LYI
6611537486000,3.97505,2.40563833111668,1.45753429604407,9.06637680751127,-0.061391957,0.022602014,-0.018936822,12.959751,-15.947575,13.517398,LYI
6611542516000,3.98008,2.44095861501299,1.49426291604273,9.07092511413723,-0.064751714,0.027488936,-0.02443461,12.963982,-15.9293375,13.502774,LYI
6611547443000,3.985007,2.46820419954769,1.52604953406794,9.10725243374074,-0.058337633,0.043676864,-0.0125227375,12.962609,-15.911908,13.481889,LYI
6611552446000,3.99001,2.49724187559984,1.55455934668564,9.13835080784872,-0.06352998,0.040317107,-0.0067195175,12.957142,-15.890923,13.47317,LYI
6611557441000,3.995005,2.53128547177714,1.56914945933306,9.14807775274502,-0.04642576,0.036651913,0.0067195175,12.945198,-15.877053,13.461961,LYI
6611562421000,3.999985,2.55926399038687,1.57678809976553,9.15429864302462,-0.041233405,0.033292156,0.015577064,12.9340315,-15.86519,13.455464,LYI
6611567480000,4.005044,2.56873048845252,1.56258850093787,9.14956534456819,-0.032375857,0.014049901,0.021991149,12.921667,-15.858422,13.455456,LYI
6611572440000,4.010004,2.57046396426065,1.54764461281203,9.14015286426065,-0.018936822,0.004581489,0.02321288,12.908954,-15.856336,13.461335,LYI
6611577469000,4.015033,2.54149440345865,1.52833158908271,9.11118330345865,-0.010079277,-0.005497787,0.030848695,12.894437,-15.854495,13.473624,LYI
6611582430000,4.019994,2.51679244024106,1.51170465144586,9.08791212365458,-0.004581489,-0.014966198,0.026267206,12.882587,-15.853967,13.489593,LYI
6611587492000,4.025056,2.50717433894648,1.50449105664402,9.08550779291702,-0.0015271631,-0.007941248,0.026572637,12.8668165,-15.85421,13.504577,LYI
6611592501000,4.030065,2.49765694080651,1.49735298940529,9.08312863593076,-0.008857546,-0.0030543262,0.029932396,12.854123,-15.853691,13.51726,LYI
6611597459000,4.035023,2.4882364457021,1.49028759963295,9.08077370274292,-0.01160644,-0.009773844,0.02565634,12.843979,-15.855552,13.53049,LYI
6611602443000,4.040007,2.47958053383548,1.48562369288404,9.08328150664024,-0.013439035,0.0021380284,0.027183503,12.829435,-15.854823,13.5379,LYI
6611607472000,4.045036,2.47480729511893,1.4927835135778,9.10953398315164,-0.025350908,0.008857546,0.020158553,12.819599,-15.851268,13.547407,LYI
6611612812000,4.050376,2.46973887301784,1.50038610703667,9.13740994747275,-0.026572637,0.0030543262,0.016493361,12.808773,-15.849249,13.553021,LYI
6611617482000,4.055046,2.46530637653617,1.50703481704658,9.16178836570862,-0.028099801,0.0061086523,0.020463986,12.796648,-15.843747,13.554459,LYI
6611622581000,4.060145,2.46174903000948,1.51440972103181,9.18543131837055,-0.04337143,0.0015271631,0.01282817,12.790076,-15.835117,13.558381,LYI
6611627464000,4.065028,2.46480678386243,1.52205408171772,9.19307566309216,-0.040927973,-0.008552114,0.020463986,12.778419,-15.829627,13.564559,LYI
6611632421000,4.069985,2.46791087680714,1.52981428977016,9.20083585493837,-0.03481932,-0.0036651916,0.02107485,12.7725115,-15.822426,13.561935,LYI
6611637491000,4.075055,2.4710857307974,1.5377513998823,9.20877294847484,-0.034208454,-0.0076358155,0.019242255,12.766795,-15.814097,13.564945,LYI
6611642597000,4.080161,2.4742831281296,1.54574486817275,9.21676640007193,-0.042760566,-0.0030543262,0.014966198,12.760594,-15.805071,13.564163,LYI
6611647489000,4.085053,2.47734651781803,1.55340331840324,9.22442483430869,-0.0421497,-0.0009162979,0.008552114,12.756128,-15.799058,13.564851,LYI
6611652659000,4.090223,2.48216236027259,1.56131439389197,9.22879719182231,-0.03145956,0.00580322,0.011301007,12.750063,-15.788362,13.564964,LYI
6611658183000,4.095747,2.51420808534074,1.56665535736497,9.17004703977789,-0.035124753,0.01160644,0.01985312,12.744134,-15.774093,13.564695,LYI
6611662655000,4.100219,2.53821997514004,1.56766609505505,9.12523186884296,-0.03726278,0.016187929,0.018020526,12.734633,-15.769866,13.56062,LYI
6611667472000,4.105036,2.54267539774,1.53202266773228,9.10740980625845,-0.032986723,0.005192355,0.017715093,12.723338,-15.765683,13.560237,LYI
6611672824000,4.110388,2.5473313389047,1.4943784443812,9.08809152085582,-0.027794369,0.0036651916,0.012217305,12.70937,-15.764455,13.564139,LYI
6611678020000,4.115584,2.54488943818824,1.50414604724703,9.08076592069879,-0.030848695,0.0033597588,0.012217305,12.694944,-15.761654,13.57113,LYI
6611682389000,4.119953,2.54283619257042,1.51235902971832,9.07460626960447,-0.032375857,0.0076358155,0.010079277,12.683483,-15.75372,13.580043,LYI
6611687496000,4.12506,2.54043611809795,1.52195932760821,9.06740614643243,-0.040011674,-0.0009162979,0.003970624,12.674368,-15.743605,13.592114,LYI
6611692397000,4.129961,2.53813285493179,1.53117238027284,9.06049645313573,-0.032986723,0.0018325958,0.0076358155,12.66195,-15.736693,13.600409,LYI
6611697490000,4.135054,2.52058648300771,1.54092265357179,9.06397589439936,-0.049480084,0.011301007,0.01038471,12.653971,-15.723675,13.608522,LYI
6611702400000,4.139964,2.50174184299168,1.55034502277327,9.0686871527903,-0.04642576,0.003970624,0.0061086523,12.648151,-15.718298,13.620088,LYI
6611707427000,4.144991,2.48729944880873,1.54736039223041,9.08148288068127,-0.048563786,0.009162978,0.00061086525,12.643082,-15.7080765,13.626633,LYI
6611712408000,4.149972,2.47360639336906,1.5427960880777,9.0951757454789,-0.046120327,0.009162978,0.0036651916,12.637837,-15.699777,13.636784,LYI
