timestamp,rel_time,acc_x,acc_y,acc_z,gyro_x,gyro_y,gyro_z,azimuth,pitch,roll,label
696813055000,0,2.34736690585462,9.615114,-0.346233790935134,0.12705997,0.14019357,0.013744468,118.79974,-166.74445,9.0432415,STD
696818213000,0.005158,2.34982882032146,9.615114,-0.34968047761549,0.07269296,0.16035213,0.013439035,118.885635,-166.01028,9.376819,STD
696823108000,0.010053,2.35216520483391,9.615114,-0.352951422031997,0.062002823,0.1563815,0.0061086523,118.945206,-165.30708,9.703821,STD
696828058000,0.015003,2.35452784085773,9.615114,-0.356259118632959,0.064751714,0.16035213,0.008857546,118.99395,-164.59573,10.033618,STD
696833046000,0.019991,2.35690861428942,9.615114,-0.359592207652271,0.070554934,0.16157386,0.0015271631,119.0273,-163.88441,10.354383,STD
696838038000,0.024983,2.35929129692193,9.615114,-0.362927969557726,0.0580322,0.15424347,0.008857546,119.05538,-163.17288,10.669346,STD
696843204000,0.030149,2.36175702979043,9.615114,-0.366380002010367,0.05681047,0.15302174,0.007330383,119.06826,-162.46863,10.978924,STD
696848713000,0.035658,2.36438647662987,9.615114,-0.3700612344497,0.0571159,0.15699236,-0.0036651916,119.071144,-161.76468,11.281536,STD
696853056000,0.040001,2.36645939142814,9.615114,-0.372963320578584,0.0580322,0.16554448,0.004886922,119.06956,-161.06529,11.580501,STD
696858042000,0.044987,2.36883921025941,9.615114,-0.376295073154826,0.06169739,0.16432275,0.0009162979,119.05337,-160.3692,11.86941,STD
696863040000,0.049985,2.37122475669316,9.615114,-0.379634844389494,0.067500606,0.16829337,0.0030543262,119.03156,-159.67886,12.157046,STD
696868138000,0.055083,2.3736580331476,9.615114,-0.383041437777717,0.053450707,0.16707164,0.005192355,119.00147,-158.98792,12.436155,STD
696873198000,0.060143,2.37607317219417,9.615114,-0.386422638747589,0.061391957,0.1704314,0.0018325958,118.96213,-158.30878,12.710698,STD
696878055000,0.065,2.37839141929876,9.615114,-0.389668190745745,0.04795292,0.17440203,0.00580322,118.91834,-157.62488,12.9795885,STD
696883042000,0.069987,2.38077171543024,9.615114,-0.393000611543522,0.03726278,0.17745635,0.011301007,118.86715,-156.94844,13.242422,STD
696888037000,0.074982,2.38315582996337,9.615114,-0.396338378113584,0.040317107,0.17134771,0.004886922,118.8082,-156.2763,13.496417,STD
696893130000,0.080075,2.38558671991677,9.615114,-0.399741630394129,0.034208454,0.16768251,-0.002443461,118.74397,-155.60393,13.74578,STD
696898139000,0.085084,2.38797751665279,9.615114,-0.403088752065688,0.03359759,0.160963,0.0030543262,118.677155,-154.93948,13.987042,STD
696903176000,0.090121,2.39038167779461,9.615114,-0.406454583940243,0.030848695,0.15057829,0.0027488936,118.602776,-154.27698,14.218329,STD
696908043000,0.094988,2.39270469790127,9.615114,-0.409706818153754,0.024740042,0.13622294,0.009773844,118.52863,-153.61972,14.442137,STD
696913040000,0.099985,2.39508976703481,9.615114,-0.413045921166887,0.030543262,0.13500121,-0.00030543262,118.44536,-152.96907,14.65802,STD
696918833000,0.105778,2.397854767133,9.615114,-0.416916928522316,0.032375857,0.12522738,-0.002443461,118.36538,-152.3224,14.863865,STD
696923112000,0.110057,2.39989713471803,9.615114,-0.419776248472925,0.02321288,0.121256754,-0.003970624,118.27888,-151.67923,15.06345,STD
696928067000,0.115012,2.40226215724289,9.615114,-0.423087286181564,0.022602014,0.112704635,0.004276057,118.193405,-151.04532,15.254528,STD
696933045000,0.11999,2.40463815767251,9.615114,-0.426413692985522,0.022907447,0.106901415,0.004276057,118.147568662254,-150.730316233454,15.3453235850381,STD
696938039000,0.124984,2.40702179490543,9.615114,-0.429750791334048,0.025350908,0.10445796,-0.002443461,118.101585,-150.4143,15.436411,STD
696943225000,0.13017,2.40949707377807,9.615114,-0.433216188217399,0.017104227,0.11148291,0.0033597588,118.01162,-149.78792,15.617136,STD
696948140000,0.135085,2.41184300429465,9.615114,-0.436500497064617,0.014049901,0.10445796,0.0030543262,117.91981,-149.16866,15.784824,STD
696953051000,0.139996,2.41418702561041,9.615114,-0.439782133025692,0.016187929,0.09315695,0.006414085,117.828224,-148.55562,15.949001,STD
696958040000,0.144985,2.4165682763423,9.615114,-0.44311589026654,0.022907447,0.09101892,-0.004581489,117.731155,-147.94789,16.105885,STD
696963040000,0.149985,2.41895477737646,9.615114,-0.44645699794428,0.023518313,0.08674286,0.003970624,117.64077,-147.3476,16.257793,STD
696968259000,0.155204,2.42144580715592,9.615114,-0.449944446138304,0.019547688,0.09132435,0.005192355,117.5438,-146.75253,16.403135,STD
696973122000,0.160067,2.42376691806175,9.615114,-0.453194007465673,0.014049901,0.077579886,-0.004276057,117.44953,-146.16347,16.53764,STD
696978065000,0.16501,2.42612621298413,9.615114,-0.456497026515886,0.018020526,0.06414085,0.0036651916,117.358536,-145.58423,16.671383,STD
696983046000,0.169991,2.42850364531436,9.615114,-0.45982543798445,0.021380283,0.06872234,0.011301007,117.2642,-145.00899,16.799646,STD
696988289000,0.175234,2.43100613029879,9.615114,-0.463328923495328,0.024129177,0.063224554,0.009468411,117.17372,-144.44112,16.917536,STD
696993238000,0.180183,2.4333682890224,9.615114,-0.466635951874754,0.018936822,0.057726767,0.01038471,117.085144,-143.87973,17.03368,STD
696998120000,0.185065,2.43569846863216,9.615114,-0.469898209411299,0.015882496,0.055283304,0.0143553335,116.99773,-143.32648,17.145037,STD
697003045000,0.18999,2.43804917215081,9.615114,-0.473189200473872,0.019547688,0.061086524,0.005192355,116.90748,-142.77905,17.250471,STD
697008041000,0.194986,2.44043376398415,9.615114,-0.476527635265469,0.0290161,0.058643065,0.0012217305,116.82217,-142.2401,17.350954,STD
697013054000,0.199999,2.44186217169842,9.61466694028474,-0.480926622576699,0.025350908,0.05009095,-0.0036651916,116.73556,-141.70432,17.44542,STD
697018248000,0.205193,2.44111410082314,9.61317078811911,-0.487908645620112,0.021685716,0.058337633,0.0030543262,116.64895,-141.17865,17.540462,STD
697023125000,0.21007,2.44041168617957,9.61176594905254,-0.494464542112743,0.021991149,0.06078109,0.0030543262,116.598872506626,-140.920964433231,17.5897415744139,STD
697028058000,0.215003,2.43970120608181,9.61034497896531,-0.501095716481853,0.028099801,0.06261369,0.013439035,116.54822,-140.66032,17.639587,STD
697033048000,0.219993,2.43898251650391,9.60890758980349,-0.507803512975236,0.02565634,0.06536258,0.0106901415,116.44605,-140.14474,17.734606,STD
697038044000,0.224989,2.4382629627702,9.60746847231803,-0.514519374955384,0.02321288,0.06352998,0.002443461,116.34646,-139.63812,17.82623,STD
697043242000,0.230187,2.43751431579106,9.60597116793663,-0.521506774989974,0.030543262,0.054367006,0.0015271631,116.25038,-139.14072,17.913687,STD
697048171000,0.235116,2.43680441179717,9.60455135006517,-0.528132572367907,0.026267206,0.058337633,0.004581489,116.15272,-138.64592,17.99871,STD
697053053000,0.239998,2.43610127702376,9.60314507072889,-0.534695190099509,0.02321288,0.056505036,0.01160644,116.06063,-138.1605,18.077492,STD
697058058000,0.245003,2.43538042705635,9.60170336075797,-0.541423150309805,0.025045475,0.0571159,0.0067195175,115.96722,-137.68094,18.15213,STD
697063043000,0.249988,2.43466245760828,9.60026741186585,-0.548124225564217,0.02107485,0.045814894,-0.009773844,115.87779,-137.20526,18.219471,STD
697068240000,0.255185,2.4339139546551,9.5987703955384,-0.555110281351013,0.00061086525,0.047036625,-0.0036651916,115.79141,-136.73471,18.289648,STD
697073127000,0.260072,2.43321009975185,9.59736267593243,-0.561679620321586,-0.0067195175,0.047647487,-0.0036651916,115.70511,-136.27052,18.349602,STD
697078073000,0.265018,2.43249774731652,9.59593796114397,-0.568328269912021,-0.0033597588,0.048258353,0.0021380284,115.62335,-135.81212,18.409172,STD
697083050000,0.269995,2.4317809300762,9.59450431668338,-0.575018591184079,-0.004276057,0.047036625,-0.0027488936,115.54208,-135.35622,18.463238,STD
697088041000,0.274986,2.43106209647233,9.59306663946762,-0.581727731925256,-0.010079277,0.044593163,-0.004581489,115.465225,-134.90784,18.516148,STD
697093247000,0.280192,2.43031229728544,9.5915670306547,-0.5887258859422,-0.005192355,0.04550946,-0.0015271631,115.390396,-134.46875,18.566708,STD
697098158000,0.285103,2.42960498575897,9.59015239775416,-0.595327486859836,-0.0015271631,0.041233405,-0.0030543262,115.31862,-134.03378,18.6118,STD
697103052000,0.289997,2.42890012267395,9.5887426617706,-0.601906235564969,-0.008552114,0.051618114,-0.008552114,115.24572,-133.60394,18.657024,STD
697108046000,0.294991,2.42818085699218,9.58730412039302,-0.608619409049529,-0.014660766,0.04642576,-0.0027488936,115.18193,-133.18321,18.698296,STD
697113042000,0.299987,2.42746130325847,9.58586500290756,-0.615335271029677,-0.01863139,0.03970624,-0.00061086525,115.11705,-132.76671,18.736866,STD
697118171000,0.305116,2.42672259407108,9.58438757424804,-0.622229917966463,-0.012217305,0.04795292,-0.004581489,115.05254,-132.35786,18.774864,STD
697123123000,0.310068,2.42600937747995,9.58296113113595,-0.628886633043664,-0.014049901,0.043676864,0.00030543262,114.997375,-131.95406,18.809746,STD
697128080000,0.315025,2.42529544075897,9.58153324775416,-0.635550069359836,-0.019547688,0.046731193,0.0027488936,114.94008,-131.55661,18.843912,STD
697133052000,0.319997,2.42457934364849,9.58010104356326,-0.642233669392922,-0.021380283,0.039095376,-0.002443461,114.88863,-131.16573,18.87287,STD
697138068000,0.325013,2.42385690939543,9.578656164999,-0.648976416328955,-0.021991149,0.032375857,0.0036651916,114.84155,-130.7822,18.903791,STD
697143264000,0.330209,2.42310855046822,9.57715943672549,-0.655961127867957,-0.022602014,0.031154128,-0.0018325958,114.79474,-130.40225,18.92876,STD
697148105000,0.33505,2.42241132075947,9.57576496760076,-0.662468631439994,-0.015577064,0.03176499,0.0021380284,114.7547,-130.03262,18.95483,STD
697153059000,0.340004,2.4216978161164,9.57433794838079,-0.669128035012783,-0.021685716,0.03023783,-0.0027488936,114.715744,-129.66385,18.975475,STD
697158042000,0.344987,2.42098013472027,9.57290257559655,-0.675826421771606,-0.02107485,0.02076942,-0.002443461,114.683044,-129.30602,18.995565,STD
697163041000,0.349986,2.42026014890866,9.57146259394927,-0.682546316495137,-0.027183503,0.02687807,0.004581489,114.64994,-128.9515,19.017044,STD
697168180000,0.355125,2.4195199994616,9.56998228475035,-0.689454405909866,-0.028405234,0.016798794,0.002443461,114.62449,-128.60318,19.031,STD
697173756000,0.360701,2.41871691066673,9.56837609597955,-0.696949931610688,-0.02687807,0.011911872,-0.0012217305,114.59993,-128.26093,19.04686,STD
697178068000,0.365013,2.41809587069481,9.56713400738921,-0.702746328099559,-0.028099801,0.004581489,0.003970624,114.582436,-127.92476,19.061218,STD
697183048000,0.369993,2.41737862137658,9.56569949876679,-0.709440682114999,-0.0290161,-0.0030543262,-0.0009162979,114.56668,-127.592896,19.070478,STD
697188069000,0.375014,2.41665546699368,9.56425317993283,-0.716190150290004,-0.025961773,-0.0061086523,0.0018325958,114.556465,-127.26957,19.081457,STD
697193269000,0.380214,2.4159065319626,9.56275529944355,-0.723180238820182,-0.03756821,-0.010995574,0.002443461,114.55023,-126.94725,19.088469,STD
697198140000,0.385085,2.41520498147483,9.56135218870062,-0.729728069826048,-0.03970624,-0.018020526,0.0027488936,114.548386,-126.63408,19.094526,STD
697203137000,0.390082,2.41448528371516,9.55991278316122,-0.73644527605399,-0.036957346,-0.017104227,0.005192355,114.54882,-126.325455,19.10104,STD
697208045000,0.39499,2.41377840426659,9.5584990144225,-0.743042844228244,-0.03634648,-0.027488936,0.0070249503,114.55656,-126.021454,19.104141,STD
697213050000,0.399995,2.41058426077827,9.55903857684485,-0.743823884041857,-0.03940081,-0.02443461,0.0015271631,114.5624,-125.72204,19.10761,STD
697218271000,0.405216,2.4035880722499,9.5625366893724,-0.735828240754881,-0.043982297,-0.039095376,0.002443461,114.57936,-125.42925,19.108507,STD
697223226000,0.410171,2.39694832619396,9.56585657973325,-0.728239960255558,-0.043676864,-0.046731193,0.0018325958,114.588554,-125.14881,19.098385,STD
697228101000,0.415046,2.39041578088161,9.56912286944246,-0.720774194880341,-0.04642576,-0.05009095,-0.007330383,114.601845,-124.870415,19.084766,STD
697233076000,0.420021,2.38374923463978,9.57245615996622,-0.713155285599992,-0.042760566,-0.05467244,-0.004276057,114.6216,-124.600586,19.07281,STD
697238076000,0.425021,2.37704918816557,9.57580620069362,-0.705498090343359,-0.043982297,-0.06047566,-0.005497787,114.64289,-124.331795,19.05699,STD
697243844000,0.430789,2.36932001455292,9.57967080767674,-0.696664749895308,-0.044898596,-0.062002823,-0.004581489,114.667435,-124.0697,19.042501,STD
697248156000,0.435101,2.36354189447357,9.58255988280004,-0.690061184705988,-0.04795292,-0.071776666,-0.00061086525,114.69833,-123.81202,19.026688,STD
697253098000,0.440043,2.35691956853846,9.58587106305501,-0.682492812914333,-0.040011674,-0.07513642,0.0009162979,114.73001,-123.56122,19.011324,STD
697258079000,0.445024,2.35024498224086,9.58920837362764,-0.674864714999675,-0.043676864,-0.07422013,-0.0070249503,114.76461,-123.31084,18.994036,STD
697263072000,0.450017,2.34355431583171,9.59255372429801,-0.667218239816402,-0.04550946,-0.0711658,-0.002443461,114.80373,-123.06973,18.980352,STD
697268287000,0.455232,2.33656616735912,9.59604781677669,-0.659231785163734,-0.046731193,-0.076358154,-0.005497787,114.84476,-122.829895,18.962036,STD
697273141000,0.460086,2.33006176224196,9.59930003631485,-0.651798180008595,-0.05131268,-0.08124508,0.00061086525,114.888916,-122.595795,18.947943,STD
697278060000,0.465005,2.32347025652063,9.60259580638246,-0.64426503131512,-0.051618114,-0.0852157,0.00061086525,114.912346273542,-122.482104123275,18.9391627162856,STD
697283070000,0.470015,2.31675680995348,9.60595254719131,-0.636592521667974,-0.046120327,-0.09040806,-0.0009162979,114.93621,-122.36631,18.93022,STD
697288074000,0.475019,2.31005140344209,9.60930526795129,-0.628929200655136,-0.042760566,-0.092240654,0.005192355,114.98674,-122.14221,18.916662,STD
697293211000,0.480156,2.30316777569449,9.61274709979461,-0.621062198248472,-0.045814894,-0.092240654,0.0021380284,115.03972,-121.920334,18.899794,STD
697298161000,0.485106,2.29653472968502,9.61606364011474,-0.613481574944406,-0.054061573,-0.0888809,0.0036651916,115.0956,-121.70419,18.886225,STD
697303084000,0.490029,2.28993786392652,9.61936209021493,-0.605942300494725,-0.046731193,-0.0888809,0.0067195175,115.15401,-121.49486,18.872229,STD
697308075000,0.49502,2.28324987753597,9.62270610086902,-0.598298888189555,-0.049480084,-0.087659165,0.0015271631,115.212074,-121.284424,18.857452,STD
697313382000,0.500327,2.27613844820824,9.62626183409708,-0.590171541144165,-0.04642576,-0.09621128,0.0070249503,115.276375,-121.083496,18.845407,STD
697318299000,0.505244,2.26954962250551,9.6295562641484,-0.582641455328793,-0.05131268,-0.09773844,0.002443461,115.338135,-120.88152,18.83082,STD
697323152000,0.510097,2.26304655739764,9.63280781367841,-0.575209381612705,-0.038179077,-0.08857546,0.0061086523,115.40271,-120.690704,18.820452,STD
697328100000,0.515045,2.25641619140677,9.63612301398224,-0.567631821186741,-0.044898596,-0.08827003,0.0076358155,115.47088,-120.49713,18.807526,STD
697333075000,0.52002,2.24974964516493,9.639456304506,-0.560012911906392,-0.028099801,-0.0870483,0.008246681,115.53817,-120.315994,18.796904,STD
697338080000,0.525025,2.24304289864425,9.64280969527412,-0.552348059454503,-0.040317107,-0.09285152,0.008246681,115.60894,-120.13094,18.786121,STD
697343301000,0.530246,2.23604671011589,9.64630780780167,-0.544352416167527,-0.038179077,-0.09162979,0.0021380284,115.67822,-119.9554,18.775236,STD
697348158000,0.535103,2.22953828497084,9.64956203736426,-0.536914216695234,-0.03481932,-0.089186326,0.01160644,115.75207,-119.78395,18.76831,STD
697353082000,0.540027,2.22294007920304,9.6528611574726,-0.529373410806502,-0.045814894,-0.09285152,0.01038471,115.82661,-119.610344,18.756844,STD
697358077000,0.545022,2.21624673277531,9.65620784815927,-0.521723872745127,-0.029932396,-0.083383106,0.00580322,115.89888,-119.44795,18.749115,STD
697363078000,0.550023,2.20954534629181,9.65955855889481,-0.514065146049443,-0.030848695,-0.093462385,0.007330383,115.97949,-119.28392,18.740452,STD
697368213000,0.555158,2.2026643985628,9.66299905072185,-0.506201206520881,-0.037873644,-0.08979719,0.009773844,116.054474,-119.12473,18.73381,STD
697373243000,0.560188,2.19592415180975,9.66636919169361,-0.498498068092709,-0.03268129,-0.07971791,0.008246681,116.13138,-118.970825,18.726505,STD
697378076000,0.565021,2.18944788688778,9.66960734106071,-0.491096623157648,-0.032070424,-0.05955936,0.0106901415,116.206345,-118.81894,18.722757,STD
697383096000,0.570041,2.18272104022767,9.67297078195102,-0.483408799119988,-0.035124753,-0.064751714,0.004886922,116.28561,-118.66873,18.715113,STD
697388078000,0.575023,2.17604511392077,9.67630876253179,-0.47577916976628,-0.028710667,-0.065973446,0.008552114,116.360634,-118.52612,18.713528,STD
697393305000,0.58025,2.16904088533664,9.67981089510821,-0.467774337844996,-0.027794369,-0.054367006,0.0076358155,116.43347,-118.38285,18.710304,STD
697398180000,0.585125,2.16250834002429,9.68307718481743,-0.460308572469779,-0.032070424,-0.0580322,0.004581489,116.51215,-118.243164,18.706032,STD
697403078000,0.590023,2.15594497449815,9.68635888471398,-0.452807583996382,-0.02687807,-0.048258353,0.0036651916,116.585,-118.10887,18.704985,STD
697408081000,0.595026,2.14924090799606,9.68971093546582,-0.445145794422595,-0.023823744,-0.04184427,0.004276057,116.66067,-117.975914,18.703083,STD
697413077000,0.600022,2.1457737642418,9.69296175189651,-0.437119312212409,-0.023823744,-0.03634648,0.003970624,116.734634,-117.84594,18.701876,STD
697418262000,0.605207,2.14726069952088,9.69618343465024,-0.428197694430827,-0.02107485,-0.030543262,0.0027488936,116.80767,-117.719925,18.701511,STD
697423127000,0.610072,2.14865586637387,9.69920628645293,-0.419826687582728,-0.018020526,-0.028099801,0.004276057,116.84034,-117.53755,18.669456,STD
697428131000,0.615076,2.15009089513695,9.70231550544997,-0.411216509110397,-0.011301007,-0.022602014,0.0015271631,116.871216,-117.35918,18.637531,STD
697433125000,0.62007,2.15152305613671,9.7054185109798,-0.402623537229737,-0.005192355,-0.014049901,0.007941248,116.90289,-117.18713,18.609735,STD
697438132000,0.625077,2.15295894522878,9.70852959401701,-0.394008196779905,-0.0036651916,-0.0036651916,0.009162978,116.93282,-117.01756,18.581236,STD
697443183000,0.630128,2.15440745247944,9.71166801630999,-0.385317147326719,0.01160644,-0.00030543262,0.009468411,116.9641,-116.85664,18.554972,STD
697448105000,0.63505,2.15581896558333,9.71472628487583,-0.376848062906093,0.01985312,0.0030543262,0.008552114,116.99374,-116.69797,18.530247,STD
697453129000,0.640074,2.15725972987303,9.71784793080732,-0.368203471250419,0.011301007,0.00030543262,0.007941248,117.02543,-116.54237,18.50594,STD
697458082000,0.645027,2.1586801330432,9.72092546112154,-0.359681046395612,0.022907447,0.016493361,0.009468411,117.0521,-116.395935,18.484566,STD
697463073000,0.650018,2.16011143371397,9.7240266026112,-0.351093236492454,0.024129177,0.024740042,0.0143553335,117.083244,-116.24939,18.463427,STD
697468313000,0.655258,2.16161414169129,9.72728245943464,-0.34207698245668,0.035430185,0.025350908,0.007941248,117.112175,-116.1082,18.440893,STD
697473203000,0.660148,2.16301647795257,9.73032084490537,-0.333662959129402,0.04153884,0.032375857,0.011911872,117.139534,-115.972336,18.424253,STD
697478086000,0.665031,2.16441680677953,9.73335488094905,-0.325260980416294,0.031154128,0.03481932,0.014966198,117.168434,-115.83682,18.40569,STD
697483046000,0.669991,2.16583921738401,9.73643676069033,-0.316726510947317,0.03726278,0.03481932,0.011301007,117.19685,-115.70799,18.387177,STD
697488045000,0.67499,2.16727281226543,9.73954287295376,-0.308124935770822,0.03359759,0.03726278,0.007941248,117.225266,-115.578674,18.370384,STD
697493310000,0.680255,2.16878268965104,9.74281426344526,-0.299065665255869,0.03023783,0.03268129,0.019547688,117.2578,-115.45569,18.35642,STD
697498735000,0.68568,2.1703384512497,9.74618506941228,-0.289731089274176,0.026572637,0.03848451,0.01282817,117.28565,-115.330086,18.338078,STD
697503117000,0.690062,2.17159510513455,9.74890781074822,-0.282191160803801,0.040011674,0.04062254,0.008857546,117.31819,-115.21277,18.323254,STD
697508046000,0.694991,2.17300862567276,9.75197042874112,-0.273710031769005,0.05222898,0.053450707,0.0125227375,117.34707,-115.097305,18.310461,STD
697513037000,0.699982,2.17443992634353,9.75507157023078,-0.265122221865847,0.06291912,0.050701816,0.02443461,117.38113,-114.98756,18.298061,STD
697518305000,0.70525,2.17595066405813,9.75834482476244,-0.256057789373393,0.061086524,0.06078109,0.027794369,117.408264,-114.87911,18.286829,BSC
697523133000,0.710078,2.17733522018686,9.7613446867364,-0.247750446914477,0.076358154,0.060170226,0.030848695,117.441216,-114.78071,18.277882,BSC
697528097000,0.715042,2.17875877789667,9.76442905186457,-0.239209094808832,0.09193522,0.06566802,0.033292156,117.47062,-114.6848,18.27126,BSC
697533046000,0.719991,2.18017803396151,9.7675040967919,-0.230693552590693,0.0888809,0.07238753,0.03268129,117.500626,-114.59034,18.264868,BSC
697538042000,0.724987,2.18161076851393,9.77060834501517,-0.222097139391699,0.09560041,0.07727446,0.03726278,117.53104,-114.50429,18.261036,BSC
697543300000,0.730245,2.18311863846522,9.77387538607961,-0.213049913490917,0.09987647,0.07391469,0.045814894,117.56296,-114.41987,18.258158,BSC
697548163000,0.735108,2.18451323176555,9.77689699518885,-0.204682347961151,0.108123146,0.065973446,0.04550946,117.595184,-114.33838,18.254253,BSC
697553053000,0.739998,2.18591556802683,9.77993538065959,-0.196268324633874,0.10567969,0.071776666,0.051618114,117.626396,-114.260735,18.255384,BSC
697558048000,0.744993,2.18734801580292,9.78303900753613,-0.187673632094047,0.108123146,0.07452556,0.04550946,117.660385,-114.18449,18.252272,BSC
697563038000,0.749983,2.18877902969736,9.78613952767907,-0.179087542850056,0.10934488,0.059253927,0.044898596,117.69956,-114.111755,18.251446,BSC
697570536000,0.757481,2.19092927863132,9.79079838540086,-0.166186040414897,0.10598512,0.06352998,0.045814894,117.73254,-114.03926,18.251213,BSC
697573110000,0.760055,2.19166744090873,9.79239773186337,-0.161757063718698,0.103847094,0.064446285,0.05100725,117.771805,-113.96962,18.250635,BSC
697578121000,0.765066,2.19310447710612,9.79551130028747,-0.153134840632197,0.113926366,0.07269296,0.04917465,117.8078,-113.90181,18.24938,BSC
697583053000,0.769998,2.19451885797333,9.79857578232053,-0.144648549619899,0.11026118,0.071776666,0.05100725,117.847466,-113.8346,18.250002,BSC
697588044000,0.774989,2.1959501586441,9.80167692381019,-0.136060739716741,0.10720685,0.0711658,0.049480084,117.88479,-113.76964,18.249918,BSC
697593349000,0.780294,2.19747150708297,9.80497316817057,-0.126932642835103,0.10720685,0.0720821,0.054367006,117.92314,-113.70785,18.25222,BSC
697598233000,0.785178,2.19887212268626,9.80800782556097,-0.118528943462828,0.112399206,0.07452556,0.05375614,117.9612,-113.6463,18.252718,BSC
697603091000,0.790036,2.20026528210493,9.8110263279366,-0.110169981228899,0.12034045,0.0720821,0.048563786,118.00095,-113.58669,18.253048,BSC
697608077000,0.795022,2.20169514889404,9.81412436269264,-0.101590774621576,0.116675265,0.059253927,0.047036625,118.04377,-113.527954,18.25367,BSC
697613055000,0.8,2.20182736826173,9.8140933223945,-0.0944726140428502,0.1160644,0.052839845,0.051618114,118.08598,-113.47267,18.254917,BSC
697618346000,0.805291,2.19904500682687,9.80701095839781,-0.0901725979052844,0.12858713,0.051618114,0.054061573,118.130554,-113.41952,18.254696,BSC
697623230000,0.810175,2.19647667319469,9.80047339163164,-0.0862033522398391,0.13561209,0.051618114,0.054367006,118.13447,-113.33467,18.255304,BSC
697628149000,0.815094,2.19388993422322,9.79388897498078,-0.0822056619391991,0.13988814,0.042760566,0.055588737,118.142525,-113.254326,18.256123,BSC
697633092000,0.820037,2.19129057444765,9.78727243269471,-0.0781884667458543,0.14508049,0.04550946,0.063224554,118.1486,-113.17883,18.25966,BSC
697638452000,0.825397,2.18847192820103,9.78009770749678,-0.0738323740417619,0.17562376,0.062002823,0.06627888,118.15384,-113.109566,18.26263,BSC
697643350000,0.830295,2.18589623243313,9.77354140077673,-0.0698517505222388,0.1853976,0.05497787,0.067500606,118.16637,-113.04068,18.265713,BSC
697648149000,0.835094,2.1833725974821,9.76711761230195,-0.0659515846851232,0.19853121,0.060170226,0.06780604,118.17147,-112.97965,18.271328,BSC
697653081000,0.840026,2.18077902224175,9.76051579426535,-0.0619433292342681,0.20219639,0.064751714,0.070554934,118.17982,-112.921,18.277348,BSC
697658073000,0.845018,2.17815389499116,9.75383366214071,-0.0578863115516508,0.20952678,0.0580322,0.07819075,118.19103,-112.86776,18.284296,BSC
697663081000,0.850026,2.17552035387119,9.74713011292593,-0.0538162906072302,0.21227567,0.06963864,0.082161374,118.1962,-112.81547,18.292463,BSC
697668344000,0.855289,2.17275271670777,9.740085228837,-0.0495390301778202,0.21410827,0.06811147,0.07727446,118.20771,-112.765175,18.298788,BSC
697673236000,0.860181,2.17018017614089,9.73353695352575,-0.0455632828814732,0.22785273,0.071776666,0.07452556,118.21542,-112.71991,18.307785,BSC
697678079000,0.865024,2.16763340304903,9.72705426805307,-0.0416273580743987,0.23396139,0.07360926,0.08124508,118.22506,-112.67586,18.317675,BSC
697683081000,0.870026,2.16500301713008,9.7203587502471,-0.0375622133531544,0.24007004,0.07696902,0.08246681,118.233215,-112.63324,18.325487,BSC
697688091000,0.875036,2.16236842427643,9.71365252389605,-0.0334905670010084,0.24678956,0.067500606,0.08827003,118.24599,-112.59534,18.335535,BSC
697693354000,0.880299,2.15960078711301,9.70660763980711,-0.0292133065715983,0.26511553,0.06078109,0.086437434,118.2571,-112.559746,18.34402,BSC
697698270000,0.885215,2.15701562574204,9.70002723886066,-0.0252180543825465,0.2602286,0.059253927,0.08827003,118.27065,-112.52452,18.354668,BSC
697703059000,0.890004,2.15449724945938,9.69361683606721,-0.021326015584058,0.2648101,0.05009095,0.092240654,118.288895,-112.49465,18.364277,BSC
697708109000,0.895054,2.15184162193225,9.6868570669908,-0.0172218610774038,0.2837469,0.04550946,0.095294975,118.30678,-112.467255,18.374168,BSC
697713071000,0.900016,2.14923227068678,9.68021509191018,-0.0131892245106676,0.29016098,0.040317107,0.10293079,118.328545,-112.44127,18.385633,BSC
697718343000,0.905288,2.14645990072182,9.67315816070805,-0.00890464974649321,0.2919936,0.04062254,0.109650314,118.35054,-112.41868,18.397556,BSC
697723208000,0.910153,2.14390155855955,9.66664602673642,-0.00495084545443927,0.3115413,0.035124753,0.10873401,118.376114,-112.400444,18.408543,BSC
697728080000,0.915025,2.14133953532941,9.66012452278786,-0.000991352235346389,0.3042109,0.03359759,0.11881329,118.401955,-112.382835,18.424488,BSC
697733090000,0.920035,2.13870494247576,9.65341829643681,0.00308029411679961,0.30909783,0.03390302,0.13072516,118.42921,-112.370895,18.440212,BSC
697738076000,0.925021,2.13608297042621,9.64674419572097,0.00713243557624074,0.32253686,0.03634648,0.13347405,118.456566,-112.35969,18.455938,BSC
697743395000,0.93034,2.13328588471991,9.63962435181654,0.0114552074219622,0.32589662,0.030848695,0.14202617,118.4876,-112.35212,18.475784,BSC
697748124000,0.935069,2.13079906044747,9.63329426311113,0.0152984839886884,0.32498032,0.022907447,0.13316862,118.51784,-112.34269,18.491161,BSC
697753098000,0.940043,2.12818339879996,9.6266362252129,0.0193408730017771,0.32436943,0.015271631,0.1414153,118.55149,-112.3401,18.512997,BSC
697758120000,0.945065,2.12554249554426,9.61991393604425,0.0234222718002756,0.34972036,0.0009162979,0.1432479,118.58859,-112.33795,18.529308,BSC
697763055000,0.95,2.12294734270339,9.61330810230325,0.0274329653627188,0.35124752,-0.010995574,0.14477506,118.62785,-112.333984,18.547176,BSC
697768042000,0.954987,2.120324844787,9.60663266301928,0.0314859195260226,0.3622431,-0.019547688,0.16279559,118.671585,-112.33988,18.56914,BSC
697773112000,0.960057,2.11765869992313,9.59984612258019,0.0356063281099308,0.35308012,-0.030543262,0.14263703,118.717094,-112.334076,18.579645,BSC
697778071000,0.965016,2.11505092627817,9.59320816320398,0.0396365265650789,0.37140608,-0.03176499,0.14508049,118.76483,-112.34392,18.601185,BSC
697783098000,0.970043,2.11240739368829,9.58647918119465,0.0437219888828909,0.39370266,-0.04550946,0.1441642,118.81786,-112.34729,18.614424,BSC
697788055000,0.975,2.109800671777,9.5798438989547,0.0477505619303136,0.38881573,-0.06566802,0.1563815,118.87404,-112.35295,18.631271,BSC
697793090000,0.980035,2.10715293225243,9.57310420840031,0.0518425258790272,0.39522982,-0.07360926,0.15760323,118.92969,-112.36084,18.644451,BSC
697798079000,0.985024,2.10452938260236,9.56642609198007,0.0558971054500564,0.42577308,-0.07391469,0.17379116,118.99052,-112.37806,18.66417,BSC
697803051000,0.989996,2.10191477268852,9.55977073121811,0.0599378690554197,0.43493605,-0.07666359,0.18753563,119.05404,-112.39248,18.682636,BSC
697808081000,0.995026,2.09926966249813,9.55303773350439,0.0640257694848198,0.45631635,-0.08460484,0.17898351,119.1184,-112.41165,18.698679,BSC
697813052000,0.999997,2.09877669841066,9.54844096953522,0.0569676793418826,0.47403142,-0.08552113,0.18020524,119.18264,-112.43688,18.721134,BSC
697818075000,1.00502,2.10455770846344,9.54988620192683,0.0169823334005989,0.4981606,-0.0870483,0.19028452,119.24901,-112.46601,18.742758,BSC
697823758000,1.010703,2.111098317687,9.55152133146726,-0.0282569102753548,0.49357912,-0.098043874,0.2171626,119.287735,-112.47522,18.759443,BSC
697828119000,1.015064,2.11611742675333,9.55277609126416,-0.0629724375797422,0.5036584,-0.112399206,0.20250183,119.32566,-112.48261,18.766832,BSC
697833095000,1.02004,2.12184434413788,9.55420780067699,-0.102583642318708,0.50762904,-0.1282817,0.18753563,119.36877,-112.4944,18.78056,BSC
697838063000,1.025008,2.12756205425976,9.55563720830621,-0.14213116344877,0.5149594,-0.15760323,0.18692477,119.419754,-112.50791,18.79227,BSC
697843071000,1.030016,2.13332580069502,9.55707812485353,-0.181997102623356,0.50976706,-0.1777618,0.20952678,119.47294,-112.52185,18.80576,BSC
697848172000,1.035117,2.13919658155889,9.55854579963546,-0.222603363751465,0.5006041,-0.19792034,0.20647246,119.53261,-112.52973,18.810022,BSC
697853093000,1.040038,2.14486019901255,9.5599616842859,-0.261776743679208,0.49968776,-0.22174409,0.18295415,119.59893,-112.53827,18.813244,BSC
697858079000,1.045024,2.15059862547545,9.56139627092826,-0.301467552929306,0.5213735,-0.24098633,0.17959438,119.670425,-112.552734,18.820179,BSC
697863056000,1.050001,2.15632669376784,9.56282826806405,-0.341086718119386,0.52626044,-0.26145032,0.18234327,119.74752,-112.56012,18.820768,BSC
697868069000,1.055014,2.16209619474227,9.56427062322614,-0.380992459549538,0.5467244,-0.2706133,0.20219639,119.82717,-112.576385,18.824799,BSC
697873165000,1.06011,2.16796122106697,9.56573685939331,-0.42155891842208,0.56382865,-0.27580565,0.23548855,119.91198,-112.59658,18.832443,BSC
697878079000,1.065024,2.17361678216578,9.56715072998307,-0.460676575192032,0.5876524,-0.2669481,0.20616703,119.99167,-112.61034,18.828451,BSC
697883107000,1.070052,2.17940354675773,9.56859740098945,-0.500701723388882,0.59406644,-0.24251351,0.20738874,120.07162,-112.63884,18.842777,BSC
697888063000,1.075008,2.1851074459856,9.57002335594323,-0.540153719105585,0.62888575,-0.24007004,0.21930063,120.15335,-112.67051,18.851015,BSC
697893733000,1.080678,2.19163309340731,9.57165474508527,-0.585289476917068,0.6569856,-0.22510384,0.24190263,120.22416,-112.70449,18.864834,BSC
697898184000,1.085129,2.19675578417874,9.57293539994792,-0.620721444821638,0.67073005,-0.2284636,0.28588495,120.301094,-112.74901,18.886768,BSC
697903160000,1.090105,2.2024827015633,9.57436710936076,-0.660332649560604,0.66156703,-0.21319197,0.2779437,120.36531,-112.78645,18.902308,BSC
697908079000,1.095024,2.20814401720129,9.57578241856529,-0.699490108586122,0.66339964,-0.19822577,0.2687807,120.43264,-112.83696,18.928991,BSC
697913057000,1.100002,2.21387323640151,9.57721470342403,-0.739117234227314,0.6630942,-0.19150625,0.29840767,120.499214,-112.89207,18.964201,BSC
697918073000,1.105018,2.21964619009945,9.57865792175498,-0.779046857010806,0.66431594,-0.19394971,0.3182608,120.56207,-112.94222,18.993996,BSC
697923272000,1.110217,2.2256297599311,9.58015379338628,-0.820433242348002,0.63407815,-0.18967366,0.30176744,120.6198,-112.98469,19.022137,BSC
697928073000,1.115018,2.23115526844461,9.58153515128238,-0.858651368142169,0.61666846,-0.1863139,0.26908615,120.67805,-113.029106,19.050335,BSC
697933095000,1.12004,2.23693512758956,9.58298009595105,-0.89862875363234,0.59681535,-0.18112154,0.25961772,120.73428,-113.069016,19.080185,BSC
697938088000,1.125033,2.2426816104073,9.58441669665408,-0.938375286040229,0.5833763,-0.18600847,0.28924468,120.79238,-113.10801,19.110958,BSC
697943082000,1.130027,2.24842924413288,9.58585358508007,-0.978129778899232,0.5488624,-0.19517145,0.25137106,120.844376,-113.12155,19.119955,BSC
697948191000,1.135136,2.25430923225942,9.58732356164562,-1.01879972363625,0.5323691,-0.21197024,0.22571471,120.902405,-113.14514,19.139307,BSC
697953070000,1.140015,2.25992451158403,9.58872736193204,-1.05763876461724,0.5525276,-0.22785273,0.204029,120.96004,-113.1606,19.148407,BSC
697958068000,1.145013,2.26567674894094,9.59016540124984,-1.09742509928069,0.5552765,-0.2434298,0.19547687,121.02118,-113.167534,19.152882,BSC
697963558000,1.150503,2.27199523295244,9.59174500026038,-1.14112797589181,0.5540548,-0.2648101,0.17867808,121.08608,-113.169754,19.14766,BSC
697968057000,1.155002,2.27717316729993,9.59303946582476,-1.17694204544981,0.5522222,-0.28893927,0.16218472,121.155205,-113.17024,19.139074,BSC
697973164000,1.160109,2.28305085361081,9.59450886694441,-1.2175960692846,0.5338962,-0.32559118,0.1563815,121.23328,-113.16649,19.126833,BSC
697978055000,1.165,2.28867994382943,9.59591611990626,-1.25653063567895,0.5198463,-0.3549127,0.1572978,121.3149,-113.160866,19.111147,BSC
697983086000,1.170031,2.29447016114488,9.5973636540815,-1.29657966522914,0.5235115,-0.40591997,0.16157386,121.412766,-113.154755,19.091442,BSC
697988096000,1.175041,2.30023620939581,9.59880514607473,-1.33646152530595,0.5403103,-0.4550946,0.15760323,121.517365,-113.14699,19.068407,BSC
697993069000,1.180014,2.30595967405686,9.60023599231871,-1.37604884869158,0.5705481,-0.4801401,0.16798794,121.630104,-113.14659,19.049362,BSC
697998334000,1.185279,2.31201920380559,9.60175085366489,-1.41796062380224,0.61453044,-0.49327368,0.1881465,121.75303,-113.152626,19.030123,BSC
698003052000,1.189997,2.31744918696884,9.60310833055592,-1.45551803215402,0.66248333,-0.5039638,0.20525073,121.88175,-113.16591,19.012001,BSC
698008070000,1.195015,2.32322444248245,9.60455212433277,-1.49546357583973,0.7131852,-0.5103779,0.22113322,122.01295,-113.191,18.998985,BSC
698013055000,1.2,2.32142788374692,9.58087914921939,-1.54312383306491,0.76174897,-0.49571714,0.24953845,122.1416,-113.23007,18.995201,BSC
698018075000,1.20502,2.30299299028311,9.5016330474789,-1.60872331961156,0.82894415,-0.47800204,0.32345316,122.27404,-113.294266,19.008461,BSC
698023187000,1.210132,2.28422024618212,9.42093462674236,-1.67552502782401,0.8546005,-0.44684792,0.31673363,122.416664,-113.43199,19.011177,BSC
698028092000,1.215037,2.26620766601479,9.34350392374692,-1.73962173728841,0.9147707,-0.42485678,0.30726522,122.55815,-113.60072,19.033205,BSC
698033253000,1.220198,2.2472549797266,9.26203198528423,-1.80706375921416,0.979217,-0.40561453,0.30207285,122.68766,-113.771484,19.055443,BSC
698038090000,1.225035,2.22949211524763,9.18567473545977,-1.87027187005602,1.0054842,-0.39920044,0.3109304,122.811554,-113.944496,19.078524,BSC
698043075000,1.23002,2.21118575191753,9.10698114638082,-1.9354139896646,1.0363328,-0.39920044,0.31520647,122.92776,-114.124344,19.098667,BSC
698048141000,1.235086,2.19258193313513,9.0270088851423,-2.00161458704415,1.0613784,-0.408058,0.37843102,123.04692,-114.32045,19.136116,BSC
698053089000,1.240034,2.17441144451782,8.94889938087697,-2.06627320446104,1.0693196,-0.41050145,0.3643811,123.15544,-114.49937,19.152546,BSC
698058085000,1.24503,2.15606468600284,8.87003214496153,-2.13155906796444,1.0852021,-0.40011674,0.36041048,123.26563,-114.69741,19.1879,BSC
698063076000,1.250021,2.13773628893553,8.79124383942631,-2.19677959333383,1.1120802,-0.40775254,0.35888332,123.37797,-114.89299,19.216938,BSC
698068072000,1.255017,2.11938953042056,8.71237660351087,-2.26206545683723,1.1142182,-0.41325033,0.33200526,123.48135,-115.07723,19.23741,BSC
698073190000,1.260135,2.10059475258236,8.63158346631807,-2.32894557081049,1.1218541,-0.42455134,0.32162055,123.58707,-115.26744,19.259495,BSC
698078058000,1.265003,2.08271804712781,8.55473684813625,-2.39255877808321,1.1383474,-0.43249258,0.32742378,123.68972,-115.45428,19.277248,BSC
698083081000,1.270026,2.0642721367954,8.47544338816762,-2.45819746751027,1.1475104,-0.43860126,0.33628133,123.791725,-115.63664,19.291132,BSC
698088092000,1.275037,2.0458702939374,8.39633936111153,-2.5236793454157,1.1658363,-0.47586402,0.40011674,123.90781,-115.83404,19.317228,BSC
698093076000,1.280021,2.02756760289684,8.31766155810861,-2.58880839739748,1.1957687,-0.50976706,0.4156938,124.01847,-116.02367,19.331108,BSC
698098151000,1.285096,2.00893073350863,8.2375472221857,-2.65512660341824,1.2153164,-0.50243664,0.41263947,124.12926,-116.22119,19.356268,BSC
698103068000,1.290013,1.99087408586689,8.15992708627773,-2.71938012440427,1.273654,-0.46609017,0.4016439,124.23923,-116.42986,19.381678,BSC
698108045000,1.29499,1.97259710085307,8.08135978580713,-2.78441770299843,1.3093897,-0.40317106,0.4016439,124.33732,-116.63618,19.410978,BSC
698113045000,1.29999,1.95423565317995,8.00242940558751,-2.84975583700904,1.3090842,-0.36071593,0.37507126,124.42456,-116.835144,19.430157,BSC
698118042000,1.304987,1.93588522237544,7.92354638359603,-2.91505476813924,1.29198,-0.3454443,0.30970868,124.495285,-117.025894,19.440613,BSC
698123103000,1.310048,1.91729976504071,7.84365305273773,-2.98119002738478,1.3014483,-0.36132678,0.27397305,124.56089,-117.21898,19.451572,BSC
698128107000,1.315052,1.89892362820946,7.76465952821394,-3.04658043190259,1.3213016,-0.398895,0.267559,124.6228,-117.40026,19.451199,BSC
698133077000,1.320022,1.88067234922238,7.68620273027564,-3.11152653710914,1.3503176,-0.43004912,0.23915374,124.67959,-117.57061,19.433664,BSC
698138086000,1.325031,1.86227785094345,7.60713027537163,-3.17698227976096,1.3939945,-0.48838675,0.29779682,124.761055,-117.76184,19.431015,BSC
698143074000,1.330019,1.84396047074475,7.52838932806454,-3.24216360224994,1.4327844,-0.5546656,0.27275133,124.839775,-117.93251,19.393944,BSC
698148127000,1.335072,1.8254043917263,7.4486222858146,-3.30819432048106,1.4819591,-0.5910121,0.24007004,124.92922,-118.12178,19.367163,BSC
698153231000,1.340176,1.80666102594159,7.36805015368641,-3.37489148767909,1.5238034,-0.6395759,0.21899518,125.036606,-118.31213,19.328526,BSC
698158083000,1.345028,1.78884307711959,7.2914561127213,-3.43829561292299,1.5577064,-0.66614854,0.1872302,125.14026,-118.49979,19.276678,BSC
698163074000,1.350019,1.77051468005229,7.21266780718608,-3.50351613829237,1.5592335,-0.6795876,0.18417588,125.251434,-118.6885,19.223312,BSC
698168056000,1.355001,1.7522193335908,7.13402157633525,-3.56861905502054,1.5555683,-0.70707655,0.19242255,125.36846,-118.8768,19.160503,BSC
698173146000,1.360091,1.73352737985957,7.05367044927168,-3.63513327544334,1.5512923,-0.7165449,0.19853121,125.48024,-119.06195,19.097124,BSC
698178058000,1.365003,1.7154890936655,6.97612924374393,-3.69932145829536,1.5262468,-0.7464773,0.21166481,125.603874,-119.24252,19.033007,BSC
698183073000,1.370018,1.69707256164936,6.89696207238366,-3.764855606708,1.520749,-0.7629707,0.2489276,125.72657,-119.429634,18.977633,BSC
698188094000,1.375039,1.67863399589602,6.81770018456712,-3.83046816088145,1.5234979,-0.77396625,0.28405234,125.85414,-119.61275,18.922852,BSC
698193076000,1.380021,1.66033864943453,6.73905395371629,-3.89557107760962,1.5289958,-0.7696902,0.3277292,125.98423,-119.80116,18.88022,BSC
698198154000,1.385099,1.64169076317771,6.65889225956525,-3.96192848651079,1.5522085,-0.7556403,0.3747658,126.11606,-119.99823,18.84761,BSC
698203069000,1.390014,1.62364146011504,6.58130369580937,-4.02615587224322,1.5809193,-0.74464476,0.4465425,126.25275,-120.20708,18.832853,BSC
698208075000,1.39502,1.60525797870471,6.50227859913349,-4.09157241201464,1.613906,-0.68661255,0.5558874,126.38002,-120.43379,18.84676,BSC
698213062000,1.400007,1.60306569551724,6.42019573356322,-4.18670443045977,1.6285667,-0.63804877,0.66889745,126.51344,-120.67233,18.879572,BSC
698218567000,1.405512,1.69901262525862,6.30909945511494,-4.47454553606322,1.6410894,-0.5873469,0.6536258,126.6252,-120.90936,18.912792,BSC
698223124000,1.410069,1.79148275165911,6.21185394708975,-4.7000086774252,1.65911,-0.54550266,0.6612616,126.674644,-121.37922,18.95064,BSC
698228129000,1.415074,2.04787297459655,6.04237566259293,-4.79561166450589,1.6701056,-0.5180137,0.6542367,126.707726,-121.836334,18.978529,BSC
698233043000,1.419988,2.29960155711695,5.87597880145059,-4.88947641545784,1.674687,-0.5525276,0.6398814,126.72611,-122.28726,18.972841,BSC
698238090000,1.425035,2.70080718607182,5.7012985218716,-4.903325,1.6756034,-0.6249151,0.6215554,126.742355,-122.731064,18.957561,BSC
698243039000,1.429984,3.11768908215452,5.52938835614799,-4.903325,1.6963727,-0.713796,0.59742624,126.7658,-123.17038,18.9255,BSC
698248117000,1.435062,3.51637381234842,5.25302656423808,-4.86475847802142,1.7348573,-0.8023715,0.5842926,126.818375,-123.649445,18.916725,BSC
698253150000,1.440095,3.89628546382377,4.92669230648747,-4.80631062944624,1.7837266,-0.88239485,0.537256,126.87864,-124.11989,18.87826,BSC
698258043000,1.444988,4.04185376329425,4.83254505265885,-4.7884035,1.8197676,-0.93767816,0.49510628,126.95393,-124.64565,18.912117,BSC
698263045000,1.44999,4.08539812617035,4.84125392523407,-4.7884035,1.8429805,-0.9999864,0.49510628,127.04595,-125.17219,18.927975,BSC
698268047000,1.454992,4.08216678537361,4.88648376134605,-4.79557166078431,1.8655825,-1.035722,0.49968776,127.12407,-125.74405,19.006264,BSC
698273138000,1.460083,4.02532403020668,4.97433154287228,-4.81107425490196,1.8817704,-1.0864239,0.50732356,127.21752,-126.31328,19.068989,BSC
698278063000,1.465008,3.91098567841049,4.99427635600164,-4.80561905474191,1.8930714,-1.1319333,0.5158757,127.257965,-126.84441,19.115961,BSC
698283042000,1.469987,3.7547123897583,4.96985865464973,-4.78608484266694,1.9107865,-1.1643091,0.5140431,127.30234,-127.37403,19.151842,BSC
698288668000,1.475613,3.55341164347826,4.94079956521739,-4.81879943043478,1.92392,-1.2208142,0.5311473,127.28471,-127.83867,19.144625,BSC
698293053000,1.479998,3.3870745692336,4.91758968266396,-4.865219033972,1.9355265,-1.244638,0.5335908,127.259544,-128.29979,19.129608,BSC
698298087000,1.485032,3.19297380908677,4.81145416645097,-4.92845505649836,1.9428569,-1.2455542,0.5992588,127.133644,-128.6796,19.068298,BSC
698303104000,1.490049,2.99591705063799,4.61439731655122,-5.00289874925264,1.9092593,-1.2858714,0.5879578,127.008286,-129.03941,18.976824,BSC
698308105000,1.49505,2.80067587128666,4.51924649826153,-5.09202907698921,1.9007072,-1.2996159,0.54825157,126.68531,-129.27788,18.808147,BSC
698313065000,1.50001,2.61010934535295,4.6871265555736,-5.21907339602636,1.9077321,-1.3292428,0.56291234,126.387,-129.52338,18.64013,BSC
698318069000,1.505014,2.43795647263943,4.85976641453171,-5.36340395750502,1.9068159,-1.3435981,0.5726862,126.06614,-129.74695,18.404358,BSC
698323113000,1.510058,2.35939601581364,5.04923576009758,-5.58522163847699,1.892766,-1.3316863,0.60231316,125.75529,-129.98105,18.177765,BSC
698328058000,1.515003,2.29002649998042,5.22325933326808,-5.79725919571303,1.8848248,-1.3267993,0.61361414,125.43776,-130.16336,17.869467,BSC
698333049000,1.519994,2.30406128772634,5.27004195908779,-5.95164181206812,1.8790215,-1.3249667,0.63132924,125.12824,-130.35754,17.575584,BSC
698338220000,1.525165,2.32882468780638,5.31938004910832,-6.11895253840815,1.8716911,-1.31672,0.6444628,124.83728,-130.53796,17.236418,BSC
698343064000,1.530009,2.47961381615567,5.37643524545375,-6.36755089089871,1.8671097,-1.3384057,0.64996064,124.557724,-130.73006,16.901546,BSC
698348084000,1.535029,2.63588165767372,5.4355634629711,-6.62518171862426,1.8664987,-1.3640621,0.64812803,124.34259,-130.9552,16.559258,BSC
698353067000,1.540012,2.73036385,5.5697248220339,-6.76495906694915,1.8839084,-1.3811663,0.655153,124.13282,-131.19464,16.225054,BSC
698358250000,1.545195,2.80954484588235,5.73303582951147,-6.87383291690927,1.890017,-1.3909402,0.6768387,123.92926,-131.44087,15.897438,BSC
698363048000,1.549993,2.80884824138553,5.59561637416561,-6.8528955935414,1.9000963,-1.4037683,0.7431176,123.83283,-131.78676,15.610934,BSC
698368026000,1.554971,2.78734665812737,5.37199972866679,-6.7969914321667,1.9013181,-1.4141531,0.68416905,123.71382,-132.12297,15.30503,BSC
698373103000,1.560048,2.77453899531835,5.2043400346442,-6.83917616058052,1.9138408,-1.4376713,0.6722572,123.69598,-132.50195,15.028552,BSC
698378061000,1.565006,2.76959904879318,5.09072332781939,-6.96267219306076,1.9172006,-1.4660766,0.655153,123.662605,-132.87206,14.739663,BSC
698383050000,1.569995,2.73612843841214,4.99531933469547,-7.056140501187,1.892766,-1.4746287,0.6383542,123.67606,-133.28027,14.459949,BSC
698388050000,1.574995,2.68488077349679,4.91145948842187,-7.13068287324382,1.8945986,-1.4816537,0.61850107,123.683266,-133.69263,14.174384,BSC
698393048000,1.579993,2.61661447378944,4.85172581342746,-7.15074676301526,1.9230038,-1.4721853,0.61666846,123.71621,-134.14633,13.893574,BSC
698398167000,1.585112,2.53299592651379,4.80991658829717,-7.12751941572065,1.9190332,-1.464244,0.6169739,123.73846,-134.58722,13.610548,BSC
698403077000,1.590022,2.46143988608202,4.75036361570681,-7.10368009341187,1.9092593,-1.4883732,0.6059783,123.763214,-135.04716,13.310358,BSC
698408080000,1.595025,2.39872694274651,4.66674606688482,-7.07754929562609,1.9040669,-1.5015068,0.59986967,123.77577,-135.50462,13.017991,BSC
698413069000,1.600014,2.39137378702227,4.6351743,-7.07312497598754,1.8903224,-1.5082263,0.6001751,123.803795,-135.95097,12.705931,BSC
698418048000,1.604993,2.4175947863074,4.6351743,-7.08186549161397,1.8713857,-1.5152513,0.5821546,123.8204,-136.38947,12.390055,BSC
698423117000,1.610062,2.46476602032695,4.64899885414068,-7.12831042183265,1.8515326,-1.5286902,0.57818395,123.860596,-136.83224,12.068786,BSC
698428206000,1.615151,2.53814821811142,4.68044863331899,-7.2226592120456,1.8319849,-1.5564847,0.56779927,123.89083,-137.2648,11.742216,BSC
698433072000,1.620017,2.6543560063152,4.71586923070045,-7.30568706140089,1.8170186,-1.5619824,0.5571091,123.952705,-137.7055,11.425782,BSC
698438073000,1.625018,2.80603112849292,4.75601846609538,-7.38598553219076,1.8228219,-1.5635096,0.5534439,124.009254,-138.14235,11.107675,BSC
698443075000,1.63002,2.91037619616398,4.77680666596388,-7.44170227564666,1.8359555,-1.5622878,0.52748215,124.0846,-138.59465,10.798026,BSC
698448121000,1.635066,2.95282820155198,4.77208982572962,-7.46528672308443,1.844813,-1.6215417,0.50488013,124.162605,-139.04236,10.478609,BSC
698453081000,1.640026,3.01603637430294,4.81086251043169,-7.49335684370761,1.8362609,-1.6468927,0.4709771,124.25823,-139.50989,10.190396,BSC
698458074000,1.645019,3.11384273496609,4.91896410490903,-7.52939072645064,1.8225164,-1.6624697,0.44776422,124.351395,-139.97124,9.892261,BSC
698463070000,1.650015,3.1820931306582,5.01144001876443,-7.57310324191686,1.8234328,-1.6914859,0.42852196,124.46807,-140.44177,9.590277,BSC
698468074000,1.655019,3.22359623539261,5.08983471864896,-7.62382960658199,1.8212948,-1.7037032,0.39950588,124.56787,-140.899,9.285517,BSC
698473089000,1.660034,3.29218769642713,5.1614278154017,-7.58230662192168,1.8167132,-1.7003434,0.3915646,124.69528,-141.34938,8.993385,BSC
698478065000,1.66501,3.39319075335083,5.22395375645943,-7.42839715401696,1.8298469,-1.7046194,0.36835176,124.80753,-141.79478,8.692148,BSC
698483071000,1.670016,3.3914767767408,5.27927223103817,-7.34325043177625,1.8545868,-1.7125608,0.34391713,124.93628,-142.23459,8.395222,BSC
698488066000,1.675011,3.27069018690881,5.32572859308536,-7.33860469855298,1.8545868,-1.7284433,0.3203988,125.05363,-142.66312,8.095154,BSC
698493068000,1.680013,3.17533258571572,5.37675593457719,-7.26975793752633,1.8503108,-1.7214183,0.30176744,125.19512,-143.0695,7.814044,BSC
698498090000,1.685035,3.11743953997392,5.43464903069516,-7.10572729702076,1.8661933,-1.7296649,0.27305678,125.32661,-143.47324,7.5237203,BSC
698503063000,1.690008,3.03634325664118,5.46638211283961,-6.980604494677,1.8680259,-1.7510452,0.24709499,125.45925,-143.84454,7.2052393,BSC
698508079000,1.695024,2.92033450276716,5.4615485220165,-6.90809916861542,1.8606955,-1.7574593,0.20952678,125.57381,-144.2103,6.886285,BSC
698513038000,1.699983,2.83120427641938,5.49469666430734,-6.87791259205148,1.8573358,-1.7641789,0.17195857,125.70529,-144.53432,6.5480843,BSC
698518068000,1.705013,2.7765055014383,5.58130300249811,-6.9052619319455,1.8555032,-1.740966,0.1386664,125.81811,-144.85094,6.2158413,BSC
698523085000,1.71003,2.75287568994638,5.73346598888431,-6.92712219920602,1.8600847,-1.7629571,0.10720685,125.94997,-145.142,5.8422427,BSC
698528091000,1.715036,2.79736668270778,6.03007257288101,-6.93700912663436,1.885741,-1.758681,0.06780604,126.057144,-145.43375,5.480485,BSC
698533030000,1.719975,2.85946248788478,6.27252206687376,-6.91214760457498,1.9236146,-1.7482964,0.052839845,126.18268,-145.70544,5.1013665,BSC
698538071000,1.725016,2.95489787608962,6.43158082576485,-6.82580129644168,1.9446895,-1.7098118,0.0421497,126.28817,-145.97601,4.7323227,BSC
698543620000,1.730565,3.01739832047703,6.64103610378086,-6.81268667976252,1.9639318,-1.7489072,0.025045475,126.4231,-146.19131,4.345094,BSC
698548103000,1.735048,2.99503981907093,6.86909305158838,-6.94236603461098,1.9795089,-1.7644843,0.0030543262,126.53878,-146.41013,3.978874,BSC
698553054000,1.739999,2.96146958790596,7.08047733632198,-7.07893936820084,1.9856175,-1.6853772,0.003970624,126.68589,-146.58722,3.6421337,BSC
698558080000,1.745025,2.9087236756326,7.20994465291891,-7.20361150627615,2.01555,-1.715615,-0.008552114,126.83943,-146.77403,3.2792025,BSC
698563052000,1.749997,2.91097743357909,7.24835140698087,-7.21207917685488,2.0320432,-1.6988163,0.007941248,127.000916,-146.90881,2.9357357,BSC
698568064000,1.755009,3.03192679305646,7.09156510150257,-6.97018059822679,2.0323486,-1.5726726,0.014049901,127.1396,-147.04866,2.617962,BSC
698573113000,1.760058,3.10163704660951,6.95634265436477,-6.75110209836321,2.0482311,-1.5491543,0.014966198,127.317345,-147.17902,2.2696445,BSC
698578065000,1.76501,2.93992105315666,6.92399959076383,-6.64483152221356,2.0665572,-1.541213,0.0106901415,127.47289,-147.31248,1.9577909,BSC
698583076000,1.770021,2.79200426181342,6.88203129698699,-6.5311840755123,2.037541,-1.539075,-0.008552114,127.66706,-147.44424,1.6692594,BSC
698588072000,1.775017,2.75618821970619,6.77458326416207,-6.37448923606251,2.0305161,-1.4953982,-0.039095376,127.84453,-147.58698,1.3984166,BSC
698593520000,1.780465,2.71611287594697,6.67779145435606,-6.22521499640151,2.0522017,-1.5271631,-0.051923547,128.05222,-147.70554,1.0789262,BSC
698598097000,1.785042,2.67083087650654,6.8287315444301,-6.34596698177514,2.0845776,-1.5015068,-0.06963864,128.23015,-147.82599,0.7879589,BSC
698603089000,1.790034,2.62144312444043,6.99335748492596,-6.47766763962638,2.1105394,-1.4483615,-0.099265605,128.432,-147.94392,0.48268482,BSC
698608076000,1.795021,2.50362296334822,7.06540766594342,-6.74797166562434,2.160325,-1.4019357,-0.11881329,128.62277,-148.07852,0.1907889,BSC
698613371000,1.800316,2.34181943239736,7.09237488355669,-7.10933283218464,2.2397375,-1.4101825,-0.11759156,128.80592,-148.2291,-0.09374865,BSC
698618073000,1.805018,2.25299004960494,7.04881574723458,-7.48303731835437,2.2461514,-1.3750577,-0.113926366,129.00148,-148.33662,-0.37583297,BSC
698623124000,1.810069,2.16952120807374,6.98731235651621,-7.89598870190718,2.2739458,-1.3231341,-0.12156218,129.18599,-148.47488,-0.64700586,BSC
698628054000,1.814999,2.16511004362703,6.87978867784431,-7.94574282549187,2.3133466,-1.2751812,-0.111177474,129.3855,-148.65308,-0.9271123,BSC
698633045000,1.81999,2.21621976218991,6.73668146586826,-7.74130395124038,2.357329,-1.2327261,-0.09254608,129.57027,-148.8411,-1.1866509,BSC
698638049000,1.824994,2.21296458491803,6.58667131579235,-7.56079473781421,2.4150558,-1.2513574,-0.089491755,129.76328,-149.11726,-1.4619443,BSC
698643077000,1.830022,2.18665193442623,6.43318071721311,-7.38976241803279,2.424524,-1.2684617,-0.08399397,129.94633,-149.38931,-1.7161895,BSC
698648096000,1.835041,2.23343751921953,6.29173616172788,-7.27088485689691,2.4178047,-1.3341297,-0.10720685,130.16682,-149.67255,-1.9891129,BSC
698653144000,1.840089,2.34945440118948,6.1605865513773,-7.20026600205551,2.363743,-1.2324207,-0.08399397,130.36928,-149.94022,-2.2103815,BSC
698658045000,1.84499,2.30421755271906,6.02292105934742,-7.13239038928791,2.3878722,-1.1887437,-0.06352998,130.60223,-150.23726,-2.4710736,BSC
698663042000,1.849987,2.15199978573774,5.87561369342294,-7.06364677411246,2.3722951,-1.1667526,-0.045814894,130.81996,-150.50269,-2.7021544,BSC
698668043000,1.854988,2.00962313773269,5.72290475309761,-7.06314552715454,2.3744333,-1.1633929,-0.047647487,131.05798,-150.79605,-2.913181,BSC
698673133000,1.860078,1.87039010562395,5.56446723571358,-7.10155474836994,2.3695462,-1.1472049,-0.04642576,131.2881,-151.07672,-3.1070518,BSC
698678050000,1.864995,1.60424353614697,5.37279784270109,-7.22033234568024,2.3490822,-1.1450669,-0.054367006,131.52693,-151.36336,-3.3323464,BSC
698683344000,1.870289,1.23167436953327,5.14120064115194,-7.40158203006951,2.3258693,-1.0845913,-0.04062254,131.7524,-151.64163,-3.5296295,BSC
698688060000,1.875005,1.20242543976834,5.06058419073359,-7.37436308532819,2.2992969,-1.0125091,-0.05009095,131.96869,-151.95221,-3.7445936,BSC
698693083000,1.880028,1.35565346082046,5.05129765281853,-7.23042179612934,2.2837198,-1.1102476,-0.09621128,132.18529,-152.25342,-3.984509,BSC
698698094000,1.885039,1.51852859157267,5.02819051323246,-7.22920446498854,2.2278256,-1.162782,-0.13164146,132.37048,-152.58907,-4.2502527,BSC
698703072000,1.890017,1.689024703558,4.99321701617607,-7.35161181880789,2.1270328,-1.1258247,-0.16798794,132.535,-152.9023,-4.5173497,BSC
698708046000,1.894991,1.81962270422178,4.79945960624273,-7.56065123325574,2.074193,-1.0458013,-0.19181168,132.72675,-153.2029,-4.7637568,BSC
698713070000,1.900015,1.87562236326315,4.30055365444926,-7.93737601412549,1.9874501,-0.9315695,-0.23060162,132.88734,-153.46121,-4.9917293,BSC
698718072000,1.905017,1.77817561252752,3.87342448829298,-8.28329558405043,1.8750509,-0.8060367,-0.25900686,133.05205,-153.72757,-5.1651206,BSC
698723092000,1.910037,1.4991698994997,3.52707266740044,-8.59597442635581,1.7217237,-0.73426,-0.29901853,133.19,-153.95302,-5.3247633,BSC
698728086000,1.915031,1.04773626494045,3.09051251860187,-9.09629353156742,1.5567901,-0.6795876,-0.310625,133.26451,-154.29929,-5.4376187,BSC
698733043000,1.919988,0.400086803243477,2.5515924839773,-9.8101262129058,1.3726143,-0.58246,-0.26725355,133.32661,-154.58745,-5.516997,BSC
698738037000,1.924982,-0.255930718752472,2.22669248486658,-10.4037092314798,1.1985176,-0.45540005,-0.23915374,133.32835,-154.93288,-5.6197095,BSC
698743083000,1.930028,-0.923222707187069,2.17258776443366,-10.8455647308266,1.0247264,-0.44715336,-0.23884831,133.33607,-155.21735,-5.724239,BSC
698748085000,1.93503,-1.55165656396586,2.09640151527763,-11.3199993165104,0.8054258,-0.32284227,-0.1863139,133.2423,-155.61194,-5.8569803,BSC
698753075000,1.94002,-2.10551917180487,1.97052359967338,-11.8738614511643,0.6423248,-0.19853121,-0.16310102,133.14084,-155.96373,-5.9888315,BSC
698758061000,1.945006,-2.44417150402945,1.88065766756542,-12.3291390111432,0.5354234,-0.12950343,-0.17745635,133.01886,-156.30219,-6.215529,BSC
698763040000,1.949985,-2.47263601754054,1.84270491683415,-12.6422497991245,0.44929138,-0.11056661,-0.18448131,132.89542,-156.59103,-6.415829,BSC
698768024000,1.954969,-2.43804214414815,1.70881448044444,-12.8692703125926,0.41813725,-0.09987647,-0.21930063,132.73862,-156.91739,-6.6912756,BSC
698773117000,1.960062,-2.30255697921296,1.41977937388889,-12.9641099893519,0.39095375,-0.102319926,-0.23701571,132.58185,-157.21236,-6.9578233,BSC
698778038000,1.964983,-2.30033913076194,1.13018637231953,-13.0622770291917,0.398895,-0.10720685,-0.23518312,132.41728,-157.54294,-7.2161007,BSC
698783045000,1.96999,-2.71976569038887,0.801719753369164,-13.1835573440826,0.4007276,-0.25717425,-0.13133603,132.2914,-157.85149,-7.498276,BSC
698788037000,1.974982,-3.11565826119952,0.553179320169258,-13.1900542932573,0.42577308,0.041233405,-0.1282817,132.0714,-158.23799,-7.644592,BSC
698793042000,1.979987,-3.4683905970012,0.460587059576856,-12.9695962668568,0.5198463,0.18387043,-0.14172074,131.90942,-158.6294,-7.856848,BSC
698798078000,1.985023,-3.85704675902192,0.334493787588533,-12.7713743456998,0.5222898,0.29016098,-0.12889257,131.70187,-159.05411,-8.0592165,BSC
698803086000,1.990031,-4.40971305829117,0.0469276057485478,-12.6904966001499,0.50243664,0.39064834,-0.11575896,131.4802,-159.48428,-8.222283,BSC
698808272000,1.995217,-4.95702401359281,-0.228793925497006,-12.6088070688623,0.48502702,0.45204028,-0.12492194,131.26515,-159.90108,-8.43831,BSC
698813048000,1.999993,-5.15787325982036,-0.21509966542515,-12.5585947215569,0.4560109,0.48930305,-0.13133603,131.04782,-160.29556,-8.627694,BSC
698818322000,2.005267,-5.36171654906917,-0.20888561041503,-12.4972702671221,0.41447207,0.5510005,-0.15302174,130.80762,-160.70831,-8.9051075,BSC
698823086000,2.010031,-5.34613188181042,-0.302393190862511,-12.3764892382579,0.3839288,0.6062838,-0.18203785,130.55783,-161.10583,-9.1672945,BSC
698828072000,2.015017,-5.32982097690862,-0.400258177451751,-12.2500798742955,0.35430184,0.64599,-0.21685717,130.308,-161.49559,-9.433681,BSC
698833048000,2.019993,-5.09179354012579,-0.543986704109015,-11.8953133480084,0.301462,0.6545421,-0.23884831,130.05025,-161.86139,-9.68754,BSC
698838073000,2.025018,-4.74877534672956,-0.710451469832285,-11.4312303684486,0.2012801,0.6719518,-0.23915374,129.78418,-162.19733,-9.922574,BSC
698843070000,2.030015,-4.28165922661738,-1.11704564892499,-11.0790317226384,0.09621128,0.6762278,-0.21655174,129.53477,-162.53094,-10.149591,BSC
698848110000,2.035055,-3.7745234336414,-1.59600711132406,-10.7550282203522,-0.018325957,0.7516697,-0.21655174,129.2712,-162.8277,-10.349021,BSC
698853094000,2.040039,-3.17611033287699,-1.70277629208778,-10.4405327979666,-0.13775012,0.8045095,-0.19792034,129.03667,-163.08498,-10.516127,BSC
698858080000,2.045025,-2.54162331230119,-1.67393599122207,-10.1280957033421,-0.26358834,0.81031275,-0.13103059,128.81326,-163.3015,-10.669402,BSC
698863072000,2.050017,-2.06678862185833,-1.63391601800368,-10.0752734455382,-0.38820487,0.7800749,-0.086437434,128.55675,-163.55028,-10.737166,BSC
698868168000,2.055113,-1.64026382951242,-1.58901866403864,-10.1156809281509,-0.44868052,0.79168135,-0.106595986,128.29988,-163.77766,-10.793624,BSC
698873103000,2.060048,-1.45958779488459,-1.77165547916407,-10.1181019132876,-0.571159,0.7669413,-0.093462385,128.08774,-163.931,-10.760411,BSC
698878056000,2.065001,-1.44972428006862,-2.12181234076731,-10.0934429975047,-0.6618725,0.6588182,-0.008246681,127.89946,-164.07181,-10.746148,BSC
698883047000,2.069992,-1.4460979,-2.2505496,-9.88473247163995,-0.7171558,0.6414085,0.014049901,127.70264,-164.17932,-10.644738,BSC
698888037000,2.074982,-1.4460979,-2.2505496,-9.57046553267571,-0.7675522,0.67347896,-0.06505715,127.50884,-164.26366,-10.56358,BSC
698893044000,2.079989,-1.13467587579212,-1.94866094843509,-8.97572898512365,-0.80939645,0.6771441,-0.07971791,127.31746,-164.38005,-10.497105,BSC
698898099000,2.085044,-0.676382329250386,-1.50439686294436,-8.24620048724884,-0.8472701,0.6114761,-0.04886922,127.122696,-164.48523,-10.446429,BSC
698903620000,2.090565,-0.340430158469094,-1.64433488379247,-8.15144295746131,-0.8784242,0.50854534,-0.034513887,126.93015,-164.57411,-10.413612,BSC
698908052000,2.094997,-0.137979473214932,-2.01205144814562,-8.36215731315098,-0.88056225,0.25809056,0.016187929,126.77532,-164.65797,-10.437163,BSC
698913040000,2.099985,0.656693296728905,-1.25558811947158,-8.43089752907247,-0.9428705,0.05222898,-0.065973446,126.65596,-164.62346,-10.410222,BSC
698918042000,2.104987,1.89560727381087,0.415608745818216,-8.36850538524514,-0.93645644,0.06261369,-0.44868052,126.46971,-164.62418,-10.413228,BSC
698923081000,2.110026,2.50563216505999,2.61194650945064,-9.56881367880446,-0.95081174,-0.07147124,-0.43157628,126.36649,-164.65494,-10.458723,BSC
698928061000,2.115006,2.22455665695643,5.4929710047148,-12.5050498753947,-1.196685,-0.28069258,-0.14263703,126.23819,-164.63141,-10.530909,BSC
698933042000,2.119987,-0.420331777941616,6.37563157487297,-14.6466647199362,-1.5241088,-0.25167647,0.36865717,126.384476,-164.24564,-10.299447,BSC
698938103000,2.125048,-5.38449740647604,5.34706412842483,-16.0567197272093,-1.7287487,-0.003970624,0.8775079,126.61048,-163.81493,-10.040336,BSC
698943038000,2.129983,-9.0949910708744,2.32586501982096,-17.0487852559906,-1.4404203,0.050396383,0.5671884,126.99754,-163.12128,-9.820518,BSC
698948097000,2.135042,-11.7849021301564,-2.76043262871869,-17.6884054356633,-0.6059783,0.12186762,-0.08399397,127.3985,-162.54257,-9.520958,BSC
698953094000,2.140039,-12.452629909479,-7.36233077697023,-18.2446732841506,0.5546656,0.27672195,-0.5888741,127.37945,-162.5415,-9.923274,BSC
698958046000,2.144991,-8.57500414327933,-10.9596461331874,-18.6236118585814,1.4388931,0.24129178,-0.8512407,127.260666,-162.72458,-10.359028,BSC
698963041000,2.149986,-5.92784003640424,-13.5142005231714,-18.8777103143495,1.6337591,0.12095132,-0.8414669,126.55056,-163.89705,-11.309225,BSC
698968036000,2.154981,-4.73355796748823,-14.8343969122597,-18.9845468182978,1.6120734,0.4538729,-0.6221663,125.826836,-165.17479,-12.065134,BSC
698973614000,2.160559,-3.46650520969134,-16.2783743010289,-18.9313797772984,1.4388931,1.0934488,-0.05009095,125.11267,-166.72131,-12.309333,BSC
698978069000,2.165014,-3.22578187962164,-17.0807854012612,-16.8923111463657,1.31672,1.1792754,0.08857546,124.381714,-168.20546,-12.603873,BSC
698983073000,2.170018,-3.09529041174681,-17.7142878758369,-14.5172031990262,1.3115277,1.2452488,0.28130344,123.77495,-169.74484,-12.508779,BSC
698988076000,2.175021,-3.72226837132278,-16.8977589948265,-11.6836527999594,1.2382239,0.89827734,0.301462,123.2122,-171.15645,-12.501218,BSC
698993060000,2.180005,-4.29759645964467,-16.048564427242,-9.12937884010152,0.98563105,0.6032294,0.22418754,122.64225,-172.49011,-12.516939,BSC
698998169000,2.185114,-4.66094505296108,-15.0137104952059,-7.74497383248731,0.6536258,0.4343252,0.160963,122.1079,-173.7268,-12.592023,BSC
699003160000,2.190105,-4.99127904329232,-13.9196112186942,-6.46980673258583,0.38087448,0.3481932,0.076358154,121.525826,-174.74724,-12.887102,BSC
699008052000,2.194997,-5.01452254783687,-11.8323387924191,-6.1629917347688,0.1554652,0.22357668,-0.0021380284,120.93219,-175.67383,-13.236701,BSC
699013245000,2.20019,-5.01293816663771,-9.57313773188532,-5.84178581476977,-0.0106901415,0.17134771,-0.08246681,120.35427,-176.42953,-13.622811,BSC
699018043000,2.204988,-4.70243860030891,-6.97381148211217,-5.59782166467806,-0.01863139,0.16920967,-0.15515977,119.7548,-177.1692,-14.023319,BSC
699023482000,2.210427,-4.34035814803384,-4.02551616144836,-5.29508032490471,0.24007004,0.08124508,-0.22510384,119.259766,-177.72792,-14.408633,BSC
699028065000,2.21501,-3.862976899749,-1.51212487167426,-4.59328920317933,0.67103547,-0.15515977,-0.35643986,118.72206,-178.34724,-14.833494,BSC
699033053000,2.219998,-3.34340944034582,1.22337496541787,-3.8294807556196,1.1410962,-0.49205196,-0.5045747,118.33165,-178.75034,-15.236523,BSC
699038043000,2.224988,-2.48826486965912,3.72935087259247,-4.01920657405109,1.5763378,-0.42119157,-0.5656612,117.92282,-179.26988,-15.585138,BSC
699043150000,2.230095,-1.53444767447417,6.24001858006286,-4.43699436210009,1.779145,-0.06169739,-0.4978552,117.50409,-179.8585,-15.939718,BSC
699048085000,2.23503,-0.870717055101219,8.09852434882455,-4.76926864326295,1.7583756,0.2003638,-0.3924809,117.34626,179.79048,-16.138174,BSC
699053148000,2.240093,-0.69656781365259,8.89011183500218,-4.96980394505877,1.7027869,0.32895094,-0.29657507,117.2072,179.40448,-16.27279,BSC
699058044000,2.244989,-0.813829761557448,8.48023723939539,-5.63049616349373,1.6530013,0.34147367,-0.26328292,117.33736,179.4268,-16.170563,BSC
699063044000,2.249989,-1.22152887186071,6.8769260368698,-6.77571849201186,1.6420058,0.34574974,-0.19761491,117.50491,179.47311,-16.036287,BSC
699068071000,2.255016,-1.71565453131046,4.94865133632013,-7.84786109858467,1.6859881,0.33322698,-0.12492194,117.73827,179.62233,-15.868511,BSC
699073137000,2.260082,-2.3380992139497,2.53791329618165,-8.81116845237756,1.767844,0.31490102,-0.028710667,117.99424,179.77785,-15.703339,BSC
699078078000,2.265023,-2.71227985337521,0.4677022665171,-9.467975665171,1.7449366,0.28985557,0.0711658,118.094315,179.79773,-15.640035,BSC
699083074000,2.270019,-2.80292390187456,-1.27838767812344,-9.78284421876558,1.6710218,0.21624629,0.15485434,118.220505,179.82126,-15.595804,BSC
699088032000,2.274977,-2.95687874163913,-2.7439861172505,-10.1639163132849,1.5968018,0.1469131,0.22052236,118.15655,179.58487,-15.667034,BSC
699093074000,2.280019,-3.19851522295345,-3.87922143338684,-10.6426301958266,1.5357152,0.09132435,0.27152961,118.114105,179.37544,-15.751638,BSC
699098085000,2.28503,-3.47359471888693,-4.93309934186481,-11.0343272554252,1.5125023,0.08246681,0.35979962,118.00048,178.92677,-15.836856,BSC
699103120000,2.290065,-3.82406140671789,-5.83429977717786,-11.2496141524245,1.5485435,0.063224554,0.40653083,117.8855,178.48709,-15.939917,BSC
699108032000,2.294977,-3.96429018021565,-6.43247087525967,-11.1107162510139,1.629483,0.013439035,0.40408736,117.690025,177.88213,-16.072151,BSC
699113057000,2.300002,-3.78815331751904,-6.59908698095756,-10.4156892589771,1.7577647,-0.019547688,0.36285394,117.49129,177.26617,-16.203642,BSC
699118030000,2.304975,-3.46599451491228,-6.48533126315789,-9.75019722129186,1.9010127,-0.025350908,0.2742785,117.197014,176.5133,-16.383677,BSC
699123062000,2.310007,-2.87994583508772,-5.88006773684211,-9.11611180143541,2.0347922,0.03726278,0.17715092,116.882675,175.73982,-16.54856,BSC
699128039000,2.314984,-2.45524756158447,-5.31357268526326,-8.47918754554368,2.123673,0.118202426,0.11942416,116.53258,174.91216,-16.699825,BSC
699133098000,2.320043,-2.30323564823022,-4.79578187753701,-7.81413514560251,2.1474967,0.20066923,0.08674286,116.157135,174.07535,-16.828821,BSC
699138132000,2.325077,-2.28382880103318,-4.60329036009479,-7.19037530646446,2.117259,0.25717425,0.0888809,115.87279,173.28752,-16.868382,BSC
699143068000,2.330013,-2.52130453327962,-5.04239645222749,-6.65269453391469,2.0491474,0.32620203,0.105068825,115.58177,172.5145,-16.881996,BSC
699148138000,2.335083,-2.86396687073296,-5.57801409123526,-6.1194452089185,2.0039434,0.39920044,0.12889257,115.334274,171.80923,-16.876265,BSC
699153102000,2.340047,-3.53161214905177,-6.38698579805228,-5.66135273531522,1.9779817,0.43493605,0.14080444,115.08541,171.12782,-16.86462,BSC
699158066000,2.345011,-4.17054512625386,-7.1988948325855,-5.32093462544621,1.9269744,0.4896085,0.14844026,114.7798,170.39133,-16.87574,BSC
699163071000,2.350016,-4.73450642025127,-8.02571943523781,-5.30659669030811,1.9000963,0.56046885,0.1853976,114.48512,169.66902,-16.877392,BSC
699168068000,2.355013,-5.16836637853975,-8.7156690766055,-5.43282086674312,1.824349,0.67073005,0.22449298,114.113335,168.84218,-16.938225,BSC
699173174000,2.360119,-5.23192034675076,-9.0222234793578,-5.97489888830275,1.717753,0.79534656,0.16982053,113.72785,168.03828,-16.972555,BSC
699178060000,2.365005,-5.29273599279052,-9.3155695059633,-6.49362063004587,1.5916094,0.9978484,0.10629055,113.33678,167.10909,-16.98925,BSC
699183077000,2.370022,-5.03914431502487,-9.19188804820343,-7.33198029133223,1.5070046,1.246776,0.03604105,112.945915,166.20842,-16.953896,BSC
699188058000,2.375003,-4.61196136447761,-8.83326540995025,-8.33401414646766,1.4306464,1.5164729,-0.035430185,112.56061,165.35013,-16.853308,BSC
699193070000,2.380015,-4.04410665055718,-7.94165553663734,-8.43790492218964,1.3396275,1.7806722,-0.115453534,112.131996,164.5259,-16.689302,BSC
699198115000,2.38506,-3.44430186624633,-6.93568367089932,-8.35761594173998,1.2208142,1.9501873,-0.17837265,111.71409,163.74637,-16.479795,BSC
699203090000,2.390035,-2.83323288260574,-5.71950455437044,-7.80359301225085,1.1701124,1.9358319,-0.22602014,111.374794,163.05879,-16.169443,BSC
699208081000,2.395026,-2.21513725193972,-4.44148716017501,-7.12508196956733,1.2428054,1.7999145,-0.24556783,111.0404,162.38637,-15.857643,BSC
699213044000,2.399989,-1.74285591704574,-3.48860396309256,-6.74361831562943,1.4434745,1.67316,-0.24129178,110.82122,161.83057,-15.489699,BSC
699218070000,2.405015,-1.3177870860035,-2.64247646530034,-6.46692254855453,1.7015651,1.5906931,-0.21074851,110.60081,161.25226,-15.16212,BSC
699223075000,2.41002,-0.96219801009434,-2.04726826792453,-6.28410187830189,1.9263636,1.5882497,-0.160963,110.514854,160.76486,-14.798911,BSC
699228127000,2.415072,-0.741850461271958,-1.95283366753416,-6.2893481902082,2.0769417,1.6493362,-0.11056661,110.43731,160.24004,-14.456765,BSC
699233075000,2.42002,-0.606998913628977,-2.27044388135095,-6.43554664111601,2.147802,1.7858646,-0.089491755,110.48695,159.77907,-14.034026,BSC
699238057000,2.425002,-0.555620749844347,-3.01776290220264,-6.7298036061674,2.1502457,1.967597,-0.053145275,110.565544,159.31161,-13.601938,BSC
699243067000,2.430012,-0.497255756195453,-3.82669129281421,-6.98186513901228,2.0815234,2.1288655,-0.010079277,110.70303,158.84663,-13.111735,BSC
699248148000,2.435093,-0.429443175049212,-4.72096959770055,-7.1810645911506,1.9703459,2.2504275,0.03634648,110.86582,158.40707,-12.601708,BSC
699253099000,2.440044,-0.352000744593396,-5.6106759878758,-7.36762220542139,1.8597792,2.2892175,0.065973446,111.023186,157.88043,-12.045159,BSC
699258084000,2.445029,-0.210826625618531,-6.60830642207984,-7.51350212508625,1.7571539,2.293799,0.08582657,111.20068,157.39615,-11.483967,BSC
699263200000,2.450145,-0.0481602799767088,-7.59027447496193,-7.65946726973036,1.7088956,2.2525656,0.100792766,111.333954,156.79327,-10.911288,BSC
699268078000,2.455023,0.211301427091284,-8.28077737687002,-7.77664344559706,1.6618589,2.1682663,0.09865474,111.46628,156.23102,-10.364002,BSC
699274058000,2.461003,0.548276864927618,-9.08647192976557,-7.91007567841599,1.611768,1.9859229,0.084910266,111.52849,155.54776,-9.833994,BSC
699278070000,2.465015,0.946601189829084,-9.25513180834968,-7.90648717355001,1.5027285,1.9398025,0.09132435,111.60698,154.90997,-9.307794,BSC
699283073000,2.470018,1.44331519717755,-9.46545219034277,-7.9020122757822,1.4471397,1.815186,0.11575896,111.62713,154.1662,-8.808384,BSC
699288071000,2.475016,1.65690618563014,-9.52551111598095,-7.72516333512343,1.3518448,1.7128662,0.14660765,111.65423,153.48149,-8.331368,BSC
699293070000,2.480015,1.7730157438285,-9.53380482286704,-7.48879745188393,1.2605205,1.63437,0.16187929,111.676216,152.82735,-7.8950224,BSC
699298658000,2.485603,1.86950804111971,-9.55827495865569,-7.17042073033857,1.1801916,1.5845845,0.17379116,111.717094,152.15709,-7.406159,BSC
699303122000,2.490067,1.91929692217786,-9.59028199833624,-6.87168740685467,1.1065824,1.5351044,0.17287487,111.753716,151.52539,-6.9502053,BSC
699308296000,2.495241,1.97841710003462,-9.61754198234378,-6.52629115157521,1.0308352,1.4627168,0.17898351,111.791725,150.90031,-6.5044956,BSC
699313077000,2.500022,2.04974834554267,-9.52639677323871,-6.21718932219145,0.95233893,1.3658947,0.18784106,111.82428,150.30989,-6.0893908,BSC
699318063000,2.505008,2.12413813640298,-9.43134343448156,-5.89483380633547,0.84665924,1.2843442,0.20097467,111.84702,149.71725,-5.689677,BSC
699323148000,2.510093,2.27869202748857,-9.2983193674224,-5.71113064736791,0.7556403,1.2018774,0.20616703,111.85937,149.15427,-5.3249283,BSC
699328103000,2.515048,2.45877076753917,-9.15517931585093,-5.58646059093121,0.65484756,1.1206323,0.19517145,111.861824,148.63463,-4.9893284,BSC
699333074000,2.520019,2.75159062426023,-9.03537966563563,-5.60401382152799,0.5403103,1.0296134,0.17959438,111.85651,148.12912,-4.666082,BSC
699338069000,2.525014,3.10176767684297,-8.92687398979276,-5.69279133312713,0.419359,0.91721416,0.15485434,111.83258,147.66219,-4.373145,BSC
699343054000,2.529999,3.46371854161771,-8.80641916529598,-5.8140246228197,0.3042109,0.782213,0.11789699,111.808655,147.2305,-4.075231,BSC
699348153000,2.535098,3.83884111924989,-8.67843633899684,-5.95083381120651,0.24098633,0.6258314,0.06566802,111.75571,146.82425,-3.8103027,BSC
699353108000,2.540053,4.17251629531813,-8.40781958594347,-6.18219598684929,0.18906279,0.5510005,0.03359759,111.72183,146.46246,-3.5015936,BSC
699358080000,2.545025,4.47911201920768,-8.0024895355233,-6.50438136980247,0.18417588,0.44409904,0.025045475,111.652824,146.11017,-3.2393692,BSC
699363075000,2.55002,4.60109633543697,-7.44085284780316,-6.74829324133248,0.17898351,0.35613444,0.029321533,111.60304,145.79988,-2.924518,BSC
699368281000,2.555226,4.63694175395431,-6.77970594428822,-6.96336533655536,0.1966986,0.25809056,0.040317107,111.53548,145.48953,-2.6427145,BSC
699373054000,2.559999,4.663905,-6.2823853,-7.1251445,0.22602014,0.17379116,0.058643065,111.512886,145.25081,-2.3329146,BSC
699378068000,2.565013,4.663905,-6.2823853,-7.1251445,0.2932153,0.116980694,0.084910266,111.48413,145.00085,-2.0477493,BSC
699383049000,2.569994,4.59293454732117,-6.18725473045554,-7.10702432168847,0.364992,0.09132435,0.109650314,111.51073,144.87282,-1.7644295,BSC
699388074000,2.575019,4.37692817257187,-5.89771438402254,-7.05187356698501,0.4269948,0.09437868,0.13622294,111.53921,144.73189,-1.4960259,BSC
699393047000,2.579992,4.213795,-5.6790466,-7.0102224,0.46486846,0.095294975,0.15210545,111.57155,144.57814,-1.2366247,BSC
699398179000,2.585124,4.213795,-5.6790466,-7.0102224,0.4709771,0.09437868,0.1600467,111.60807,144.4197,-0.98392504,BSC
699403100000,2.590045,4.20967176113727,-5.71340740224556,-6.97998492272727,0.45723262,0.10048734,0.15699236,111.665695,144.29181,-0.7606509,BSC
699408092000,2.595037,4.19668550977907,-5.8216276702644,-6.88475117727273,0.42058071,0.095294975,0.13500121,111.71814,144.17224,-0.54163,BSC
699413064000,2.600009,4.18778022438477,-5.93928340691494,-6.80360584130252,0.37812558,0.08979719,0.093462385,111.77385,144.0586,-0.31743804,BSC
699418062000,2.605007,4.21465288077103,-6.14530796327314,-6.84391487264901,0.33353242,0.081855945,0.051923547,111.82283,143.95956,-0.094883315,BSC
699423459000,2.610404,4.23979067347251,-6.37091614023176,-6.88591935539169,0.2947425,0.08124508,0.018020526,111.86138,143.84155,0.13364983,BSC
699428083000,2.615028,4.18041837176786,-6.62960919014557,-6.89016030999808,0.25717425,0.06261369,-0.01160644,111.887054,143.73941,0.3587717,BSC
699433029000,2.619974,4.11691158019537,-6.90631676472898,-6.89469659059567,0.2302962,0.05497787,-0.04795292,111.90236,143.61847,0.59623665,BSC
699438069000,2.625014,3.99308801429791,-7.24949112818811,-6.87143291988243,0.19822577,0.04795292,-0.070554934,111.911514,143.51349,0.8277863,BSC
699443027000,2.629972,3.86253226786764,-7.59613933260643,-6.84442129212098,0.14844026,0.03848451,-0.094989546,111.91088,143.42496,1.0590419,BSC
699448108000,2.635053,3.77539923171437,-7.87077351775893,-6.76868562990584,0.09437868,0.028710667,-0.13225232,111.89291,143.30518,1.2796879,BSC
699453047000,2.639992,3.70484846905938,-8.1132914478419,-6.68049729169386,0.03940081,0.011911872,-0.1459968,111.87296,143.2036,1.4920065,BSC
699458086000,2.645031,3.65833202169086,-8.3191003736123,-6.59201216140051,0.01038471,-0.004581489,-0.15363261,111.82858,143.05307,1.6796935,BSC
699463075000,2.65002,3.62773083347566,-8.49760783742528,-6.50530858176772,-0.035124753,-0.016493361,-0.1563815,111.781456,142.92703,1.8614106,BSC
699468068000,2.655013,3.62967514717184,-8.54572611617885,-6.38064849728856,-0.079107046,-0.028405234,-0.16371189,111.714264,142.7618,2.022424,BSC
699473154000,2.660099,3.64279445175076,-8.55009930903214,-6.24070933977375,-0.106901415,-0.04642576,-0.16126843,111.64702,142.60901,2.1737864,BSC
699478102000,2.665047,3.69379915689981,-8.49115790233144,-6.11081146112161,-0.13408493,-0.06291912,-0.15974127,111.57002,142.43692,2.3153431,BSC
699483060000,2.670005,3.77857033484562,-8.37646679290065,-5.98614780487293,-0.15577064,-0.099571034,-0.16554448,111.48668,142.27545,2.4450705,BSC
699488070000,2.675015,3.84494262334528,-8.231700875165,-5.94318229530454,-0.18997909,-0.13713925,-0.18417588,111.394714,142.11084,2.5727394,BSC
699493074000,2.680019,3.89916360075429,-8.06903817884217,-5.9522192192344,-0.22968534,-0.1600467,-0.19456059,111.30086,141.95764,2.691536,BSC
699498141000,2.685086,3.94774010775937,-7.89261540614163,-6.03468802706578,-0.27000242,-0.19608775,-0.21685717,111.20033,141.82002,2.818868,BSC
699503187000,2.690132,3.98987134821273,-7.70536559521457,-6.18916943758597,-0.2910773,-0.20372356,-0.22937989,111.10221,141.69115,2.944381,BSC
699508079000,2.695024,4.00816690930918,-7.51368306831824,-6.35408020886173,-0.32436943,-0.22082779,-0.25167647,111.00173,141.60675,3.076701,BSC
699513074000,2.700019,3.99772576208665,-7.30485985130416,-6.54202080435447,-0.3371976,-0.21380283,-0.26389378,110.905334,141.5245,3.2101524,BSC
699518071000,2.705016,4.06073662934846,-7.09209683429857,-6.64837713513989,-0.36926803,-0.20769419,-0.27305678,110.82152,141.50671,3.349459,BSC
699523144000,2.710089,4.17480399217374,-6.87346790418705,-6.70065811729603,-0.39736784,-0.20372356,-0.27122417,110.74006,141.4924,3.487019,BSC
699528137000,2.715082,4.07548871369739,-6.76394784280811,-6.78864432876754,-0.42852196,-0.18753563,-0.2761111,110.67951,141.53726,3.629957,BSC
699533072000,2.720017,3.81788051817907,-6.73532474318159,-6.90313672727364,-0.46761733,-0.20738874,-0.30176744,110.610695,141.59277,3.7660823,BSC
699538071000,2.725016,3.63106330257381,-6.61406475662377,-7.02014741896291,-0.5103779,-0.22907446,-0.3118467,110.56714,141.69864,3.9246397,BSC
699543070000,2.730015,3.49968941228236,-6.42379907021196,-7.13793105850681,-0.5458081,-0.24831672,-0.3182608,110.5174,141.8132,4.079982,BSC
699548118000,2.735063,3.36499067479715,-6.21338901710822,-7.23022716130609,-0.59559363,-0.25320363,-0.29932398,110.476585,141.95502,4.1809864,BSC
699553669000,2.740614,3.21427562520285,-5.95873248289178,-7.29778883869391,-0.6239988,-0.26267207,-0.2996294,110.42768,142.09949,4.279024,BSC
699558080000,2.745025,3.09330075403393,-5.75906846412909,-7.35499140513033,-0.62949663,-0.29871312,-0.30695978,110.39617,142.29172,4.3412185,BSC
699563072000,2.750017,2.9548432347952,-5.53654732751345,-7.42422024220108,-0.6469063,-0.31795537,-0.31031954,110.36874,142.49213,4.4031606,BSC
699568058000,2.755003,2.84081464728009,-5.3808685646412,-7.49333591979167,-0.65484756,-0.3463606,-0.31795537,110.34674,142.73009,4.4302073,BSC
699573176000,2.760121,2.75099320428241,-5.2957747556713,-7.56424776458333,-0.67103547,-0.37048978,-0.3173445,110.32543,142.97108,4.4528584,BSC
699578056000,2.765001,2.67700990830521,-5.24611949897719,-7.64340102045617,-0.6899723,-0.39064834,-0.3359759,110.30585,143.25174,4.4487553,BSC
699583074000,2.770019,2.61802698031093,-5.24120425070062,-7.74170598598752,-0.7122689,-0.39400807,-0.35796702,110.28687,143.53308,4.444418,BSC
699588064000,2.775009,2.5777204836708,-5.24051786338527,-7.85966050275264,-0.74281216,-0.4175264,-0.376293,110.26823,143.8386,4.4127865,BSC
699593075000,2.78002,2.55980885891574,-5.24499573450593,-8.00295209806849,-0.7431176,-0.41630468,-0.37934732,110.2544,144.13638,4.388868,BSC
699598068000,2.785013,2.49853607571891,-5.26390906445186,-8.13792992168024,-0.7696902,-0.41722095,-0.35521814,110.24417,144.45526,4.3453298,BSC
699603123000,2.790068,2.33699273275101,-5.3161730215134,-8.2567122511532,-0.7959574,-0.41630468,-0.38545597,110.223816,144.76955,4.3142323,BSC
699608033000,2.794978,2.20312767446627,-5.34675945516652,-8.37611186101622,-0.80573124,-0.42821655,-0.40011674,110.21316,145.09726,4.266205,BSC
699613072000,2.800017,2.1310092999146,-5.32100289282664,-8.5100460927626,-0.8210029,-0.4175264,-0.40958515,110.20334,145.42786,4.2302294,BSC
699618027000,2.804972,2.04025980325733,-5.2745036017175,-8.58674329760142,-0.83169305,-0.42852196,-0.3979787,110.19254,145.75415,4.149182,BSC
699623661000,2.810606,1.90178880716612,-5.18396476014214,-8.57609147290495,-0.82650065,-0.44715336,-0.3903429,110.181725,146.07333,4.074646,BSC
699628156000,2.815101,1.84788073277328,-5.08063497529156,-8.58220263747776,-0.8216137,-0.46486846,-0.37934732,110.172714,146.40494,3.9846632,BSC
699633080000,2.820025,1.87118383773473,-4.92217395888516,-8.610166460763,-0.81245077,-0.46853364,-0.35705075,110.170074,146.72577,3.8949735,BSC
699638046000,2.824991,1.86120464734814,-4.7917077004955,-8.61075516168104,-0.8020661,-0.48502702,-0.37384954,110.156944,147.05075,3.7705116,BSC
699643074000,2.830019,1.78609113481373,-4.71659404955038,-8.55773416810424,-0.7870999,-0.49296826,-0.3662137,110.158226,147.36305,3.645922,BSC
699648117000,2.835062,1.71804381817465,-4.6402874926572,-8.52617063221959,-0.7690793,-0.4990769,-0.35155296,110.16123,147.69666,3.5331008,BSC
699653112000,2.840057,1.6850403870688,-4.56013625359748,-8.59689202414745,-0.7703011,-0.48075095,-0.34391713,110.16953,148.02379,3.4296694,BSC
699658095000,2.84504,1.64906478329531,-4.50696794807134,-8.66164591948362,-0.7480045,-0.46944994,-0.3436117,110.15774,148.34137,3.3065526,BSC
699663078000,2.850023,1.59463367206553,-4.61583027386976,-8.69133543332642,-0.7107417,-0.47952923,-0.3454443,110.14984,148.64748,3.1876004,BSC
699668069000,2.855014,1.56421382757595,-4.70779967300273,-8.71010485528854,-0.6627888,-0.4822781,-0.37018433,110.13773,148.96072,3.0705383,BSC
699673141000,2.860086,1.62667781895997,-4.73512769216364,-8.68668099610191,-0.64721173,-0.50335294,-0.3811799,110.12729,149.26501,2.9504302,BSC
699678138000,2.865083,1.68821815116541,-4.76205161009484,-8.66360350707282,-0.65118235,-0.5186246,-0.40042216,110.096054,149.53908,2.8279119,BSC
699683075000,2.87002,1.65769275702609,-4.78731877124594,-8.57431711453421,-0.6450737,-0.49693888,-0.40225476,110.07155,149.79907,2.7138448,BSC
699688034000,2.874979,1.59299737176988,-4.81220159174264,-8.45985608828461,-0.6533204,-0.47433686,-0.40286562,110.04333,150.0581,2.6040118,BSC
699693366000,2.880311,1.46937262043849,-4.82859607455279,-8.36457328933125,-0.657291,-0.4529566,-0.4120286,109.99965,150.305,2.5161068,BSC
699698074000,2.885019,1.34942581478763,-4.84100431713604,-8.28598713393267,-0.6585127,-0.43371433,-0.4202753,109.96172,150.54753,2.4366198,BSC
699703097000,2.890042,1.24294683552767,-4.79889148494137,-8.27399619142152,-0.6603453,-0.419359,-0.4251622,109.90499,150.77011,2.3556767,BSC
699708074000,2.895019,1.14979605031886,-4.72535147218679,-8.30341229890969,-0.6731735,-0.398895,-0.43676865,109.85084,150.99103,2.2859483,BSC
699713043000,2.899988,1.05535994117359,-4.62524456342992,-8.3481916230357,-0.6817256,-0.35796702,-0.43371433,109.78768,151.19312,2.19107,BSC
699718047000,2.904992,0.959593617351258,-4.51206602866745,-8.40042794677082,-0.71685034,-0.30909783,-0.42241332,109.7305,151.40137,2.1073117,BSC
699723098000,2.910043,0.835438457740243,-4.40706177839729,-8.47374348934077,-0.7467828,-0.27550024,-0.4111123,109.67248,151.62094,2.0111547,BSC
699728062000,2.915007,0.684718116369301,-4.31351151623483,-8.56729429419482,-0.7733554,-0.25045475,-0.41386122,109.62214,151.84413,1.9292237,BSC
699733071000,2.920016,0.579770191230996,-4.2100753320255,-8.59074357135851,-0.7666359,-0.2406809,-0.41996986,109.57548,152.08826,1.829097,BSC
699738059000,2.925004,0.500115960580677,-4.10230762275625,-8.57668665836194,-0.75777835,-0.25900686,-0.43493605,109.52862,152.33319,1.7342082,BSC
699743073000,2.930018,0.480821312661772,-3.9969981735487,-8.64636767342144,-0.72784597,-0.2846632,-0.44440445,109.494026,152.58597,1.5994847,BSC
699748107000,2.935052,0.49969929068233,-3.89316934864415,-8.7690745650514,-0.7165449,-0.30940324,-0.45234573,109.45693,152.83475,1.4691262,BSC
699753091000,2.940036,0.572854182120403,-3.8498764,-8.91674482853914,-0.713796,-0.3368922,-0.4700608,109.40291,153.08905,1.3304987,BSC
699758063000,2.945008,0.68536346261352,-3.8498764,-9.08306267238545,-0.6973027,-0.32559118,-0.47647488,109.35527,153.32936,1.201871,BSC
699763103000,2.950048,0.720441934179687,-3.87452761940104,-9.13105921687825,-0.65301496,-0.31978795,-0.47250426,109.30188,153.59082,1.0654718,BSC
699768065000,2.95501,0.708840351757813,-3.91319956080729,-9.10785597127279,-0.5852089,-0.28619036,-0.46883908,109.255905,153.83365,0.94649124,BSC
699773123000,2.960068,0.716659559355464,-3.96227321639362,-9.07545548792843,-0.52870387,-0.25381452,-0.48472157,109.2083,154.08336,0.84527934,BSC
699778064000,2.965009,0.813562006143565,-4.05407543069627,-9.0040538307825,-0.50823987,-0.23365596,-0.47739118,109.17379,154.31729,0.7513057,BSC
699783066000,2.970011,0.897436161549955,-4.14927849280805,-8.93199134634924,-0.52015173,-0.2125811,-0.4810564,109.11148,154.53201,0.666604,BSC
699788075000,2.97502,0.949998429116446,-4.24962479420261,-8.86031559497958,-0.5390886,-0.1685988,-0.47739118,109.061775,154.7373,0.5952318,BSC
699793067000,2.980012,0.984970510001977,-4.36523886489425,-8.79049377011267,-0.5561928,-0.12522738,-0.4633413,108.99752,154.92535,0.5458982,BSC
699798131000,2.985076,0.980177377446136,-4.51861905663174,-8.72339001442973,-0.5665775,-0.07941248,-0.46700647,108.93836,155.11209,0.5122069,BSC
699803086000,2.990031,0.975540850265756,-4.61524988861997,-8.69210845083523,-0.6075055,-0.0720821,-0.47708577,108.853714,155.28917,0.49194872,BSC
699808081000,2.995026,0.971000596279423,-4.57892780932043,-8.74659168830676,-0.6218608,-0.062308256,-0.48624873,108.777,155.45743,0.4848664,BSC
699813067000,3.000012,1.01204289658785,-4.51000310575676,-8.78072728474509,-0.64660084,-0.042760566,-0.4822781,108.67284,155.6071,0.47339892,BSC
699818073000,3.005018,1.27033286815325,-4.2851950981742,-8.71854610206525,-0.6560693,-0.047647487,-0.4728097,108.56908,155.75267,0.4587409,BSC
699823106000,3.010051,1.49236316886633,-4.07738598311713,-8.66064350479413,-0.68875057,-0.030848695,-0.46517387,108.469376,155.92186,0.45336273,BSC
699828161000,3.015106,1.53787057115059,-3.95451622028577,-8.62423781105471,-0.68936145,-0.008552114,-0.44868052,108.37763,156.08032,0.44636592,BSC
699833246000,3.020191,1.57861793165755,-3.84146597930164,-8.58884083571729,-0.70616025,0.03176499,-0.4456262,108.30271,156.29633,0.5011023,BSC
699838074000,3.025019,1.55916624057636,-3.85605478569626,-8.56938919541439,-0.73761976,0.04550946,-0.44837508,108.23237,156.51196,0.5519715,BSC
699843063000,3.030008,1.50129138586374,-3.86354693722712,-8.58279404160145,-0.7623598,0.05467244,-0.43463063,108.1739,156.7503,0.6195887,BSC
699848144000,3.035089,1.20465884712085,-3.82346140924294,-8.80727219466183,-0.77640975,0.09254608,-0.4364632,108.11751,156.98958,0.6984288,BSC
699853161000,3.040106,0.911762675722877,-3.7838807963918,-9.02892283309993,-0.7651087,0.129198,-0.4352415,108.052315,157.22203,0.7697154,BSC
699858079000,3.045024,0.925822682808425,-3.63258558427282,-9.05750893460381,-0.7644979,0.14477506,-0.43585235,107.99019,157.45651,0.8437594,BSC
699863105000,3.05005,1.05617292541625,-3.43464642966901,-9.01405898816449,-0.7892379,0.22907446,-0.4269948,107.94444,157.69012,0.9422671,BSC
699868073000,3.055018,1.0620849378901,-3.34105142647904,-8.95274628719127,-0.78038037,0.269697,-0.39828414,107.893425,157.93001,0.95228916,BSC
699873114000,3.060059,1.02049099348076,-3.28559275350373,-8.88342312693854,-0.79076505,0.3145956,-0.3643811,107.85881,158.17659,0.9843016,BSC
699878196000,3.065141,1.07055303655609,-3.09808957753165,-8.858546,-0.79809546,0.31764993,-0.42241332,107.813705,158.45464,1.0547185,BSC
699883070000,3.070015,1.1673306572021,-2.84850530221519,-8.858546,-0.8035932,0.30909783,-0.42210788,107.79872,158.72879,1.1223682,BSC
699888069000,3.075014,1.22184574321843,-2.64197990840608,-8.90316439780398,-0.8014552,0.35185838,-0.42271876,107.766624,159.00435,1.1968011,BSC
699893074000,3.080019,1.26498482516425,-2.44785379189992,-8.95924553316533,-0.8054258,0.41508293,-0.4111123,107.741714,159.27716,1.2718241,BSC
699898142000,3.085087,1.34607184010179,-2.28176496734175,-9.03685611313752,-0.8020661,0.4822781,-0.408058,107.72714,159.59128,1.3825353,BSC
699903090000,3.090035,1.45158632679461,-2.1410790200615,-9.12729680192981,-0.79626286,0.5271767,-0.44043383,107.71231,159.89964,1.5037593,BSC
699908073000,3.095018,1.4912153446624,-2.17223455572992,-9.20309934152385,-0.7687739,0.5714644,-0.441961,107.71962,160.24323,1.6526233,BSC
699913096000,3.100041,1.50114808602106,-2.28149465881685,-9.27262842731778,-0.7696902,0.63041294,-0.39950588,107.737526,160.58617,1.8123932,BSC
699918076000,3.105021,1.54555845557283,-2.45500981277816,-9.26850201739384,-0.77640975,0.70646566,-0.35888332,107.762794,160.954,2.0023122,BSC
699923117000,3.110062,1.60185233271791,-2.6520384072782,-9.24035500534448,-0.79504114,0.7480045,-0.37568212,107.7871,161.31848,2.19517,BSC
699928079000,3.115024,1.57810366225594,-2.83473085984826,-9.21185297976732,-0.7870999,0.7861836,-0.37232238,107.817795,161.65619,2.4008555,BSC
699933077000,3.120022,1.51999757661103,-3.01389118525038,-9.18280036671725,-0.795652,0.8194757,-0.3118467,107.863174,161.99654,2.6071966,BSC
699938070000,3.125015,1.5550704414795,-3.10750457440928,-9.10303685872923,-0.8020661,0.8335256,-0.2846632,107.87535,162.29297,2.824056,BSC
699943082000,3.130027,1.62720716947483,-3.16761857020122,-9.00284707497704,-0.8063421,0.8374963,-0.28008172,107.90011,162.58499,3.0378778,BSC
699948078000,3.135023,1.66777712068199,-3.15598026738325,-8.87637971756857,-0.82772243,0.8359691,-0.2773328,107.906494,162.84305,3.2347457,BSC
699953087000,3.140032,1.6423771993752,-2.99342100441597,-8.69350055999153,-0.8698721,0.8200866,-0.25534168,107.91913,163.10297,3.4213667,BSC
699958046000,3.144991,1.67269122611629,-2.76584132084739,-8.59648238122643,-0.8888089,0.80909103,-0.24709499,107.91336,163.34204,3.624878,BSC
699963091000,3.150036,1.77816156159952,-2.44463626284977,-8.61086448581068,-0.88147855,0.8029824,-0.26358834,107.906456,163.5811,3.8202703,BSC
699968035000,3.15498,1.90621323170684,-2.12712136446631,-8.70008560609936,-0.8765916,0.788627,-0.26267207,107.90517,163.84122,4.00396,BSC
699973086000,3.160031,2.07276867718642,-1.7987692459518,-8.89995216055091,-0.86345804,0.8026769,-0.2657264,107.900894,164.09254,4.1905613,BSC
699978036000,3.164981,2.24050915104323,-1.54894642237197,-9.06993285115304,-0.86070913,0.84207773,-0.26908615,107.91611,164.4061,4.4051304,BSC
699983096000,3.170041,2.41950181431566,-1.41349254097035,-9.20054874213836,-0.86070913,0.86101454,-0.27275133,107.93041,164.7113,4.6128993,BSC
699988027000,3.174972,2.57682712467076,-1.40226746368159,-9.32847539625402,-0.86254174,0.890947,-0.2751948,107.97393,165.0895,4.863885,BSC
699993062000,3.180007,2.70853503292362,-1.59512549850746,-9.46018404126427,-0.8713993,0.92149025,-0.2611449,108.02236,165.46257,5.112964,BSC
699998091000,3.185036,2.84830221294256,-1.7646961670535,-9.57480020466168,-0.86162543,0.97097033,-0.2855795,108.06698,165.86363,5.410601,BSC
700003092000,3.190037,3.0037398638867,-1.8871621384343,-9.65487374960661,-0.8570439,0.9630291,-0.29779682,108.11604,166.26062,5.691293,BSC
700008065000,3.19501,3.20885502277973,-1.93880122508781,-9.61590680180632,-0.8536842,1.0122037,-0.3032946,108.14886,166.62279,6.018077,BSC
700013094000,3.200039,3.53750519420973,-1.82280699943803,-9.29208966843954,-0.84971356,0.9966267,-0.27366763,108.18219,166.97578,6.3149457,BSC
700018436000,3.205381,3.7513995629774,-1.81493643300857,-9.12539807112237,-0.8756753,0.9783007,-0.24312437,108.205154,167.31548,6.646027,BSC
700023115000,3.21006,3.72083945674201,-1.99393152330475,-9.26510159625877,-0.91690874,0.95081174,-0.21594086,108.23287,167.65099,6.959947,BSC
700028083000,3.215028,3.74884491422971,-2.12851013406507,-9.31044699882399,-0.9398162,0.9370673,-0.19120082,108.274445,168.00156,7.3340945,BSC
700033075000,3.22002,3.95499205903567,-2.10039906860055,-9.05276263974912,-0.9443977,0.915687,-0.1826487,108.31532,168.3519,7.6895785,BSC
700038056000,3.225001,4.19541279351716,-2.01625814942798,-8.80834140393077,-0.95111716,0.8698721,-0.17562376,108.34319,168.6704,8.0117445,BSC
700043073000,3.230018,4.57125599891464,-1.71558370284541,-8.61102422147257,-0.945314,0.7996226,-0.18142697,108.366394,168.98088,8.313572,BSC
700048083000,3.235028,4.89833270537475,-1.48649321216963,-8.45067766587771,-0.94134337,0.7968737,-0.13316862,108.40706,169.28926,8.659219,BSC
700053062000,3.240007,4.98297693293886,-1.61345957806706,-8.47418993767258,-0.9254609,0.8011498,-0.071776666,108.445564,169.58662,8.980067,BSC
700058064000,3.245009,5.07256126933836,-1.71486113371689,-8.52536189187581,-0.9129381,0.7837401,-0.099571034,108.49574,169.94406,9.369734,BSC
700063085000,3.25003,5.1918083010118,-1.64808282984823,-8.75431570657673,-0.8793405,0.7724391,-0.124005646,108.56313,170.28235,9.75168,BSC
700068064000,3.255009,5.30409958215376,-1.5669990511446,-8.9689395610454,-0.872621,0.75991637,-0.13805555,108.61354,170.59924,10.135337,BSC
700073116000,3.260061,5.37332205338611,-1.37317563054178,-9.09354046222816,-0.8686504,0.74036866,-0.17470746,108.648346,170.9045,10.508772,BSC
700078348000,3.265293,5.44487276914498,-1.14729883920818,-9.22862834395911,-0.86376345,0.7031059,-0.24770586,108.666504,171.22815,10.885229,BSC
700083074000,3.270019,5.50796750446097,-0.663572166174721,-9.41791298912639,-0.78984874,0.625526,-0.32559118,108.66886,171.5278,11.238348,BSC
700088062000,3.275007,5.57456008587361,-0.153028652613383,-9.61769119693309,-0.66339964,0.49357912,-0.33444872,108.671265,171.84921,11.574566,BSC
700093073000,3.280018,5.55494153160039,0.0150107866401552,-9.45358469563531,-0.50335294,0.36102137,-0.36132678,108.64227,172.13959,11.884263,BSC
700098075000,3.28502,5.52241766401552,0.131167885606208,-9.23520882541222,-0.33261612,0.2125811,-0.34300083,108.61776,172.38382,12.143118,BSC
700103088000,3.290033,5.57426044771541,-0.00425341139524976,-8.9782322895942,-0.204029,0.07971791,-0.35155296,108.58906,172.70615,12.379313,BSC
700108056000,3.295001,5.64520374169773,-0.196813631107679,-8.71472933677708,-0.12308934,0.06963864,-0.32253686,108.575745,172.9844,12.599432,BSC
700113071000,3.300016,5.96545757226314,-0.27726895743133,-8.79782885449841,-0.0870483,0.2312125,-0.33322698,108.55156,173.25468,12.836111,BSC
700118038000,3.304983,6.3015770031051,-0.348280106950637,-8.90671233598726,-0.11728613,0.43279803,-0.269697,108.55845,173.50966,13.072555,BSC
700123091000,3.310036,6.56669086190003,-0.410441879651993,-8.86391432694568,-0.18845193,0.5723807,-0.18661933,108.55985,173.72342,13.356607,BSC
700128110000,3.315055,6.82303128513965,-0.471268407764621,-8.80743277022508,-0.25534168,0.52626044,-0.18142697,108.556854,173.94191,13.638398,BSC
700133059000,3.320004,7.05187284308695,-0.534677024215119,-8.96231441730628,-0.3295618,0.29443705,-0.16493362,108.577965,174.16937,13.950707,BSC
700138063000,3.325008,7.27357219306067,-0.600179121151299,-9.2041679283987,-0.36041048,0.14905111,-0.23335053,108.57572,174.40474,14.26814,BSC
700143069000,3.330014,6.9647195173877,-0.34627861154271,-10.0333304596834,-0.3484986,-0.17684549,-0.25900686,108.58212,174.63425,14.50747,BSC
700148150000,3.335095,6.52129942203608,-0.0103543017010309,-11.0187086572165,-0.27122417,-0.44257188,-0.30970868,108.55862,174.85654,14.718422,BSC
700153118000,3.340063,6.3685765,0.10534488,-11.2562041846265,-0.124005646,-0.64476824,-0.33414328,108.528175,175.0481,14.873541,BSC
700158079000,3.345024,6.3685765,0.10534488,-11.099128232772,0.004581489,-0.7519751,-0.31764993,108.49133,175.21997,14.9764805,BSC
700163078000,3.350023,5.74490595487913,-0.0785261222452914,-10.9373368413911,0.12064589,-0.7672467,-0.28619036,108.43333,175.42276,14.919773,BSC
700168079000,3.355024,4.85351515860893,-0.341326603019428,-10.7739744260715,0.21991149,-0.7501425,-0.2687807,108.377304,175.58867,14.8427,BSC
700173425000,3.36037,3.93703455172414,-0.593728415882717,-10.5989999640719,0.2947425,-0.6591236,-0.24465153,108.33191,175.72052,14.791234,BSC
700178068000,3.365013,3.57896318965517,-0.469780640392319,-10.4429173173653,0.3827071,-0.5213735,-0.23915374,108.289375,175.81766,14.758835,BSC
700183088000,3.370033,3.20814321638886,-0.326403838357121,-10.2658402999301,0.44715336,-0.3539964,-0.23823744,108.184586,175.80902,14.554163,BSC
700188075000,3.37502,3.06513642449346,-0.0546907446092424,-9.9750597235253,0.46792278,-0.20219639,-0.25045475,108.083626,175.78757,14.392445,BSC
700193170000,3.380115,2.92569841919923,0.196677949937289,-9.67026006029908,0.42332962,-0.12492194,-0.25686884,107.96671,175.789,14.189573,BSC
700198118000,3.385063,2.86626575469368,0.141817122861553,-9.28623415619874,0.3417791,-0.116675265,-0.2657264,107.852196,175.79448,14.019197,BSC
700203788000,3.390733,2.81793648265598,0.00147279179927494,-8.83361248549895,0.2687807,-0.1432479,-0.26633725,107.72964,175.86017,13.851287,BSC
700208048000,3.394993,2.89577889937035,-0.551208179923679,-8.42104802642625,0.22876903,-0.17195857,-0.27122417,107.61052,175.93701,13.693819,BSC
700213041000,3.399986,2.98701532816256,-1.19898660523183,-7.93749536348025,0.18692477,-0.18661933,-0.28130344,107.49074,176.01363,13.55488,BSC
700218064000,3.405009,3.03346978388639,-1.80067662965879,-7.44257754472253,0.13439035,-0.19792034,-0.28008172,107.37818,176.10127,13.414894,BSC
700223065000,3.41001,3.07387507930259,-2.39328594146982,-6.94873643592051,0.07971791,-0.21288654,-0.27885997,107.26799,176.19907,13.275974,BSC
700228059000,3.415004,3.05040685698187,-2.73410123603114,-6.5505544321381,0.013744468,-0.23915374,-0.26053402,107.146545,176.16795,13.181853,BSC
700233028000,3.419973,3.00652963502715,-2.99248862515111,-6.18491178126217,-0.07147124,-0.24495697,-0.2556471,107.023926,176.15767,13.091615,BSC
700238127000,3.425072,3.02285323477979,-2.90078000997409,-6.22571818264249,-0.19272798,-0.28344148,-0.26236662,106.87782,176.04317,13.005696,BSC
700243024000,3.429969,3.05322727599926,-2.72721371062176,-6.36457133086603,-0.26816985,-0.2864958,-0.26908615,106.73495,175.93884,12.929547,BSC
700248090000,3.435035,3.21665982369554,-2.31163303197797,-6.67406852676014,-0.40530908,-0.2666427,-0.25289822,106.58443,175.82758,12.8505335,BSC
700253069000,3.440014,3.45065716614922,-1.7720065686029,-7.0704314331998,-0.5357288,-0.21380283,-0.22143865,106.43828,175.73357,12.781306,BSC
700258047000,3.444992,3.66948676939873,-1.37547222696155,-7.44316547558,-0.6560693,-0.13744467,-0.18325958,106.30486,175.71483,12.729366,BSC
700263047000,3.449992,3.88090380399775,-1.05642473157743,-7.80449617317974,-0.7452556,-0.0693332,-0.14080444,106.18468,175.71948,12.690402,BSC
700268062000,3.455007,4.09840474309484,-0.7773642408802,-8.18784280083194,-0.7965683,-0.0009162979,-0.098043874,106.109245,175.86627,12.708437,BSC
700273500000,3.460445,4.36703018036606,-0.721039558695508,-8.7294264312812,-0.79198676,0.059253927,-0.043066,106.05311,176.01576,12.742296,BSC
700278079000,3.465024,4.59322287570715,-0.673612063343594,-9.18546016497504,-0.77366084,0.11301007,-0.0033597588,106.0281,176.2679,12.821633,BSC
700283047000,3.469992,4.65051090919773,-0.622629549257558,-9.514774917637,-0.71929383,0.17012598,0.03726278,106.02213,176.50067,12.916606,BSC
700288026000,3.474971,4.64541702147207,-0.57169168258733,-9.78983953594702,-0.6417139,0.21074851,0.067500606,106.026566,176.71573,13.019979,BSC
700293043000,3.479988,4.53608716021905,-0.382631385528123,-9.93834865212549,-0.5363397,0.23609942,0.09437868,106.046906,176.9283,13.152935,BSC
700298083000,3.485028,4.41064837128272,-0.172073190168925,-10.0682673527009,-0.41141775,0.2434298,0.11789699,106.07575,177.10753,13.288659,BSC
700303061000,3.490006,4.244399970463,0.0172790346134766,-10.07494704537,-0.28160888,0.22815818,0.12705997,106.106926,177.26476,13.405202,BSC
700308093000,3.495038,4.06012460452666,0.20155437974783,-10.0351037047334,-0.16401732,0.18784106,0.13041973,106.14288,177.386,13.513183,BSC
700313045000,3.49999,3.87792983763823,0.279110646533321,-9.90423683301279,-0.077579886,0.13255776,0.13561209,106.180885,177.52382,13.580886,BSC
700318065000,3.50501,3.69300605227426,0.329964689922108,-9.74705155269737,-0.01160644,0.079107046,0.1301143,106.21607,177.63213,13.635711,BSC
700323127000,3.510072,3.55520777240868,0.257134977600847,-9.53699874737957,-0.00030543262,0.029932396,0.12003502,106.24658,177.76514,13.644066,BSC
700328079000,3.515024,3.43972230886183,0.136628432474325,-9.31104913255691,-0.025045475,-0.00030543262,0.119729586,106.27826,177.88684,13.642723,BSC
700333073000,3.520018,3.43476353038919,-0.0157875367009477,-9.1079527307925,-0.0571159,-0.0125227375,0.12736541,106.301865,178.01385,13.605016,BSC
700338046000,3.524991,3.45397120387175,-0.174250953242589,-8.91107397731398,-0.087964594,-0.017715093,0.129198,106.324394,178.14514,13.562861,BSC
700343508000,3.530453,3.56010950568425,-0.324571693929668,-8.79127884947437,-0.15302174,-0.043676864,0.13225232,106.33725,178.26653,13.50059,BSC
700348107000,3.535052,3.66254633699879,-0.447495878671504,-8.70523189747884,-0.19761491,-0.03481932,0.13041973,106.35045,178.38885,13.449215,BSC
700353050000,3.539995,3.80109939045285,-0.575460469318061,-8.6522149222163,-0.21013765,-0.015271631,0.13744467,106.367905,178.4817,13.410826,BSC
700358041000,3.544986,3.95388950896111,-0.702785559211508,-8.6165639725626,-0.21319197,0.021380283,0.1518,106.38768,178.58221,13.381382,BSC
700363037000,3.549982,4.07805912858349,-0.795984132795881,-8.62252994107716,-0.22999077,0.05100725,0.16676621,106.40516,178.6593,13.3802185,BSC
700368084000,3.555029,4.19638516165794,-0.881668503777647,-8.63885088928752,-0.23732115,0.09987647,0.16890424,106.423546,178.73332,13.395238,BSC
700373105000,3.56005,4.29949160832138,-0.936040117144907,-8.6998491205165,-0.24770586,0.12034045,0.17104226,106.44265,178.7874,13.436145,BSC
700378067000,3.565012,4.38340313000773,-0.951773534306368,-8.81522698366626,-0.24190263,0.11178834,0.17745635,106.4636,178.83772,13.481708,BSC
700383046000,3.569991,4.44303099387428,-0.92393307798511,-8.97103797549713,-0.24007004,0.09162979,0.16584991,106.4783,178.8731,13.549923,BSC
700388045000,3.57499,4.48814872377721,-0.869791754990105,-9.15150889510885,-0.24465153,0.039095376,0.1591304,106.49581,178.9073,13.604917,BSC
700393045000,3.57999,4.50573361904369,-0.780979519307502,-9.34293659027205,-0.23671028,-0.03573562,0.1423316,106.50898,178.9372,13.65165,BSC
700398085000,3.58503,4.49578569571311,-0.656631043792251,-9.54686857708162,-0.23273966,-0.11911872,0.12736541,106.52013,178.9692,13.679941,BSC
700403052000,3.589997,4.44011733269928,-0.524878613369565,-9.73978334470612,-0.19792034,-0.21166481,0.10476339,106.521,179.00453,13.687133,BSC
700408046000,3.594991,4.34866154121377,-0.385288170978261,-9.92750818669485,-0.16768251,-0.27550024,0.08032878,106.51666,179.0403,13.678672,BSC
700413170000,3.600115,4.21263837763356,-0.293303225984763,-10.0696869159142,-0.1151481,-0.3387248,0.06627888,106.512375,179.08688,13.63143,BSC
700418071000,3.605016,4.05371312697517,-0.240328131676072,-10.1712222494357,-0.062308256,-0.37720928,0.056505036,106.50231,179.1251,13.5744095,BSC
700423084000,3.610029,3.88351892650265,-0.233267273821239,-10.2460913830582,-0.002443461,-0.39767328,0.055283304,106.484665,179.17758,13.47769,BSC
700428078000,3.615023,3.70478370279248,-0.282915954562442,-10.2858111281013,0.042455133,-0.41813725,0.049480084,106.46344,179.21898,13.37294,BSC
700433044000,3.619989,3.5333929180977,-0.343589267794249,-10.2650378425032,0.090713486,-0.41691554,0.046120327,106.441315,179.252,13.236524,BSC
700438046000,3.624991,3.36658241398866,-0.415079453270321,-10.1887811058601,0.10934488,-0.42119157,0.049785517,106.42036,179.27945,13.097095,BSC
700443041000,3.629986,3.21818036405746,-0.495346366939314,-10.0752272591615,0.13103059,-0.4251622,0.051923547,106.38833,179.28162,12.92674,BSC
700448122000,3.635067,3.08503532363921,-0.585694769489886,-9.92306141356396,0.160963,-0.41905355,0.053145275,106.35806,179.27533,12.763706,BSC
700453062000,3.640007,2.98529268434267,-0.681414268027518,-9.76645359375314,0.1685988,-0.39706242,0.055283304,106.3171,179.2525,12.582465,BSC
700458063000,3.645008,2.9179522128151,-0.787235252236618,-9.59810216380436,0.17379116,-0.38087448,0.04917465,106.274956,179.22223,12.407605,BSC
700463066000,3.650011,2.86413440805012,-0.853028194874245,-9.45842308996665,0.14782938,-0.3594942,0.04428773,106.23135,179.17989,12.218722,BSC
700468100000,3.655045,2.82502073176778,-0.8747579666258,-9.34977436734878,0.124311075,-0.33475417,0.04337143,106.187775,179.13571,12.041769,BSC
700473142000,3.660087,2.78645643141859,-0.920556331189254,-9.23616230916239,0.105068825,-0.2950479,0.046731193,106.1351,179.07556,11.873367,BSC
700478058000,3.665003,2.75046687697936,-1.02852523072404,-9.11276893753413,0.06566802,-0.267559,0.043676864,106.08098,179.02838,11.71399,BSC
700483030000,3.669975,2.71956728001568,-1.10747237248848,-9.01103684004704,0.04153884,-0.23793201,0.030543262,106.02074,178.97849,11.565583,BSC
700488075000,3.67502,2.69589044183083,-1.14535536303048,-8.9400063254925,0.03481932,-0.21471913,0.03176499,105.964745,178.93416,11.427706,BSC
700493025000,3.67997,2.68505643244174,-1.18967318733405,-8.87910074510768,0.004581489,-0.1740966,0.02565634,105.90083,178.88245,11.303184,BSC
700498117000,3.685062,2.69464730883076,-1.24721869603698,-8.83114611279379,-0.02076942,-0.14019357,0.03176499,105.84168,178.83078,11.186988,BSC
700503042000,3.689987,2.70548925618392,-1.30422088742846,-8.79464538112329,-0.043676864,-0.09682214,0.031154128,105.78047,178.7783,11.087927,BSC
700508074000,3.695019,2.71951310679988,-1.36499074405859,-8.77594707634106,-0.05497787,-0.055283304,0.026267206,105.72076,178.7298,11.000841,BSC
700513066000,3.700011,2.74032842500493,-1.41736164864918,-8.7655126669296,-0.0842994,-0.015577064,0.030543262,105.66878,178.67932,10.929614,BSC
700518082000,3.705027,2.7782200961546,-1.45051695363834,-8.77498579491225,-0.106901415,0.018325957,0.03970624,105.61764,178.63054,10.870367,BSC
700523128000,3.710073,2.81908576755866,-1.47875263207189,-8.781932,-0.11575896,0.05009095,0.034208454,105.56035,178.57445,10.823855,BSC
700528079000,3.715024,2.86642958764853,-1.49295574843734,-8.781932,-0.13255776,0.06291912,0.027794369,105.50616,178.52696,10.782596,BSC
700533068000,3.720013,2.9042510303743,-1.50108005668535,-8.79804247978383,-0.13775012,0.09193522,0.03176499,105.45519,178.47235,10.759677,BSC
700538070000,3.725015,2.91383928167534,-1.49149175532426,-8.86036623839071,-0.1432479,0.112704635,0.028710667,105.40102,178.42377,10.738661,BSC
700543058000,3.730003,2.92994810339323,-1.47312738547843,-8.92898522904314,-0.15210545,0.122783914,0.024740042,105.3531,178.3737,10.734588,BSC
700548132000,3.735077,2.96540755545927,-1.42880312824957,-9.01763374350087,-0.14844026,0.1337795,0.007330383,105.30115,178.32317,10.736643,BSC
700553087000,3.740032,2.99901767329877,-1.38309759627349,-9.10313609883344,-0.15668693,0.13041973,0.0061086523,105.24628,178.2829,10.734011,BSC
700558070000,3.745015,3.01963603337654,-1.30577869215813,-9.1753002514582,-0.16615535,0.12308934,-0.0036651916,105.18475,178.24376,10.733353,BSC
700563057000,3.750002,3.03885668311943,-1.22592793010679,-9.24508013980602,-0.15424347,0.11026118,-0.00061086525,105.13674,178.21281,10.726855,BSC
700568066000,3.755011,3.05295583788576,-1.13663292337611,-9.30617747496816,-0.14385876,0.115453534,-0.00580322,105.084366,178.18607,10.723567,BSC
700573094000,3.760039,3.07027324400869,-1.04756713273483,-9.36630418077868,-0.14019357,0.116675265,-0.01038471,105.03629,178.17447,10.71632,BSC
700578076000,3.765021,3.1018346518522,-0.961900743507843,-9.42040892676243,-0.13652839,0.11911872,-0.010079277,104.98894,178.15994,10.711017,BSC
700583150000,3.770095,3.14013623275691,-0.876451020065593,-9.47288204680978,-0.12492194,0.13255776,-0.005497787,104.95388,178.16125,10.710411,BSC
700588073000,3.775018,3.25259091951898,-0.815538068813357,-9.49162438044127,-0.118507855,0.13836098,-0.013133603,104.91594,178.16335,10.708562,BSC
700593213000,3.780158,3.36394035881029,-0.754706903463503,-9.50697781167201,-0.096516706,0.15057829,-0.0067195175,104.8864,178.17734,10.717114,BSC
700598116000,3.785061,3.39646611107455,-0.730312557424885,-9.47038637752186,-0.08246681,0.1685988,-0.009773844,104.852715,178.19208,10.729013,BSC
700603144000,3.790089,3.42982109422461,-0.705296287410165,-9.43286205957225,-0.0711658,0.17867808,-0.008552114,104.82901,178.2149,10.762526,BSC
700608074000,3.795019,3.45675089354497,-0.695371441291005,-9.37501680275132,-0.07086037,0.19028452,0.00030543262,104.80739,178.23607,10.800642,BSC
700613058000,3.800003,3.48200526984127,-0.690320566031746,-9.30935510793651,-0.057421334,0.19242255,-0.0027488936,104.78319,178.25046,10.838017,BSC
700618069000,3.805014,3.50568276833804,-0.697420167335216,-9.27935383166196,-0.047647487,0.20280726,-0.0018325958,104.77039,178.27032,10.888296,BSC
700623140000,3.810085,3.52932406558271,-0.706876686233083,-9.25571253441729,-0.049480084,0.20738874,-0.0036651916,104.756226,178.28958,10.936333,BSC
700628088000,3.815033,3.5338416,-0.697135234336802,-9.26274330487928,-0.04550946,0.2049453,-0.00580322,104.74165,178.30367,10.997277,BSC
700633149000,3.820094,3.5338416,-0.6824464218911,-9.27743191281948,-0.052534413,0.2134974,-0.0021380284,104.72872,178.3208,11.061138,BSC
700638071000,3.825016,3.56100842439657,-0.668310409994016,-9.26052018332336,-0.04642576,0.21960606,-0.00030543262,104.71605,178.33095,11.12731,BSC
700643051000,3.829996,3.59430667334929,-0.654039774446439,-9.23673579074407,-0.04153884,0.21685717,-0.0067195175,104.70233,178.34338,11.191828,BSC
700648098000,3.835043,3.63134226289013,-0.639799298583309,-9.23584893738382,-0.049785517,0.21166481,-0.0067195175,104.700347123863,178.350448726382,11.223525763471,BSC
700653054000,3.839999,3.66849136438705,-0.62586835158008,-9.24049267204775,-0.042760566,0.21105394,-0.005497787,104.6984,178.35739,11.254652,BSC
700658044000,3.844989,3.69952567322404,-0.604132524143898,-9.25997789435337,-0.043676864,0.19822577,0.0012217305,104.69434,178.36975,11.313153,BSC
700663037000,3.849982,3.7285584372799,-0.579938538939486,-9.28417186439992,-0.03634648,0.18509217,-0.0067195175,104.6843,178.38339,11.380082,BSC
700668404000,3.855349,3.7349546,-0.5746084,-9.28223360343294,-0.033292156,0.17745635,-0.011301007,104.68015,178.40086,11.450293,BSC
700673117000,3.860062,3.7349546,-0.5746084,-9.27420549163999,-0.023823744,0.16401732,-0.0106901415,104.67525,178.41432,11.513478,BSC
700678105000,3.86505,3.73785931029952,-0.577513122431801,-9.2848727031511,-0.023823744,0.14477506,-0.007941248,104.6674,178.43481,11.578599,BSC
700683045000,3.86999,3.74312703015254,-0.582780864286828,-9.31121157744126,-0.015577064,0.13133603,-0.021380283,104.65516,178.45091,11.639985,BSC
700688048000,3.874993,3.75364737266076,-0.587223897553585,-9.30607845730395,-0.0076358155,0.11911872,-0.014049901,104.65617,178.46463,11.694139,BSC
700693050000,3.879995,3.76601798992855,-0.591347436642851,-9.28958374119824,0.0009162979,0.10873401,-0.013744468,104.65133,178.47676,11.743884,BSC
700698144000,3.885089,3.7732618,-0.605087009783701,-9.27766019335809,-0.00030543262,0.09407325,-0.017715093,104.64899,178.48795,11.78732,BSC
700703093000,3.890038,3.7732618,-0.630974896831986,-9.27248304413371,0.005192355,0.07819075,-0.016493361,104.64828,178.49442,11.82633,BSC
700708067000,3.895012,3.77930926254394,-0.639630199499247,-9.26228560434751,0.015577064,0.06719518,-0.03145956,104.64023,178.4995,11.867816,BSC
700713087000,3.900032,3.7896563184303,-0.636181215684052,-9.24848933775737,0.0143553335,0.053145275,-0.022296581,104.63956,178.50468,11.902814,LYI
700719514000,3.906459,3.80561107544347,-0.631616895569566,-9.2324933438769,0.011911872,0.043066,-0.038789943,104.63082,178.50366,11.935973,LYI
700723136000,3.910081,3.8352645651635,-0.627910209354563,-9.2362001075016,0.006414085,0.03756821,-0.03176499,104.63164,178.50197,11.965512,LYI
700728070000,3.915015,3.87565946253473,-0.622860847183159,-9.24124957512289,0.006414085,0.04642576,-0.031154128,104.619705,178.50272,11.999724,LYI
700733048000,3.919993,3.8523938221871,-0.648705439746123,-9.21103646626494,-0.0036651916,0.029626964,-0.040927973,104.606766,178.50795,12.024422,LYI
700738037000,3.924982,3.82407495118048,-0.677024345251408,-9.17799807912674,0.0036651916,0.02076942,-0.043676864,104.59641,178.50777,12.053202,LYI
700743051000,3.929996,3.81680667831168,-0.688631943376649,-9.13986615462879,0.014966198,0.020463986,-0.047036625,104.58319,178.51047,12.0892935,LYI
700748099000,3.935044,3.81193675926262,-0.698371781474766,-9.10090649712904,0.0106901415,0.01863139,-0.038789943,104.572784,178.51482,12.121636,LYI
700753063000,3.940008,3.81600392510862,-0.703541625108619,-9.08466200990199,0.010995574,0.021991149,-0.03756821,104.55177,178.50935,12.15204,LYI
700758036000,3.944981,3.82081603245428,-0.708353732454279,-9.07022588885521,0.0067195175,0.027183503,-0.043676864,104.531395,178.50632,12.181826,LYI
700763047000,3.949992,3.83453230829093,-0.739918465938342,-9.0513876821311,-0.003970624,0.022602014,-0.036957346,104.514725,178.50215,12.208709,LYI
700768025000,3.95497,3.84880148231069,-0.773213254983538,-9.03236221610296,-0.00580322,0.0290161,-0.038789943,104.49426,178.49762,12.239621,LYI
700773103000,3.960048,3.85803724261642,-0.787962646881681,-9.0431700934952,-0.005192355,0.02565634,-0.032375857,104.47795,178.49327,12.267894,LYI
700778086000,3.965031,3.86668395296249,-0.800932694343178,-9.05613997843812,-0.005192355,0.03634648,-0.024740042,104.461975,178.48964,12.301281,LYI
700783060000,3.970005,3.88716803053754,-0.826217411796695,-9.04514865132817,-0.0143553335,0.036651913,-0.018936822,104.44435,178.48143,12.332775,LYI
700788068000,3.975013,3.91224678728299,-0.856311940840828,-9.02508575067978,-0.016798794,0.03726278,-0.022296581,104.42661,178.47157,12.366581,LYI
700793069000,3.980014,3.93181714531026,-0.876815768652835,-9.03625506750167,-0.023518313,0.03940081,-0.016187929,104.41437,178.46123,12.402317,LYI
700798123000,3.985068,3.95032795789272,-0.895326610228511,-9.0547657834401,-0.02321288,0.0421497,-0.01160644,104.400925,178.45004,12.437633,LYI
700803080000,3.990025,3.95879436772797,-0.90021986,-9.04536640370943,-0.02107485,0.04734206,-0.004581489,104.38571,178.43423,12.478986,LYI
700808095000,3.99504,3.96374312115404,-0.90021986,-9.02557149335394,-0.03604105,0.048258353,-0.0061086523,104.36956,178.4236,12.518976,LYI
700813041000,3.999986,3.96780660980472,-0.888185401931772,-9.04842942541123,-0.03023783,0.042760566,-0.0061086523,104.361077885136,178.415013779693,12.5385726102035,LYI
700818072000,4.005017,3.97171074081517,-0.87256885343003,-9.08356652297221,-0.04184427,0.040011674,-0.003970624,104.35245,178.40628,12.558506,LYI
700823070000,4.010015,3.97291244347741,-0.860450243477412,-9.11777955673724,-0.038179077,0.036957346,0.0012217305,104.336105,178.3906,12.598833,LYI
700828105000,4.01505,3.96820767345107,-0.855745473451068,-9.15071314342863,-0.034513887,0.03604105,-0.0012217305,104.31912,178.37738,12.63624,LYI
700833050000,4.019995,3.964798,-0.849795316364753,-9.18093220908812,-0.044898596,0.032070424,0.008857546,104.3058,178.37152,12.667216,LYI
700838058000,4.025003,3.964798,-0.83997838577423,-9.20547453556443,-0.047036625,0.034513887,0.007330383,104.28869,178.3633,12.699203,LYI
700843057000,4.030002,3.97058960406592,-0.82449474854436,-9.222465,-0.040927973,0.03573562,0.009468411,104.27512,178.356,12.72695,LYI
700848107000,4.035052,3.98968072712918,-0.795857914437975,-9.222465,-0.027488936,0.03268129,0.013133603,104.26178,178.34727,12.753539,LYI
700853102000,4.040047,4.003105,-0.7757214,-9.21419409848485,-0.03176499,0.032070424,0.010995574,104.24472,178.34491,12.778773,LYI
700858077000,4.045022,4.003105,-0.7757214,-9.18569843710128,-0.03145956,0.03726278,0.014049901,104.23054,178.33702,12.804091,LYI
700863059000,4.050004,4.00696450263958,-0.773148402718085,-9.15985805916985,-0.027794369,0.038789943,0.01863139,104.21681,178.33617,12.830458,LYI
700868073000,4.055018,4.02110003677755,-0.763724729692866,-9.14101090992052,-0.022296581,0.036957346,0.011911872,104.20094,178.33516,12.856731,LYI
700873085000,4.06003,4.03414397773774,-0.76118451212012,-9.12092599539539,-0.019242255,0.041233405,0.0033597588,104.18591,178.33345,12.885986,LYI
700878091000,4.065036,4.04374176756757,-0.780380327297297,-9.09693127027027,-0.009773844,0.040011674,0.014660766,104.17491,178.32753,12.912473,LYI
700883063000,4.070008,4.05553206055119,-0.798282255332803,-9.07767721410805,-0.016187929,0.036651913,0.013439035,104.15975,178.32758,12.946396,LYI
700888054000,4.074999,4.07455422096309,-0.812548833433489,-9.07292158710576,-0.024129177,0.04428773,0.02443461,104.15179,178.32391,12.982189,LYI
700893059000,4.080004,4.08500004826396,-0.82360536,-9.06816191743934,-0.01740966,0.049480084,0.021991149,104.14495,178.3134,13.020604,LYI
700898132000,4.085077,4.06583128392188,-0.82360536,-9.06336963878477,-0.019242255,0.03726278,0.020463986,104.14156,178.30685,13.055289,LYI
700903086000,4.090031,4.0480839851976,-0.827478744078053,-9.059659,-0.028405234,0.043982297,0.022602014,104.13728,178.29832,13.097403,LYI
700908075000,4.09502,4.03395813836602,-0.846313357299694,-9.059659,-0.03268129,0.03604105,0.019547688,104.13083,178.28954,13.131114,LYI
700913047000,4.099992,4.02149650378092,-0.861150303780915,-9.06118362427746,-0.032375857,0.029626964,0.018020526,104.127846,178.28143,13.162645,LYI
700918072000,4.105017,4.01693633889889,-0.856590138898891,-9.07030414450867,-0.022602014,0.034513887,0.017104227,104.12422,178.27216,13.194544,LYI
700923648000,4.110593,4.01180580218422,-0.848831078269112,-9.08056530414177,-0.029626964,0.025350908,0.02076942,104.124466,178.26166,13.2209835,LYI
700928087000,4.115032,4.00742579981455,-0.831311416373377,-9.08932485153513,-0.023518313,0.02443461,0.02076942,104.12345,178.24535,13.250608,LYI
700933062000,4.120007,4.00253780794992,-0.814595763895459,-9.09853321574083,-0.026267206,0.011301007,0.019242255,104.12474,178.23407,13.273355,LYI
700938074000,4.125019,3.99776806540793,-0.819365606049886,-9.1033031575077,-0.03023783,0.0070249503,0.019547688,104.126564,178.22159,13.297847,LYI
700943071000,4.130016,3.9935284,-0.82360536,-9.107543,-0.026267206,-0.011301007,0.018936822,104.135185,178.21127,13.312461,LYI
700948137000,4.135082,3.9935284,-0.82360536,-9.107543,-0.02565634,0.0030543262,0.018936822,104.14416,178.20313,13.33489,LYI
700953040000,4.139985,3.9935284,-0.82360536,-9.107543,-0.032070424,-0.0033597588,0.015882496,104.143196,178.19688,13.342702,LYI
700958087000,4.145032,3.98055508030565,-0.819280920101885,-9.09456986092715,-0.029932396,-0.01985312,0.016493361,104.14332,178.18797,13.351509,LYI
700963025000,4.14997,3.96610060091696,-0.814462760305655,-9.08011558278146,-0.03481932,-0.027183503,0.013133603,104.14136,178.18336,13.361033,LYI
700968057000,4.155002,3.9563639438226,-0.822462633790919,-9.08302967581837,-0.036651913,-0.03848451,0.01160644,104.145546,178.17679,13.363203,LYI
700973124000,4.160069,3.94704731799942,-0.83177927907075,-9.08768759959681,-0.037873644,-0.040317107,0.010079277,104.14864,178.17169,13.366115,LYI
