timestamp,rel_time,acc_x,acc_y,acc_z,gyro_x,gyro_y,gyro_z,azimuth,pitch,roll,label
16274124826000,0,0.41192511875,9.98486848224432,-0.0860280191775568,0.005497787,0.016187929,-0.027488936,232.14056,-139.27444,-43.970387,STD
16274129848000,0.005022,0.415533377121479,9.9875145293744,-0.0812170073541433,0.016187929,0.02107485,-0.021380283,232.44019,-138.64076,-43.4132,STD
16274134841000,0.010015,0.419120799273768,9.99014529666243,-0.0764337771601362,0.007941248,0.025961773,-0.027488936,232.72151,-138.01646,-42.864117,STD
16274139829000,0.015003,0.422704628974472,9.99277342949494,-0.0716553369022337,-0.0012217305,0.028099801,-0.01985312,232.99518,-137.3939,-42.31358,STD
16274144847000,0.020021,0.426310013384683,9.9954173690606,-0.0668481570277039,0.0027488936,0.032986723,-0.01985312,233.25424,-136.78146,-41.76991,STD
16274149840000,0.025014,0.429897435536972,9.99804813634863,-0.0620649268336968,0.00030543262,0.039095376,-0.025961773,233.50308,-136.17285,-41.229786,STD
16274154847000,0.030021,0.433494916553697,10.0006862801121,-0.0572682848185969,0.004886922,0.043982297,-0.024129177,233.74281,-135.56958,-40.691647,STD
16274159829000,0.035003,0.4370744353125,10.003311251598,-0.0524955924840199,-0.002443461,0.049785517,-0.023518313,233.97043,-134.97276,-40.159283,STD
16274164846000,0.04002,0.440679101232394,10.0059546642726,-0.0476893705967109,0.0015271631,0.039095376,-0.017715093,234.1948,-134.38223,-39.63105,STD
16274169839000,0.045013,0.444266523384683,10.0085854315606,-0.0429061404027039,-0.0033597588,0.037873644,-0.012217305,234.40598,-133.79607,-39.10595,STD
16274174835000,0.050009,0.447856101007923,10.0112177795219,-0.038120036247034,0.00061086525,0.043676864,-0.004581489,234.61177,-133.21576,-38.584106,STD
16274179852000,0.055026,0.451460766927817,10.0138611921965,-0.0333138143597251,-0.0030543262,0.046120327,-0.0076358155,234.811,-132.64183,-38.06919,STD
16274184841000,0.060015,0.455045315118838,10.0164898519201,-0.0285344161146017,-0.0125227375,0.044898596,-0.0018325958,235.00447,-132.06993,-37.554836,STD
16274189825000,0.064999,0.458626270858275,10.0191158771882,-0.0237598078055828,-0.016798794,0.055588737,-0.003970624,235.18478,-131.50768,-37.04726,STD
16274194846000,0.07002,0.462233810739437,10.0217613974272,-0.0189497539693902,-0.02565634,0.063224554,0.004886922,235.36194,-130.94601,-36.540962,STD
16274199844000,0.075018,0.46582482534331,10.0243947991707,-0.0141617338392786,-0.03268129,0.076052725,0.009468411,235.52658,-130.39243,-36.040283,STD
16274204994000,0.080168,0.469611885926089,10.0269861736654,-0.00997742771678692,-0.040317107,0.08277224,0.013744468,235.6855,-129.84221,-35.5427,STD
16274209838000,0.085012,0.474247832480963,10.0279133693662,-0.0153087649478744,-0.032070424,0.0720821,0.01282817,235.8399,-129.30002,-35.051327,STD
16274214852000,0.090026,0.479046477407911,10.0288731049657,-0.0208272052609778,-0.030848695,0.0720821,0.016798794,236.00592,-128.72536,-34.5389,STD
16274220495000,0.095669,0.484447106311534,10.0299532381903,-0.0270379269775398,-0.025961773,0.067500606,0.017715093,236.16962,-128.16035,-34.034542,STD
16274224862000,0.100036,0.488626540375352,10.0307891307637,-0.0318442749726181,-0.019242255,0.061086524,0.01038471,236.32678,-127.60402,-33.537163,STD
16274229893000,0.105067,0.493441455139508,10.0317521203531,-0.037381425593923,-0.022907447,0.069027774,0.010995574,236.47534,-127.05191,-33.04222,STD
16274234874000,0.110048,0.498208517441289,10.032705539384,-0.042863545896988,-0.027794369,0.061391957,0.01740966,236.62476,-126.507996,-32.555325,STD
16274239851000,0.115025,0.50297175154608,10.0336581927703,-0.0483412637745938,-0.01985312,0.065973446,0.011911872,236.76059,-125.97528,-32.075527,STD
16274244933000,0.120107,0.507835475821858,10.0346309443292,-0.0539345453205035,-0.018020526,0.07849618,0.014966198,236.89215,-125.4445,-31.59744,STD
16274249885000,0.125059,0.512574783695461,10.0355788124363,-0.0593847480389893,-0.014966198,0.07971791,0.009162978,237.01909,-124.92565,-31.129665,STD
16274254876000,0.13005,0.517351416489717,10.0365341455789,-0.0648778744057022,-0.02321288,0.07422013,0.0106901415,237.13997,-124.41005,-30.664434,STD
16274259903000,0.135077,0.522162503056883,10.0374963695236,-0.070410622601548,-0.013439035,0.06811147,0.009162978,237.25485,-123.90636,-30.207445,STD
16274264890000,0.140064,0.526935307654148,10.0384509370216,-0.0758993465428017,-0.018020526,0.07422013,0.0125227375,237.36337,-123.40524,-29.754028,STD
16274269880000,0.145054,0.531710983399157,10.039406078753,-0.0813913723031499,-0.008857546,0.06811147,0.008552114,237.47232,-122.916306,-29.310352,STD
16274274864000,0.150038,0.53648091684868,10.0403600720175,-0.0868767944253093,-0.01282817,0.0729984,0.015271631,237.57266,-122.4285,-28.867357,STD
16274279892000,0.155066,0.541292960465093,10.0413224873733,-0.0924106432275198,-0.016493361,0.07544186,0.016493361,237.67067,-121.95119,-28.433481,STD
16274284876000,0.16005,0.546062893914616,10.0422764806378,-0.0978960653496792,-0.016493361,0.08735373,0.019242255,237.76074,-121.47859,-28.002134,STD
16274290562000,0.165736,0.551504675935882,10.0433648445426,-0.104154113139928,-0.027488936,0.08827003,0.021380283,237.84961,-121.01086,-27.577127,STD
16274294878000,0.170052,0.555635300488078,10.0441909751464,-0.108904330210401,-0.03359759,0.09468412,0.022296581,237.92938,-120.55014,-27.156313,STD
16274299891000,0.175065,0.560432988365779,10.0451505193347,-0.11442166991714,-0.043066,0.096516706,0.030848695,238.00745,-120.09188,-26.738932,STD
16274304875000,0.180049,0.565202921815302,10.0461045125992,-0.119907092039299,-0.058948494,0.10445796,0.031154128,238.0775,-119.64067,-26.328566,STD
16274309895000,0.185069,0.570007309037735,10.0470653966657,-0.125432135990591,-0.061086524,0.10140363,0.03481932,238.14789,-119.1937,-25.921415,STD
16274314886000,0.19006,0.574783941831991,10.0480207298083,-0.130925262357304,-0.061391957,0.09590584,0.03756821,238.21318,-118.751816,-25.519886,STD
16274319870000,0.195044,0.579553875281514,10.0489747230728,-0.136410684479464,-0.06352998,0.095294975,0.033292156,238.27444,-118.31697,-25.125008,STD
16274324845000,0.200019,0.58431519528781,10.0499269936367,-0.14188620114434,-0.07238753,0.09773844,0.029932396,238.33362,-117.88692,-24.735073,STD
16274329889000,0.205063,0.589142551692183,10.0508924715713,-0.147437659648387,-0.04886922,0.10323623,0.027794369,238.38885,-117.468094,-24.351574,STD
16274334866000,0.21004,0.593905785796974,10.0518451249575,-0.152915377525993,-0.060170226,0.103847094,0.029626964,238.44197,-117.05001,-23.973764,STD
16274339869000,0.215043,0.5986939031822,10.0528027550342,-0.158421711169083,-0.04428773,0.111177474,0.018020526,238.48758,-116.648834,-23.605179,STD
16274344937000,0.220111,0.603544228768513,10.0537728268368,-0.163999584225886,-0.041233405,0.10629055,0.01740966,238.535,-116.24762,-23.23936,STD
16274349889000,0.225063,0.608283536642116,10.0547206949438,-0.169449786944372,-0.026572637,0.113926366,0.0125227375,238.57285,-115.86023,-22.882282,STD
16274354869000,0.230043,0.61304964189465,10.0556739225636,-0.174930806641072,-0.021380283,0.10354166,0.0036651916,238.615,-115.47934,-22.533388,STD
16274360360000,0.235534,0.618304799312654,10.0567249612905,-0.180974236190184,-0.009773844,0.10445796,0.006414085,238.64966,-115.10549,-22.186865,STD
16274364892000,0.240066,0.622642146502308,10.0575924367068,-0.185962184235455,-0.0070249503,0.08857546,-0.0021380284,238.68912,-114.74225,-21.852945,STD
16274369870000,0.245044,0.627406337656347,10.0585452815042,-0.191441002719425,-0.010079277,0.08124508,-0.0067195175,238.72409,-114.3839,-21.521856,STD
16274374867000,0.250041,0.632188712746088,10.0595017631138,-0.196940732724327,-0.0106901415,0.08674286,-0.002443461,238.75809,-114.03189,-21.196028,STD
16274379884000,0.255058,0.636990228820778,10.0604620729469,-0.202462474856525,-0.016187929,0.09285152,0.002443461,238.79195,-113.6855,-20.87679,STD
16274384880000,0.260054,0.641771646861272,10.0614183631453,-0.207961104255062,-0.030543262,0.10170906,0.005497787,238.82166,-113.34284,-20.561455,STD
16274389858000,0.265032,0.64653583801531,10.0623712079428,-0.213439922739032,-0.048563786,0.112704635,0.01038471,238.84756,-113.00283,-20.248812,STD
16274394863000,0.270037,0.651325869499031,10.0633292208417,-0.218948457594852,-0.067500606,0.11056661,0.015577064,238.87321,-112.66547,-19.940458,STD
16274399881000,0.275055,0.656128342622969,10.0642897220859,-0.224471300333415,-0.06566802,0.100792766,0.0125227375,238.896,-112.334854,-19.637842,STD
16274405181000,0.280355,0.65981865791444,10.0652640412482,-0.231264869885192,-0.06872234,0.0720821,0.018020526,238.9242,-112.00308,-19.337406,STD
16274409865000,0.285039,0.648851590781355,10.0657116622659,-0.247155925499124,-0.059253927,0.049480084,0.02565634,238.9518,-111.67891,-19.042246,STD
16274414886000,0.29006,0.637095475479216,10.0661914882971,-0.264190295746254,-0.0571159,0.03145956,0.020158553,238.94736,-111.34253,-18.718079,STD
16274419872000,0.295046,0.625421308799976,10.066667969594,-0.281105924117533,-0.043066,0.005192355,0.021380283,238.95222,-111.01114,-18.396978,STD
16274424861000,0.300035,0.613740117953059,10.0671447375824,-0.298031730363884,-0.025350908,-0.004276057,0.007330383,238.95566,-110.691414,-18.087164,STD
16274429899000,0.305073,0.601944199034083,10.0676261881988,-0.315123775236427,-0.01038471,-0.020158553,0.009468411,238.96902,-110.3744,-17.779379,STD
16274434875000,0.310049,0.5902934462471,10.0681017138573,-0.332005477357463,-0.009773844,-0.02076942,0.008246681,238.97916,-110.06759,-17.481325,STD
16274439824000,0.314998,0.57870591096921,10.0685746592922,-0.348795578602841,-0.007330383,-0.028405234,0.0061086523,238.9955,-109.76809,-17.18912,STD
16274444858000,0.320032,0.566919357607137,10.0690557276533,-0.365874052975287,0.002443461,-0.020158553,0.0070249503,239.00684,-109.47445,-16.900589,STD
16274449846000,0.32502,0.555240508149445,10.0695324000778,-0.382796466596614,0.0012217305,-0.0143553335,-0.0015271631,239.01999,-109.18766,-16.620714,STD
16274454848000,0.330022,0.543528879242594,10.0700104103961,-0.399766376968282,0.00061086525,-0.0076358155,0.0018325958,239.03056,-108.90419,-16.341589,STD
16274459839000,0.335013,0.531843005617226,10.0704873695122,-0.416698968464682,0.007941248,0.00030543262,0.006414085,239.0382,-108.628456,-16.068905,STD
16274464847000,0.340021,0.520117328375021,10.0709659532135,-0.433689234586495,-0.002443461,0.015271631,0.008246681,239.04135,-108.35486,-15.800071,STD
16274469836000,0.34501,0.508436137528103,10.0714427212019,-0.450615040832847,-0.00580322,0.024740042,0.008246681,239.04352,-108.08747,-15.534977,STD
16274474829000,0.350003,0.496745581124283,10.0719198714456,-0.467554417579296,-0.014049901,0.02321288,0.012217305,239.04437,-107.82125,-15.272639,STD
16274479851000,0.355025,0.484987124432919,10.0723997930407,-0.48459218045145,-0.01160644,0.015577064,0.0076358155,239.04344,-107.56295,-15.017081,STD
16274484840000,0.360014,0.473305933586001,10.072876561029,-0.501517986697801,-0.01985312,0.007941248,0.0027488936,239.04276,-107.30566,-14.765029,STD
16274489817000,0.364991,0.461652839409792,10.0733521822514,-0.518403081443861,-0.0021380284,-0.008857546,0.008857546,239.04689,-107.05561,-14.516297,STD
16274494853000,0.370027,0.449861603269268,10.0738334417401,-0.535488341066355,0.016187929,-0.029932396,-0.007941248,239.05283,-106.81579,-14.2802305,STD
16274499835000,0.375009,0.438196802146931,10.0743095407817,-0.552390398937537,0.03023783,-0.056505036,-0.010995574,239.06581,-106.5776,-14.043752,STD
16274504835000,0.380009,0.426489856018531,10.0747873599723,-0.569353524059155,0.04917465,-0.07360926,-0.02443461,239.08058,-106.353836,-13.819519,STD
16274509860000,0.385034,0.414724375159489,10.0752675682588,-0.586401464806383,0.063224554,-0.08460484,-0.027488936,239.10126,-106.133896,-13.598056,STD
16274514846000,0.39002,0.403050208480249,10.0757440495557,-0.603317093177661,0.0711658,-0.092240654,-0.026267206,239.12518,-105.922165,-13.383572,STD
16274519840000,0.395014,0.391357310687203,10.0762212953633,-0.620259862549134,0.08307768,-0.0852157,-0.030848695,239.14731,-105.71932,-13.175158,STD
16274524828000,0.400002,0.379678461229512,10.0766979677878,-0.637182276170461,0.08979719,-0.07849618,-0.034513887,239.17151,-105.52027,-12.970131,STD
16274529848000,0.405022,0.367924687316599,10.0771776982552,-0.654213253792567,0.07788532,-0.079107046,-0.035124753,239.19542,-105.324326,-12.769134,STD
16274534838000,0.410012,0.356241155080456,10.0776545618074,-0.671142452663942,0.07360926,-0.06658431,-0.03726278,239.21307,-105.135574,-12.572269,STD
16274539815000,0.414989,0.344588060904247,10.0781301830297,-0.688027547410002,0.06261369,-0.053145275,-0.032986723,239.23064,-104.94615,-12.377205,STD
16274544850000,0.420024,0.332799166152948,10.0786113469547,-0.705109414407472,0.053450707,-0.05589417,-0.029321533,239.24887,-104.76059,-12.186473,STD
16274549846000,0.42502,0.321101585581451,10.0790887838899,-0.722058969028994,0.04337143,-0.06414085,-0.026572637,239.2647,-104.5759,-11.9978285,STD
16274554835000,0.430009,0.309420394734534,10.0795655518783,-0.738984775275345,0.03573562,-0.077579886,-0.025350908,239.28264,-104.39315,-11.812234,STD
16274559843000,0.435017,0.297694717492329,10.0800441355796,-0.755975041397159,0.037873644,-0.089186326,-0.02443461,239.30226,-104.2133,-11.629495,STD
16274564844000,0.440018,0.285985429974703,10.080522050334,-0.772941559143802,0.047036625,-0.116980694,-0.023518313,239.33018,-104.03656,-11.450835,STD
16274569808000,0.444982,0.274362773858428,10.0809964292265,-0.789782549764546,0.07238753,-0.13041973,-0.029321533,239.35678,-103.86763,-11.276873,STD
16274574833000,0.450007,0.262597292999386,10.081476637513,-0.806830490511773,0.081855945,-0.1432479,-0.032986723,239.39102,-103.70024,-11.106234,STD
16274579848000,0.455022,0.250855226032601,10.0819558901612,-0.823844505008757,0.09315695,-0.15790866,-0.044898596,239.42877,-103.5439,-10.9432,STD
16274584839000,0.460013,0.239169352407233,10.0824328492773,-0.840777096505157,0.10170906,-0.16279559,-0.059864793,239.46681,-103.393394,-10.785112,STD
16274589819000,0.464993,0.227509234063347,10.0829087571911,-0.857672369126289,0.119729586,-0.1704314,-0.06505715,239.50949,-103.24992,-10.631132,STD
16274594882000,0.470056,0.215654780413729,10.0833925969035,-0.874849229624441,0.13927728,-0.16249016,-0.076358154,239.54793,-103.11594,-10.485394,STD
16274599873000,0.475047,0.20396890678836,10.0838695560196,-0.891781821120841,0.14966199,-0.15668693,-0.08460484,239.5888,-102.98675,-10.343265,STD
16274604797000,0.479971,0.192439906241112,10.0843401123585,-0.908487106740611,0.16065755,-0.13897185,-0.087964594,239.62344,-102.86517,-10.204694,STD
16274609853000,0.485027,0.2062452297633,10.0772453340808,-0.885504357715721,0.1685988,-0.11728613,-0.0888809,239.65482,-102.74879,-10.069846,STD
16274615179000,0.490353,0.223020532833822,10.0691118752616,-0.857799689200502,0.16218472,-0.106595986,-0.09285152,239.68379,-102.63574,-9.938946,STD
16274619846000,0.49502,0.237720183496631,10.0619847907124,-0.833522992249596,0.19425514,-0.08674286,-0.1020145,239.65173,-102.607666,-9.843543,STD
16274624824000,0.499998,0.253399390910273,10.0543827708097,-0.807628542405669,0.20922135,-0.07666359,-0.10567969,239.62073,-102.57671,-9.74959,STD
16274629843000,0.505017,0.269207736030617,10.0467181388507,-0.781520819672308,0.22388211,-0.076358154,-0.10354166,239.58792,-102.55369,-9.658046,STD
16274634872000,0.510046,0.285047578152594,10.0390382356585,-0.755361079161036,0.24770586,-0.07941248,-0.106595986,239.55406,-102.53845,-9.570542,STD
16274639887000,0.515061,0.300843324472284,10.0313797121928,-0.729274163538839,0.27091873,-0.08552113,-0.10934488,239.52231,-102.526665,-9.484222,STD
16274644896000,0.52007,0.316620172590992,10.023730351467,-0.703218458583388,0.30207285,-0.093767814,-0.10720685,239.49326,-102.52176,-9.399326,STD
16274649893000,0.525067,0.33235922430774,10.0160993162212,-0.67722517496143,0.32498032,-0.105068825,-0.10262536,239.46794,-102.52101,-9.316554,STD
16274654868000,0.530042,0.348028982620891,10.0085018776884,-0.651346330450876,0.36193767,-0.110872045,-0.11026118,239.44412,-102.53227,-9.238399,STD
16274659912000,0.535086,0.363916070245321,10.0007990676464,-0.625108563272738,0.37384954,-0.12767084,-0.105374254,239.4285,-102.54067,-9.157949,STD
16274664880000,0.540054,0.379563780657328,9.99321231897686,-0.599266131206721,0.39278635,-0.14844026,-0.10293079,239.41632,-102.56081,-9.082338,STD
16274669874000,0.545048,0.395293383273585,9.98558586510096,-0.573288452918137,0.408058,-0.14263703,-0.10445796,239.4024,-102.58341,-9.007569,STD
16274674864000,0.550038,0.411010387089189,9.97796551971835,-0.547331581740716,0.4007276,-0.1459968,-0.096516706,239.39856,-102.60376,-8.93223,STD
16274679876000,0.55505,0.426796684308388,9.97031157762263,-0.521260271451893,0.40011674,-0.1459968,-0.09101892,239.39285,-102.63019,-8.859079,STD
16274685227000,0.560401,0.443650729882995,9.96213994072037,-0.493425558491897,0.3903429,-0.122478485,-0.081855945,239.3828,-102.651794,-8.783207,STD
16274689887000,0.565061,0.458328332644661,9.9550235460344,-0.469185273985529,0.37720928,-0.10995574,-0.07574729,239.37686,-102.67288,-8.708593,STD
16274694896000,0.57007,0.47410518076337,9.94737418530866,-0.443129569030078,0.37201694,-0.09712757,-0.07819075,239.36502,-102.69428,-8.634226,STD
16274699832000,0.575006,0.489652100770147,9.9398363045855,-0.417453593853376,0.36713,-0.084910266,-0.07391469,239.3512,-102.711334,-8.557195,STD
16274704877000,0.580051,0.50554233809474,9.93213196742012,-0.391210624897447,0.36896262,-0.0870483,-0.06505715,239.33871,-102.72909,-8.481106,STD
16274709904000,0.585078,0.521375880816391,9.92445511847455,-0.365061287941757,0.3652974,-0.064446285,-0.0693332,239.31604,-102.74709,-8.407251,STD
16274714874000,0.590048,0.537029890628725,9.91686531555841,-0.339208452320158,0.37934732,-0.04642576,-0.06566802,239.29688,-102.76684,-8.330443,STD
16274719873000,0.595047,0.552775241745799,9.9092312260659,-0.313204765142618,0.3817908,-0.022907447,-0.06505715,239.2701,-102.785416,-8.255805,STD
16274724881000,0.600055,0.568548940164344,9.90158339246347,-0.287154261964959,0.3903429,0.010079277,-0.07238753,239.23605,-102.8098,-8.182476,STD
16274729876000,0.60505,0.584281692480765,9.89395541146425,-0.261171381898583,0.38912117,0.03573562,-0.081855945,239.19815,-102.83344,-8.110213,STD
16274734872000,0.610046,0.600017594497349,9.8863259033417,-0.235183300054416,0.3753767,0.06383542,-0.08674286,239.15085,-102.85719,-8.038361,STD
16274739882000,0.615056,0.615797592316221,9.87867501549264,-0.209122393321174,0.37232238,0.06841691,-0.08979719,239.1034,-102.88482,-7.96988,STD
16274744912000,0.620086,0.631640584138362,9.8709935851771,-0.182957451032111,0.35460728,0.08002335,-0.08857546,239.04678,-102.906555,-7.901108,STD
16274749847000,0.625021,0.647184354444976,9.86345723157727,-0.1572866776332,0.35216382,0.07513642,-0.09010262,238.99411,-102.93237,-7.835843,STD
16274754845000,0.630019,0.662926555861887,9.85582466920808,-0.131288192233451,0.35460728,0.07422013,-0.09315695,238.9378,-102.95567,-7.7711325,STD
16274759914000,0.635088,0.678892385990402,9.84808368108294,-0.104920380610536,0.35705075,0.05589417,-0.09010262,238.88882,-102.97791,-7.7074976,STD
16274764878000,0.640052,0.694527497601756,9.84050304090674,-0.0790987556556838,0.37995818,0.04734206,-0.094989546,238.83751,-103.007545,-7.6477003,STD
16274769873000,0.645047,0.710260249918176,9.83287505990751,-0.0531158755893081,0.40133846,0.03604105,-0.09193522,238.79346,-103.035774,-7.587066,STD
16274774867000,0.650041,0.725989852534434,9.82524860603161,-0.0271381973007236,0.41722095,0.011911872,-0.09101892,238.7558,-103.06934,-7.5306478,STD
16274779874000,0.655048,0.741760401252816,9.81760229955251,-0.00109289590085516,0.44043383,-0.018020526,-0.09437868,238.72357,-103.10986,-7.4765844,STD
16274784879000,0.660053,0.75752465057087,9.80995904732006,0.0249420019434312,0.46761733,-0.046731193,-0.09896017,238.69846,-103.15508,-7.4248986,STD
16274789910000,0.665084,0.773370792093175,9.8022760898812,0.0511121460102852,0.47891834,-0.0729984,-0.098043874,238.68182,-103.20157,-7.375097,STD
16274794880000,0.670054,0.789024801905509,9.79468628696506,0.0769649816318843,0.48899764,-0.09010262,-0.10354166,238.67062,-103.25569,-7.3303885,STD
16274799859000,0.675033,0.804707159019315,9.78708273993901,0.102864633253603,0.47891834,-0.1001819,-0.10354166,238.66571,-103.306366,-7.28582,STD
16274804805000,0.679979,0.820285576027726,9.77952958798262,0.128592626208216,0.4728097,-0.09987647,-0.098043874,238.66312,-103.35998,-7.2424674,STD
16274809910000,0.685084,0.81212649552273,9.77616899204634,0.09458022273614,0.42730024,-0.096516706,-0.090713486,238.663,-103.401,-7.1998043,STD
16274814875000,0.690049,0.798057731728693,9.77402291589479,0.0461741356921843,0.37904188,-0.099265605,-0.07544186,238.66562,-103.43739,-7.1545224,STD
16274819873000,0.695047,0.783895459534816,9.77186257579298,-0.00255368365236579,0.32375857,-0.09682214,-0.061391957,238.6871,-103.33373,-7.0377345,STD
16274824890000,0.700064,0.769679349171335,9.76969402311376,-0.0514667428063489,0.25686884,-0.09285152,-0.03756821,238.70947,-103.21374,-6.915716,STD
16274829881000,0.705055,0.755536912092575,9.76753670869838,-0.100126315905318,0.19730948,-0.084910266,-0.02687807,238.72913,-103.0841,-6.7948713,STD
16274834873000,0.710047,0.741391641425942,9.76537896204208,-0.148795638467942,0.1572978,-0.08093964,-0.009162978,238.74954,-102.94076,-6.667247,STD
16274839878000,0.715052,0.727209534116948,9.76321559625386,-0.197591704058073,0.12217305,-0.07574729,0.009468411,238.76704,-102.78498,-6.537785,STD
16274844906000,0.72008,0.712962254286853,9.76104228892455,-0.246612007312254,0.08827003,-0.08002335,0.014660766,238.78534,-102.62187,-6.409421,STD
16274849865000,0.725039,0.69891049202006,9.7588988062185,-0.294959597574283,0.07849618,-0.096516706,0.020463986,238.80565,-102.456245,-6.278099,STD
16274854872000,0.730046,0.684722717535318,9.75673457594845,-0.343775162091723,0.076052725,-0.098043874,0.015271631,238.82162,-102.28798,-6.149904,STD
16274859902000,0.735076,0.670469770529475,9.75456040413731,-0.392814964273213,0.07971791,-0.109650314,0.0033597588,238.84406,-102.12203,-6.0254426,STD
16274864856000,0.74003,0.656432176202051,9.75241908263584,-0.44111380721697,0.08368854,-0.12003502,0.0018325958,238.86588,-101.95786,-5.9015446,STD
16274869848000,0.745022,0.642286905535418,9.75026133597954,-0.489783129779594,0.09621128,-0.1432479,-0.003970624,238.89284,-101.80198,-5.7853723,STD
16274874874000,0.750048,0.628045292881071,9.74808889313207,-0.538783934106467,0.09773844,-0.17806722,-0.022296581,238.9244,-101.649185,-5.676135,STD
16274879843000,0.755017,0.613965194735538,9.74594108801685,-0.58722901900504,0.11636983,-0.20830505,-0.030543262,238.96057,-101.50596,-5.568418,STD
16274884842000,0.760016,0.599800088953787,9.74378031567413,-0.635966587813244,0.11301007,-0.2415972,-0.042455133,239.00546,-101.36332,-5.470422,STD
16274889847000,0.765021,0.585617981644793,9.74161694988591,-0.684762653403375,0.119729586,-0.25961772,-0.062308256,239.05292,-101.232574,-5.379257,STD
16274894834000,0.770008,0.57148687891753,9.73946136443419,-0.733383228647727,0.12003502,-0.27488935,-0.077579886,239.10779,-101.102806,-5.293078,STD
16274899866000,0.77504,0.557228264735939,9.73728632814122,-0.782442529756526,0.11789699,-0.27458394,-0.08002335,239.16214,-100.97735,-5.2102814,STD
16274904879000,0.780053,0.543023488723954,9.73511950442567,-0.831316591055891,0.12339478,-0.26816985,-0.09132435,239.21704,-100.859375,-5.135922,STD
16274909875000,0.785049,0.528866883705825,9.7329600288057,-0.880024911473133,0.116980694,-0.26358834,-0.099265605,239.27162,-100.73987,-5.0625205,STD
16274914784000,0.789958,0.514956800832727,9.73083815814548,-0.927885028552443,0.12767084,-0.2507602,-0.110872045,239.32056,-100.63016,-4.993772,STD
16274919784000,0.794958,0.500788861463103,9.72867695356185,-0.976632346824302,0.14294247,-0.2302962,-0.116980694,239.36514,-100.52234,-4.926192,STD
16274924773000,0.799947,0.486652091560091,9.72652050362829,-1.02527242099596,0.16249016,-0.21410827,-0.12217305,239.40608,-100.42166,-4.862258,STD
16274929781000,0.804955,0.472461483487475,9.72435584111732,-1.07409773497706,0.1863139,-0.19303341,-0.14019357,239.43832,-100.33029,-4.803524,STD
16274934778000,0.809952,0.458302044881472,9.72219593325644,-1.12281580485795,0.21563543,-0.17440203,-0.15515977,239.46597,-100.247246,-4.745758,STD
16274940139000,0.815313,0.443111180289361,9.71987868970186,-1.17508267950904,0.2706133,-0.17898351,-0.17592919,239.49263,-100.18144,-4.6957397,BSC
16274944803000,0.819977,0.429895326445375,9.71786271806625,-1.22055417799303,0.32650748,-0.19608775,-0.18387043,239.51697,-100.12494,-4.6468906,BSC
16274949778000,0.824952,0.415798226772598,9.71571231950553,-1.26905775967353,0.38912117,-0.19028452,-0.20280726,239.53427,-100.08935,-4.606954,BSC
16274954771000,0.829945,0.401650122518091,9.71355414060831,-1.31773683169981,0.43951756,-0.19242255,-0.22052236,239.55798,-100.066536,-4.570701,BSC
16274959804000,0.834978,0.387388674748627,9.71137867207442,-1.36680588227226,0.49205196,-0.19792034,-0.23090707,239.58011,-100.0622,-4.538205,BSC
16274964783000,0.839957,0.373280240724355,9.70922654455004,-1.41534846180738,0.54702985,-0.19486602,-0.23426682,239.59961,-100.07296,-4.5089254,BSC
16274969774000,0.844948,0.359137803645596,9.70706923013465,-1.46400803490635,0.5717699,-0.18967366,-0.24953845,239.61874,-100.09224,-4.48653,BSC
16274974777000,0.849951,0.344961363512349,9.70490672882826,-1.51278460156917,0.60903263,-0.1908954,-0.2556471,239.63878,-100.127815,-4.4630475,BSC
16274979779000,0.854953,0.330787756966977,9.70274465976279,-1.56155141876834,0.6600399,-0.18753563,-0.2751948,239.65451,-100.17651,-4.4475775,BSC
16274984778000,0.859952,0.316622651185226,9.70058388742008,-1.61028898757654,0.70554936,-0.17073683,-0.28710666,239.6666,-100.23262,-4.431402,BSC
16274989777000,0.864951,0.302457545403475,9.69842311507736,-1.65902655638474,0.74006325,-0.16065755,-0.3005457,239.67845,-100.300865,-4.4215364,BSC
16274994787000,0.869961,0.288261270155111,9.69625758808455,-1.70787136929315,0.7516697,-0.15149458,-0.31581733,239.685,-100.37558,-4.414963,BSC
16274999874000,0.875048,0.273846808640455,9.69405877854116,-1.75746689090294,0.75625116,-0.14049901,-0.31978795,239.68793,-100.45645,-4.408506,BSC
16275004767000,0.879941,0.259982063173341,9.69194382373562,-1.80517101656378,0.76174897,-0.12034045,-0.3268129,239.68472,-100.5415,-4.4063787,BSC
16275010614000,0.885788,0.223327782195547,9.62404648352492,-1.84577329964707,0.76174897,-0.105068825,-0.32284227,239.68002,-100.62414,-4.401953,BSC
16275014884000,0.890058,0.195196872303022,9.57002697972144,-1.8743119042252,0.7867944,-0.098043874,-0.32070425,239.67148,-100.71446,-4.399436,BSC
16275019874000,0.895048,0.162322577135878,9.50689880080357,-1.90766263884929,0.8060367,-0.11148291,-0.32895094,239.54506,-101.0231,-4.4427376,BSC
16275024871000,0.900045,0.129402165723009,9.44368206532207,-1.94106015807104,0.82558435,-0.13103059,-0.3222314,239.42209,-101.33111,-4.4804425,BSC
16275029877000,0.905051,0.0964224619942075,9.38035147140165,-1.97451782891838,0.86101454,-0.1518,-0.3118467,239.30579,-101.64357,-4.519429,BSC
16275034883000,0.910057,0.0634427582654058,9.31702087748123,-2.00797549976571,0.8897252,-0.1554652,-0.3100141,239.1927,-101.95427,-4.558294,BSC
16275039892000,0.915066,0.0304432904312932,9.25365233074784,-2.0414532211549,0.90010995,-0.15424347,-0.30940324,239.08714,-102.26306,-4.5947213,BSC
16275044911000,0.920085,-0.00262205775385585,9.19015727463785,-2.07499777768362,0.9221011,-0.16035213,-0.3115413,238.98706,-102.577156,-4.6313276,BSC
16275049876000,0.92505,-0.0353316520434085,9.12734536916144,-2.10818142445889,0.9370673,-0.16890424,-0.3213151,238.88928,-102.88742,-4.6693316,BSC
16275054864000,0.930038,-0.0681927711403448,9.06424249211888,-2.14151879205507,0.9465357,-0.1863139,-0.33536503,238.79756,-103.19722,-4.7093544,BSC
16275059871000,0.935045,-0.10117906290425,9.0008992472608,-2.17498314641636,0.9755518,-0.22296582,-0.34666604,238.71536,-103.51141,-4.7523813,BSC
16275064875000,0.940049,-0.134145590562845,8.9375939552157,-2.20842745023579,1.0180069,-0.24740042,-0.3652974,238.63525,-103.82832,-4.8009686,BSC
16275069869000,0.945043,-0.167046237870403,8.87441517254718,-2.24180491891569,1.035722,-0.29840767,-0.37659842,238.57437,-104.14109,-4.8538914,BSC
16275074859000,0.950033,-0.199920533037546,8.8112869936293,-2.27515565353977,1.0803152,-0.3594942,-0.3921755,238.52325,-104.4689,-4.91463,BSC
16275079859000,0.955033,-0.232860708555726,8.74803230533484,-2.30857322330339,1.1371256,-0.39614612,-0.4156938,238.47961,-104.80076,-4.9815335,BSC
16275084881000,0.960055,-0.265945820846186,8.68449929641187,-2.34213783037397,1.183246,-0.41325033,-0.43585235,238.44785,-105.13688,-5.05353,BSC
16275089862000,0.965036,-0.298760823697397,8.62148497593292,-2.37542841337248,1.2223413,-0.41599923,-0.45142943,238.4219,-105.48197,-5.1310825,BSC
16275094882000,0.970056,-0.33183275991765,8.55797726888528,-2.40897965341515,1.2687671,-0.41233405,-0.46028697,238.39882,-105.836334,-5.2117443,BSC
16275099871000,0.975045,-0.364700467049689,8.49486174090506,-2.44232370452529,1.2950343,-0.40133846,-0.45356745,238.37527,-106.189255,-5.2906137,BSC
16275104880000,0.980054,-0.397699934883802,8.43149319417166,-2.47580142591448,1.3106114,-0.40653083,-0.45356745,238.35484,-106.546646,-5.373276,BSC
16275109889000,0.985063,-0.430699402717915,8.36812464743826,-2.50927914730367,1.3106114,-0.41050145,-0.4352415,238.3338,-106.897896,-5.44673,BSC
16275114887000,0.990061,-0.463626402165887,8.30489526101911,-2.54268335003938,1.2913691,-0.42455134,-0.41325033,238.31815,-107.2412,-5.5190244,BSC
16275119874000,0.995048,-0.49648093322772,8.24180503491421,-2.57601403412161,1.287704,-0.44959682,-0.38728857,238.30925,-107.58022,-5.5852127,BSC
16275124872000,1.000046,-0.529407932675693,8.17857564849506,-2.60941823685732,1.271516,-0.47739118,-0.36987892,238.30692,-107.90322,-5.6480412,BSC
16275129824000,1.004998,-0.562031882508898,8.11592820520822,-2.64251499795121,1.2822062,-0.50885075,-0.3484986,238.31567,-108.22383,-5.7041698,BSC
16275134842000,1.010016,-0.595090642658943,8.05244580003589,-2.67605287096597,1.273654,-0.56291234,-0.34605515,238.3388,-108.52922,-5.7642093,BSC
16275139818000,1.014992,-0.627872705334636,7.98949473424524,-2.70931003639472,1.3005321,-0.63071835,-0.35430184,238.3757,-108.84056,-5.824615,BSC
16275144869000,1.020043,-0.661148870643101,7.92559484813017,-2.74306846536993,1.3396275,-0.7189884,-0.37384954,238.4325,-109.14819,-5.893323,BSC
16275149825000,1.024999,-0.693799172616721,7.86289680109269,-2.77619196051963,1.3979651,-0.8359691,-0.4202753,238.51251,-109.465965,-5.9795017,BSC
16275154841000,1.030015,-0.726844756696559,7.79943969779568,-2.80971646650649,1.4724907,-1.0005972,-0.46822822,238.62729,-109.79498,-6.082903,BSC
16275159846000,1.03502,-0.759817872390257,7.73612175481292,-2.84316745383987,1.5479325,-1.0922271,-0.5326745,238.74738,-110.13973,-6.206226,BSC
16275164847000,1.040021,-0.792764635943541,7.67285441558079,-2.87659170711743,1.6194037,-1.2660183,-0.56688297,238.9316,-110.49895,-6.355743,BSC
16275169839000,1.045013,-0.825652107180892,7.60970093478759,-2.90995580876943,1.6551393,-1.434617,-0.6444628,239.1272,-110.87192,-6.5407977,BSC
16275174827000,1.050001,-0.858513226277828,7.54659805774503,-2.94329317636561,1.7107282,-1.57084,-0.72265357,239.35526,-111.265976,-6.7466154,BSC
16275179844000,1.055018,-0.89156539839277,7.48312830351036,-2.97682436586642,1.7434094,-1.6710218,-0.7984009,239.60883,-111.663345,-6.9826536,BSC
16275184839000,1.060013,-0.924472633735432,7.41993686990419,-3.01020851806028,1.78617,-1.7055358,-0.86620694,239.87094,-112.07776,-7.241036,BSC
16275189822000,1.064996,-0.95730081265685,7.35689724754992,-3.0435124680867,1.8075503,-1.6722436,-0.926988,240.13107,-112.494385,-7.5168796,BSC
16275194854000,1.070028,-0.990451805298346,7.29323772925037,-3.0771439102968,1.7944167,-1.5952746,-0.9746355,240.37926,-112.91106,-7.801765,BSC
16275199884000,1.075058,-1.02358962186964,7.22960351282614,-3.110761985479,1.7919732,-1.4709635,-1.0173961,240.59616,-113.33436,-8.088246,BSC
16275204767000,1.079941,-1.05575899728069,7.16782898423776,-3.14339758411015,1.7568485,-1.3475688,-1.0528263,240.78497,-113.74207,-8.372291,BSC
16275209835000,1.085009,-1.09894834324708,7.13459015793247,-3.18820477271845,1.7321084,-1.2373075,-1.0824533,240.93698,-114.148415,-8.649192,BSC
16275214848000,1.090022,-1.14436592506236,7.11020808648619,-3.23553466480863,1.7006488,-1.1505647,-1.0943651,241.05777,-114.538345,-8.914915,BSC
16275219833000,1.095007,-1.1895298279846,7.08596220055766,-3.28260019683926,1.6911805,-1.0839803,-1.0876455,240.88675,-115.22522,-9.2688055,BSC
16275224857000,1.100031,-1.23504706936501,7.06152662765798,-3.33003394466712,1.6978999,-1.0326678,-1.0656544,240.70288,-115.89374,-9.607114,BSC
16275229839000,1.105013,-1.28018379240586,7.03729533303492,-3.37707115240566,1.7073684,-0.96761054,-1.0302242,240.50616,-116.54448,-9.92438,BSC
16275234822000,1.109996,-1.32532957540717,7.01305917464337,-3.42411780157489,1.7140878,-0.86742866,-0.979217,240.29744,-117.17848,-10.215318,BSC
16275239883000,1.115057,-1.37118203532481,6.98844364230951,-3.47190088233859,1.707063,-0.7031059,-0.9440922,240.06384,-117.79567,-10.479399,BSC
16275244895000,1.120069,-1.41659055717963,6.96406643463172,-3.51922133299807,1.6969837,-0.514654,-0.92087936,239.80984,-118.39615,-10.71227,BSC
16275249833000,1.125007,-1.46132864195998,6.94004914582228,-3.56584311778589,1.6719382,-0.38637227,-0.9251554,239.53792,-118.97685,-10.925153,BSC
16275254811000,1.129985,-1.50642912515896,6.91583730627318,-3.61284255980163,1.6267341,-0.35918877,-0.95081174,239.25262,-119.53647,-11.122456,BSC
16275259829000,1.135003,-1.55189200677657,6.89143091598445,-3.66021965904531,1.5748106,-0.39064834,-1.0228939,238.95197,-120.080734,-11.320182,BSC
16275265700000,1.140874,-1.60508303467155,6.86287573117273,-3.71565029867456,1.5488489,-0.5693264,-1.0684034,238.69136,-120.60765,-11.530603,BSC
16275269820000,1.144994,-1.64241007179084,6.84283700498907,-3.75454899315123,1.5424347,-0.8781188,-1.1695015,238.4624,-121.1286,-11.7920885,BSC
16275274830000,1.150004,-1.68780047372473,6.81846952484826,-3.80185056094932,1.6053538,-1.2431108,-1.271516,238.29272,-121.655045,-12.093827,BSC
16275279868000,1.155042,-1.73344455455166,6.7939658591897,-3.84941648880695,1.750129,-1.5311338,-1.3548992,238.17351,-122.199844,-12.443152,BSC
16275284843000,1.160017,-1.77851785786924,6.76976861094608,-3.8963876065306,1.9074267,-1.636508,-1.4181237,238.08932,-122.76304,-12.831032,BSC
16275289829000,1.165003,-1.82369082075195,6.74551786124906,-3.94346257999193,2.0384574,-1.5274686,-1.4648548,238.01251,-123.3537,-13.236473,BSC
16275294877000,1.170051,-1.86942550118354,6.72096555790559,-3.99112292215655,2.1175644,-1.2455542,-1.498147,237.90929,-123.965614,-13.63368,BSC
16275299839000,1.175013,-1.91438102501506,6.69683153865235,-4.03797130128113,2.1041253,-0.91354895,-1.5378532,237.7569,-124.58102,-14.009742,BSC
16275304839000,1.180013,-1.95968082734429,6.67251269619646,-4.08517845477223,2.0512855,-0.6951646,-1.572978,237.55869,-125.1967,-14.35806,BSC
16275309877000,1.185051,-2.00532490817122,6.64800903053789,-4.13274438262987,2.0097466,-0.68752885,-1.6022996,237.32773,-125.80232,-14.688355,BSC
16275314827000,1.190001,-2.05017171247716,6.62393337650655,-4.17947946458606,1.9798143,-0.8888089,-1.6288722,237.09335,-126.38789,-15.01854,BSC
16275319839000,1.195013,-2.09558023433198,6.59955616882876,-4.22679991524554,1.9263636,-1.1695015,-1.6288722,236.8804,-126.94409,-15.354446,BSC
16275324817000,1.199991,-2.14068071753096,6.57534432927967,-4.27379935726129,1.8597792,-1.3662001,-1.5848899,236.70226,-127.47464,-15.697697,BSC
16275329819000,1.204993,-2.18599863978112,6.55101575928679,-4.32102539361379,1.7715092,-1.396438,-1.525636,236.55634,-127.97241,-16.047289,BSC
16275335625000,1.210799,-2.23860077024582,6.522776719427,-4.37584234024766,1.68385,-1.2794572,-1.4688255,236.43018,-128.4373,-16.386168,BSC
16275339830000,1.215004,-2.2766979040047,6.50232457292159,-4.41554355633368,1.5928311,-1.1294898,-1.4181237,236.31299,-128.86206,-16.703669,BSC
16275344873000,1.220047,-2.32238728463396,6.47779658842058,-4.46315669134481,1.5399913,-1.0057896,-1.3982705,236.17937,-129.2616,-16.992844,BSC
16275349845000,1.225019,-2.36743340807015,6.45361393148243,-4.51009948477636,1.5491543,-0.89858276,-1.4245378,236.01602,-129.64456,-17.252583,BSC
16275354840000,1.230014,-2.41268791059705,6.42931940786899,-4.55725943111398,1.6282613,-0.81306165,-1.4401149,235.8359,-130.01962,-17.482834,BSC
16275359823000,1.234997,-2.45783369359836,6.40508324947744,-4.60430608028321,1.7583756,-0.59742624,-1.4437801,235.5992,-130.40347,-17.671143,BSC
16275364848000,1.240022,-2.50335999493923,6.38064281280927,-4.65174926954177,1.8490891,-0.3213151,-1.4373659,235.33035,-130.7894,-17.830715,BSC
16275369829000,1.245003,-2.54848765801961,6.3564163819547,-4.69877703584961,2.0451767,-0.06872234,-1.4150693,235.02264,-131.22397,-17.950012,BSC
16275374824000,1.249998,-2.59374216054651,6.33212185834126,-4.74593698218722,2.254398,0.15118915,-1.4104879,234.66144,-131.67656,-18.026274,BSC
16275379849000,1.255023,-2.63926846188738,6.30768142167308,-4.79338017144578,2.406809,0.36071593,-1.4272866,234.251,-132.15375,-18.057041,BSC
16275384846000,1.26002,-2.68454108433521,6.28337717052266,-4.8405590006448,2.5014932,0.52442783,-1.4526376,233.8082,-132.65848,-18.055334,BSC
16275389822000,1.264996,-2.72962344761326,6.25917505851055,-4.88753955979914,2.510656,0.59589905,-1.46852,233.34717,-133.16911,-18.032345,BSC
16275394865000,1.270039,-2.77531282824252,6.23464707400953,-4.93515269481027,2.44285,0.45906523,-1.4908166,232.9014,-133.67593,-18.02356,BSC
16275399840000,1.275014,-2.82038613156011,6.21044982576591,-4.98212381253392,2.3429737,0.1160644,-1.5109752,232.49445,-134.1663,-18.042622,BSC
16275404978000,1.280152,-2.86693620843362,6.18545978325823,-5.03063388346138,2.248595,-0.25442538,-1.5228871,232.13136,-134.63077,-18.095177,BSC
16275409841000,1.285015,-3.01827113839038,6.1400444012951,-4.94215495744681,2.1749856,-0.53878313,-1.5140295,231.83376,-135.06403,-18.194334,BSC
16275414845000,1.290019,-3.23500271581869,6.08093553209991,-4.77468065957447,2.1233675,-0.6988298,-1.4972308,231.59589,-135.46933,-18.337927,BSC
16275419841000,1.295015,-3.40489570135449,6.09680220128677,-4.41867362763158,2.1108449,-0.82802784,-1.4999796,231.38158,-136.10439,-18.69463,BSC
16275424832000,1.300006,-3.55287672670279,6.14767095036765,-3.97473074473684,2.1313088,-0.89980453,-1.5253305,231.18913,-136.72224,-19.063057,BSC
16275429817000,1.304991,-3.6840834345739,6.23259561383733,-4.02004220057332,2.1911736,-0.80848014,-1.5586227,231.01044,-137.322,-19.469812,BSC
16275434841000,1.310015,-3.80564216822466,6.34012805810903,-4.38004292291322,2.3313673,-0.52564955,-1.625207,230.79167,-137.94348,-19.853006,BSC
16275439819000,1.314993,-3.98520241567164,6.46153936940298,-4.83737713973881,2.513405,-0.2284636,-1.7250835,230.58058,-138.49829,-20.253874,BSC
16275444847000,1.320021,-4.21478377238806,6.5962937300995,-5.38138490379353,2.7149906,-0.015882496,-1.8658879,230.30261,-139.0973,-20.625483,BSC
16275449837000,1.325011,-4.49621624319392,6.75437254387833,-5.75106887148289,2.9061913,0.07086037,-1.9960022,229.94849,-139.77151,-20.958126,BSC
16275454850000,1.330024,-4.81110107159696,6.92778727193916,-6.02031843574145,2.9547553,0.054061573,-2.0888536,229.55038,-140.46036,-21.27927,BSC
16275459836000,1.33501,-4.96626113293433,7.09234999431144,-6.22222470910389,2.8951957,-0.016187929,-2.110234,229.10689,-141.21332,-21.59025,BSC
16275464853000,1.340027,-4.97681385745662,7.25064201915221,-6.36468728904019,2.8356364,-0.109650314,-2.1184807,228.65704,-141.97235,-21.914413,BSC
16275469837000,1.345011,-4.77624496063121,7.37835811282695,-6.45538236769617,2.6795604,-0.1731803,-2.0809124,228.22136,-142.67989,-22.257978,BSC
16275475116000,1.35029,-4.4688397366953,7.50034423192742,-6.52857403915645,2.5152376,-0.15057829,-2.0436497,227.78723,-143.3562,-22.592691,BSC
16275479816000,1.35499,-4.05849515632487,7.62783423492386,-6.3021105595736,2.3829854,-0.0711658,-1.9956968,227.34338,-143.94305,-22.853159,BSC
16275484849000,1.360023,-3.54468732535025,7.77463637015228,-5.90085133885279,2.3493876,-0.05681047,-1.9208658,226.92574,-144.49318,-23.103271,BSC
16275489825000,1.364999,-3.16408645764601,7.78789514177441,-5.58625459228712,2.4022276,-0.12186762,-1.8619173,226.4808,-144.9556,-23.220024,BSC
16275494898000,1.370072,-2.84352003677218,7.73157963985733,-5.3090079274543,2.5231788,-0.19303341,-1.8017471,226.05713,-145.40817,-23.32105,BSC
16275499889000,1.375063,-2.56176539173479,7.62585233297003,-5.25496187238874,2.713769,-0.15118915,-1.7583756,225.60904,-145.71991,-23.236132,BSC
16275504836000,1.38001,-2.32748882149561,7.45373058165304,-5.49401929452013,2.9336803,-0.04734206,-1.7269161,225.18037,-146.05913,-23.150347,BSC
16275509841000,1.385015,-2.23036298580032,7.20808356774432,-5.45356164004226,3.1160235,-0.061086524,-1.720502,224.69362,-146.32787,-22.941519,BSC
16275514840000,1.390014,-2.31634990541997,6.86919420122557,-5.04385965599577,3.2415564,-0.22296582,-1.7779233,224.21815,-146.63869,-22.760872,BSC
16275519835000,1.395009,-2.50618314127861,6.58852570402526,-5.00063506945541,3.2953126,-0.35643986,-1.8637499,223.63026,-146.99811,-22.485336,BSC
16275524832000,1.400006,-2.78474094571823,6.35718092216851,-5.26975033839779,3.3102787,-0.30390546,-1.9529362,223.04247,-147.38168,-22.230026,BSC
16275529818000,1.404992,-3.06864427347351,6.23176815244642,-5.5785809076021,3.3487632,-0.15302174,-2.043955,222.34221,-147.72249,-21.942343,BSC
16275534841000,1.410015,-3.36042126429438,6.20745342013748,-5.92871325596442,3.4584136,-0.018020526,-2.1300871,221.64488,-148.09012,-21.681332,BSC
16275539805000,1.414979,-3.74617029432414,6.2082437941429,-6.19447730512258,3.5283577,0.032070424,-2.2220223,220.8566,-148.58473,-21.503403,BSC
16275544839000,1.420013,-4.22444970752647,6.23123798053992,-6.3922274521988,3.574478,0.018325957,-2.3017402,220.0736,-149.09822,-21.338535,BSC
16275549841000,1.425015,-4.58654667191379,6.27047363334452,-6.53960567855585,3.6312885,-0.049480084,-2.3310618,219.25414,-149.72409,-21.25725,BSC
16275554840000,1.430014,-4.8033549034049,6.33069808386448,-6.62392011890305,3.6599991,-0.090713486,-2.2947154,218.46605,-150.34009,-21.187843,BSC
16275559967000,1.435141,-4.99515159297486,6.37619958509402,-6.69143937662159,3.6554177,-0.12308934,-2.230269,217.76805,-151.0444,-21.291775,BSC
16275564844000,1.440018,-4.82739263353053,6.23311095024297,-6.53848246767378,3.6007452,-0.06841691,-2.2015584,217.08253,-151.72513,-21.383379,BSC
16275569830000,1.445004,-4.65625317467203,6.07740122057838,-6.34313001916116,3.5839465,0.0125227375,-2.1612413,216.29037,-152.4114,-21.465868,BSC
16275574822000,1.449996,-4.48686939943503,5.87139414858757,-5.94027131694915,3.6346483,0.061086524,-2.1471913,215.52856,-153.0826,-21.546703,BSC
16275579891000,1.455065,-4.32328664709459,5.65800472205333,-5.54206459319031,3.7534616,0.03940081,-2.1313088,214.71074,-153.73514,-21.56611,BSC
16275584850000,1.460024,-4.25728633273691,5.40225307318683,-5.27393818689308,3.873802,-0.0067195175,-2.101682,213.93839,-154.38129,-21.585985,BSC
16275591428000,1.466602,-4.17411293341088,5.06328321814707,-4.95435151429165,3.940081,-0.122783914,-2.0454822,213.10204,-154.94562,-21.540073,BSC
16275594894000,1.470068,-4.16308057045285,4.88676768596593,-5.0563996548816,4.021326,-0.14782938,-2.042428,212.30951,-155.5343,-21.505777,BSC
16275599917000,1.475091,-4.14709223832987,4.63095766918986,-5.20428996364769,4.0579777,-0.13133603,-2.0427334,211.49773,-156.13548,-21.48988,BSC
16275604768000,1.479942,-4.19960841048176,4.36493427977832,-5.37872779667481,4.151135,-0.089186326,-2.0674734,210.73514,-156.76,-21.492544,BSC
16275609849000,1.485023,-4.38222051719323,4.0506715917263,-5.62079487589457,4.234518,-0.055283304,-2.1361957,210.00645,-157.38171,-21.511547,BSC
16275614849000,1.490023,-4.563919217914,3.74277431051663,-5.85044031798982,4.3258424,-0.034513887,-2.2226331,209.23494,-158.20218,-21.595335,BSC
16275619838000,1.495012,-4.77091030450558,3.45298700542619,-5.9694600914654,4.411058,-0.05955936,-2.3139575,208.4807,-159.0263,-21.689878,BSC
16275624837000,1.500011,-4.94142867741149,3.15448134377255,-6.13502107797718,4.48314,0.008552114,-2.3738225,207.70313,-160.08678,-21.877476,BSC
16275629842000,1.505016,-4.98350289529894,2.8272371339803,-6.4622653853994,4.520708,0.1432479,-2.364354,206.93666,-161.13211,-22.041626,BSC
16275634878000,1.510052,-5.02083871327805,2.46542246695974,-6.77051167217504,4.5598035,0.2959642,-2.3197608,206.13068,-162.29167,-22.234333,BSC
16275639875000,1.515049,-5.03518233492856,1.9586124883305,-6.98088577157558,4.597983,0.3933972,-2.2736404,205.34056,-163.42688,-22.387564,BSC
16275644994000,1.520168,-5.03928051670977,1.421608195186,-7.18947126158743,4.598899,0.4615087,-2.205529,204.54318,-164.66885,-22.51406,BSC
16275649934000,1.525108,-5.001636331112,0.833416555798687,-7.36357574895564,4.6257772,0.47678033,-2.1138992,203.782,-165.88652,-22.60496,BSC
16275654854000,1.530028,-4.94563761761914,0.205686405014831,-7.52985085615978,4.6712866,0.44073927,-2.0549507,203.01324,-167.23627,-22.703274,BSC
16275660432000,1.535606,-4.7766222873245,-0.745025146391141,-7.67773933221277,4.6801443,0.36468655,-1.8726074,202.32715,-168.5271,-22.775623,BSC
16275664873000,1.540047,-4.64080293593347,-1.4899500240608,-7.77108655893318,4.6428814,0.36835176,-1.8112154,201.6017,-169.95166,-22.8381,BSC
16275669868000,1.545042,-4.48075465574993,-2.25818188353886,-7.73450430771437,4.615087,0.35033122,-1.6969837,200.96759,-171.32396,-22.895815,BSC
16275674989000,1.550163,-4.31592844677262,-3.0077856434964,-7.64955871925775,4.5420885,0.27580565,-1.5922203,200.3269,-172.8283,-22.944847,BSC
16275679817000,1.554991,-4.1517205494806,-3.26230783285981,-7.00504279525881,4.4593163,0.15760323,-1.5183055,199.72508,-174.28499,-22.990555,BSC
16275684814000,1.559988,-3.98176469555181,-3.52573935320962,-6.33796614401137,4.3768497,0.052534413,-1.4990633,199.11003,-175.85019,-23.02678,BSC
16275689836000,1.56501,-3.88356266887661,-3.08895237826888,-6.0409898747698,4.313014,-0.015577064,-1.4880677,198.52612,-177.36452,-23.06651,BSC
16275694858000,1.570032,-3.80483174622468,-2.46402608434622,-5.84416282504604,4.2363505,-0.096516706,-1.4957036,197.95255,-178.82738,-23.122967,BSC
16275699944000,1.575118,-3.75105063693608,-2.17519331713524,-5.41601992904491,4.1987824,-0.13225232,-1.5030339,197.36652,179.6709,-23.199867,BSC
16275704771000,1.579945,-3.70455140281648,-1.96129664596892,-4.96962689306443,4.1829,-0.0852157,-1.5076154,196.78548,178.2054,-23.259138,BSC
16275709827000,1.585001,-3.65584617644219,-1.73725240121712,-4.50205631301112,4.1416664,-0.021685716,-1.5033394,196.21239,176.87921,-23.302647,BSC
16275714778000,1.589952,-3.60815243123271,-1.51786097404818,-4.04419596058945,4.0689735,0.0027488936,-1.5085317,195.6438,175.58665,-23.329517,BSC
16275719835000,1.595009,-3.62958120684713,-1.96003532736863,-3.69145686120621,3.9782598,-0.03634648,-1.5338826,195.05255,174.3172,-23.340397,BSC
16275724796000,1.59997,-3.6626796875,-2.5085248796875,-3.3652002609375,3.8841867,-0.099571034,-1.5699236,194.46648,173.08916,-23.337791,BSC
16275730332000,1.605506,-3.61414043427558,-3.64843802804097,-3.34494490874618,3.7614028,-0.14721853,-1.5968018,193.85715,171.9724,-23.37298,BSC
16275734783000,1.609957,-3.56375956834433,-4.63506230358515,-3.37433369606028,3.5851681,-0.21991149,-1.6132951,193.24698,170.9127,-23.421545,BSC
16275739854000,1.615028,-3.73827225146143,-5.64747100436033,-3.42976795471969,3.3945782,-0.25228736,-1.6224581,192.60583,169.74194,-23.508068,BSC
16275744897000,1.620071,-3.96505675886919,-6.62866095826545,-3.48993517339722,3.2488868,-0.3203988,-1.59558,191.97186,168.62576,-23.614128,BSC
16275749915000,1.625089,-4.29372853573591,-7.02206225594022,-3.29472224073023,3.1227431,-0.38545597,-1.5451837,191.29639,167.33504,-23.705843,BSC
16275754801000,1.629975,-4.64781319371926,-7.21238272436625,-3.02030674286795,2.9669726,-0.38362336,-1.5152513,190.6282,166.1075,-23.7836,BSC
16275759814000,1.634988,-4.91119708847759,-7.13367090130523,-2.51148302435006,2.8695395,-0.34208453,-1.4391985,189.9289,164.74193,-23.882391,BSC
16275764878000,1.640052,-5.11354877479405,-6.87943420889055,-1.85254295930245,2.5925121,-0.28985557,-1.3326025,189.2546,163.49094,-23.966423,BSC
16275769836000,1.64501,-5.13312752540078,-6.53097285557535,-1.70468524702529,2.2650883,-0.30909783,-1.2803736,188.55206,162.24872,-24.132973,BSC
16275774877000,1.650051,-5.09443035265408,-6.14400260969897,-1.71758424474528,1.9324722,-0.38515055,-1.2825116,187.8685,161.10579,-24.289017,BSC
16275779814000,1.654988,-5.17456224878267,-6.40295627116373,-2.39977825298191,1.627345,-0.4636467,-1.3518448,187.15596,160.06282,-24.519901,BSC
16275784839000,1.660013,-5.37341958070136,-7.30050107404512,-3.75953169222694,1.3643675,-0.47739118,-1.4251486,186.4423,159.10947,-24.739038,BSC
16275789824000,1.664998,-5.65614757833831,-9.22726106875903,-5.88345346981804,1.1713341,-0.24770586,-1.5259414,185.7328,158.27472,-24.895613,BSC
16275794913000,1.670087,-5.97989930303264,-11.6202089143737,-8.37024253422547,0.98654735,0.13561209,-1.6835446,185.0095,157.50046,-24.99103,BSC
16275800197000,1.675371,-5.82507594260383,-13.6109392627158,-10.291885619692,0.8518516,0.49021935,-1.920255,184.25446,156.67838,-24.910992,BSC
16275804834000,1.680008,-5.47694326826878,-15.1443810980868,-11.6927057930005,1.0033462,0.9596693,-2.1896465,183.53041,155.82326,-24.671888,BSC
16275809838000,1.685012,-4.60947858619619,-16.4357840459437,-10.8856505215232,1.3106114,1.5961909,-2.3142629,182.82465,154.7321,-24.052073,BSC
16275814849000,1.690023,-3.23395519727856,-17.3544552804222,-7.68768258857616,1.4217888,2.1343632,-2.2730296,182.18771,153.6871,-23.335703,BSC
16275819836000,1.69501,-2.24572950817398,-17.176218071931,-5.14422543802636,1.0882565,2.4953845,-2.158187,181.64156,152.52283,-22.270508,BSC
16275824835000,1.700009,-1.55320287723174,-16.1421714796394,-3.09510576898841,0.5626069,2.9987376,-2.0082195,181.27841,151.46844,-21.087837,BSC
16275829812000,1.704986,-1.14807275125262,-15.1410753406978,-2.1496442303309,0.018020526,3.7458258,-1.8280143,181.02676,150.215,-19.748589,BSC
16275834837000,1.710011,-0.984502073855843,-14.1548405986204,-2.14002243287014,-0.52839845,4.42297,-1.5448782,180.97035,149.18944,-18.372402,BSC
16275839829000,1.715003,-0.735483596235329,-14.3789263738263,-2.5095168241784,-1.0256428,4.5940123,-1.1087204,181.07114,148.34744,-17.036064,BSC
16275844897000,1.720071,-0.407927568367567,-15.6464250444053,-3.21210064358372,-1.280679,4.4791694,-0.4089743,181.41577,147.66837,-15.713234,BSC
16275849888000,1.725062,-0.0380210272725553,-16.6535573272177,-3.30303457480613,-1.1899655,4.4638977,0.6078109,182.03722,147.21812,-14.463938,BSC
16275854809000,1.729983,0.372015550200492,-17.4156910358426,-2.81723037394553,-0.9819659,4.216192,1.183246,182.68323,146.83102,-13.353554,BSC
16275859819000,1.734993,0.189765895974286,-18.061102877964,-2.49768442854885,-0.91446525,3.5995235,2.2852468,183.67178,146.47083,-12.4869995,BSC
16275864821000,1.739995,-0.981436473955106,-18.4902074261777,-2.46739473294341,-0.8604037,3.1645875,2.9342911,184.68939,146.07184,-11.677228,BSC
16275869787000,1.744961,-1.79632974895105,-18.8028076750092,-2.53095574696356,-0.91782504,2.6713138,3.0335567,185.74257,145.59355,-11.05652,BSC
16275874847000,1.750021,-2.23775459510489,-18.9945378167096,-2.70039148582996,-1.1279627,1.8194622,2.6233609,186.69432,145.17303,-10.659307,BSC
16275879799000,1.754973,-2.36483611059444,-18.9028446245146,-2.57047276214279,-1.4156802,1.1023064,1.8677205,187.43672,144.7703,-10.502893,BSC
16275884800000,1.759974,-1.79257356785821,-18.1684405790103,-1.75976753891268,-1.7379116,0.30757064,1.2959507,187.96088,144.44586,-10.527129,BSC
16275889806000,1.76498,-1.48045218937112,-16.7277296040744,-1.2932506874225,-2.1988094,-0.5018258,0.98654735,188.2018,144.23276,-10.71191,BSC
16275894818000,1.769992,-1.79222571859069,-13.5958225008365,-1.65226264959158,-2.767525,-1.0421361,0.9202685,188.26907,144.14008,-10.959306,BSC
16275899821000,1.774995,-2.24562479834643,-10.6427776038583,-2.01546967324691,-3.257439,-1.318858,1.0128145,188.22728,144.16162,-11.240343,BSC
16275904766000,1.77994,-3.08188229370215,-8.19684528136164,-2.38767674934164,-3.571118,-1.4178182,1.1548407,188.10982,144.29964,-11.599104,BSC
16275909759000,1.784933,-3.93022694906905,-6.07088652741466,-2.2497685714294,-3.6688566,-1.5198327,1.2647965,187.9519,144.86246,-12.144165,BSC
16275914768000,1.789942,-4.79082541520559,-4.76370719806051,-0.877462857486424,-3.620293,-1.7351627,1.3038919,187.77028,145.46544,-12.747008,BSC
16275919755000,1.794929,-5.60955850239952,-3.58895280773845,0.647919540335933,-3.5256088,-2.024102,1.2522738,187.49327,146.38647,-13.591297,BSC
16275924751000,1.799925,-6.30318282273545,-2.83314152415517,2.7048744785163,-3.4428365,-2.3698518,1.128879,187.16481,147.28098,-14.493913,BSC
16275929761000,1.804935,-6.87362889231527,-2.13522992007165,4.31327469248545,-3.4055738,-2.7052166,0.9779953,186.52953,148.27022,-15.709111,BSC
16275934756000,1.80993,-7.02787006325123,-1.63823095437528,4.41181751989252,-3.3127222,-2.925739,0.8179486,185.82744,149.1931,-16.968615,BSC
16275940124000,1.815298,-7.14982418536718,-1.11989683537917,4.40749002772935,-3.0292807,-2.8805351,0.66981375,184.9745,150.01128,-18.513994,BSC
16275944783000,1.819957,-6.72201686583134,-0.862240241629985,3.06086973414687,-2.5573874,-2.7571404,0.5039638,184.0498,150.72546,-20.082558,BSC
16275949760000,1.824934,-6.26936087692626,-0.648235546367026,1.6639047062966,-2.3109033,-2.4141395,0.4269948,183.22826,151.46182,-21.664486,BSC
16275954807000,1.829981,-5.83287202275062,-0.74834769201657,0.462558975227838,-1.8802432,-1.9950858,0.2602286,182.36383,151.9902,-23.168913,BSC
16275959790000,1.834964,-5.40191819664457,-0.847190335521955,-0.723552730323115,-1.6450601,-1.6099354,0.10323623,181.66797,152.58542,-24.413185,BSC
16275964812000,1.839986,-4.82028311423008,-0.958638929638506,-2.2933343991412,-1.6194037,-1.2901474,-0.016493361,180.99075,153.09988,-25.556204,BSC
16275969759000,1.844933,-4.20051901204314,-1.07218349722389,-3.95865446025564,-1.7864754,-1.0845913,-0.087964594,180.32436,153.58165,-26.620138,BSC
16275974819000,1.849993,-4.45317629010555,-1.1765245007004,-7.26494458838907,-2.130698,-0.9279043,-0.14905111,179.7852,154.1353,-27.340597,BSC
16275979780000,1.854954,-4.99216327132288,-1.27494825457236,-11.0331671544836,-2.5002716,-0.79473567,-0.20433442,179.25853,154.71684,-28.008593,BSC
16275984797000,1.859971,-5.46012116421627,-1.2438001789881,-11.27524116875,-2.8053987,-0.75655663,-0.2660318,178.88852,155.41447,-28.326637,BSC
16275989810000,1.864984,-5.89829431519841,-1.16283336595238,-10.155994925,-2.9507847,-0.82863873,-0.35460728,178.50229,156.13654,-28.62969,BSC
16275994831000,1.870005,-5.93741436141115,-1.05656593864692,-8.48293489227642,-2.8722885,-1.0235047,-0.44623706,178.38383,157.06168,-28.639914,BSC
16275999834000,1.875008,-5.81684424041812,-0.940633015648471,-6.59554636314363,-2.665205,-1.3020593,-0.5421429,178.20442,157.95009,-28.68658,BSC
16276004869000,1.880043,-5.72376223735112,-0.81012760768747,-5.42709731424488,-2.4599543,-1.6096299,-0.5900958,177.87285,158.77687,-29.002718,BSC
16276009880000,1.885054,-5.64602799571224,-0.672949766199142,-4.6497563302525,-2.300213,-1.9453003,-0.6032294,177.48412,159.53107,-29.389341,BSC
16276014876000,1.89005,-5.76465197142857,-0.722711661067438,-4.38990149880287,-2.1496348,-2.329229,-0.5705481,176.93445,160.14545,-30.057884,BSC
16276020457000,1.895631,-6.06857728571429,-0.941324430806066,-4.54986195610535,-1.9773707,-2.809064,-0.47983465,176.3495,160.70511,-30.839579,BSC
16276024868000,1.900042,-6.33617112041938,-1.46208029328176,-5.09930433075122,-1.7104226,-3.3716707,-0.40744713,175.6937,161.21057,-31.820602,BSC
16276029876000,1.90505,-6.65838219045195,-2.28713626266287,-6.00735418726588,-1.3530666,-4.0814962,-0.33322698,174.99031,161.65166,-32.96992,BSC
16276034872000,1.910046,-7.45530609991387,-4.83106066415925,-5.08802298161547,-0.8863655,-5.0121493,-0.21838433,174.18878,162.01517,-34.34759,BSC
16276039852000,1.915026,-8.57812666838932,-8.55553965755575,-2.91084609732032,-0.1160644,-7.3972726,-0.05467244,173.13306,162.2333,-36.2933,BSC
16276044849000,1.920023,-8.83449394989754,-11.5941427846311,-4.06005100548156,1.6523905,-9.176417,-0.11362094,171.8467,162.094,-38.14316,BSC
16276049852000,1.925026,-8.20612996495902,-13.9259621438525,-8.60096372469262,3.7519343,10.002308,-0.24312437,173.15155,161.70374,-35.04725,BSC
16276054853000,1.930027,-6.14579855566132,-15.6069809571142,-11.8783774391784,4.1328087,10.002308,-0.48288897,171.08853,160.71063,-37.925346,BSC
16276059844000,1.935018,-2.89382123737475,-16.7420603823647,-14.0958522338677,3.0949488,-9.164201,-0.5907067,168.70259,159.57776,-40.70021,BSC
16276064843000,1.940017,-0.854695377662234,-15.9488663140686,-14.7231474555544,2.164601,-5.411044,-0.6133087,170.29778,158.12996,-36.82514,BSC
16276069840000,1.945014,0.174090789671033,-13.5563405875412,-14.029314929907,2.0934353,-2.1563544,-0.26236662,168.79852,156.8625,-37.964375,BSC
16276074850000,1.950024,0.505145370734316,-11.1216909324082,-13.6128754833767,0.18234327,-0.036957346,0.2959642,168.18863,156.1253,-37.669132,BSC
16276079897000,1.955071,0.253623400707334,-8.63907537741158,-13.4265630246699,-1.9614882,1.6368134,0.8353582,168.20956,155.58025,-36.80277,BSC
16276084839000,1.960013,-0.282551097404303,-6.35717350863549,-12.867015043632,-3.4901786,3.0155363,1.3020593,168.90924,155.6897,-35.626923,BSC
16276089932000,1.965106,-1.16434758768508,-4.17485032287648,-11.8620629050601,-4.5417833,3.966348,1.6951511,169.92534,156.2627,-34.245773,BSC
16276094833000,1.970007,-2.08203958061617,-2.41249474074454,-10.6261006020539,-4.9678617,4.5185704,1.9630154,171.32402,157.44858,-32.79962,BSC
16276099848000,1.975022,-3.09220027958922,-0.956535468990817,-9.08477523965636,-4.710687,4.678006,2.1022928,172.78386,158.74503,-31.238152,BSC
16276104832000,1.980006,-4.07283644723487,-0.0541451451166465,-7.02581103028163,-3.9208386,4.4700065,2.105958,174.2592,160.3635,-29.878527,BSC
16276109844000,1.985018,-5.03201259401431,0.222454463965982,-4.34457937042476,-2.967278,3.7950003,2.0054705,175.59344,161.82547,-28.583742,BSC
16276114833000,1.990007,-5.93578985281317,0.21289947838071,-1.39906795444031,-2.097406,2.5231788,1.756543,176.65308,163.12927,-27.812916,BSC
16276119837000,1.995011,-6.72964154079592,-0.425939816165458,2.16621891923152,-1.4230106,0.68294734,1.434617,177.47913,164.18724,-27.357828,BSC
16276124795000,1.999969,-7.33640492206395,-0.995861604847526,5.08997939014456,-0.90224797,-1.4856243,1.1346822,177.8618,164.9428,-27.762829,BSC
16276129851000,2.005025,-7.44880817271288,-1.39949207734304,6.35707279573705,-0.3753767,-3.5570683,0.9416488,178.0124,165.49135,-28.626835,BSC
16276134774000,2.009948,-7.33967591107399,-1.95720303605188,8.24452798900462,0.15790866,-5.048496,0.88086766,177.66963,165.69794,-30.384172,BSC
16276139818000,2.014992,-6.84603712176476,-2.81632465310995,11.3202779556746,0.6398814,-5.6349263,0.8546005,177.14629,165.77237,-32.450325,BSC
16276144918000,2.020092,-6.68176280262504,-3.48952012864671,10.4204162467038,0.79351395,-7.277238,0.8399397,176.19632,165.72415,-35.338345,BSC
16276149912000,2.025086,-7.12878449714627,-3.7938753048424,2.25989117006065,0.11942416,-5.762292,1.0567969,175.52309,165.79726,-37.533627,BSC
16276154791000,2.029965,-7.85748173473159,-4.0587759800887,-4.31031795629678,-0.72356987,-3.051272,1.7669277,174.59477,165.75166,-40.139004,BSC
16276159985000,2.035159,-9.26843761757369,-4.27018953653331,-8.25364052473436,-1.6924021,-1.6126842,2.3133466,173.63927,165.90341,-42.66589,BSC
16276164826000,2.04,-10.4370158978567,-4.41349010806107,-11.408020145507,-2.0955732,-0.605062,2.6062565,173.83119,166.47798,-43.644543,BSC
16276169838000,2.045012,-10.8976949408722,-4.28698235787956,-12.0095286869561,-2.1630738,0.58093286,2.48164,174.27751,167.19206,-44.18234,BSC
16276174822000,2.049996,-11.3558003579492,-4.16118135490576,-12.6076768454921,-2.0164661,1.0882565,2.0295997,175.04314,168.07178,-44.257286,BSC
16276179849000,2.055023,-11.8178581291462,-4.03429499014869,-13.2109855920732,-1.6893479,1.0580186,1.4147639,175.73405,168.8337,-44.127018,BSC
16276184812000,2.059986,-12.0276669894138,-3.96127434221155,-13.5649746029713,-1.2608259,1.3649784,0.86254174,176.35863,169.45016,-43.74228,BSC
16276189824000,2.064998,-10.7039701901966,-4.21320369707321,-12.4163473516591,-0.8958339,2.0470095,0.43951756,176.7933,169.89456,-43.23194,BSC
16276194904000,2.070078,-9.36231421652878,-4.46855108787474,-11.2521361711591,-0.5910121,2.8753426,0.047036625,177.14426,170.24738,-42.55248,BSC
16276199892000,2.075066,-7.13112488546422,-4.37614228755817,-8.69076969754044,-0.31215215,3.5870006,-0.28619036,177.37569,170.44496,-41.71339,BSC
16276204823000,2.079997,-4.84117825364794,-4.13759746772633,-5.9498407491006,-0.115453534,4.136474,-0.45662177,177.55423,170.54482,-40.701706,BSC
16276209836000,2.08501,-2.58507592093494,-2.71094443724948,-2.4566736854339,-0.1255328,4.2589526,-0.46120325,177.63824,170.5016,-39.57893,BSC
16276214880000,2.090054,-0.372624531010063,-1.25010695419307,1.00291618819232,-0.344528,3.934583,-0.30909783,177.70206,170.39406,-38.451244,BSC
16276219838000,2.095012,1.07412830017704,0.506348257100261,3.70617617439434,-0.72387534,3.2879822,-0.0021380284,177.80635,170.35571,-37.40405,BSC
16276224841000,2.100015,2.53401220788763,2.27874547817741,6.4339715981476,-1.3063353,2.5766296,0.364992,178.02504,170.58324,-36.562233,BSC
16276229849000,2.105023,3.06136026304438,3.49718885275057,7.77604569472807,-2.1029036,1.847562,0.77824235,178.3135,171.00829,-35.928005,BSC
16276235086000,2.11026,3.48652381568874,4.6746443799982,8.87138994599694,-3.037222,1.4645494,1.2144,178.70319,171.66412,-35.41687,BSC
16276239807000,2.114981,3.12089447679935,4.88589693404619,6.48667408787852,-3.936721,1.4975362,1.6939293,179.26942,172.66925,-35.113297,BSC
16276244837000,2.120011,2.73133388060922,5.11097643984186,3.94587324773115,-4.6086726,1.7528778,1.9459113,179.9579,174.00818,-34.92177,BSC
16276249850000,2.125024,1.58545547751096,4.88293367190436,1.28267118088327,-4.8866167,1.7773124,2.3585508,180.85602,175.58937,-34.789997,BSC
16276254774000,2.129948,0.241370928469409,4.52844972982877,-1.37103420475047,-5.295591,1.5271631,2.5445592,181.76315,177.38362,-34.634342,BSC
16276259835000,2.135009,-1.19072958942897,4.29816012843312,-3.84895492768228,-5.5017576,0.9718866,2.6215281,182.87643,179.32642,-34.292133,BSC
16276264782000,2.139956,-2.59957327617467,4.09689674600869,-6.22667124270895,-5.491984,0.19975294,2.7088819,184.04823,-178.63676,-34.042267,BSC
16276269837000,2.145011,-3.95977719047834,2.0247254808756,-10.2751526007567,-5.277265,-0.50823987,2.7736337,185.22125,-176.62936,-33.81433,BSC
16276274818000,2.149992,-5.28328309323484,-0.411728537807405,-14.6066258932529,-4.759251,-0.84329945,2.7479773,186.39099,-174.69884,-33.65852,BSC
16276279818000,2.154992,-5.93970653650681,-1.78832805638082,-16.0058978173136,-3.8854084,-0.68233645,2.636189,187.51294,-172.97826,-33.496033,BSC
16276284805000,2.159979,-6.16292730657895,-2.47497444078947,-15.5085041052632,-2.819143,-0.14660765,2.5057693,188.58656,-171.46504,-33.293106,BSC
16276289814000,2.164988,-6.3871328083418,-3.16464994500102,-15.0089161558626,-1.7266107,0.3115413,2.36863,189.29205,-170.73209,-32.793724,BSC
16276294938000,2.170112,-6.6164857712152,-3.87015948454582,-14.4978583294046,-0.81000733,0.2919936,2.2333233,189.9311,-170.25473,-32.310627,BSC
16276299898000,2.175072,-6.75668734113416,-4.03853320613989,-13.120762472949,-0.17592919,-0.30482176,2.067168,190.53212,-169.97816,-31.892378,BSC
16276304852000,2.180026,-6.86054560401334,-3.979185649484,-11.35516937027,0.16554448,-1.2394456,1.8634444,191.09502,-169.88309,-31.611359,BSC
16276309899000,2.185073,-6.89291715791427,-3.33180295771897,-10.5566900761644,0.2874121,-2.1679606,1.6811012,191.53143,-170.04683,-31.71194,BSC
16276314881000,2.190055,-6.90223497193633,-2.51183902099404,-10.0768248674934,0.21166481,-2.881146,1.5677856,191.97256,-170.25302,-32.023033,BSC
16276319870000,2.195044,-7.07958813961188,-1.5119245926578,-10.0709018450535,0.027488936,-3.3512068,1.5228871,192.41745,-170.41792,-32.711586,BSC
16276324872000,2.200046,-7.32396778696609,-0.43857119569871,-10.2529892552766,-0.1777618,-3.6871827,1.5293012,192.87505,-170.55923,-33.55091,BSC
16276329868000,2.205042,-7.82512412567359,0.59443014371632,-10.8551443362202,-0.3200934,-3.9709296,1.5467108,193.42664,-170.53392,-34.523224,BSC
16276334877000,2.210051,-8.42982977020785,1.61458216148961,-11.6260280866051,-0.38637227,-4.181067,1.5329664,193.9866,-170.47777,-35.548416,BSC
16276339873000,2.215047,-9.40243195530995,2.45217333061028,-13.0725346818837,-0.40286562,-4.2766676,1.4706581,194.65254,-170.23283,-36.576195,BSC
16276345769000,2.220943,-10.7970946313311,3.32044588649688,-15.2323627283998,-0.33444872,-4.5478916,1.3045027,195.30908,-170.0145,-37.68999,BSC
16276349867000,2.225041,-12.0899270853407,3.29824764192917,-15.9812958214948,-0.03634648,-4.6120324,1.1808025,196.04547,-169.67632,-38.688732,BSC
16276354864000,2.230038,-13.853587730698,2.90905999555281,-16.4591590240889,0.23854288,-4.7009134,0.86070913,196.67657,-169.42352,-39.760277,BSC
16276359862000,2.235036,-15.2699946199123,2.60566119237988,-14.8956945373865,1.0607675,-4.7696357,0.48441613,197.31502,-169.30437,-40.75203,BSC
16276364884000,2.240058,-16.471994925533,2.35544889222687,-12.0256125722738,1.9517145,-4.6636505,0.18173242,197.84679,-169.31398,-41.709538,BSC
16276369872000,2.245046,-17.2792598846154,2.24661705332042,-8.85465071538462,2.550057,-4.4443502,0.023518313,198.24608,-169.57127,-42.86339,BSC
16276374870000,2.250044,-17.8840819615385,2.21129900578307,-5.50825903846154,2.7391198,-4.2650614,-0.020158553,198.56416,-169.94768,-43.97469,BSC
16276379951000,2.255125,-18.1020897884808,2.08962161549267,-2.47626464109974,2.5689938,-4.134336,-0.028405234,198.76793,-170.37723,-45.42343,BSC
16276384852000,2.260026,-17.9184153960466,1.88710856786073,0.0810512425145494,2.207667,-3.986201,-0.077579886,198.91957,-170.80026,-46.771336,BSC
16276389873000,2.265047,-17.2604549550629,1.60406351680689,1.9373758284173,1.8570304,-3.580892,-0.19517145,198.97043,-171.03745,-48.283363,BSC
16276394915000,2.270089,-16.1086202109274,1.2408292629615,3.00318151617341,1.5714508,-2.9767463,-0.32559118,198.97072,-171.21924,-49.651134,BSC
16276399927000,2.275101,-14.7200467231806,0.838256438827087,3.71324489906802,1.2861768,-2.2934935,-0.46609017,198.9296,-171.33249,-51.074272,BSC
16276404875000,2.280049,-13.0897714806663,0.396625661936347,4.04211902224866,1.0021244,-1.7583756,-0.5635232,198.82515,-171.4082,-52.33673,BSC
16276409830000,2.285004,-11.5822917463235,-0.0470130879373065,3.93642726350619,0.6423248,-1.4856243,-0.56077427,6.9475393,-171.44832,-53.502254,BSC
16276415425000,2.290599,-10.0530003170956,-0.549864963367841,3.2158456653541,0.26389378,-1.6267341,-0.44684792,6.3766785,-171.43054,-54.611702,BSC
16276419797000,2.294971,-8.8556038965629,-0.983773129352843,2.06873044575272,0.0076358155,-2.0928242,-0.25778514,5.8528576,-171.3725,-55.655563,BSC
16276424868000,2.300042,-7.46301945168418,-1.55129885261711,-0.177526845418835,-0.18112154,-2.673757,-0.048563786,5.2721686,-171.2348,-56.750843,BSC
16276429773000,2.304947,-6.18862269198363,-2.01099585360365,-2.59100933546917,-0.29779682,-3.0320296,0.11301007,4.700208,-170.97707,-57.695087,BSC
16276434869000,2.310043,-5.01312908759416,-2.30600382912676,-5.59101415674695,-0.32650748,-2.914438,0.16432275,4.104781,-170.69366,-58.653946,BSC
16276439822000,2.314996,-4.05666092337511,-2.51227461903235,-8.15250019367531,-0.23243423,-2.6710083,0.16890424,3.9339592,-170.72034,-59.528873,BSC
16276444967000,2.320141,-3.87954171162926,-2.37345144226173,-9.25829905333722,-0.11942416,-1.9199494,0.18753563,3.765088,-170.73232,-60.221798,BSC
16276449831000,2.325005,-3.86885489574891,-2.23675701628923,-10.0409870584029,0.13713925,-0.9783007,0.23426682,3.8642683,-170.77719,-60.34728,BSC
16276454871000,2.330045,-4.88520653818037,-2.05937494715932,-9.13010617640048,0.33383787,0.0030543262,0.2706133,3.9773889,-170.82828,-60.250122,BSC
16276459868000,2.335042,-5.89591902138244,-1.87351114637808,-8.1853224362716,0.3903429,0.92087936,0.23396139,4.176247,-170.84271,-59.741024,BSC
16276464875000,2.340049,-6.92959970710421,-1.61822965777623,-6.9507642141735,0.27122417,1.7632625,0.116675265,4.376661,-170.87318,-58.98818,BSC
16276469772000,2.344946,-7.94057121059522,-1.36855651024612,-5.74332830172805,0.080634214,2.4544566,-0.03848451,4.5168295,-170.9515,-58.233364,BSC
16276474872000,2.350046,-8.74371113029794,-1.03609158431599,-4.07610572973143,-0.14905111,2.9168816,-0.17470746,4.6052074,-171.03267,-57.322166,BSC
16276479815000,2.354989,-9.46878160889635,-0.698387556336551,-2.37268704972723,-0.3747658,3.059824,-0.2828306,4.6314015,-171.1178,-56.32465,BSC
16276485072000,2.360246,-9.76072694646115,-0.349416885810237,-0.617682423441852,-0.5830709,2.8484647,-0.31978795,4.4995737,-171.18393,-55.582798,BSC
16276489857000,2.365031,-9.98956579189475,-0.0325628000049938,0.975389469240373,-0.7779369,2.2748623,-0.3005457,4.3105397,-171.2268,-54.91499,BSC
16276494905000,2.370079,-9.97192273296165,0.184134663270595,2.04460086433721,-0.9233228,1.4865406,-0.21533,3.979745,-171.16962,-54.615635,BSC
16276499878000,2.375052,-9.90782992689609,0.376412787953667,2.98767928408151,-0.9960158,0.63621616,-0.07391469,3.633388,-171.07315,-54.495052,BSC
16276504876000,2.38005,-9.74351483181277,0.326684595368901,3.00791418630504,-0.98563105,-0.1328632,0.1001819,3.2357395,-170.77936,-54.76107,BSC
16276509797000,2.384971,-9.55190229631099,0.205173871590639,2.7508723100357,-0.8885035,-0.8032878,0.2910773,2.8596632,-170.45583,-55.222416,BSC
16276514876000,2.39005,-9.45484480141775,0.0537800269013401,2.22802583540493,-0.7528914,-1.41904,0.4392121,2.5026338,-169.91751,-55.921684,BSC
16276519837000,2.395011,-9.39486815167994,-0.103081334938823,1.62826174674694,-0.58459806,-2.0073032,0.53023106,2.1716788,-169.38586,-56.76997,BSC
16276524871000,2.400045,-9.5846672139778,-0.183514911181326,0.742971533100981,-0.4089743,-2.6196957,0.5222898,1.8875006,-168.98059,-57.757565,BSC
16276529890000,2.405064,-9.88885415160965,-0.227600015569109,-0.266577415381088,-0.22876903,-3.2424726,0.41447207,1.6234528,-168.61557,-58.884106,BSC
16276534874000,2.410048,-10.42037417367,-0.102516033866694,-2.39563884779549,-0.06841691,-3.4825428,0.23762658,202.23589,-168.42535,-60.019577,BSC
16276539867000,2.415041,-11.172618561478,0.184524513273649,-5.60752355774167,-0.10445796,-3.4623842,0.12950343,203.46501,-168.2496,-61.228794,BSC
16276545055000,2.420229,-12.0188759358846,0.638960679653376,-8.90219743287918,-0.23243423,-2.5051584,-0.06047566,204.24802,-168.23677,-62.17421,BSC
16276549885000,2.425059,-12.8483507745943,1.16259576675015,-11.9420615296534,-0.41874814,-1.2782356,-0.2733622,204.91124,-168.25003,-63.04028,BSC
16276554825000,2.429999,-13.6940138182508,1.59353180829065,-12.2687310052172,-0.28099802,-0.21044308,-0.48380527,205.024,-168.34021,-63.327427,BSC
16276559879000,2.435053,-14.5571729683172,1.95624226752039,-10.5240477289888,-0.0018325958,0.36071593,-0.68844515,0.715705,-168.47742,-63.449646,BSC
16276564875000,2.440049,-14.6128423416934,2.55094519784434,-8.51750405098974,0.23884831,0.464563,-0.8958339,0.8645463,-168.59969,-63.045765,BSC
16276569873000,2.445047,-13.7794609349155,3.40912992422013,-6.19594056171624,0.38148534,0.20555615,-1.0418307,1.0340259,-168.78,-62.62915,BSC
16276574868000,2.450042,-12.8099817090031,3.81988716217336,-4.47106145256878,0.45723262,-0.32986724,-1.108415,1.0906037,-168.98288,-62.572968,BSC
16276579878000,2.455052,-11.721789552411,3.85300602382408,-3.24566292924761,0.5149594,-0.9266826,-1.0338894,1.1759621,-169.1979,-62.605682,BSC
16276584873000,2.460047,-10.7888788017301,3.4210017164562,-2.40795129002685,0.54825157,-1.3640621,-0.9117164,1.1803361,-169.21454,-62.875443,BSC
16276589858000,2.465032,-10.0008800197872,2.55230432498757,-1.93325323996222,0.54244834,-1.6878207,-0.82863873,1.1932685,-169.22598,-63.260197,BSC
16276594884000,2.470058,-9.24316103874593,1.65158427767426,-1.78330470288869,0.50915617,-1.8936822,-0.77518797,1.1839044,-169.10283,-63.743317,BSC
16276599936000,2.47511,-8.51812208577344,0.721435803222912,-1.95979437789609,0.43127087,-1.9798143,-0.7492262,1.1614354,-168.9653,-64.25886,BSC
16276604876000,2.48005,-7.7919463050029,-0.00132451665056985,-2.31732450125555,0.3472769,-1.9376645,-0.70952,1.1154354,-168.9825,-64.86988,BSC
16276609860000,2.485034,-7.04053441626425,-0.526852018531968,-2.87973111450647,0.2770274,-1.7519615,-0.66614854,1.0529535,-168.98302,-65.44936,BSC
16276614810000,2.489984,-6.35435563739923,-0.821441959253418,-3.34406947343148,0.23762658,-1.4162911,-0.6032294,1.01159,-169.14894,-65.99611,BSC
16276619838000,2.495012,-5.75097669207851,-0.766589307833859,-3.66896595061339,0.20219639,-1.0140363,-0.4978552,0.9613906,-169.28142,-66.45957,BSC
16276624876000,2.50005,-5.19876012048924,-0.67823790899626,-3.95639833421611,0.20738874,-0.589485,-0.3662137,0.9789522,-169.47302,-66.74294,BSC
16276629888000,2.505062,-5.02894664004852,-0.348314839735166,-3.96610194719499,0.22357668,-0.20555615,-0.22968534,1.0008352,-169.63013,-66.9154,BSC
16276634862000,2.510036,-4.94025032213154,-0.0522122195093615,-3.92732016658665,0.23701571,-0.04642576,-0.119729586,1.0768738,-169.72507,-66.91954,BSC
16276639814000,2.514988,-5.33640200144023,0.0525174977369179,-3.59491710715314,0.25259277,0.18203785,-0.07941248,1.1647598,-169.80293,-66.79674,BSC
16276645093000,2.520267,-5.79746586484018,0.139958843548739,-3.23889798417709,0.27030787,0.2782491,-0.030848695,1.2753286,-169.7772,-66.60386,BSC
16276649838000,2.525012,-6.53272853150685,0.0181668410125074,-2.90509764359738,0.28680122,0.30787608,-0.03726278,1.3892674,-169.75685,-66.370636,BSC
16276655069000,2.530243,-7.33693027196963,-0.124299765641501,-2.55507568344159,0.2782491,0.31642818,-0.08032878,1.4715595,-169.7276,-66.18827,BSC
16276659816000,2.53499,-8.00034416371151,-0.339046405594264,-2.42469387269507,0.22082779,0.37110063,-0.15943582,1.5409502,-169.70624,-65.99229,BSC
16276664815000,2.539989,-8.6989761512442,-0.565193119966259,-2.28739059232391,0.15210545,0.4841107,-0.25411993,1.5559112,-169.74867,-65.90998,BSC
16276670369000,2.545543,-9.45514282369592,-0.765095057905378,-2.29708603299636,0.07360926,0.6291912,-0.36926803,1.5421188,-169.8093,-65.818214,BSC
16276674865000,2.550039,-10.0601734342903,-0.908735576627578,-2.36237720679337,-0.019242255,0.8216137,-0.49205196,1.4952298,-169.88669,-65.69821,BSC
16276679849000,2.555023,-10.549035004829,-0.864556366881288,-2.33473693215292,-0.09285152,1.0571023,-0.58368176,1.3830905,-170.04822,-65.6468,BSC
16276684815000,2.559989,-10.9557219277666,-0.730588974567404,-2.26296863987928,-0.17928895,1.2366967,-0.5925393,1.2393881,-170.2052,-65.56389,BSC
16276689813000,2.564987,-11.2842072673575,-0.564088814528497,-2.21274853139896,-0.24098633,1.3625349,-0.47219884,1.079688,-170.38954,-65.48061,BSC
16276694908000,2.570082,-11.5829921788036,-0.380221337693829,-2.17137837934998,-0.29138273,1.4492778,-0.28955013,0.90788287,-170.54617,-65.35339,BSC
16276699870000,2.575044,-11.8069151235002,-0.312238773988415,-2.12587679987588,-0.35338554,1.4865406,-0.051618114,0.7237813,-170.62712,-65.218475,BSC
16276704881000,2.580055,-11.9856095189284,-0.322166245008275,-2.0762393929458,-0.43157628,1.4239268,0.20891592,0.5468304,-170.64317,-65.06617,BSC
16276709875000,2.585049,-12.0185892286557,-0.548203067165477,-2.15256647233778,-0.47800204,1.2647965,0.4288274,0.37747067,-170.57217,-64.92774,BSC
16276714883000,2.590057,-11.9739191435889,-0.890672765735279,-2.29650311942461,-0.48533243,1.0436633,0.44043383,0.2045697,-170.48402,-64.820206,BSC
16276719879000,2.595053,-11.8514383699471,-1.08265519198523,-2.77671395091326,-0.42913285,0.8784242,0.3051272,0.03534494,-170.38535,-64.7556,BSC
16276724827000,2.600001,-11.7000907594071,-1.21508449319293,-3.38210498570716,-0.3295618,0.7837401,0.13500121,-0.12693778,-170.29959,-64.734955,BSC
16276729845000,2.605019,-11.4800227349937,-1.01689216558031,-3.89927063528553,-0.19883664,0.7480045,-0.002443461,-0.26639983,-170.31993,-64.75433,BSC
16276734838000,2.610012,-11.2334713191945,-0.681954546230178,-4.37376549483413,-0.045814894,0.68966687,-0.047036625,-0.38149878,-170.37317,-64.812225,BSC
16276740046000,2.61522,-10.9408796783778,-0.255246603653885,-4.80255708498293,0.027794369,0.6646214,-0.11575896,-0.4451965,-170.50363,-64.79434,BSC
16276744901000,2.620075,-10.6515086173459,0.178810007388075,-5.17127196552901,0.1328632,0.69058317,-0.12583824,-0.45807576,-170.64787,-64.775444,BSC
16276749888000,2.625062,-9.99948290326932,0.689118965726075,-5.27055421112522,0.19394971,0.7593055,-0.13622294,-0.42179355,-170.74942,-64.64597,BSC
16276754837000,2.630011,-9.17959398825583,1.22693622875099,-5.2329446386764,0.172264,0.80848014,-0.13927728,-0.3800923,-170.85165,-64.51598,BSC
16276759783000,2.634957,-8.41306654039396,1.71135062870299,-5.13580820886672,0.10629055,0.8017606,-0.13347405,-0.29161632,-170.86539,-64.278,BSC
16276764850000,2.640024,-7.99347875697109,1.84045452217959,-4.6243581653364,0.043676864,0.6780604,-0.12186762,-0.2078772,-170.8761,-64.06219,BSC
16276769782000,2.644956,-7.58507004415451,1.96611870268611,-4.12653467713993,0.00030543262,0.4596761,-0.10873401,-0.092746384,-170.68915,-63.752636,BSC
16276774817000,2.649991,-7.16813211450499,2.09440725679202,-3.61831463191097,-0.018325957,0.18692477,-0.077579886,0.017474506,-170.49617,-63.493267,BSC
16276779803000,2.654977,-6.86705880651106,2.13961926818182,-3.13790428323096,-0.02687807,-0.09407325,-0.055283304,0.11624736,-170.30508,-63.298088,BSC
16276784838000,2.660012,-6.9559145978706,1.89773329090909,-2.73311554070434,-0.013133603,-0.3885103,-0.029321533,0.22091591,-170.11134,-63.177883,BSC
16276789843000,2.665017,-7.06547196132792,1.62662391042292,-2.34956881279357,0.013744468,-0.6377433,0.014660766,0.28860733,-169.7613,-63.15917,BSC
16276794946000,2.67012,-7.23375291559244,1.26848803987286,-2.00869251285538,0.0720821,-0.8530733,0.06078109,0.36824507,-169.42119,-63.202106,BSC
16276799985000,2.675159,-7.40005585873559,0.914388398076369,-1.67529003245677,0.12583824,-1.0509937,0.09162979,0.40531164,-169.16362,-63.39099,BSC
16276804832000,2.680006,-7.56309009899135,0.563237670345821,-1.42864844697406,0.18784106,-1.2791518,0.10476339,0.45842046,-168.91306,-63.63294,BSC
16276810144000,2.685318,-7.74176513184438,0.178399076224784,-1.15834514553314,0.25534168,-1.5375478,0.099265605,0.47311416,-168.78497,-64.040405,BSC
16276814846000,2.69002,-7.85917293845502,-0.212899007596694,-1.48198370537247,0.31948254,-1.784032,0.07452556,0.49825266,-168.66714,-64.49449,BSC
16276819777000,2.694951,-7.97426598977429,-0.633239346315566,-1.93234833720462,0.39400807,-1.9382755,0.042760566,0.53796333,-168.56299,-64.981224,BSC
16276824826000,2.7,-8.10602609381962,-0.713944568053228,-2.73445633807787,0.45814893,-1.9065105,0.0012217305,0.53899187,-168.56729,-65.57383,BSC
16276829781000,2.704955,-8.23699551092164,-0.751364415465747,-3.56237104818137,0.4914411,-1.8506162,-0.015882496,0.54715073,-168.57753,-66.18771,BSC
16276834842000,2.710016,-8.47476138492911,-0.541079330262187,-4.30769573575452,0.49877146,-1.6218473,-0.013133603,0.59776676,-168.69205,-66.723495,BSC
16276839845000,2.715019,-8.72600351388619,-0.294490054462031,-5.02885316589629,0.4822781,-1.2935071,0.021685716,0.6502237,-168.801,-67.209076,BSC
16276844930000,2.720104,-9.0706687692845,-0.173424203824968,-5.29713430406147,0.43157628,-0.93645644,0.077579886,0.7794629,-168.91728,-67.49621,BSC
16276849834000,2.725008,-9.42216581987826,-0.0843783495908592,-5.45647931394072,0.3494149,-0.58459806,0.1142318,0.89528215,-169.02211,-67.69549,BSC
16276854836000,2.73001,-9.71666191310795,-0.181976374581851,-5.18866949451364,0.2724459,-0.2929099,0.15363261,1.0671102,-169.06174,-67.67851,BSC
16276859806000,2.73498,-9.9942621572756,-0.323129194243772,-4.82167238251285,0.1853976,-0.0842994,0.17470746,1.2141491,-169.08678,-67.5919,BSC
16276864818000,2.739992,-10.2143209078798,-0.516885463420428,-4.43478262168749,0.118202426,0.0125227375,0.19058995,1.3496064,-169.08952,-67.44811,BSC
16276869779000,2.744953,-10.4154916865641,-0.722962339619952,-4.04716170338738,0.0571159,0.077579886,0.19333886,1.4630126,-169.08261,-67.26224,BSC
16276874829000,2.750003,-10.4051245338938,-0.809551779132241,-3.91134380303426,0.02443461,0.12156218,0.17379116,1.5200391,-169.1078,-67.15896,BSC
16276879935000,2.755109,-10.3531465541866,-0.873342561506498,-3.82392682324008,-0.0036651916,0.15118915,0.15149458,1.5614331,-169.12709,-67.044945,BSC
16276884795000,2.759969,-10.3036728014688,-0.934059992438518,-3.74072147231966,-0.027183503,0.19364429,0.13469578,1.5468848,-169.1874,-67.015915,BSC
16276889911000,2.765085,-10.2515930239165,-0.997975707798232,-3.65313328809972,-0.037873644,0.2678644,0.11148291,1.5255331,-169.25232,-66.97554,BSC
16276894808000,2.769982,-10.150468180292,-0.924652228379855,-3.7033418120592,-0.045814894,0.37415496,0.09773844,1.5040166,-169.31374,-66.91707,BSC
16276899798000,2.774972,-10.0270456085229,-0.796482638432502,-3.80777631111553,-0.07086037,0.49266282,0.08155051,1.4728037,-169.37761,-66.84067,BSC
16276904742000,2.779916,-9.89346262151978,-0.664819216380574,-3.87767859016119,-0.083383106,0.59864795,0.080634214,1.4293623,-169.45999,-66.77334,BSC
16276909757000,2.784931,-9.75270772828135,-0.529091002412602,-3.93297523784802,-0.09896017,0.70249504,0.07086037,1.3765676,-169.54422,-66.68024,BSC
16276914778000,2.789952,-9.65036197005273,-0.431586122050542,-3.87554721595861,-0.116980694,0.7770206,0.07849618,1.3383418,-169.59483,-66.528915,BSC
16276919757000,2.794931,-9.56022428614068,-0.346192378414088,-3.78540933389712,-0.119729586,0.79076505,0.080634214,1.2992605,-169.64816,-66.37073,BSC
16276924756000,2.79993,-9.45968057016248,-0.296949857377647,-3.68128295042836,-0.13133603,0.782213,0.07727446,1.2719694,-169.6722,-66.17325,BSC
16276929763000,2.804937,-9.35579826292467,-0.25917451013097,-3.57267882771049,-0.14844026,0.7458665,0.08552113,1.2447346,-169.69107,-65.980865,BSC
16276934755000,2.809929,-9.24985512797075,-0.312778155942515,-3.58948262910827,-0.14905111,0.6783658,0.086437434,1.2123673,-169.69328,-65.80438,BSC
16276939765000,2.814939,-9.14264845521024,-0.400492606003453,-3.65283200814544,-0.15607607,0.61086524,0.087659165,1.1755416,-169.69063,-65.6395,BSC
16276944789000,2.819963,-9.02287616078394,-0.494680197824184,-3.77961330214061,-0.17928895,0.548557,0.06811147,1.1324621,-169.68173,-65.504005,BSC
16276949759000,2.824933,-8.90061255313481,-0.589774029248407,-3.92451818902103,-0.19425514,0.50915617,0.048258353,1.0905815,-169.67294,-65.38251,BSC
16276954812000,2.829986,-8.77360844089614,-0.69170102792768,-4.06560437323376,-0.20952678,0.4831944,0.028405234,1.0581343,-169.68353,-65.26683,BSC
16276959913000,2.835087,-8.64400434607448,-0.797304694702761,-4.20480929488061,-0.20799962,0.46303585,0.010079277,1.024928,-169.69894,-65.16402,BSC
16276964808000,2.839982,-8.52754919439395,-0.856357835943748,-4.27238106556969,-0.2012801,0.43218717,-0.0030543262,1.0112777,-169.73474,-65.04503,BSC
16276969813000,2.844987,-8.41291252549507,-0.893041598719985,-4.30447933286138,-0.18906279,0.38912117,-0.021991149,0.99749297,-169.777,-64.93908,BSC
16276974802000,2.849976,-8.32543261803381,-0.8557659523732,-4.31643841045711,-0.18112154,0.33841935,-0.034513887,1.0112879,-169.83745,-64.81797,BSC
16276979821000,2.854995,-8.2602201884784,-0.755440343206011,-4.31142202943018,-0.16401732,0.28710666,-0.03726278,1.0301343,-169.90161,-64.71062,BSC
16276984813000,2.859987,-8.23310277060791,-0.620894728817627,-4.28300877887075,-0.15363261,0.24190263,-0.043982297,1.0572847,-169.9739,-64.60454,BSC
16276989858000,2.865032,-8.22835056521739,-0.464058740434783,-4.24023545652174,-0.15149458,0.19272798,-0.04886922,1.0869112,-170.04619,-64.51387,BSC
16276995537000,2.870711,-8.2694599069985,-0.293115873656437,-4.1803890930015,-0.13500121,0.13408493,-0.052534413,1.1280416,-170.10175,-64.42799,BSC
16276999817000,2.874991,-8.31931541972305,-0.166560093940868,-4.13053358027695,-0.13225232,0.08124508,-0.05589417,1.1657325,-170.15619,-64.35482,BSC
16277004832000,2.880006,-8.38652822353535,-0.0350849682505051,-4.07443092462626,-0.12889257,0.015271631,-0.060170226,1.2039015,-170.1804,-64.29771,BSC
16277009832000,2.885006,-8.46391660737374,0.0761607691232323,-4.02122658119192,-0.12308934,-0.03940081,-0.065973446,1.242889,-170.20601,-64.25269,BSC
16277014823000,2.889997,-8.52283577718941,0.175994796716904,-3.9609243696945,-0.101098195,-0.103847094,-0.061391957,1.2720501,-170.19887,-64.231926,BSC
16277019836000,2.89501,-8.56194636598778,0.263994142211813,-3.89248048195519,-0.093462385,-0.14813483,-0.06291912,1.2975637,-170.19394,-64.221794,BSC
16277024828000,2.900002,-8.58793113935925,0.337277003090244,-3.85234108539542,-0.08246681,-0.17898351,-0.062308256,1.3211292,-170.16772,-64.23214,BSC
16277029927000,2.905101,-8.60202550336733,0.39835240712334,-3.83824677044449,-0.073303826,-0.21746802,-0.056199603,1.3464646,-170.14168,-64.255264,BSC
16277034783000,2.909957,-8.59784793429717,0.440707665845978,-3.84437469792919,-0.06078109,-0.24770586,-0.054367006,1.3618442,-170.10234,-64.29359,BSC
16277039949000,2.915123,-8.56952071385629,0.464313830775837,-3.87742329432198,-0.06780604,-0.26847526,-0.0421497,1.3761106,-170.0584,-64.33674,BSC
16277044848000,2.920022,-8.53560371577262,0.483785939571657,-3.88704494803843,-0.06963864,-0.27855456,-0.034208454,1.3888189,-170.00266,-64.38228,BSC
16277049842000,2.925016,-8.48773888470777,0.498145401386109,-3.85593275786629,-0.0693332,-0.2828306,-0.031154128,1.4007616,-169.94577,-64.42978,BSC
16277054715000,2.929889,-8.44103377421937,0.51215694672488,-3.82557438727982,-0.059864793,-0.28985557,-0.024740042,1.4213123,-169.88213,-64.46748,BSC
16277059766000,2.93494,-8.3926226285028,0.526680303077462,-3.79410709201361,-0.059253927,-0.30390546,-0.018020526,1.439637,-169.81813,-64.506744,BSC
16277064981000,2.940155,-8.36556666666667,0.50956124772549,-3.78328930784314,-0.06719518,-0.344528,-0.008246681,1.4486862,-169.75418,-64.55268,BSC
16277069759000,2.944933,-8.37838384126984,0.441201968984127,-3.8089241031746,-0.06078109,-0.38056904,-0.0012217305,1.4618719,-169.69237,-64.59959,BSC
16277074739000,2.949913,-8.39826614811784,0.366902583069763,-3.85407897572627,-0.053450707,-0.40683624,0.005497787,1.4704573,-169.62032,-64.65264,BSC
16277079763000,2.954937,-8.44748243617021,0.278313208045213,-3.98204127327128,-0.039095376,-0.41722095,0.0125227375,1.4830952,-169.54951,-64.708626,BSC
16277084762000,2.959936,-8.50685306375905,0.203059021992959,-4.09062058879327,-0.010079277,-0.4025602,0.03359759,1.506296,-169.49556,-64.76392,BSC
16277089754000,2.964928,-8.60035469802464,0.170333425591629,-4.13737165000978,0.023823744,-0.37507126,0.044898596,1.5338744,-169.44562,-64.81738,BSC
16277094781000,2.969955,-8.69278748846116,0.126551532786114,-4.16918775783168,0.037873644,-0.33292156,0.07086037,1.5792738,-169.40771,-64.845955,BSC
16277099758000,2.974932,-8.77704018550525,0.0376178619151527,-4.13642254856133,0.051923547,-0.28496864,0.09040806,1.6335492,-169.37297,-64.864334,BSC
16277104849000,2.980023,-8.86475380101791,-0.0501458362518352,-4.10371454321229,0.063224554,-0.23335053,0.1142318,1.6944355,-169.34265,-64.86935,BSC
16277109869000,2.985043,-8.95886270969952,-0.120727568370852,-4.07548177234022,0.06811147,-0.18936823,0.10995574,1.7556978,-169.31607,-64.86459,BSC
16277114841000,2.990015,-9.06066993886505,-0.190025286896451,-4.04292306054992,0.059253927,-0.14630222,0.12156218,1.8113016,-169.29907,-64.86274,BSC
16277119837000,2.995011,-9.22395038387285,-0.255337313889431,-3.97761117482449,0.049480084,-0.087964594,0.12186762,1.8656092,-169.2869,-64.847336,BSC
16277124873000,3.000047,-9.38518501834782,-0.31832555848,-3.90742296798261,0.044898596,-0.061086524,0.119729586,1.9107068,-169.28938,-64.84781,LYI
16277129870000,3.005044,-9.5058634373913,-0.3474548704,-3.78674437513043,0.023823744,-0.018936822,0.112704635,1.9478858,-169.29016,-64.82989,LYI
16277135158000,3.010332,-9.63356955704348,-0.37828052608,-3.65903807154783,0.01863139,0.017104227,0.10598512,1.9699603,-169.30983,-64.839714,LYI
16277139910000,3.015084,-9.70725525442517,-0.413354009669229,-3.54161210607903,-0.0027488936,0.040927973,0.10048734,1.9813386,-169.32643,-64.84227,LYI
16277144913000,3.020087,-9.77578776711961,-0.451903524578938,-3.41739704422492,-0.00061086525,0.050701816,0.07971791,1.9950018,-169.3504,-64.841805,LYI
16277149963000,3.025137,-9.80941381231944,-0.474791037861123,-3.29789288644243,-0.015271631,0.044593163,0.059253927,1.9768065,-169.38332,-64.88183,LYI
16277154875000,3.030049,-9.81426752919934,-0.484498284101321,-3.18625962816756,-0.022602014,0.02321288,0.034513887,1.9585551,-169.42299,-64.92556,LYI
16277159861000,3.035035,-9.79347657607454,-0.465666654807067,-3.12349785838094,-0.030543262,0.0018325958,0.016493361,1.9152151,-169.47165,-65.00663,LYI
16277164887000,3.040061,-9.75540010899183,-0.427590068446866,-3.09388271553134,-0.015271631,-0.030848695,-0.0106901415,1.8729136,-169.52975,-65.098625,LYI
16277169768000,3.044942,-9.72025124764353,-0.384054293801771,-3.07834845487004,-0.004581489,-0.05375614,-0.024129177,1.8130078,-169.58685,-65.21326,LYI
16277174867000,3.050041,-9.68770561668095,-0.323612729532515,-3.09229654774826,0.002443461,-0.07880162,-0.025045475,1.7552906,-169.64763,-65.33631,LYI
16277179803000,3.054977,-9.6514709862324,-0.258865036514949,-3.12489156447139,0.002443461,-0.10934488,-0.030848695,1.72545650455636,-169.675348145484,-65.4022959552358,LYI
16277184875000,3.060049,-9.59657425963218,-0.169034137363608,-3.22969415508065,-0.0015271631,-0.124005646,-0.03359759,1.6948004,-169.70383,-65.4701,LYI
16277189915000,3.065089,-9.53586923239437,-0.083561016056338,-3.31553085211268,-0.002443461,-0.1301143,-0.030543262,1.6387633,-169.757,-65.596436,LYI
16277194944000,3.070118,-9.4600031885656,-0.00769463671237955,-3.35569546947739,-0.010079277,-0.12736541,-0.018020526,1.5840199,-169.79451,-65.71894,LYI
16277199904000,3.075078,-9.38215335952733,0.0659238888321024,-3.39139860616445,-0.015882496,-0.13194689,-0.016187929,1.5471694,-169.81253,-65.81243,LYI
16277204901000,3.080075,-9.28319061624815,0.13189870164648,-3.400823573097,-0.021380283,-0.1337795,-0.0015271631,1.5113342,-169.82268,-65.89965,LYI
16277209847000,3.085021,-9.19036505719557,0.19322061151599,-3.4106065601476,-0.024129177,-0.1337795,-0.0015271631,1.4867746,-169.8179,-65.96621,LYI
16277214885000,3.090059,-9.15080157503075,0.213002471370439,-3.42544294341943,-0.008857546,-0.14019357,0.0067195175,1.4680809,-169.80858,-66.03081,LYI
16277219877000,3.095051,-9.12227304649828,0.227266821281095,-3.44258253922694,0.002443461,-0.13500121,0.022907447,1.4572871,-169.77733,-66.07291,LYI
16277224860000,3.100034,-9.158798836969,0.209003816393035,-3.47454277275163,0.018020526,-0.14080444,0.030848695,1.4516313,-169.74881,-66.11859,LYI
16277229921000,3.105095,-9.19626021410829,0.188167834478887,-3.50763742583209,0.021685716,-0.11453723,0.03390302,1.4540498,-169.71461,-66.145615,LYI
16277234875000,3.110049,-9.23868348425236,0.131603305626031,-3.55006089285643,0.03604105,-0.08124508,0.02687807,1.4629984,-169.68456,-66.171875,LYI
16277240103000,3.115277,-9.28423294560794,0.0726981816410918,-3.58973608399007,0.037873644,-0.0421497,0.02321288,1.4724196,-169.65808,-66.18747,LYI
16277244895000,3.120069,-9.3343389537469,0.0271477516801985,-3.57151582981638,0.022602014,0.01038471,0.026267206,1.480806,-169.632,-66.19075,LYI
16277250870000,3.126044,-9.40398058626792,-0.0219600536984604,-3.53241466487347,0.008552114,0.038789943,0.027488936,1.4926933,-169.62198,-66.19175,LYI
16277254885000,3.130059,-9.47202314864626,-0.0321664444496549,-3.45756788178199,-0.00061086525,0.0842994,0.023518313,1.5014122,-169.61174,-66.1753,LYI
16277259794000,3.134968,-9.55521640860025,-0.0446454412610158,-3.36605533926739,-0.0106901415,0.113926366,0.026267206,1.5057005,-169.60657,-66.16582,LYI
16277264887000,3.140061,-9.53100622338888,-0.0373145814324246,-3.32468984972546,-0.022907447,0.11759156,0.02321288,1.5059158,-169.60289,-66.15284,LYI
16277269869000,3.145043,-9.47125773711588,-0.0235264162772373,-3.3017094448897,-0.029321533,0.12370021,0.016187929,1.504869,-169.5992,-66.132195,LYI
16277274863000,3.150037,-9.44902166056706,0.00385729726523225,-3.28784685843555,-0.03390302,0.124311075,0.017104227,1.4825867,-169.59746,-66.1401,LYI
16277279841000,3.155015,-9.44422834606877,0.037409821072592,-3.27826042964006,-0.036651913,0.12614368,0.013439035,1.4581245,-169.5983,-66.14752,LYI
16277284994000,3.160168,-9.42235941217614,0.0444886107415033,-3.23791818565659,-0.03756821,0.11789699,0.007330383,1.4331037,-169.59451,-66.155334,LYI
16277289887000,3.165061,-9.39466197615998,0.0398723850627524,-3.18713972970151,-0.034513887,0.10598512,0.009773844,1.4091793,-169.58963,-66.16299,LYI
16277294844000,3.170018,-9.35044430513232,0.0351411975807939,-3.20158327105052,-0.04337143,0.099571034,0.014660766,1.3744371,-169.57852,-66.17071,LYI
16277299889000,3.175063,-9.297169388332,0.030298074954992,-3.25001446190858,-0.05100725,0.09468412,0.016187929,1.3410641,-169.56836,-66.18115,LYI
16277304873000,3.180047,-9.25160039070315,0.0129944782588997,-3.31289885742866,-0.047647487,0.11789699,0.025350908,1.3043644,-169.55502,-66.19185,LYI
16277309866000,3.18504,-9.209396638325,-0.0104521218942826,-3.38323870587428,-0.0580322,0.14660765,0.03145956,1.2621791,-169.5402,-66.202415,LYI
16277314844000,3.190018,-9.20268647532157,-0.0310900065864992,-3.47200928086549,-0.06719518,0.1695151,0.03481932,1.2309783,-169.52277,-66.1942,LYI
16277320510000,3.195684,-9.21891838737661,-0.0527321187129325,-3.58563040540433,-0.076358154,0.19058995,0.043676864,1.1985551,-169.50159,-66.17793,LYI
16277324812000,3.199986,-9.25484096616403,-0.0817427470099301,-3.67790595108496,-0.0888809,0.22876903,0.04550946,1.1748863,-169.48532,-66.13798,LYI
16277329932000,3.205106,-9.30894179735197,-0.122318257418168,-3.790615717911,-0.09560041,0.28008172,0.038179077,1.1506134,-169.46918,-66.090126,LYI
16277334839000,3.210013,-9.36201382585752,-0.161562496490765,-3.90136873292876,-0.092240654,0.3481932,0.052839845,1.141885,-169.45148,-66.01048,LYI
16277339824000,3.214998,-9.4174380817942,-0.201870996042216,-4.0172555408971,-0.10476339,0.41050145,0.05222898,1.1251265,-169.43774,-65.92358,LYI
16277344826000,3.22,-9.52288682868303,-0.242127003244978,-4.07257163727679,-0.106901415,0.46792278,0.04520403,1.1266345,-169.43513,-65.808014,LYI
16277349883000,3.225057,-9.67152744791667,-0.282665438177083,-4.07707590416667,-0.106595986,0.50793445,0.042760566,1.1261885,-169.43054,-65.682625,LYI
16277354898000,3.230072,-9.75504094622328,-0.308320405235154,-4.04805557045131,-0.105068825,0.5635232,0.019547688,1.1387081,-169.44473,-65.53263,LYI
16277359837000,3.235011,-9.74605313938242,-0.312814449434679,-3.97165686598575,-0.10781772,0.5885687,0.007330383,1.1512482,-169.45602,-65.38169,LYI
16277364841000,3.240015,-9.70703748606894,-0.298493960967137,-3.89812042320057,-0.11301007,0.56016344,0.00061086525,1.1517625,-169.48523,-65.251915,LYI
16277369844000,3.245018,-9.59579155009823,-0.238592311041257,-3.83394003772102,-0.094989546,0.5369505,-0.004886922,1.1567893,-169.5188,-65.118126,LYI
16277374938000,3.250112,-9.47421498203593,-0.180095580329341,-3.7639430497006,-0.080634214,0.5207626,0.0018325958,1.1478127,-169.54828,-65.00538,LYI
16277379941000,3.255115,-9.24879110051326,-0.15447926274059,-3.63586143500855,-0.06811147,0.49663344,0.0106901415,1.1431243,-169.57959,-64.90294,LYI
16277384833000,3.260007,-9.03125502913362,-0.12435923266626,-3.50734323622127,-0.0571159,0.44806966,0.004276057,1.1382083,-169.59671,-64.81085,LYI
16277390495000,3.265669,-8.79415662004271,-0.0637061199389872,-3.3419256665243,-0.04428773,0.37568212,0.016493361,1.1404151,-169.60785,-64.72969,LYI
16277394877000,3.270051,-8.63223868258096,-0.0213819360256133,-3.23184045331698,-0.047647487,0.30573806,0.025045475,1.1295214,-169.60992,-64.66466,LYI
16277399846000,3.27502,-8.52015896211972,0.0113079626930324,-3.16646075048086,-0.036957346,0.23579398,0.039095376,1.1279472,-169.61028,-64.617516,LYI
16277404836000,3.28001,-8.42682121275825,0.0452268952691192,-3.12091965811888,-0.029932396,0.15332718,0.051618114,1.1173898,-169.59024,-64.595566,LYI
16277409840000,3.285014,-8.42247921348315,0.0843081819719101,-3.16868559494382,-0.03023783,0.08246681,0.062308256,1.1091998,-169.56776,-64.587906,LYI
16277415230000,3.290404,-8.42582521312804,0.125682009380065,-3.22656504781199,-0.046731193,0.027488936,0.069027774,1.096791,-169.53157,-64.59598,LYI
16277419830000,3.295004,-8.57308578849271,0.147994259987844,-3.39167578525122,-0.042455133,0.0067195175,0.073303826,1.0906003,-169.49626,-64.612495,LYI
16277425246000,3.30042,-8.74676514609626,0.16999804877861,-3.5828791213262,-0.04153884,-0.038179077,0.07147124,1.0805308,-169.44914,-64.635025,LYI
16277429901000,3.305075,-8.8993381231016,0.14139053966631,-3.71161292228877,-0.043676864,-0.04062254,0.079107046,1.072256,-169.39958,-64.65001,LYI
16277434815000,3.309989,-9.05937356375777,0.10953067415172,-3.84527850012983,-0.053145275,-0.043066,0.0870483,1.0734695,-169.35115,-64.65585,LYI
16277439852000,3.315026,-9.21594844950385,0.0647950951438375,-3.96606443349717,-0.062002823,-0.040317107,0.09285152,1.0748049,-169.3022,-64.66014,LYI
16277445135000,3.320309,-9.37758293225161,0.0178458970032663,-4.09452717017174,-0.09040806,-0.043066,0.09285152,1.0780694,-169.26244,-64.65861,LYI
16277449874000,3.325048,-9.43974716794858,-0.0251907061045201,-4.26667365450427,-0.1133155,-0.0027488936,0.09590584,1.0813287,-169.2209,-64.644196,LYI
16277454840000,3.330014,-9.49577787944527,-0.0687357661703814,-4.44221246315008,-0.12370021,0.04886922,0.08552113,1.0879428,-169.19725,-64.62436,LYI
16277459832000,3.335006,-9.43421284645864,-0.0924145257305597,-4.55587058618128,-0.118202426,0.10598512,0.079107046,1.0934747,-169.17162,-64.59222,LYI
16277464940000,3.340114,-9.36950708729861,-0.111339796438835,-4.66781251003185,-0.108123146,0.16798794,0.070554934,1.1100576,-169.161,-64.524925,LYI
16277469839000,3.345013,-9.28600933158486,-0.0629991695348445,-4.72054774872611,-0.10323623,0.23304509,0.06688975,1.1264709,-169.15103,-64.44364,LYI
16277474835000,3.350009,-9.20085832371675,-0.0137014001916448,-4.77432714299363,-0.099265605,0.27152961,0.063224554,1.1643176,-169.149,-64.33097,LYI
16277479868000,3.355042,-9.14707338766892,0.0464159701859164,-4.71816775780194,-0.09590584,0.29932398,0.056505036,1.2022517,-169.14923,-64.207375,LYI
16277485119000,3.360293,-9.09560245834452,0.108046096402685,-4.64419844510067,-0.08124508,0.32070425,0.059864793,1.2446556,-169.14954,-64.07712,LYI
16277489821000,3.364995,-9.06739592823266,0.140282440375839,-4.52331223409396,-0.0729984,0.3231477,0.06536258,1.298636,-169.13805,-63.924576,LYI
16277494879000,3.370053,-9.03705381225951,0.174959477342282,-4.39327343033557,-0.07696902,0.31306845,0.057421334,1.3396676,-169.11546,-63.77625,LYI
16277499940000,3.375114,-8.97688043348377,0.206904723724479,-4.28387275993982,-0.07238753,0.3023783,0.051923547,1.3858013,-169.0934,-63.629425,LYI
16277504814000,3.379988,-8.91167431635504,0.236999735856437,-4.18355614012465,-0.076358154,0.28924468,0.047647487,1.4276649,-169.0722,-63.48947,LYI
16277509842000,3.385016,-8.85338067055394,0.22881030303207,-4.14153634052478,-0.053450707,0.27488935,0.04520403,1.4587849,-169.04564,-63.375748,LYI
16277514858000,3.390032,-8.79598303541557,0.217330764017588,-4.10480175814176,-0.0571159,0.27488935,0.03359759,1.4803364,-169.01973,-63.26555,LYI
16277519837000,3.395011,-8.73900878793672,0.205935902623429,-4.06833814456818,-0.06352998,0.2706133,0.03481932,1.4979194,-168.98363,-63.169598,LYI
16277524845000,3.400019,-8.68170269607609,0.194474672283611,-4.03166215003585,-0.062002823,0.25411993,0.03145956,1.5147749,-168.95305,-63.08064,LYI
16277530117000,3.405291,-8.64052723070827,0.146136660570778,-3.96929278736008,-0.048563786,0.24007004,0.025350908,1.5329481,-168.92435,-62.994144,LYI
16277534840000,3.410014,-8.60916361000495,0.0923699368711243,-3.90656498452699,-0.05681047,0.21135938,0.027183503,1.546452,-168.8928,-62.916862,LYI
16277539831000,3.415005,-8.58988316288579,0.0396191311961834,-3.93190531441924,-0.0571159,0.17867808,0.016798794,1.5583943,-168.86967,-62.85203,LYI
16277544844000,3.420018,-8.5758603313212,-0.0117968802303573,-3.99266964887547,-0.05375614,0.14294247,0.021685716,1.571231,-168.84215,-62.794624,LYI
16277549802000,3.424976,-8.56100264912706,-0.0261705673131264,-4.07155873528936,-0.053145275,0.11759156,0.01863139,1.5741907,-168.82996,-62.759644,LYI
16277554880000,3.430054,-8.54527981159069,-0.0222398349442289,-4.16196576939864,-0.04520403,0.10598512,0.009773844,1.5798528,-168.81958,-62.73111,LYI
16277559901000,3.435075,-8.52634654646263,-0.0147613237192282,-4.23404704883566,-0.036957346,0.09437868,0.01038471,1.595017,-168.8202,-62.70038,LYI
16277564940000,3.440114,-8.49423898613883,0.00664365763938789,-4.23939817850965,-0.037873644,0.07544186,-0.0027488936,1.60706,-168.82646,-62.677788,LYI
16277569911000,3.445085,-8.46434562221585,0.0358464258646401,-4.22026843772106,-0.023823744,0.06566802,-0.0018325958,1.6390603,-168.83356,-62.632843,LYI
16277574831000,3.450005,-8.4373211312494,0.07638375773731,-4.16621846811968,-0.03176499,0.03481932,-0.003970624,1.662929,-168.84183,-62.600864,LYI
16277579926000,3.4551,-8.40006970313272,0.115812265235695,-4.13657564843364,-0.03481932,0.009773844,-0.004581489,1.6895323,-168.8481,-62.565533,LYI
16277584838000,3.460012,-8.34428338274533,0.148353908449452,-4.16446880862733,-0.03176499,-0.01038471,-0.008246681,1.7148057,-168.85533,-62.53807,LYI
16277589807000,3.464981,-8.29353084444996,0.173444763079593,-4.19250067160922,-0.053145275,-0.03268129,-0.0027488936,1.7270379,-168.84613,-62.521458,LYI
16277594975000,3.470149,-8.25671498462683,0.17753542793454,-4.22113521026531,-0.05222898,-0.03145956,-0.008857546,1.7438505,-168.84404,-62.506,LYI
16277599845000,3.475019,-8.22202202074552,0.181390214668981,-4.24811860872799,-0.052534413,-0.029932396,-0.0067195175,1.763888,-168.82738,-62.48109,LYI
16277604838000,3.480012,-8.22594229780183,0.172916744211863,-4.2701875621341,-0.040927973,-0.036651913,-0.004581489,1.7863742,-168.81415,-62.459072,LYI
16277610139000,3.485313,-8.23903013568238,0.160324780160794,-4.28644008921092,-0.04520403,-0.04642576,-0.007330383,1.8041744,-168.79994,-62.43811,LYI
16277614847000,3.490021,-8.26588139007444,0.137948794024814,-4.25063844784119,-0.048563786,-0.0580322,-0.003970624,1.8336217,-168.7836,-62.407734,LYI
16277620084000,3.495258,-8.29954559852566,0.113147694577072,-4.21308541368491,-0.044593163,-0.08827003,-0.0009162979,1.8654276,-168.77132,-62.38368,LYI
16277624827000,3.500001,-8.37252486333995,0.0916833760542482,-4.20449978130611,-0.03726278,-0.1020145,-0.006414085,1.8963324,-168.76064,-62.359352,LYI
16277629855000,3.505029,-8.44988934647009,0.0689292977213874,-4.19539825071354,-0.03359759,-0.12767084,-0.008246681,1.9213527,-168.75615,-62.358196,LYI
16277634839000,3.510013,-8.52203970477175,0.0506079287732482,-4.19874902708999,-0.03848451,-0.15790866,-0.008246681,1.945299,-168.75249,-62.362175,LYI
16277639815000,3.514989,-8.59365956349803,0.0327029150140898,-4.20322527702423,-0.030848695,-0.17287487,-0.011301007,1.9725193,-168.75208,-62.36924,LYI
16277645391000,3.520565,-8.70625518038592,0.024334702414862,-4.24817554831161,-0.025961773,-0.19058995,-0.009162978,1.9890264,-168.7573,-62.396137,LYI
16277649806000,3.52498,-8.8017282525916,0.0199950125359745,-4.29157241991173,-0.02443461,-0.19181168,-0.004581489,2.0062833,-168.76299,-62.422096,LYI
16277654835000,3.530009,-8.88101148540146,0.0151021120118613,-4.30403781441606,-0.02443461,-0.20922135,-0.005497787,2.0194087,-168.7759,-62.464954,LYI
16277659801000,3.534975,-8.95333263625304,0.0102806984309611,-4.30885912378345,-0.014966198,-0.21227567,-0.014049901,2.0347462,-168.79063,-62.503952,LYI
16277664845000,3.540019,-9.03140054309905,0.0180154946004284,-4.29690515342242,-0.007941248,-0.21930063,-0.005497787,2.0470405,-168.80565,-62.548023,LYI
16277669772000,3.544946,-9.10841362919514,0.0276421243312251,-4.28246541966745,-0.003970624,-0.22235495,-0.005497787,2.05480399698064,-168.815099718126,-62.5715731604975,LYI
16277674814000,3.549988,-9.14900695155902,0.0327163126684298,-4.24097410244989,0.007941248,-0.23640485,0.002443461,2.0627487,-168.82477,-62.595673,LYI
16277679850000,3.555024,-9.18481134131403,0.0371918880258909,-4.19621838158872,0.015882496,-0.24404067,0.0018325958,2.0738795,-168.84625,-62.648453,LYI
16277684836000,3.56001,-9.193734,0.0347857107085202,-4.15513202152466,0.017715093,-0.23701571,0.0033597588,2.076656,-168.86636,-62.709465,LYI
16277689827000,3.565001,-9.193734,0.0300749393842704,-4.11509034487754,0.018325957,-0.22785273,0.0021380284,2.0806103,-168.88763,-62.770966,LYI
16277694923000,3.570097,-9.193734,0.0252650634739565,-4.07420627671611,0.0018325958,-0.21319197,0.004581489,2.0716023,-168.90451,-62.83963,LYI
16277699841000,3.575015,-9.193734,0.0206231934333514,-4.03475026274085,0.007330383,-0.17837265,0.004276057,2.0679657,-168.92467,-62.89972,LYI
16277704840000,3.580014,-9.1778877613691,0.0254921137544467,-4.0476127156235,-0.00061086525,-0.1563815,0.003970624,2.0546033,-168.94089,-62.95804,LYI
16277709851000,3.585025,-9.15481817921354,0.0347199528798192,-4.08452395071628,0.0030543262,-0.122783914,0.008857546,2.0463169,-168.95744,-63.00261,LYI
16277715726000,3.5909,-9.10694641708906,0.0266361440021723,-4.06775021491673,-0.0067195175,-0.10170906,0.002443461,2.0196514,-168.97491,-63.060974,LYI
16277719852000,3.595026,-9.06607140229647,0.014373631028137,-4.03505028844523,-0.006414085,-0.08582657,0.008552114,1.9988301,-168.98914,-63.108833,LYI
16277724821000,3.599995,-9.06777928481298,0.00314143838626008,-4.02064995898052,-0.020463986,-0.07147124,0.0061086523,1.9770988,-169.00197,-63.142334,LYI
16277729889000,3.605063,-9.09451247093285,-0.00657970859866807,-4.01821967394722,-0.02565634,-0.055588737,0.006414085,1.9589623,-169.01332,-63.169643,LYI
16277734906000,3.61008,-9.12097663722397,-0.0162030303080967,-4.01581384521556,-0.02076942,-0.055283304,-0.004276057,1.9423516,-169.0267,-63.201073,LYI
16277739887000,3.615061,-9.14725090716539,-0.0257572988818787,-4.01342527975565,-0.012217305,-0.054061573,-0.0021380284,1.9270624,-169.03635,-63.2261,LYI
16277744845000,3.620019,-9.1430113788873,-0.041146115657632,-3.98164278516405,-0.014966198,-0.061391957,-0.0009162979,1.9112461,-169.04738,-63.25391,LYI
16277749912000,3.625086,-9.12455188587732,-0.0596057195007133,-3.93549381169757,-0.010079277,-0.063224554,-0.00061086525,1.8999202,-169.0598,-63.279377,LYI
16277754836000,3.63001,-9.12486005791686,-0.0644575920794021,-3.93497438658571,-0.007941248,-0.070249505,-0.0018325958,1.8811158,-169.07523,-63.314583,LYI
16277759815000,3.634989,-9.13822266137319,-0.06000332426156,-3.96615422875292,-0.018325957,-0.09193522,-0.0015271631,1.8606945,-169.08897,-63.35324,LYI
16277764847000,3.640021,-9.14356752856676,-0.0551784143258244,-3.95656251478942,-0.009162978,-0.10934488,-0.005192355,1.840791,-169.11069,-63.40173,LYI
16277769841000,3.645015,-9.13836265991947,-0.0499736500259005,-3.89410539536402,-0.027183503,-0.106595986,0.004581489,1.8128852,-169.12401,-63.44806,LYI
16277774814000,3.649988,-9.11764498614362,-0.0425616913562401,-3.87967467461848,-0.036651913,-0.10751228,0.006414085,1.7922553,-169.14185,-63.4951,LYI
16277779912000,3.655086,-9.08564848525419,-0.0334197464095122,-3.89795855305683,-0.03634648,-0.09437868,0.0076358155,1.7707279,-169.15607,-63.53584,LYI
16277785306000,3.66048,-9.05612181492067,-0.0296046996443284,-3.89597155467297,-0.026267206,-0.089491755,0.0067195175,1.7444999,-169.1691,-63.58827,LYI
16277789844000,3.665018,-9.03470685562235,-0.0310323646410762,-3.87741189346605,-0.0290161,-0.083383106,0.005192355,1.715333,-169.18031,-63.636005,LYI
16277794870000,3.670044,-9.01098900955948,-0.0326135555343451,-3.85685639385697,-0.017104227,-0.049480084,0.01160644,1.6985084,-169.18983,-63.666058,LYI
16277799866000,3.67504,-8.98741273440426,-0.034185308360205,-3.83642358923163,-0.02076942,-0.035430185,0.006414085,1.6755544,-169.20049,-63.700596,LYI
16277804788000,3.679962,-8.96418566748793,-0.0357337806197891,-3.81629343223284,-0.006414085,-0.01282817,0.017104227,1.666305,-169.20728,-63.720333,LYI
16277809839000,3.685013,-8.94034984566867,-0.0373228365692323,-3.79563568680398,0.006414085,0.0125227375,0.016493361,1.6539373,-169.21764,-63.737305,LYI
16277814767000,3.689941,-8.93037055954806,-0.0367116837704204,-3.78124305793665,-0.0018325958,0.028099801,0.016798794,1.6412467,-169.22406,-63.749256,LYI
16277819838000,3.695012,-8.94386285719578,-0.032214185317281,-3.77674556277088,-0.0018325958,0.048563786,0.017715093,1.6341509,-169.2328,-63.75322,LYI
16277824782000,3.699956,-8.95534463573774,-0.0276998051397098,-3.77738427838153,-0.0033597588,0.06780604,0.021380283,1.6268218,-169.2393,-63.758633,LYI
16277829836000,3.70501,-8.96047143988984,-0.0225731048405889,-3.79789117379515,0.0021380284,0.09407325,0.017715093,1.6206862,-169.24812,-63.75759,LYI
16277834770000,3.709944,-8.96974434255548,-0.0176902696514811,-3.82181260295239,-0.008857546,0.108123146,0.027488936,1.6102799,-169.24951,-63.754528,LYI
16277839846000,3.71502,-8.98875366233258,-0.0129379114217421,-3.85507908624499,-0.016493361,0.11148291,0.026572637,1.6006612,-169.25552,-63.749256,LYI
16277844839000,3.720013,-9.00624433537442,-0.00553055316914274,-3.87995555029111,-0.025961773,0.13530666,0.029626964,1.5918308,-169.2557,-63.73009,LYI
16277849852000,3.725026,-9.02070212527605,0.00892694537261594,-3.88477471294921,-0.013439035,0.14508049,0.026572637,1.5861058,-169.25938,-63.71483,LYI
16277854979000,3.730153,-9.03530450621328,0.0249877074694153,-3.88234951049032,-0.015882496,0.1459968,0.028710667,1.5892984,-169.25444,-63.688843,LYI
16277859837000,3.735011,-9.04874929380599,0.0429143526777767,-3.86442287744919,-0.0106901415,0.1337795,0.03634648,1.5980403,-169.25128,-63.66396,LYI
16277864816000,3.73999,-9.0655821666998,0.0614096065296223,-3.8439532333002,-0.027794369,0.12339478,0.034208454,1.5991632,-169.2447,-63.63916,LYI
16277869806000,3.74498,-9.09408419353877,0.0804109035236581,-3.81545120646123,-0.021991149,0.10934488,0.04153884,1.6095809,-169.23717,-63.616932,LYI
16277874812000,3.749986,-9.12088301978799,0.0985903461300353,-3.79523769922262,-0.022296581,0.099571034,0.040011674,1.616956,-169.22629,-63.601505,LYI
16277879845000,3.755019,-9.14034784876325,0.113189057291873,-3.80983649879859,-0.025350908,0.08032878,0.03970624,1.626004,-169.21391,-63.591507,LYI
16277884846000,3.76002,-9.1575158868326,0.12449849,-3.82636824434658,-0.028405234,0.07666359,0.03970624,1.6287795,-169.19853,-63.58695,LYI
16277889859000,3.765033,-9.16701823682518,0.12449849,-3.85012424335692,-0.034208454,0.057421334,0.03726278,1.6296439,-169.18364,-63.59183,LYI
16277894798000,3.769972,-9.17638031674007,0.12449849,-3.87352956534217,-0.03390302,0.039095376,0.043982297,1.6314859,-169.1648,-63.594368,LYI
16277899864000,3.775038,-9.18598313043693,0.12449849,-3.89753672492454,-0.043066,0.032070424,0.04337143,1.6281592,-169.14719,-63.60013,LYI
16277904855000,3.780029,-9.19286555182467,0.122761629014778,-3.92125615019604,-0.0421497,0.026267206,0.032070424,1.6270359,-169.13239,-63.610695,LYI
16277909894000,3.785068,-9.18801398823766,0.113058699408867,-3.9455134615462,-0.04520403,0.02107485,0.03268129,1.6237552,-169.11362,-63.62143,LYI
16277914903000,3.790077,-9.18123295730594,0.106075894490107,-3.96772204269406,-0.043066,0.016493361,0.028405234,1.6276853,-169.09987,-63.627666,LYI
16277919884000,3.795058,-9.16671186392694,0.109706186788432,-3.98224313607306,-0.025961773,0.021380283,0.015577064,1.6337382,-169.09004,-63.633686,LYI
16277924891000,3.800065,-9.15211497283105,0.113355428614916,-3.99684002716895,-0.03390302,0.0061086523,0.012217305,1.6380591,-169.07874,-63.641243,LYI
16277929783000,3.804957,-9.12495188760086,0.117907154466417,-4.01206147639505,-0.03145956,0.01160644,0.0125227375,1.6483711,-169.07321,-63.643185,LYI
16277934757000,3.809931,-9.08705644061825,0.12332084385612,-4.02830264066371,-0.03176499,0.01160644,0.015577064,1.6556823,-169.06679,-63.650425,LYI
16277939741000,3.814915,-9.07136072080965,0.113320294541629,-4.03928764574733,-0.040011674,0.00580322,0.017104227,1.6637597,-169.05673,-63.651096,LYI
16277944807000,3.819981,-9.06168536294745,0.0988075476958819,-4.04896270052847,-0.039095376,0.015882496,0.016798794,1.674153,-169.04771,-63.647556,LYI
16277949758000,3.824932,-9.03980790852576,0.0924595588880995,-4.06091454573712,-0.032986723,0.007330383,0.012217305,1.6875352,-169.0377,-63.644447,LYI
16277954831000,3.830005,-9.01391983987567,0.0881448939953819,-4.07385858006217,-0.0290161,0.016187929,0.016493361,1.7014254,-169.02568,-63.633358,LYI
16277959827000,3.835001,-8.98579012452391,0.0779873451057977,-4.09065804557766,-0.020463986,0.017715093,0.01282817,1.7144263,-169.02132,-63.626507,LYI
16277964869000,3.840043,-8.95513858389759,0.0626616174672027,-4.11109233487093,-0.01863139,0.0290161,0.018936822,1.7281754,-169.01321,-63.613308,LYI
16277969835000,3.845009,-8.93535912695548,0.0449568266997593,-4.12427870240674,-0.026572637,0.032375857,0.014049901,1.7436723,-169.00943,-63.59876,LYI
16277974827000,3.850001,-8.92097684055355,0.0257801648273165,-4.13386702683514,-0.025350908,0.04184427,0.022602014,1.7640952,-169.00204,-63.577633,LYI
16277979876000,3.85505,-8.90027131873455,0.012859336893129,-4.13403316374691,-0.015577064,0.044898596,0.022296581,1.7834518,-169.00171,-63.55451,LYI
16277984841000,3.860015,-8.87676720998517,0.00345768652140386,-4.12933234199703,-0.01740966,0.050701816,0.023823744,1.8011105,-168.9976,-63.52743,LYI
16277989899000,3.865073,-8.86226475149049,-0.00292914168865335,-4.1407846738431,-0.015882496,0.06536258,0.026572637,1.8269846,-168.99721,-63.495426,LYI
16277994914000,3.870088,-8.85317467838554,-0.00747420529279833,-4.16123751630075,-0.021380283,0.07452556,0.032375857,1.8508182,-168.99464,-63.46329,LYI
16277999855000,3.875029,-8.84421873597047,-0.0119522031528343,-4.18138856208006,-0.013133603,0.09712757,0.034208454,1.8791522,-168.99562,-63.42397,LYI
16278004843000,3.880017,-8.83517760244156,-0.0164727968233179,-4.20173128953345,-0.018020526,0.10567969,0.028710667,1.902192,-168.99487,-63.38673,LYI
16278009822000,3.884996,-8.82210807019116,-0.021080607720231,-4.20415997707089,-0.0076358155,0.11056661,0.03176499,1.9300483,-168.99347,-63.343704,LYI
16278014849000,3.890023,-8.80293550059737,-0.0258737781465552,-4.18019398980486,-0.015577064,0.10445796,0.029321533,1.9503618,-168.99228,-63.30342,LYI
16278019836000,3.89501,-8.79556706353091,-0.0307595168114292,-4.14359067257636,-0.015577064,0.101098195,0.03604105,1.9842302,-168.99208,-63.251373,LYI
16278024815000,3.899989,-8.80571527966372,-0.0358337875417687,-4.08777378832606,-0.0106901415,0.10293079,0.026572637,2.01485,-168.99641,-63.202698,LYI
16278029852000,3.905026,-8.81822278947369,-0.0408274388421053,-4.04544468421053,-0.020463986,0.079107046,0.035124753,2.0378082,-168.9958,-63.163574,LYI
16278034840000,3.910014,-8.83267229824561,-0.0456438436959064,-4.01654616959064,-0.010995574,0.063224554,0.032070424,2.0643957,-169.00346,-63.125202,LYI
16278040446000,3.91562,-8.84089937828522,-0.0388450010768347,-3.99255950254201,-0.02076942,0.04795292,0.032986723,2.076421,-169.00499,-63.10307,LYI
16278044882000,3.920056,-8.84293294312796,-0.0266425844075829,-3.97832340189573,-0.02076942,0.025350908,0.03390302,2.0929575,-169.00952,-63.08768,LYI
16278049941000,3.925115,-8.84525210555795,-0.0127264378950165,-3.96208795708746,-0.01863139,0.014049901,0.027183503,2.1014702,-169.01582,-63.081516,LYI
16278054840000,3.930014,-8.84749792029298,0.00074958538331179,-3.94636598750539,-0.028099801,0.004581489,0.027794369,2.1078181,-169.01851,-63.079803,LYI
16278059823000,3.934997,-8.85605021204543,0.0131173414859852,-3.93429733395853,-0.03145956,-0.007941248,0.022296581,2.1146958,-169.02539,-63.083336,LYI
16278064845000,3.940019,-8.87609634896322,0.0231402074322184,-3.92928590438679,-0.029321533,-0.027488936,0.021685716,2.1211011,-169.03026,-63.09044,LYI
16278069836000,3.94501,-8.89341660772834,0.0307769858987119,-3.9469564440281,-0.02565634,-0.05009095,0.033292156,2.1223748,-169.0268,-63.105087,LYI
16278074858000,3.950032,-8.90749565339578,0.0354700698911007,-3.99388724964871,-0.041233405,-0.05497787,0.024740042,2.116687,-169.02669,-63.122425,LYI
16278079859000,3.955033,-8.91884790428744,0.0402011908458635,-4.02604672512077,-0.02687807,-0.05467244,0.02076942,2.1167684,-169.02646,-63.14459,LYI
16278084841000,3.960015,-8.92605064482689,0.0450030879858595,-4.03565051288245,-0.021685716,-0.059864793,0.019547688,2.1097467,-169.02484,-63.169712,LYI
16278089804000,3.964978,-8.9332259160628,0.0497866719894324,-4.04521767439614,-0.028710667,-0.0693332,0.02443461,2.1094756,-169.02223,-63.186993,LYI
16278094956000,3.97013,-8.94067443458132,0.0547524235079509,-4.05514917069243,-0.028099801,-0.06414085,0.017104227,2.110904,-169.02469,-63.20313,LYI
16278099819000,3.974993,-8.95632060496858,0.0613220310390809,-4.08180251503339,-0.01863139,-0.054061573,0.024129177,2.117465,-169.021,-63.21717,LYI
16278104839000,3.980013,-8.98464486066379,0.0707634236431657,-4.13373008710723,-0.011301007,-0.040317107,0.021991149,2.1216106,-169.02145,-63.230576,LYI
16278110456000,3.98563,-9.00571379110308,0.0789582670113775,-4.16825459744616,-0.016493361,-0.03481932,0.016187929,2.1244395,-169.0223,-63.241127,LYI
16278114845000,3.990019,-9.01187133585624,0.0830632132631476,-4.17235969157674,-0.014966198,-0.038789943,0.02076942,2.1317952,-169.02269,-63.24941,LYI
16278119777000,3.994951,-9.01879068211338,0.0876760168434006,-4.17697266133112,-0.014966198,-0.03390302,0.015882496,2.1412504,-169.0257,-63.247944,LYI
16278124822000,3.999996,-9.02586856164852,0.0923945071236877,-4.18169132159285,-0.0106901415,-0.019547688,0.01863139,2.1534977,-169.02626,-63.243584,LYI
16278129852000,4.005026,-9.0471911900358,0.0903473022903739,-4.18099934636038,-0.010995574,-0.014049901,0.016187929,2.162492,-169.02751,-63.24089,LYI
16278134841000,4.010015,-9.10420599403341,0.0713422564932379,-4.16674527326969,-0.0070249503,0.0061086523,0.021685716,2.1748374,-169.02707,-63.22947,LYI
16278139869000,4.015043,-9.13503559049907,0.0598640491934182,-4.14732197117084,-0.007941248,0.01160644,0.025350908,2.188869,-169.02356,-63.21909,LYI
16278144931000,4.020105,-9.09548173147183,0.0686538215468021,-4.11436034549658,0.0036651916,0.03145956,0.027488936,2.2074952,-169.02115,-63.199547,LYI
16278149919000,4.025093,-9.05650609954218,0.0773150986109424,-4.08188057685508,-0.006414085,0.03145956,0.025045475,2.2141416,-169.02171,-63.193924,LYI
16278154837000,4.030011,-9.01807743919133,0.0858548260771497,-4.04985661892027,0.002443461,0.03940081,0.01985312,2.228554,-169.02606,-63.18135,LYI
16278159801000,4.034975,-8.97928934037442,0.0944744289934273,-4.01753312823535,0.0030543262,0.043982297,0.018325957,2.2326078,-169.0292,-63.170216,LYI
