timestamp,rel_time,acc_x,acc_y,acc_z,gyro_x,gyro_y,gyro_z,azimuth,pitch,roll,label
3791569746000,0,-0.0864933754174575,9.88356710563802,-0.221323953645636,-0.021991149,-0.027183503,0.0030543262,10.062219,-8.838764,-27.823627,STD
3791574664000,0.004918,-0.086963864215132,9.88403757920604,-0.222970663946217,-0.027183503,-0.0290161,0.004581489,9.632236,-9.608124,-27.661654,STD
3791579686000,0.00994,-0.0874443023489102,9.8845180017881,-0.224652196912772,-0.021380283,-0.029626964,0.0033597588,9.203905,-10.379326,-27.491358,STD
3791584649000,0.014903,-0.0879190961477834,9.88499278021797,-0.226313974713054,-0.027183503,-0.027794369,-0.0015271631,8.780973,-11.148804,-27.317648,STD
3791589645000,0.019899,-0.0883970469475356,9.88547071554652,-0.227986802013116,-0.029626964,-0.03756821,-0.002443461,8.363023,-11.923415,-27.136686,STD
3791594686000,0.02494,-0.0888793027484866,9.88595295573692,-0.229674696812878,-0.030543262,-0.03756821,-0.0018325958,7.9503794,-12.698607,-26.955568,STD
3791599695000,0.029949,-0.0893584972152518,9.88643213469223,-0.231351876946187,-0.02687807,-0.024129177,-0.003970624,7.5437655,-13.475625,-26.772207,STD
3791604674000,0.034928,-0.0898348216812179,9.88690844373964,-0.233019012079696,-0.028710667,-0.026572637,-0.0018325958,7.1423407,-14.253088,-26.58064,STD
3791609651000,0.039905,-0.0903109548137974,9.88738456145985,-0.234685477546551,-0.024740042,-0.021991149,-0.012217305,6.7490864,-15.032118,-26.392504,STD
3791614645000,0.044899,-0.090788714280163,9.88786230546121,-0.236357635179959,-0.032070424,-0.02687807,-0.004886922,6.356414,-15.811187,-26.196161,STD
3791619682000,0.049936,-0.0912705874143408,9.88834416299722,-0.238044190646415,-0.019242255,-0.024740042,-0.002443461,5.972937,-16.594822,-26.001038,STD
3791624669000,0.054923,-0.0917476772138533,9.88882123735341,-0.239714004446537,-0.03573562,-0.026572637,0.0015271631,5.59344,-17.370394,-25.799597,STD
3791629702000,0.059956,-0.0922291676812579,9.88930271223503,-0.241399220579686,-0.035124753,-0.02565634,-0.0018325958,5.220793,-18.15273,-25.596905,STD
3791634677000,0.064931,-0.0927051094804507,9.88977863862806,-0.243065016379887,-0.030543262,-0.018325957,-0.003970624,4.8520303,-18.932041,-25.392038,STD
3791639671000,0.069925,-0.0931828689468164,9.89025638262941,-0.244737174013296,-0.02565634,-0.020463986,0.0009162979,4.489213,-19.711231,-25.181692,STD
3791644719000,0.074973,-0.0936657944146205,9.89073929246499,-0.246427412646345,-0.028710667,-0.0125227375,-0.0015271631,4.133212,-20.487217,-24.974257,STD
3791649721000,0.079975,-0.0941443192145326,9.89121780177512,-0.248102248946367,-0.029932396,-0.026267206,0.0030543262,3.7828436,-21.265017,-24.756626,STD
3791654728000,0.084982,-0.0946233223479112,9.89169678940323,-0.249778759413022,-0.03390302,-0.028405234,0.007330383,3.4371028,-22.039255,-24.541937,STD
3791659684000,0.089938,-0.0950974464799313,9.89217089818792,-0.251438193380017,-0.038789943,-0.029321533,0.008246681,3.0989568,-22.811102,-24.321497,STD
3791664713000,0.094967,-0.0955785542805626,9.89265199041516,-0.253122070179859,-0.03848451,-0.025350908,0.004276057,2.7670133,-23.580904,-24.09968,STD
3791669711000,0.099965,-0.0960566964137015,9.89313011707091,-0.254795567146575,-0.03390302,-0.021685716,0.003970624,2.440375,-24.34861,-23.874945,STD
3791674731000,0.104985,-0.0965369432140931,9.89361034832578,-0.256476430446477,-0.042760566,-0.03145956,0.0036651916,2.1226876,-25.109638,-23.646397,STD
3791679694000,0.109948,-0.0970117370129663,9.89408512675564,-0.258138208246758,-0.03176499,-0.027488936,-0.00061086525,1.8101374,-25.873362,-23.42107,STD
3791684783000,0.115037,-0.0974985848151959,9.89457195879867,-0.259842175046201,-0.030848695,-0.018020526,0.004886922,1.5020667,-26.63014,-23.191738,STD
3791689678000,0.119932,-0.0979668732789243,9.89504023210397,-0.261481184180269,-0.040927973,-0.025350908,0.0009162979,1.2061948,-27.381657,-22.959625,STD
3791694728000,0.124982,-0.0984499900801151,9.89552333326674,-0.263172092479971,-0.027488936,-0.01160644,0.0027488936,0.9089811,-28.137127,-22.732101,STD
3791699924000,0.130178,-0.0989470742185284,9.89602040131461,-0.264911886445368,-0.020463986,-0.010079277,-0.0027488936,0.6242747,-28.88299,-22.500174,STD
3791704694000,0.134948,-0.0994034043455937,9.89647671667033,-0.266509041413602,-0.029932396,-0.010995574,-0.0027488936,0.485624373329913,-29.2467121672653,-22.3865775146229,STD
3791709669000,0.139923,-0.0998793461447865,9.89695264306335,-0.268174837213803,-0.027183503,-0.010995574,0.0018325958,0.34101528,-29.626066,-22.268099,STD
3791715419000,0.145673,-0.100429429631291,9.89750270874373,-0.270100128842177,-0.024129177,-0.008552114,-0.00030543262,0.06651015,-30.367554,-22.038029,STD
3791719720000,0.149974,-0.100840892079196,9.89791415787266,-0.271540246980201,-0.022296581,-0.0125227375,-0.003970624,359.79877,-31.10279,-21.804873,STD
3791724871000,0.155125,-0.101333671216411,9.89840692105868,-0.273264973445897,-0.023518313,-0.012217305,0.00580322,359.5333,-31.834656,-21.570744,STD
3791729706000,0.15996,-0.101796219678541,9.89886945454818,-0.274883892580365,-0.034208454,-0.007941248,0.0061086523,359.27744,-32.55796,-21.338089,STD
3791734674000,0.164928,-0.10227149181088,9.89934471129603,-0.27654734454728,-0.033292156,-0.01740966,0.002443461,359.02872,-33.279545,-21.100903,STD
3791740799000,0.171053,-0.102857450307374,9.89993065082513,-0.278598198673156,-0.03848451,-0.016493361,0.008552114,358.7811,-33.992752,-20.865076,STD
3791744704000,0.174958,-0.103231028744731,9.9003042171698,-0.279905722813817,-0.027183503,-0.017715093,0.0030543262,358.5455,-34.703175,-20.629,STD
3791749721000,0.179975,-0.103710988545042,9.90078416143388,-0.281585581613739,-0.025045475,-0.020463986,-0.0009162979,358.31427,-35.405266,-20.391455,STD
3791754698000,0.184952,-0.104187121677622,9.9012602791541,-0.283252047080595,-0.03023783,-0.019242255,0.002443461,358.08813,-36.10289,-20.154255,STD
3791759667000,0.189921,-0.104662489476655,9.90173563156554,-0.284915833880836,-0.036957346,-0.013744468,0.002443461,357.9787574501,-36.4471841746507,-20.0377349254491,STD
3791764718000,0.194972,-0.105145701944539,9.90221882839191,-0.286607077013865,-0.026267206,-0.008857546,0.0061086523,357.86758,-36.79716,-19.919292,STD
3791769717000,0.199971,-0.105480295427422,9.90201175937371,-0.281752163516518,-0.034513887,-0.018936822,0.003970624,357.6573,-37.48067,-19.680847,STD
3791774740000,0.204994,-0.105713477358152,9.90131222332097,-0.272191697538961,-0.028405234,-0.014660766,0.0076358155,357.44574,-38.164005,-19.446472,STD
3791779704000,0.209958,-0.105943920341259,9.90062090399671,-0.26274352849405,-0.0290161,-0.0027488936,0.008552114,357.23566,-38.85106,-19.217459,STD
3791785547000,0.215801,-0.106215169001672,9.89980716934487,-0.251622325486512,-0.03390302,0.00061086525,0.005497787,357.03214,-39.532326,-18.9879,STD
3791789720000,0.219974,-0.106408891517487,9.89922600988875,-0.24367969667418,-0.04062254,0.00061086525,0.0070249503,356.941214395113,-39.840281291153,-18.8842109420748,STD
3791794714000,0.224968,-0.106640727185826,9.89853051256696,-0.234174427494026,-0.03268129,-0.00030543262,0.0027488936,356.8324,-40.208824,-18.760122,STD
3791799875000,0.230129,-0.106880315468625,9.89781175772559,-0.22435130089435,-0.030543262,0.0076358155,0.0027488936,356.63568,-40.87784,-18.535425,STD
3791804697000,0.234951,-0.107104166408299,9.89714021425628,-0.215173405822923,-0.021991149,0.011301007,0.005497787,356.44543,-41.542336,-18.310188,STD
3791809707000,0.239961,-0.107336744842095,9.89644248866914,-0.205637683237306,-0.028099801,0.02443461,0.006414085,356.25717,-42.196762,-18.08949,STD
3791814712000,0.244966,-0.107569091161686,9.89574545941492,-0.196111477340895,-0.031154128,0.022907447,0.00580322,356.07623,-42.84766,-17.867016,STD
3791819737000,0.249991,-0.107802365938098,9.89504564482901,-0.186547204687656,-0.02687807,0.021685716,0.005192355,355.8973,-43.49225,-17.647825,STD
3791824712000,0.254966,-0.108033319572457,9.89435279357231,-0.177078098926489,-0.03268129,0.026267206,0.011911872,355.72107,-44.12742,-17.428919,STD
3791829696000,0.25995,-0.108264691012385,9.89365868891636,-0.167591863124749,-0.025961773,0.03176499,0.010995574,355.55154,-44.759125,-17.212574,STD
3791834685000,0.264939,-0.108496294566519,9.89296388792748,-0.158096110633801,-0.029932396,0.029932396,0.01038471,355.38605,-45.380474,-16.995253,STD
3791839674000,0.269928,-0.108727898120652,9.89226908693861,-0.148600358142854,-0.02565634,0.03176499,0.012217305,355.223,-45.998943,-16.780424,STD
3791844670000,0.274924,-0.108959826634674,9.89157331108364,-0.139091282287016,-0.029626964,0.03848451,0.0067195175,355.06546,-46.60631,-16.569016,STD
3791849715000,0.279969,-0.109194029867908,9.89087071116605,-0.129488942876948,-0.020463986,0.037873644,0.0009162979,354.91345,-47.211365,-16.357489,STD
3791855327000,0.285581,-0.109454554852032,9.89008914709518,-0.118807410910783,-0.024740042,0.038179077,0.010995574,354.7622,-47.806084,-16.146347,STD
3791859684000,0.289938,-0.109656819170605,9.88948236258756,-0.110514567935626,-0.013133603,0.03268129,0.009468411,354.62015,-48.398205,-15.939175,STD
3791864708000,0.294962,-0.109890047524177,9.88878268726823,-0.100952198620228,-0.02076942,0.02687807,0.011911872,354.47977,-48.97878,-15.730312,STD
3791869719000,0.299973,-0.110122672380814,9.8880848224145,-0.0914145726967692,-0.011911872,0.02565634,0.0027488936,354.34625,-49.558002,-15.5257225,STD
3791874768000,0.305022,-0.110357061305412,9.88738166543057,-0.0818046199353353,-0.010079277,0.029321533,0.010079277,354.21365,-50.128525,-15.318245,STD
3791879704000,0.309958,-0.110586204448969,9.88669424557066,-0.0724097443499843,-0.018020526,0.042760566,0.004581489,354.08707,-50.6891,-15.118821,STD
3791884791000,0.315045,-0.110822357441528,9.88598579645653,-0.0627274647505756,-0.013133603,0.028405234,0.0106901415,353.96683,-51.248585,-14.912593,STD
3791889672000,0.319926,-0.111048947328825,9.88530603625876,-0.0534372727465038,-0.025350908,0.036651913,0.0125227375,353.84357,-51.7933,-14.716377,STD
3791894743000,0.324997,-0.111284357555927,9.88459981540997,-0.0437854465525582,-0.028710667,0.032986723,0.0143553335,353.72937,-52.335224,-14.516076,STD
3791899701000,0.329955,-0.111514522001987,9.88390933168521,-0.0343486975346955,-0.015271631,0.036957346,0.01282817,353.61526,-52.871136,-14.320542,STD
3791904710000,0.334964,-0.111747054012943,9.88321174536465,-0.0248148782869192,-0.019547688,0.034513887,0.009773844,353.5072,-53.394558,-14.12513,STD
3791909675000,0.339929,-0.11197754341889,9.8825202867738,-0.0153648059041664,-0.026267206,0.03023783,0.013133603,353.40137,-53.914402,-13.93076,STD
3791914709000,0.344963,-0.112211236000873,9.88181921878863,-0.0057834032103541,-0.02076942,0.029932396,0.011911872,353.29984,-54.42845,-13.740333,STD
3791919705000,0.349959,-0.112443164514894,9.88112344293366,0.00372567264548339,-0.014966198,0.033292156,0.01160644,353.20114,-54.934395,-13.550717,STD
3791924992000,0.355246,-0.112688602075668,9.88038714050268,0.0137886198131801,-0.0125227375,0.032375857,0.007330383,353.10767,-55.433384,-13.363608,STD
3791929722000,0.359976,-0.112908182113963,9.87972840955913,0.0227914078031944,-0.025045475,0.029321533,0.012217305,353.01572,-55.924118,-13.176527,STD
3791934748000,0.365002,-0.113141503313217,9.87902845570663,0.0323575837942752,-0.023518313,0.036957346,0.007941248,352.9265,-56.41075,-12.996157,STD
3791940517000,0.370771,-0.11340931668339,9.87822502678203,0.0433379398015463,-0.02076942,0.030848695,0.0076358155,352.84317,-56.888687,-12.813161,STD
3791944720000,0.374974,-0.113604431884437,9.87763968932839,0.0513376687491214,-0.019242255,0.03359759,0.01038471,352.75882,-57.359837,-12.634904,STD
3791949841000,0.380095,-0.113842163253593,9.87692650515039,0.061084661835139,-0.025045475,0.035124753,0.014049901,352.67908,-57.823177,-12.4574585,STD
3791954775000,0.385029,-0.114071213551468,9.87623936382365,0.0704757307448072,-0.025350908,0.042760566,0.01038471,352.60062,-58.281197,-12.28444,STD
3791959672000,0.389926,-0.114298546204222,9.87555737536053,0.0797963761543421,-0.01740966,0.04734206,0.010995574,352.5241,-58.7342,-12.111271,STD
3791964714000,0.394968,-0.114532610168933,9.87485519324269,0.0893930055508859,-0.01740966,0.047036625,0.003970624,352.45108,-59.177223,-11.943374,STD
3791969827000,0.400081,-0.11476997015536,9.87414312319736,0.0991247719341719,-0.018020526,0.044593163,0.008857546,352.37833,-59.617153,-11.774673,STD
3791974719000,0.404973,-0.113078520792557,9.86588398366071,0.105972338376056,-0.010079277,0.04734206,0.0030543262,352.30923,-60.05086,-11.61311,STD
3791979718000,0.409972,-0.107404904488363,9.84186164518773,0.107903781985602,-0.01985312,0.042760566,0.004886922,352.24335,-60.474842,-11.449113,STD
3791984691000,0.414945,-0.101760796890693,9.81796424786303,0.109825180079276,-0.012217305,0.045814894,0.008246681,352.1941,-60.8758,-11.279131,STD
3791989719000,0.419973,-0.0960542670292241,9.79380255195542,0.11176782830268,-0.021685716,0.03970624,0.004276057,352.1509,-61.263027,-11.111407,STD
3791994725000,0.424979,-0.0903727060732747,9.76974657548097,0.113701976474192,-0.02076942,0.030543262,0.005497787,352.10837,-61.64996,-10.944143,STD
3791999719000,0.429973,-0.0847047645203359,9.7457482641519,0.115631488253763,-0.022907447,0.028710667,0.011301007,352.0671,-62.02775,-10.779473,STD
3792004745000,0.434999,-0.0790005045593686,9.72159617910184,0.117573363745178,-0.028710667,0.021380283,0.0061086523,352.0326,-62.397842,-10.618092,STD
3792009839000,0.440093,-0.0732190679813409,9.69711732489473,0.119541512124259,-0.03023783,0.027183503,0.011911872,351.99454,-62.764618,-10.45638,STD
3792014672000,0.444926,-0.0677338534187952,9.67389268759928,0.121408818978618,-0.027794369,0.026572637,0.011911872,351.96304,-63.123943,-10.29839,STD
3792019701000,0.449955,-0.0620261886070753,9.64972618626289,0.123351853568017,-0.028710667,0.019547688,0.008246681,351.93295,-63.476563,-10.14235,STD
3792024715000,0.454969,-0.0563355480491187,9.6256317663582,0.12528909266749,-0.0290161,0.025045475,0.014966198,351.89987,-63.825546,-9.987553,STD
3792029769000,0.460023,-0.0505995094811266,9.6013451293023,0.127241786406768,-0.030848695,0.01985312,0.0033597588,351.87555,-64.16588,-9.838899,BSC
3792034727000,0.464981,-0.0449724261372198,9.57751981340931,0.129157389010515,-0.03604105,0.01282817,0.004276057,351.8493,-64.50193,-9.68815,BSC
3792040519000,0.470773,-0.0383987942840717,9.54968676991351,0.131395220854182,-0.029932396,0.016798794,0.007941248,351.82388,-64.83408,-9.542797,BSC
3792044900000,0.475154,-0.0334265772349278,9.52863418642679,0.133087890278751,-0.02321288,0.015882496,0.0036651916,351.80368,-65.15896,-9.400341,BSC
3792049728000,0.479982,-0.0279470374236365,9.50543357627525,0.134953265303134,-0.021991149,0.0125227375,0.0021380284,351.78357,-65.47942,-9.258764,BSC
3792054732000,0.484986,-0.0222677463681888,9.48138721065836,0.136886640742656,-0.020463986,0.021380283,-0.0009162979,351.76224,-65.79588,-9.122303,BSC
3792059715000,0.489969,-0.0166122892680098,9.45744175904587,0.138811902496281,-0.038789943,0.021991149,0.004886922,351.7444,-66.10306,-8.98492,BSC
3792064681000,0.494935,-0.0109761263220959,9.43357799972264,0.140730596027989,-0.02687807,0.015271631,-0.0009162979,351.7288,-66.4119,-8.853841,BSC
3792069726000,0.49998,-0.00525030230636173,9.40933461152576,0.14267981247331,-0.037873644,0.014049901,-0.0027488936,351.71158,-66.70596,-8.723065,BSC
3792074732000,0.504986,0.000431258649587762,9.38527863505131,0.144613960644822,-0.04184427,0.019547688,-0.0106901415,351.69666,-66.99877,-8.597642,BSC
3792079676000,0.50993,0.0060424526899821,9.36152059516125,0.146524154124638,-0.036957346,0.011911872,-0.015882496,351.68646,-67.2863,-8.472639,BSC
3792084672000,0.514926,0.0117126641434227,9.33751267297461,0.148454438636199,-0.042760566,0.013439035,-0.026267206,351.6746,-67.563774,-8.354753,BSC
3792089687000,0.519941,0.0174044396516301,9.31341344764114,0.150392064101667,-0.052534413,0.018325957,-0.030543262,351.66464,-67.83692,-8.238223,BSC
3792094706000,0.52496,0.0231007549608412,9.28929500059255,0.152331235031115,-0.06780604,0.017715093,-0.042760566,351.65848,-68.100494,-8.128175,BSC
3792099698000,0.529952,0.0287664266132782,9.26530630012103,0.154259974078696,-0.059253927,0.015882496,-0.04795292,351.65182,-68.363655,-8.019678,BSC
3792104719000,0.534973,0.034465011822991,9.24117824221488,0.156199917740135,-0.07238753,0.016798794,-0.06078109,351.64728,-68.61055,-7.9185634,BSC
3792110710000,0.540964,0.041264498776066,9.21238891839179,0.158514636416828,-0.082161374,0.019242255,-0.06719518,351.6434,-68.85648,-7.818873,BSC
3792114709000,0.544963,0.0458031648293704,9.19317200869916,0.160059714031267,-0.08582657,0.010079277,-0.070249505,351.644,-69.09541,-7.7224107,BSC
3792119779000,0.550033,0.0515573626013767,9.16880848478277,0.162018589626466,-0.10140363,0.018325957,-0.076358154,351.64072,-69.32355,-7.6320467,BSC
3792124733000,0.554987,0.05717990614428,9.1450023906049,0.163932646766232,-0.11575896,0.018936822,-0.087964594,351.6434,-69.54619,-7.5440197,BSC
3792129786000,0.56004,0.0629148097620212,9.12072055897779,0.165884954139514,-0.113926366,0.0106901415,-0.08827003,351.6463,-69.765755,-7.456097,BSC
3792134736000,0.56499,0.068532813503921,9.09693368651504,0.1677974658153,-0.13194689,0.016493361,-0.10751228,351.64853,-69.96931,-7.37929,BSC
3792139684000,0.569938,0.0741485473453189,9.07315642490986,0.169709204759096,-0.14263703,0.016187929,-0.1142318,351.65402,-70.173004,-7.299316,BSC
3792144759000,0.575013,0.0799084198685797,9.04876887384957,0.171670012184271,-0.14813483,0.020158553,-0.12767084,351.65955,-70.367096,-7.2286563,BSC
3792149793000,0.580047,0.085621759431554,9.02457834536927,0.173614978603646,-0.17989981,0.005192355,-0.13683382,351.67096,-70.54777,-7.158237,BSC
3792154787000,0.585041,0.0912897009844928,9.00058003404019,0.175544490383217,-0.19364429,-0.0070249503,-0.15302174,351.68274,-70.72636,-7.0952187,BSC
3792159781000,0.590035,0.0969576425374316,8.97658172271111,0.177474002162788,-0.21685717,0.002443461,-0.17195857,351.69403,-70.88969,-7.0372114,BSC
3792164713000,0.594967,0.102555217174815,8.95288134796641,0.179379559250662,-0.21991149,-0.004581489,-0.1908954,351.71487,-71.05011,-6.98221,BSC
3792169732000,0.599986,0.108251532484026,8.92876290091782,0.18131873018011,-0.23487769,-0.016493361,-0.19792034,351.73532,-71.19776,-6.9305253,BSC
3792174721000,0.604975,0.113913799285711,8.90478861673265,0.183246310129706,-0.26633725,-0.021991149,-0.21685717,351.75882,-71.334305,-6.8881173,BSC
3792179740000,0.609994,0.119610114594922,8.88067016968406,0.185185481059154,-0.28038713,-0.03145956,-0.21960606,351.7867,-71.47925,-6.8405223,BSC
3792184729000,0.614983,0.125272381396606,8.85669588549888,0.18711306100875,-0.30573806,-0.05467244,-0.24251351,351.82333,-71.60623,-6.8028326,BSC
3792189709000,0.619963,0.130924433646032,8.83276485017272,0.189037163664389,-0.34147367,-0.0580322,-0.24404067,351.8556,-71.726456,-6.761743,BSC
3792194759000,0.625013,0.136655932413021,8.80849743483194,0.190988311939686,-0.35705075,-0.076358154,-0.25870144,351.90146,-71.83932,-6.7280703,BSC
3792199716000,0.62997,0.142281880806677,8.78467692436773,0.192903528177438,-0.39064834,-0.09040806,-0.2669481,351.94666,-71.93655,-6.6938667,BSC
3792204745000,0.634999,0.147989545618397,8.76051042303134,0.194846562766837,-0.40744713,-0.10323623,-0.28405234,351.9985,-72.02979,-6.665374,BSC
3792209721000,0.639975,0.15363705806682,8.73659860942031,0.196769119958496,-0.45906523,-0.098043874,-0.28344148,352.0484,-72.10435,-6.6352367,BSC
3792214698000,0.644952,0.159285705465493,8.71268199038049,0.19869206351615,-0.4792238,-0.10293079,-0.28038713,352.1057,-72.17977,-6.607811,BSC
3792219761000,0.650015,0.165031958585743,8.68835210446557,0.200648234549383,-0.49266282,-0.10293079,-0.2874121,352.16092,-72.24109,-6.5843387,BSC
3792224740000,0.654994,0.170682875884919,8.66442587456819,0.202571950839028,-0.5112942,-0.11148291,-0.28191432,352.21844,-72.29628,-6.556035,BSC
3792229802000,0.660056,0.176427994054918,8.64010079408205,0.204527735506266,-0.51923543,-0.10598512,-0.30024028,352.27444,-72.34646,-6.537841,BSC
3792234776000,0.66503,0.182073236602839,8.61619859132858,0.206449519965935,-0.5448918,-0.1151481,-0.31642818,352.33612,-72.38693,-6.5161924,BSC
3792239757000,0.670011,0.187726423802516,8.59226275057364,0.208374008987569,-0.57848936,-0.12034045,-0.33475417,352.39664,-72.42019,-6.5013456,BSC
3792244745000,0.674999,0.19338755565395,8.56829327181724,0.210301202571169,-0.60994893,-0.1414153,-0.34788775,352.4648,-72.44539,-6.4878435,BSC
3792249732000,0.679986,0.199047552555133,8.54432859848962,0.212228009788774,-0.625526,-0.15515977,-0.37232238,352.53458,-72.46226,-6.4828987,BSC
3792254734000,0.684988,0.204724573710078,8.5202918437303,0.214160612496306,-0.65301496,-0.15485434,-0.3839288,352.60605,-72.467316,-6.4776616,BSC
3792259718000,0.689972,0.210381165760508,8.49634158668902,0.216086260615926,-0.68661255,-0.17165314,-0.4129449,352.68918,-72.461975,-6.481549,BSC
3792264710000,0.694964,0.216046837412945,8.4723528862175,0.218014999663506,-0.72387534,-0.19211712,-0.44806966,352.77435,-72.44647,-6.4900517,BSC
3792269749000,0.700003,0.221765851727174,8.44813833059331,0.219961897912857,-0.7583892,-0.21380283,-0.46853364,352.8654,-72.42143,-6.5009413,BSC
3792274747000,0.705001,0.227438333081116,8.42412079754911,0.221892955156408,-0.78893244,-0.2452624,-0.4877759,352.9672,-72.38435,-6.5184565,BSC
3792279794000,0.710048,0.233166426997352,8.39986779849467,0.22384294433372,-0.8246681,-0.2687807,-0.50426924,353.07382,-72.33545,-6.5393763,BSC
3792284775000,0.715029,0.23881961419703,8.37593195773973,0.225767433355354,-0.8368854,-0.28191432,-0.5155703,353.18698,-72.28398,-6.562054,BSC
3792289762000,0.720016,0.244479611098212,8.35196728441211,0.227694240572959,-0.8594874,-0.31306845,-0.52870387,353.31265,-72.219284,-6.5859313,BSC
3792294768000,0.725022,0.250161172054162,8.32791130793767,0.229628388744472,-0.8750645,-0.3594942,-0.54153204,353.4466,-72.15306,-6.6100082,BSC
3792299753000,0.730007,0.255818899054843,8.30395624546761,0.231554423230086,-0.88361657,-0.37782016,-0.54428095,353.5811,-72.083534,-6.634134,BSC
3792304793000,0.735047,0.261539048319322,8.27973688441464,0.233501707845432,-0.8958339,-0.38423425,-0.5513059,353.7259,-72.00831,-6.6596084,BSC
3792309773000,0.740027,0.267191100568749,8.25580584908848,0.235425810501072,-0.9120218,-0.38606682,-0.5543602,353.87378,-71.93116,-6.6831055,BSC
3792314762000,0.745016,0.272853367370433,8.2318315649033,0.237353390450667,-0.9251554,-0.39858958,-0.5513059,354.02582,-71.85279,-6.7049026,BSC
3792319756000,0.75001,0.278521308923372,8.20783325357422,0.239282902230238,-0.9236283,-0.40378192,-0.5467244,354.1758,-71.77524,-6.727025,BSC
3792324734000,0.754988,0.284171091272296,8.18391182910563,0.241206232153887,-0.91599244,-0.39614612,-0.5421429,354.32477,-71.697556,-6.747828,BSC
3792329795000,0.760049,0.289915074492045,8.15959155404826,0.24316163045513,-0.8933904,-0.39003745,-0.5332854,354.47415,-71.62658,-6.7651916,BSC
3792334777000,0.765031,0.295569396641973,8.13565090786454,0.24508650584276,-0.8509353,-0.37995818,-0.52870387,354.6196,-71.56425,-6.7830253,BSC
3792340747000,0.771001,0.302345049639779,8.10696249804584,0.247393110833556,-0.7987063,-0.35216382,-0.5204572,354.75674,-71.51301,-6.799085,BSC
3792344845000,0.775099,0.306996075767922,8.08726985090396,0.24897643868151,-0.73364913,-0.3549127,-0.51923543,354.89908,-71.47714,-6.8137965,BSC
3792349794000,0.780048,0.31261294455957,8.06348778386999,0.250888563991301,-0.70066243,-0.35338554,-0.5143485,355.03088,-71.44853,-6.8276887,BSC
3792354786000,0.78504,0.318278616212007,8.03949908339847,0.252817303038881,-0.66889745,-0.3576616,-0.5158757,355.1649,-71.43662,-6.8420887,BSC
3792359766000,0.79002,0.323930668461434,8.01556804807232,0.254741405694521,-0.65148777,-0.3680463,-0.50793445,355.29828,-71.43135,-6.8520145,BSC
3792365764000,0.796018,0.330738100066265,7.98674508624776,0.25705882893318,-0.64568454,-0.3747658,-0.48349985,355.42993,-71.43299,-6.85766,BSC
3792369940000,0.800194,0.332829351031145,7.96582522226949,0.261788214732417,-0.6563747,-0.3827071,-0.45448375,355.56308,-71.43613,-6.8588233,BSC
3792374753000,0.805007,0.28830647806213,7.92660818612461,0.322459283348581,-0.6786713,-0.3885103,-0.4334089,355.69543,-71.43932,-6.855143,BSC
3792379733000,0.809987,0.242238764082139,7.88603040926995,0.385235498122839,-0.73426,-0.37904188,-0.42302418,355.8678,-71.38319,-6.8091593,BSC
3792384707000,0.814961,0.196226553372004,7.84550152130306,0.447936078903392,-0.77488256,-0.3827071,-0.41080686,356.04202,-71.32911,-6.755371,BSC
3792389793000,0.820047,0.149178281624568,7.80406004076434,0.512048494233085,-0.8359691,-0.35246924,-0.41080686,356.20306,-71.256294,-6.705847,BSC
3792394772000,0.825026,0.103119818189553,7.76349041205764,0.574812103341725,-0.8753699,-0.32436943,-0.4202753,356.3641,-71.18052,-6.655216,BSC
3792399728000,0.829982,0.0572741172889839,7.72310819075408,0.637285782141166,-0.9221011,-0.30787608,-0.43188173,356.51892,-71.08822,-6.606831,BSC
3792404857000,0.835111,0.00982807210758385,7.68131633985296,0.701940241092404,-0.95386606,-0.29993483,-0.4447099,356.6681,-70.990395,-6.5630474,BSC
3792409713000,0.839967,-0.0350925742953951,7.64174893334568,0.763153353330114,-0.9822713,-0.2938262,-0.46028697,356.81335,-70.88179,-6.524372,BSC
3792414715000,0.844969,-0.0813638002648556,7.60099189723583,0.826206892747952,-1.0088439,-0.2950479,-0.4813618,356.95892,-70.765724,-6.4906025,BSC
3792419796000,0.85005,-0.128365819287412,7.55959115743693,0.890256279749558,-1.0198395,-0.3036,-0.5006041,357.10498,-70.64738,-6.460261,BSC
3792424737000,0.854991,-0.174072762013343,7.51933115835281,0.95254087356474,-1.035722,-0.30634892,-0.50732356,357.24942,-70.52235,-6.4323697,BSC
3792429730000,0.859984,-0.22026073307802,7.47864745557463,1.01548096199202,-1.0763446,-0.30298916,-0.5186246,357.39563,-70.38802,-6.410415,BSC
3792435794000,0.866048,-0.276356037811888,7.42923708632831,1.09192171829546,-1.1175779,-0.30604348,-0.5317582,357.54404,-70.251144,-6.389625,BSC
3792439767000,0.870021,-0.313108453001146,7.39686449447217,1.14200402779307,-1.1939361,-0.29535335,-0.5305365,357.68643,-70.096886,-6.369166,BSC
3792444814000,0.875068,-0.359795953494522,7.35574079170399,1.20562482216369,-1.2189816,-0.2843578,-0.5317582,357.83,-69.94686,-6.352273,BSC
3792450261000,0.880515,-0.410183671978259,7.31135782975071,1.27428788278123,-1.2770138,-0.2678644,-0.53023106,357.96777,-69.77079,-6.3353224,BSC
3792454772000,0.885026,-0.451912880364552,7.27460153429059,1.33115204038097,-1.303281,-0.25320363,-0.52015173,358.10138,-69.60046,-6.316804,BSC
3792459758000,0.890012,-0.498036097614398,7.23397486854815,1.39400388914893,-1.3252722,-0.24862215,-0.50854534,358.23203,-69.41926,-6.297582,BSC
3792464772000,0.895026,-0.544418330123569,7.19312005466275,1.45720869655417,-1.3164146,-0.25045475,-0.49663344,358.3585,-69.243706,-6.2759104,BSC
3792469761000,0.900015,-0.590569299008343,7.15246894447642,1.52009836231899,-1.3020593,-0.26328292,-0.47952923,358.48416,-69.06865,-6.2487144,BSC
3792474740000,0.904994,-0.636627762443358,7.11189931576972,1.58286197142763,-1.2983941,-0.2874121,-0.45937067,358.611,-68.89776,-6.2159266,BSC
3792479831000,0.910085,-0.683722286915674,7.07041709449118,1.64703741508541,-1.3100005,-0.28955013,-0.44715336,358.73346,-68.7306,-6.1814413,BSC
3792484772000,0.915026,-0.729429229641604,7.03015709540707,1.70932200890059,-1.3365731,-0.27916542,-0.4364632,358.85626,-68.56504,-6.140846,BSC
3792489773000,0.920027,-0.775691205066089,6.98940820744518,1.77236294265281,-1.3762794,-0.25961772,-0.41447207,358.9738,-68.3977,-6.094764,BSC
3792494777000,0.925031,-0.821980932125501,6.94863487503941,1.83544169340188,-1.4040737,-0.23915374,-0.4166101,359.08865,-68.22832,-6.0535965,BSC
3792499739000,0.929993,-0.867882136295925,6.90820376484808,1.89799100619503,-1.4309518,-0.2275473,-0.410196,359.19662,-68.05394,-6.005553,BSC
3792505724000,0.935978,-0.923246647976697,6.85943709929082,1.97343591491469,-1.4544702,-0.21135938,-0.41874814,359.29877,-67.8747,-5.9648533,BSC
3792509776000,0.94003,-0.960729856219051,6.82642080374561,2.02451407199608,-1.4596626,-0.1695151,-0.4175264,359.38837,-67.697685,-5.923937,BSC
3792514763000,0.945017,-1.00686232401387,6.78578598985521,2.08737852642965,-1.4581354,-0.16065755,-0.4288274,359.48392,-67.51776,-5.887099,BSC
3792519772000,0.950026,-1.05319830379817,6.74497191670963,2.15052030550681,-1.4511104,-0.14660765,-0.43585235,359.56555,-67.341705,-5.853873,BSC
3792524739000,0.954993,-1.09914576069347,6.70450006577848,2.21313264662805,-1.4517213,-0.13469578,-0.4334089,359.64487,-67.16713,-5.821981,BSC
3792529731000,0.959985,-1.14532448121317,6.66382451114826,2.27606012938971,-1.4352279,-0.12675454,-0.43951756,359.72247,-67.00132,-5.7954073,BSC
3792534774000,0.965028,-1.19197497952664,6.62273340097194,2.33963050109786,-1.4379768,-0.14172074,-0.43585235,359.80103,-66.83412,-5.764491,BSC
3792540764000,0.971018,-1.24738574393229,6.57392599467486,2.41513843814561,-1.4556919,-0.18142697,-0.41783184,359.88248,-66.67103,-5.7296176,BSC
3792544755000,0.975009,-1.28430466893112,6.54140673615539,2.46544764962434,-1.459968,-0.20769419,-0.4083634,359.96414,-66.51358,-5.6959867,BSC
3792549722000,0.979976,-1.33025212582642,6.50093488522424,2.52805999074557,-1.4666874,-0.23701571,-0.39553526,0.054104593,-66.35508,-5.652268,BSC
3792554806000,0.98506,-1.37728189648391,6.45950970098145,2.59214719474403,-1.5070046,-0.27488935,-0.3753767,0.15063356,-66.190186,-5.600593,BSC
3792559764000,0.990018,-1.42314609847443,6.41911118338196,2.6546460848747,-1.5570955,-0.32406402,-0.3622431,0.25643742,-66.023994,-5.543298,BSC
3792564768000,0.995022,-1.46943582553384,6.37833785097619,2.71772483562378,-1.6114625,-0.3735441,-0.35369098,0.36971307,-65.84942,-5.478162,BSC
3792569747000,1.000001,-1.5182734284423,6.34327135163251,2.77651280920284,-1.6502525,-0.40103304,-0.35246924,0.48858044,-65.66872,-5.409113,BSC
3792575296000,1.00555,-1.63008095717291,6.41780968970623,2.75994870044417,-1.6963727,-0.40439278,-0.3368922,0.6105121,-65.475555,-5.331966,BSC
3792579755000,1.010009,-1.7199259329541,6.4777063286449,2.74663830921063,-1.7235563,-0.376293,-0.34238997,0.6306591,-64.851204,-5.5484624,BSC
3792584762000,1.015016,-1.83702266917496,6.55335186463516,2.72687162247098,-1.7397442,-0.33169982,-0.3659083,0.64982265,-64.22764,-5.7630806,BSC
3792589762000,1.020016,-1.97102650416667,6.63772479166667,2.70205611666667,-1.7605137,-0.26206118,-0.39584067,0.6588315,-63.605263,-5.983113,BSC
3792594742000,1.024996,-2.1016498537922,6.70314870212853,2.69324532919589,-1.7977765,-0.19517145,-0.4382958,0.63176584,-63.0037,-6.2574573,BSC
3792599739000,1.029993,-2.23044009156744,6.75388422687979,2.6971480587343,-1.81091,-0.12522738,-0.47861293,0.59503764,-62.41209,-6.5416794,BSC
3792604754000,1.035008,-2.35212182328025,6.80639230124204,2.7006595,-1.808772,-0.07513642,-0.50762904,0.51496667,-61.8551,-6.8817816,BSC
3792609774000,1.040028,-2.40826093092357,6.8727385290552,2.7006595,-1.8170186,-0.025045475,-0.5635232,0.43641368,-61.297504,-7.237899,BSC
3792614756000,1.04501,-2.45075235267156,6.93950381408718,2.70703052179543,-1.8338175,-0.01038471,-0.59589905,0.31877822,-60.78903,-7.6448503,BSC
3792619736000,1.04999,-2.44663560998705,7.0094884827104,2.73584767760035,-1.8396207,0.0061086523,-0.6169739,0.2113719,-60.288,-8.0543,BSC
3792624755000,1.055009,-2.4424866277514,7.08002122403971,2.76489050992663,-1.8545868,0.011301007,-0.6600399,0.09733661,-59.886776,-8.481927,BSC
3792629742000,1.059996,-2.37727227244712,7.15627999952754,2.89269428313111,-1.8695531,0.026572637,-0.68630713,0.001525679,-59.491386,-8.893263,BSC
3792634854000,1.065108,-2.3027786883775,7.22818739184755,3.03715265418512,-1.8823812,0.034513887,-0.72204274,359.93497,-59.09581,-9.298244,BSC
3792639765000,1.070019,-2.21742172931397,7.19063034554628,3.21469516183666,-1.8735237,0.051618114,-0.7309003,359.8652,-58.80146,-9.684756,BSC
3792645107000,1.075361,-2.12457365859165,7.14977721149183,3.40781918461706,-1.8955148,0.0580322,-0.7324274,359.83432,-58.521076,-10.028781,BSC
3792649747000,1.080001,-2.05170586304579,7.10946612414803,3.52185275186368,-1.9049833,0.05589417,-0.7339546,359.81552,-58.24915,-10.361585,BSC
3792654731000,1.084985,-1.99240245544906,7.05439845307952,3.51338083649272,-1.8796324,0.069027774,-0.7272351,359.80188,-57.985043,-10.682415,BSC
3792659936000,1.09019,-1.93143155792298,7.00141645984849,3.50639596641414,-1.8497,0.09162979,-0.7189884,359.83133,-57.696022,-10.946367,BSC
3792664714000,1.094968,-1.88810012779356,7.01224930795455,3.52445071325758,-1.8344283,0.11575896,-0.7058548,359.86145,-57.416027,-11.200984,BSC
3792669796000,1.10005,-1.84201173768939,7.02377139545455,3.54365419242424,-1.8414533,0.13469578,-0.68844515,359.89914,-57.191,-11.426211,BSC
3792674756000,1.10501,-1.78970308789926,7.02017906706552,3.50701031925118,-1.8219056,0.16065755,-0.68539083,359.93365,-56.97982,-11.649603,BSC
3792679734000,1.109988,-1.72989863619608,7.00177780816366,3.41500359241532,-1.8304577,0.20647246,-0.67164636,359.95834,-56.7651,-11.865521,BSC
3792684706000,1.11496,-1.6931220153281,6.9969872716172,3.3910510494788,-1.8008307,0.23060162,-0.65240407,359.98663,-56.627075,-12.053542,BSC
3792689700000,1.119954,-1.68837402176114,7.01123105400576,3.46227090340514,-1.7931949,0.2678644,-0.63346726,0.0014131113,-56.482876,-12.2418785,BSC
3792694731000,1.124985,-1.69099341564498,7.02162417666416,3.52153748505077,-1.8060231,0.2941316,-0.6230826,0.008898809,-56.443436,-12.406914,BSC
3792699748000,1.130002,-1.70454554208349,7.02614164648364,3.56219395870628,-1.813659,0.32925636,-0.6032294,0.0034062092,-56.40663,-12.567729,BSC
3792704686000,1.13494,-1.73541322392494,7.029376,3.64371069383894,-1.8234328,0.36682457,-0.6038403,359.99628,-56.338478,-12.729448,BSC
3792709718000,1.139972,-1.81453758795934,7.029376,3.83963753499609,-1.831374,0.39553526,-0.5897904,359.97995,-56.270054,-12.882842,BSC
3792714781000,1.145035,-1.894149403362,7.029376,4.03677139763096,-1.8457294,0.41050145,-0.5748242,359.95908,-56.18434,-13.039133,BSC
3792719747000,1.150001,-1.96810201972811,7.05197920141381,4.16840742627515,-1.8716911,0.41691554,-0.57726765,359.93646,-56.09102,-13.1953945,BSC
3792724743000,1.154997,-2.04095027412724,7.08319999053834,4.27768007954323,-1.8924606,0.42455134,-0.5671884,359.90817,-55.996765,-13.343686,BSC
3792729722000,1.159976,-2.1696056514784,7.05345674665081,4.27705749866032,-1.9052887,0.42455134,-0.5653558,359.88947,-55.816727,-13.511856,BSC
3792734682000,1.164936,-2.30516137022592,7.01580242401903,4.26199576960761,-1.9135354,0.43585235,-0.56505036,359.8675,-55.635017,-13.676814,BSC
3792740769000,1.171023,-2.44411226447084,6.96697428371871,4.26587079903443,-1.9010127,0.45204028,-0.6010914,359.8468,-55.42216,-13.862129,BSC
3792744740000,1.174994,-2.51417039611231,6.93315310367171,4.28519717321814,-1.8490891,0.4529566,-0.6047566,359.82523,-55.22392,-14.034603,BSC
3792749781000,1.180035,-2.60310593920086,6.89021868699657,4.3097311073053,-1.8206838,0.44929138,-0.61483586,359.80402,-55.00081,-14.257346,BSC
3792754703000,1.184957,-2.6975123573731,6.84369041727891,4.35634668419676,-1.7592919,0.46273044,-0.62796944,359.78406,-54.80117,-14.478852,BSC
3792760893000,1.191147,-2.85261555339613,6.76303682272109,4.52385793118786,-1.7217237,0.44104472,-0.64904433,359.78088,-54.602543,-14.693541,BSC
3792764681000,1.194935,-2.94707654860579,6.67212857447661,4.60700192269933,-1.6899587,0.39522982,-0.6737844,359.78104,-54.38372,-14.941135,BSC
3792769732000,1.199986,-3.07204769314031,6.46097045077951,4.67595165002227,-1.6548339,0.40042216,-0.6774496,359.77875,-54.177666,-15.187287,BSC
3792774932000,1.205186,-3.1863992935588,6.27508886398708,4.73325225280422,-1.6142114,0.43035457,-0.66248333,359.7899,-53.923676,-15.455189,BSC
3792779798000,1.210052,-3.15867959197825,6.39784731794697,4.65801305098572,-1.5763378,0.37965274,-0.691194,359.83197,-53.67564,-15.716749,BSC
3792784699000,1.214953,-3.13076050906696,6.52148874475697,4.58223267118457,-1.5467108,0.33169982,-0.70402217,359.8764,-53.361233,-16.013096,BSC
3792789765000,1.220019,-3.11898030515902,6.768106176545,4.52797273220094,-1.5225816,0.2874121,-0.7324274,359.944,-53.05499,-16.306412,BSC
3792794828000,1.225082,-3.11459949271774,7.06600489913263,4.48416415034333,-1.5012014,0.20341812,-0.77121735,0.040730435,-52.75782,-16.585619,BSC
3792799721000,1.229975,-3.11034760152192,7.32341478558279,4.44375969161578,-1.5384641,0.0729984,-0.80878556,0.14509983,-52.501545,-16.840078,BSC
3792804893000,1.235147,-3.10583368467147,7.56265252005833,4.40313439282785,-1.559539,-0.03634648,-0.8723156,0.27826077,-52.24899,-17.094946,BSC
3792809708000,1.239962,-3.09617291915291,7.56339867812373,4.40680720867409,-1.6792686,-0.074830994,-0.93279123,0.40132853,-52.038746,-17.32675,BSC
3792814737000,1.244991,-3.07268122181123,7.01917576001951,4.51251947876595,-1.7418822,-0.100792766,-0.94714653,0.55184835,-51.83503,-17.543737,BSC
3792821035000,1.251289,-3.05184276838677,6.39029730936528,4.6845949742853,-1.8008307,0.16340645,-0.84879726,0.6084464,-51.690346,-17.769049,BSC
3792824746000,1.255,-3.10328595193602,6.41087459889991,5.08070754938843,-1.5198327,0.23915374,-0.8191703,0.7319566,-51.59968,-17.976929,BSC
3792830904000,1.261158,-3.18865030771513,6.44502036795252,5.73801319139466,-1.5054774,0.34483343,-0.81061816,0.8069889,-51.245495,-18.247911,BSC
3792834886000,1.26514,-3.24632662132498,6.49556456504628,6.11798097092777,-1.6313156,0.36132678,-0.7910705,0.8803464,-50.93766,-18.502224,BSC
3792839820000,1.270074,-3.33930841049486,6.80550380234677,6.19718776279426,-1.6737708,0.33292156,-0.81581056,0.9473533,-50.654007,-18.769518,BSC
3792844781000,1.275035,-3.43279901772466,7.11713909951899,6.27682799271919,-1.767844,0.32436943,-0.81306165,1.031331,-50.17508,-19.027676,BSC
3792849704000,1.279958,-3.51099151936006,7.41745391061158,6.29780933643175,-1.8240436,0.3304781,-0.84391034,1.1297069,-49.698338,-19.291395,BSC
3792854818000,1.285072,-3.56058230255164,7.71003923110571,6.19366865030377,-1.8692477,0.35094208,-0.9053023,1.2323599,-49.20913,-19.55678,BSC
3792859708000,1.289962,-3.62424216449848,7.90131386079027,6.1993316049848,-1.8869628,0.4260785,-0.9111055,1.2898602,-48.773838,-19.817183,BSC
3792864790000,1.295044,-3.7214540499696,7.93090001580547,6.40643521969605,-1.8747455,0.44043383,-0.97341377,1.379724,-48.32917,-20.091543,BSC
3792869962000,1.300216,-3.80774427790773,7.97601652348928,6.57881703044185,-1.8710803,0.39950588,-1.0403035,1.43347,-47.95655,-20.36049,BSC
3792874839000,1.305093,-3.76727975503574,8.16316450604289,6.37143694489929,-1.8383989,0.37751472,-1.108415,1.4938647,-47.5931,-20.64281,BSC
3792879756000,1.31001,-3.70877012165869,8.27934232138278,6.05739226730504,-1.8020525,0.35705075,-1.1704178,1.585897,-47.17626,-20.938427,BSC
3792884782000,1.315036,-3.57987375716952,8.11529250675972,5.32697942643837,-1.7852536,0.25289822,-1.239751,1.7193087,-46.76164,-21.225111,BSC
3792889685000,1.319939,-3.4541318401201,7.9552574408829,4.61444179039195,-1.8912388,0.37232238,-1.1728612,1.7453842,-46.42153,-21.514566,BSC
3792894766000,1.32502,-3.4682817234362,7.34442841567973,4.8920710058382,-1.7803668,0.28893927,-1.2082914,1.8798975,-46.11808,-21.781641,BSC
3792899741000,1.329995,-3.53451003360208,6.58501105537948,5.53227757381151,-1.847562,0.14080444,-1.3084733,2.0042348,-45.75262,-22.050873,BSC
3792904734000,1.334988,-3.67188885100943,6.04179544989348,6.04179919960434,-1.9046779,0.13744467,-1.2867876,2.0341487,-45.521984,-22.326786,BSC
3792909707000,1.339961,-3.86032271772345,5.66009598054175,6.45248832772649,-1.921782,0.1554652,-1.2647965,2.1174958,-45.27058,-22.596352,BSC
3792914703000,1.344957,-3.9360676,5.506664,6.6175733,-1.9657644,0.16829337,-1.1982121,2.2932563,-44.747627,-22.888435,BSC
3792919726000,1.34998,-3.9360676,5.506664,6.6175733,-2.0210476,0.14935656,-1.1325442,2.4674218,-44.235477,-23.166468,BSC
3792924762000,1.355016,-4.21003464045852,5.36835052973786,6.9021799407216,-2.0726657,0.11942416,-1.1016954,2.7044013,-43.58561,-23.472387,BSC
3792929749000,1.360003,-4.67223816913464,5.1350050371136,7.38233329568731,-2.1649065,0.0852157,-1.0775663,2.9334316,-42.938416,-23.753416,BSC
3792934710000,1.364964,-4.95511341324625,5.00504389971531,7.70030928271791,-2.250122,0.08246681,-1.070236,3.1503725,-42.285225,-24.02655,BSC
3792939678000,1.369932,-5.02682029312568,4.99707642239806,7.82778821263502,-2.3359487,0.1133155,-1.0348058,3.3544445,-41.63523,-24.28141,BSC
3792944816000,1.37507,-5.08931734982332,5.07332335615162,7.75276490822358,-2.4339926,0.08155051,-1.0571023,3.6581757,-40.830784,-24.602959,BSC
3792949723000,1.379977,-5.02516005874558,6.04323190458561,5.48461304066013,-2.5057693,-0.004276057,-1.1120802,3.964074,-40.032463,-24.908897,BSC
3792954748000,1.385002,-4.95945995936396,7.03646411487311,3.16191829142306,-2.5708263,-0.19547687,-1.2443326,4.324713,-39.184017,-25.206158,BSC
3792959713000,1.389967,-5.13287382129733,6.95428794997462,2.95173601485128,-2.7311785,-0.16371189,-1.1927143,4.6217656,-38.337433,-25.49465,BSC
3792964768000,1.395022,-5.4867032441478,6.07954275273576,4.28842533903157,-2.4972172,-0.10354166,-1.1462886,4.980156,-37.56982,-25.767944,BSC
3792970136000,1.40039,-5.53285458127668,5.55347303633677,5.2979031387798,-2.5097399,-0.10293079,-1.1175779,5.1001687,-37.04721,-26.078506,BSC
3792974976000,1.40523,-5.40804866363039,5.28255264571485,6.00107853537795,-2.532342,-0.14569137,-1.1129965,5.2085304,-36.592625,-26.3825,BSC
3792979820000,1.410074,-5.28313960059762,5.01140835394365,6.7048350686675,-2.5732698,-0.20799962,-1.1108584,5.395929,-36.075134,-26.711393,BSC
3792984768000,1.415022,-5.1969111152198,4.93330917532485,7.04789956087918,-2.5940392,-0.25717425,-1.1026118,5.591316,-35.571793,-27.023523,BSC
3792989767000,1.420021,-5.14065816430053,5.00279786673348,7.1140795072021,-2.5949554,-0.27275133,-1.0977248,5.7957325,-35.076298,-27.321974,BSC
3792995366000,1.42562,-5.07765350893005,5.08062686917335,7.18820263572021,-2.5806003,-0.35246924,-1.1047498,6.13088,-34.356068,-27.525148,BSC
3792999770000,1.430024,-5.01947600419782,4.931569640663,7.16676788568597,-2.5900686,-0.43066,-1.1294898,6.465991,-33.648376,-27.719404,BSC
3793004794000,1.435048,-4.95012905469777,4.68885491009819,7.11475742464643,-2.5579982,-0.41691554,-1.0965031,6.779326,-32.9818,-27.90024,BSC
3793009766000,1.44002,-4.83883085634092,4.58439878735769,7.11956609827641,-2.5454755,-0.39858958,-1.0729848,7.0955925,-32.322475,-28.041574,BSC
3793014767000,1.445021,-4.67600457526882,4.64119868870968,7.1915125688172,-2.5549438,-0.42638394,-1.0546589,7.4038806,-31.68883,-28.164888,BSC
3793020550000,1.450804,-4.48782570780168,4.72660644233503,7.29319053858914,-2.5674667,-0.45937067,-1.022283,7.717241,-31.02261,-28.285906,BSC
3793024738000,1.454992,-4.3525737668611,4.97517741094604,7.54176146903026,-2.5653286,-0.4654793,-1.0167851,8.025663,-30.374962,-28.402689,BSC
3793029744000,1.459998,-4.19090442198323,5.27229925164965,7.83888326410864,-2.5680776,-0.43676865,-1.0225884,8.3124485,-29.74156,-28.470444,BSC
3793034782000,1.465036,-4.16090190726212,5.30039270549185,7.81747063779924,-2.5830436,-0.49754974,-1.0494665,8.613107,-29.121449,-28.51406,BSC
3793039756000,1.47001,-4.1800674667069,5.22852335847918,7.67852333363508,-2.5503623,-0.49418998,-1.0326678,8.878841,-28.535696,-28.569687,BSC
3793044776000,1.47503,-4.23324224992343,4.92393065084227,7.62302093905054,-2.5369234,-0.44715336,-1.0277808,9.106451,-27.981474,-28.562803,BSC
3793049736000,1.47999,-4.29742682140348,4.54310130573822,7.59734689599135,-2.5509732,-0.38240165,-1.0259482,9.318995,-27.447332,-28.55722,BSC
3793054716000,1.48497,-4.30844489562104,4.25608743106582,7.52401503982374,-2.5784621,-0.3585779,-1.0112875,9.514287,-26.9147,-28.564537,BSC
3793059716000,1.48997,-4.26888224070504,4.05827406468374,7.40532698327366,-2.5662448,-0.3313944,-1.0259482,9.70016,-26.400911,-28.59017,BSC
3793064714000,1.494968,-4.24569690689313,3.95027583350219,7.28027253676996,-2.5928175,-0.3304781,-1.0418307,9.936805,-25.770721,-28.639364,BSC
3793069758000,1.500012,-4.25529263092968,4.02224446516687,7.14113298516091,-2.6267207,-0.3472769,-1.0458013,10.166432,-25.159826,-28.687536,BSC
3793074695000,1.504949,-4.25389057916409,4.10285414883673,7.01426054832201,-2.6499333,-0.36926803,-1.0345002,10.426089,-24.51359,-28.73921,BSC
3793079768000,1.510022,-4.2288838330245,4.20788274374099,6.9042308653078,-2.6777277,-0.38240165,-1.0308352,10.68327,-23.875296,-28.786747,BSC
3793084784000,1.515038,-4.23758287565645,4.34420551846519,6.69987020527698,-2.6893342,-0.39920044,-1.0369438,10.919146,-23.274446,-28.832752,BSC
3793089729000,1.519983,-4.29775220819922,4.52872488870066,6.35088778333051,-2.712547,-0.43585235,-1.0528263,11.155519,-22.68263,-28.867971,BSC
3793094835000,1.525089,-4.35888989445049,4.70216970310538,6.00257352321922,-2.6569583,-0.46303585,-1.0619892,11.379455,-22.122461,-28.89507,BSC
3793099736000,1.52999,-4.39424802295974,4.46644883270277,5.95150077120616,-2.5827382,-0.45540005,-1.0998629,11.610649,-21.574095,-28.924797,BSC
3793104696000,1.53495,-4.43003180533188,4.22789026971625,5.89981318704277,-2.4559836,-0.37293324,-1.1276573,11.838564,-21.02399,-28.981726,BSC
3793109724000,1.539978,-4.25605944498174,4.03535182667201,5.97126917355063,-2.439185,-0.23732115,-1.1374311,12.058537,-20.47922,-29.054733,BSC
3793114715000,1.544969,-3.95809443371627,3.8735994681806,6.11599510601122,-2.4514022,-0.22479841,-1.1481212,12.2872715,-19.969591,-29.118176,BSC
3793119794000,1.550048,-3.68731290554413,3.78107537479942,6.1940506581979,-2.4459045,-0.24831672,-1.1386528,12.535822,-19.419798,-29.222527,BSC
3793124743000,1.554997,-3.47280908372763,3.80057581941987,6.16480004217239,-2.4236078,-0.27550024,-1.1114693,12.776158,-18.888842,-29.325148,BSC
3793129770000,1.560024,-3.17276516187036,3.82704846416185,6.05764569229975,-2.4080307,-0.31612277,-1.0903945,13.021545,-18.340574,-29.360947,BSC
3793134787000,1.565041,-2.77105229401321,3.86176436416185,5.85430960301404,-2.3958135,-0.3747658,-1.0641272,13.255915,-17.819729,-29.379202,BSC
3793139686000,1.56994,-2.23682673017777,3.7882514775538,5.43439771982649,-2.402533,-0.47067168,-0.9966267,13.487398,-17.263973,-29.328701,BSC
3793144767000,1.575021,-1.5373711792379,3.60200588187463,4.77219133988262,-2.4260514,-0.61269784,-0.9593639,13.723623,-16.723381,-29.249254,BSC
3793149754000,1.580008,-0.970832683089175,3.43376774397798,4.19414535734933,-2.3588562,-0.70646566,-0.9425651,13.942702,-16.195984,-29.098942,BSC
3793155211000,1.585465,-1.0633202755088,3.33614190130764,3.98861727881231,-2.3203716,-0.7675522,-0.8579602,14.13211,-15.685426,-28.909477,BSC
3793159787000,1.590041,-1.15785735272167,3.25815361290671,3.82004283929067,-2.255009,-0.782213,-0.75441855,14.308012,-15.186622,-28.640951,BSC
3793164707000,1.594961,-1.37219470599846,3.20002830804934,3.66383082880493,-2.1618521,-0.72784597,-0.6252206,14.441787,-14.72991,-28.365278,BSC
3793169770000,1.600024,-1.59276178316114,3.14021358884349,3.50307850988435,-2.116648,-0.7495316,-0.50335294,14.571096,-14.269471,-28.083448,BSC
3793174735000,1.604989,-1.83179232285714,3.05032703166667,3.48069041190476,-1.9984456,-0.68539083,-0.45845437,14.66556,-13.866349,-27.83635,BSC
3793179751000,1.610005,-2.09390041714286,2.93118693,3.58076807142857,-1.9431623,-0.655153,-0.3998113,14.717982,-13.4855585,-27.564112,BSC
3793184720000,1.614974,-2.48800308276146,2.65163668811953,4.64956681211746,-1.8359555,-0.6261369,-0.30085114,14.763582,-13.13067,-27.36207,BSC
3793189771000,1.620025,-3.02132112791345,2.20803564476043,6.69312209502318,-1.6526959,-0.61666846,-0.17470746,14.777649,-12.827539,-27.157967,BSC
3793194781000,1.625035,-3.83650856008178,1.92852320556877,7.8510860762974,-1.4312572,-1.0225884,0.0009162979,14.801764,-12.548837,-26.873917,BSC
3793199748000,1.630002,-4.85506495637175,1.76937376749442,8.36036444062454,-1.4123205,-0.7987063,0.34788775,14.67933,-12.310932,-26.748383,BSC
3793205552000,1.635806,-5.99963566204543,1.57912634785576,9.04216915911175,-1.1624765,-1.1368202,0.46670106,14.686631,-12.072245,-26.315046,BSC
3793209751000,1.640005,-5.8931329480493,1.35383192637262,11.311498755628,-0.5128214,-1.2831224,0.5546656,14.561289,-11.995048,-25.980495,BSC
3793214727000,1.644981,-5.7669225396557,1.0868481108689,14.0007543098706,-0.11911872,-1.3252722,0.98746365,14.413998,-11.853722,-25.729952,BSC
3793219737000,1.649991,-3.31890382851455,-2.60885129872384,15.7846112414497,0.65484756,-0.838718,1.1319333,14.298725,-11.957867,-25.604336,BSC
3793225517000,1.655771,-0.234265972363451,-7.25700032952186,17.7389996811298,1.2977833,1.5622878,0.5503896,14.1393585,-12.093214,-26.024866,BSC
3793229726000,1.65998,-0.59082649910352,-10.0054254949275,18.4066909276398,1.8078557,2.5024095,0.41508293,13.883596,-12.363764,-25.928442,BSC
3793234713000,1.664967,-2.56350287647205,-12.8828630608696,18.7478311540373,1.831374,3.1245756,0.21533,13.679594,-12.585021,-26.445433,BSC
3793239707000,1.669961,-5.42551033001555,-14.8086830614308,18.5097080812597,1.5112807,1.1866057,0.15882497,13.802567,-12.338175,-26.033335,BSC
3793244737000,1.674991,-8.84357759906687,-16.1712283141524,17.9197401244168,0.4297437,-1.2742649,-0.21899518,14.0765705,-11.850226,-25.688622,BSC
3793249741000,1.679995,-10.1083195,-17.096995,15.63653175,-1.2479976,-1.525636,-0.6994407,14.710738,-10.698547,-25.81473,BSC
3793254751000,1.685005,-9.78209740271966,-17.7034338389121,12.0857252567992,-2.5286767,-0.053450707,-0.8164214,15.367884,-9.422705,-25.735678,BSC
3793259708000,1.689962,-9.40126792082478,-18.2235281638847,9.1108894762028,-2.6306913,0.66339964,-1.2186762,16.677118,-7.6911798,-26.025436,BSC
3793264715000,1.694969,-8.86196266812461,-18.535983198786,7.54005609934839,-1.96271,0.54733527,-1.6249015,17.927124,-5.9128604,-26.417114,BSC
3793269736000,1.69999,-8.315860845,-18.8272051,5.99029247833333,-1.2794572,0.31245756,-1.8298469,19.336384,-4.096964,-27.154474,BSC
3793274802000,1.705056,-7.6276890725,-18.547634656383,5.08706720937943,-0.8561276,0.15210545,-1.9220876,20.813927,-2.3982518,-27.815918,BSC
3793279779000,1.710033,-6.95160717125,-18.2729757345745,4.19970989323582,-0.6246097,0.15302174,-1.9938642,22.374846,-0.81161326,-28.44667,BSC
3793284775000,1.715029,-6.0204915421549,-16.4974111603315,3.72820328164237,-0.514654,0.34666604,-2.0347922,23.934195,0.6743776,-29.029894,BSC
3793289678000,1.719932,-5.04086275372964,-14.3636995467276,3.37482117976565,-0.50335294,0.71837753,-1.9294178,25.451675,2.086123,-29.613256,BSC
3793294740000,1.724994,-4.06688987744342,-11.552429841821,3.64585754546468,-0.49266282,1.1780536,-1.5891659,26.855862,3.383812,-30.2051,BSC
3793299795000,1.730049,-3.11228810159465,-8.4520493441358,4.22276899826818,-0.4831944,1.4984524,-1.1334605,28.192934,4.629878,-30.832222,BSC
3793304727000,1.734981,-2.31768730662903,-5.40885110384776,4.84137806773317,-0.42271876,1.5231925,-0.90194255,29.268955,5.599838,-31.359575,BSC
3793309714000,1.739968,-1.76838276178377,-2.29778978617733,5.57045499390422,-0.41233405,1.3460416,-0.49754974,30.159378,6.4879527,-31.924906,BSC
3793314708000,1.744962,-1.47680633782928,0.0246217284557386,5.89905606366937,-0.5580254,1.0167851,-0.1432479,30.614017,6.9937983,-32.23806,BSC
3793319901000,1.750155,-1.52772843274691,1.3532251832449,5.69073860039095,-0.74128497,0.59712076,0.08582657,30.971123,7.466767,-32.48217,BSC
3793324732000,1.754986,-1.67227760732929,2.40327582779544,5.43136940537417,-0.69027776,0.1704314,0.17287487,30.88458,7.499896,-32.536682,BSC
3793329737000,1.759991,-2.06005394937879,3.03572041144178,5.00204568246172,-0.6426302,-0.23579398,0.14263703,30.739656,7.5572696,-32.480553,BSC
3793334732000,1.764986,-2.49118402645862,3.99393280481683,4.61173850309532,-0.59406644,-0.54367006,0.095294975,30.459726,7.4632564,-32.33668,BSC
3793339680000,1.769934,-3.08190204708277,6.15588084036635,4.36661046255936,-0.54641896,-0.6771441,0.04062254,30.180826,7.360361,-32.12473,BSC
3793344813000,1.775067,-3.69470633161465,8.39866161370421,4.11231736796133,-0.56413406,-0.67073005,-0.0018325958,29.908619,7.221489,-31.94178,BSC
3793349793000,1.780047,-3.74473881248277,9.07733648533176,3.95747808237842,-0.5155703,-0.64996064,-0.034208454,29.646326,7.057518,-31.724438,BSC
3793354701000,1.784955,-3.71234852494586,9.5215462396141,3.81866251604647,-0.41080686,-0.49418998,-0.05009095,29.400309,6.8837194,-31.547445,BSC
3793359769000,1.790023,-3.48701040466685,9.02963626904695,3.98933639522069,-0.1863139,-0.31978795,-0.064446285,28.981731,6.360954,-31.50118,BSC
3793364748000,1.795002,-3.22337139815388,8.33702522087902,4.22616480952113,0.029932396,-0.22632557,-0.1160644,28.585438,5.8174696,-31.47371,BSC
3793369771000,1.800025,-2.78742200256024,6.87292217021084,4.3099987713253,0.19120082,-0.20952678,-0.22968534,28.179686,5.1829495,-31.47656,BSC
3793374729000,1.804983,-2.28209353298193,5.08997076252008,4.32430051060241,0.441961,-0.118507855,-0.2941316,27.781284,4.470756,-31.524765,BSC
3793379724000,1.809978,-1.88246778603903,3.13796752061557,4.77917916475558,0.6270532,0.122478485,-0.26206118,27.443377,3.8296635,-31.550323,BSC
3793384722000,1.814976,-1.53101573552605,1.11591468592637,5.42912457441159,0.7156286,0.35369098,-0.19486602,27.11652,3.1523983,-31.596104,BSC
3793389712000,1.819966,-1.49765767693632,-0.321770834010327,6.15515047487091,0.7715228,0.38606682,-0.115453534,26.924387,2.673434,-31.578472,BSC
3793394816000,1.82507,-1.60048419428189,-1.54166809353987,6.93102401964047,0.7724391,0.2611449,0.027488936,26.688368,2.1651473,-31.581007,BSC
3793399721000,1.829975,-1.94957798261312,-2.68495132469696,7.57753102962895,0.7816021,0.1731803,0.21135938,26.517372,1.9226298,-31.50548,BSC
3793404794000,1.835048,-2.46656338970112,-3.84929237114833,8.18442711169612,0.7706065,0.040927973,0.31887165,26.322998,1.6800325,-31.379116,BSC
3793410175000,1.840429,-3.0745830598552,-5.10351411257919,8.7412486159276,0.73364913,-0.063224554,0.5329799,26.181517,1.5542314,-31.17348,BSC
3793414776000,1.84503,-3.64480864024434,-6.19212653502263,9.14399517312217,0.64660084,-0.124005646,0.68508536,26.02417,1.438932,-30.944534,BSC
3793419753000,1.850007,-4.20922529975787,-7.3000750899008,9.56206727782551,0.46089783,-0.19058995,0.72173727,25.97186,1.5206546,-30.731564,BSC
3793424740000,1.854994,-4.61583243559322,-8.19908710716238,9.92764051448879,0.23915374,-0.2666427,0.6291912,25.910452,1.6298194,-30.502441,BSC
3793429736000,1.85999,-5.02317337215496,-9.09972156439897,10.2938734983207,0.014660766,-0.41630468,0.44043383,26.020298,1.9854265,-30.325506,BSC
3793434757000,1.865011,-5.3126599437377,-10.0790398334426,10.2866522147541,-0.17165314,-0.4288274,0.19211712,26.175076,2.400862,-30.167213,BSC
3793439790000,1.870044,-5.54745172754098,-11.0949660885246,10.1060429508197,-0.3390302,-0.29565877,-0.10445796,26.400942,2.8922868,-30.0076,BSC
3793444827000,1.875081,-5.19668272982588,-11.2912306736566,9.7628613537727,-0.4718934,-0.108123146,-0.3839288,26.824772,3.6096692,-29.915268,BSC
3793449801000,1.880055,-4.39994124471073,-10.8542118610747,9.29908653126755,-0.5531385,0.13744467,-0.55863625,27.302568,4.362171,-29.871202,BSC
3793454696000,1.88495,-3.61585407751357,-10.4241340388816,8.84267765387256,-0.5653558,0.38240165,-0.66156703,27.974962,5.2990394,-29.941742,BSC
3793459720000,1.889974,-2.89375848638522,-9.94510197988431,8.53574947880515,-0.53786683,0.61300325,-0.70554936,28.67939,6.2339544,-30.062738,BSC
3793464767000,1.895021,-2.33042339636536,-9.39011280566347,8.54409535103169,-0.48075095,0.77732605,-0.70432764,29.398687,7.1455383,-30.219593,BSC
3793469797000,1.900051,-1.77162202572513,-8.83602705846621,8.55978534107821,-0.41050145,0.84879726,-0.65270954,30.00023,7.93869,-30.254887,BSC
3793474786000,1.90504,-1.28186324124905,-8.26282808238421,8.75568863515566,-0.35827246,0.8436049,-0.59131753,30.599577,8.707581,-30.309221,BSC
3793481062000,1.911316,-0.665762593549734,-7.54176238306758,9.00212861784358,-0.32834008,0.7699956,-0.5021312,31.061592,9.352754,-30.250244,BSC
3793484760000,1.915014,-0.49799395,-7.345411,8.95474614885424,-0.30573806,0.68416905,-0.4175264,31.501715,9.970092,-30.187557,BSC
3793489762000,1.920016,-0.49799395,-7.345411,8.66682345632983,-0.2706133,0.61361414,-0.34666604,31.911064,10.557676,-30.111475,BSC
3793494743000,1.924997,-0.450192954383322,-7.30334610346076,8.40278380268416,-0.27214047,0.5717699,-0.29749137,32.153614,11.016335,-29.887827,BSC
3793499812000,1.930066,-0.267184459835784,-7.14229855016965,8.19781397398778,-0.29901853,0.56138515,-0.2648101,32.37351,11.458694,-29.660072,BSC
3793504899000,1.935153,-0.0835261028100732,-6.98067911762045,7.99211629819799,-0.31795537,0.5213735,-0.23854288,32.592865,11.9002285,-29.446926,BSC
3793509764000,1.940018,-0.0844144981378894,-6.7312150921005,7.85772462480402,-0.27550024,0.48502702,-0.19181168,32.792507,12.3202305,-29.237852,BSC
3793514765000,1.945019,-0.190309917207839,-6.41834232905528,7.75664280444221,-0.17104226,0.4456262,-0.13927728,32.976276,12.719468,-29.021679,BSC
3793519724000,1.949978,-0.305029239654051,-6.04543710172181,7.7236055137983,-0.064446285,0.42913285,-0.07696902,33.11723,13.075827,-28.792559,BSC
3793524748000,1.955002,-0.427194135961279,-5.62931293065143,7.73124081383798,0.050396383,0.3817908,-0.032375857,33.239517,13.395326,-28.549044,BSC
3793529757000,1.960011,-0.570084862688956,-5.20476888186022,7.7411716510048,0.16157386,0.3381139,0.04917465,33.30977,13.629272,-28.340206,BSC
3793534784000,1.965038,-0.895430595136048,-4.69534581693936,7.77113768472346,0.2855795,0.28802297,0.119729586,33.363712,13.824326,-28.121271,BSC
3793540980000,1.971234,-1.31951363751609,-4.09152237702288,7.82686898433198,0.3640757,0.23151793,0.17898351,33.341312,13.910055,-27.923998,BSC
3793544772000,1.975026,-1.74032029375062,-3.89011076834703,7.99231405324354,0.45814893,0.21135938,0.19028452,33.310432,13.957108,-27.726467,BSC
3793549699000,1.979953,-2.28708041908488,-3.62841377574527,8.20727920475389,0.4709771,0.17867808,0.20799962,33.20966,13.897593,-27.584587,BSC
3793554742000,1.984996,-2.78791530039051,-3.62165550381496,8.62496260318414,0.47067168,0.16554448,0.22724187,33.10545,13.817274,-27.444498,BSC
3793559688000,1.989942,-3.26694359667568,-3.66908401367778,9.07553394212476,0.42210788,0.16982053,0.24007004,32.997047,13.745741,-27.302164,BSC
3793564710000,1.994964,-3.66597928480595,-3.90558796484552,9.20777636652223,0.35002577,0.17287487,0.20647246,32.88106,13.619956,-27.244864,BSC
3793569833000,2.000087,-4.05418623982668,-4.18750024626978,9.27247740504898,0.19639318,0.16432275,0.109650314,32.781452,13.536395,-27.181805,BSC
3793574744000,2.004998,-4.28155920789526,-4.21768089762944,9.01536092084904,0.008246681,0.17684549,0.047647487,32.69036,13.4579525,-27.177797,BSC
3793579752000,2.010006,-4.45757038980361,-4.1558390518052,8.63003997659195,-0.10842858,0.21166481,-0.020463986,32.633503,13.415943,-27.169863,BSC
3793585392000,2.015646,-4.61919928176459,-4.12512221820492,8.18821215470624,-0.20158553,0.27000242,-0.09712757,32.661186,13.467963,-27.234426,BSC
3793589763000,2.020017,-4.734083094938,-4.11235741425086,7.84356071518601,-0.2519819,0.3371976,-0.17379116,32.71329,13.5464,-27.304623,BSC
3793594732000,2.024986,-4.7412746169393,-4.15507571416823,7.49560676669348,-0.28496864,0.37048978,-0.2556471,32.821167,13.656278,-27.445456,BSC
3793599722000,2.029976,-4.70282868979172,-4.21915236349334,7.16240885036203,-0.2938262,0.41538838,-0.29077184,32.94415,13.774448,-27.60244,BSC
3793604756000,2.03501,-4.60586870879599,-4.31642727624646,6.95504702738951,-0.2929099,0.4560109,-0.37568212,33.145897,13.925597,-27.815987,BSC
3793609764000,2.040018,-4.44923683037231,-4.44695360535598,6.8819521980405,-0.27000242,0.48472157,-0.41172317,33.345287,14.0689745,-28.035107,BSC
3793614755000,2.045009,-4.31809359764706,-4.71518510201681,7.08376276403361,-0.22510384,0.4783075,-0.39187005,33.587666,14.243798,-28.272896,BSC
3793619772000,2.050026,-4.19934207564014,-5.05718945365299,7.4305169226001,-0.15363261,0.4175264,-0.32711834,33.823616,14.401874,-28.50001,BSC
3793624727000,2.054981,-4.04766643865485,-5.27070336293618,7.65118458000362,-0.09743301,0.3268129,-0.25320363,34.05829,14.576705,-28.690907,BSC
3793629744000,2.059998,-3.87392993283312,-5.41403586005243,7.80320412464292,-0.04153884,0.21074851,-0.17379116,34.26155,14.7211075,-28.860662,BSC
3793634721000,2.064975,-3.7968337474984,-5.46444897127961,7.8894755761822,-0.032375857,0.10262536,-0.098043874,34.44027,14.901079,-28.94675,BSC
3793639700000,2.069954,-3.85353168305131,-5.38594426355072,7.8851142035306,-0.08246681,-0.002443461,-0.01740966,34.579773,15.066526,-29.007502,BSC
3793644760000,2.075014,-3.89051878742588,-5.30217512185468,7.83423917285133,-0.13927728,-0.070554934,0.07666359,34.675247,15.239066,-29.001068,BSC
3793649732000,2.079986,-3.85990203766521,-5.20692294044438,7.63352922677717,-0.18997909,-0.064751714,0.15882497,34.744263,15.408985,-28.992409,BSC
3793655071000,2.085325,-3.82702536289205,-5.10463987597342,7.4180042062442,-0.22632557,0.016798794,0.21960606,34.78272,15.559466,-29.005772,BSC
3793659714000,2.089968,-3.71418920470297,-5.04531781435644,7.15750152054455,-0.2452624,0.116980694,0.2593123,34.803658,15.706009,-29.03126,BSC
3793664706000,2.09496,-3.48628440558306,-5.01902103107811,6.78496473374588,-0.24190263,0.23976462,0.25320363,34.82993,15.850547,-29.08599,BSC
3793670130000,2.100384,-3.1282864768077,-5.07062852608014,6.43580701423774,-0.21868975,0.34513888,0.22113322,34.86027,15.984266,-29.184021,BSC
3793674737000,2.104991,-2.60810024375047,-5.27145982934109,6.24814493787777,-0.17867808,0.4269948,0.22876903,34.890656,16.105389,-29.3102,BSC
3793679858000,2.110112,-2.02987717027834,-5.49469775076487,6.03954552545332,-0.111177474,0.4896085,0.26145032,34.950054,16.236559,-29.450373,BSC
3793684704000,2.114958,-1.8057031990625,-5.58854160898438,6.08572960947266,-0.025045475,0.52381694,0.31978795,35.005398,16.346281,-29.605904,BSC
3793689703000,2.119957,-1.81505367234375,-5.59789227753906,6.31481635131836,0.052534413,0.5222898,0.3839288,35.052425,16.434155,-29.769785,BSC
3793694989000,2.125243,-1.91640428449897,-5.55015404977017,6.57319011693657,0.10445796,0.47678033,0.43493605,35.09499,16.577736,-29.819159,BSC
3793699740000,2.129994,-2.07728185964925,-5.46328012827947,6.81772423140513,0.16798794,0.43401974,0.4728097,35.122807,16.691223,-29.872112,BSC
3793704927000,2.135181,-2.2529231945902,-5.36843377366523,7.0846992791316,0.19181168,0.3555236,0.53786683,35.09632,16.777306,-29.88685,BSC
3793709706000,2.13996,-2.53233016657311,-5.20228915312939,7.36622844176256,0.2434298,0.25167647,0.6206391,35.04574,16.832436,-29.887495,BSC
3793714711000,2.144965,-2.87313156866872,-4.99601460303115,7.67564007961456,0.2751948,0.1151481,0.68875057,34.96797,16.878975,-29.862158,BSC
3793719852000,2.150106,-3.38883833427879,-4.5832808793697,7.98924407330909,0.30298916,-0.0021380284,0.74006325,34.82081,16.85419,-29.828728,BSC
3793724749000,2.155003,-4.00277081203232,-4.04135278160808,8.28484147655758,0.29352075,-0.11636983,0.76083267,34.648567,16.825996,-29.762608,BSC
3793729741000,2.159995,-4.59700473413174,-3.51721121832335,8.55002470538922,0.2733622,-0.17745635,0.77091193,34.41355,16.718575,-29.722534,BSC
3793734861000,2.165115,-4.84028335175364,-3.30748817846022,8.4032182314799,0.22937989,-0.1863139,0.75228053,34.17694,16.622713,-29.664728,BSC
3793739686000,2.16994,-5.06954493964927,-3.10984879030796,8.26487033370402,0.1881465,-0.14721853,0.7079928,33.847443,16.343458,-29.738327,BSC
3793744836000,2.17509,-5.19268103834112,-2.96771593576476,8.16696425165779,0.17501289,-0.07696902,0.6469063,33.538467,16.08192,-29.809582,BSC
3793749736000,2.17999,-5.26920003279704,-2.85548862410045,8.09044563006849,0.18600847,0.004886922,0.5888741,33.254276,15.838409,-29.886145,BSC
3793754794000,2.185048,-5.21668027869183,-2.86435840941737,8.13895570263833,0.23426682,0.113926366,0.52595496,32.989437,15.543566,-30.066492,BSC
3793759683000,2.189937,-5.15234187173873,-2.88580444056431,8.19900450027483,0.25778514,0.18509217,0.45356745,32.75758,15.272515,-30.24473,BSC
3793764765000,2.195019,-5.04722294493768,-2.93665007083831,8.23764518738262,0.25442538,0.20922135,0.3930918,32.539547,14.989211,-30.455214,BSC
3793769854000,2.200108,-4.92656794212054,-2.99905787585795,8.26676856906266,0.25381452,0.2003638,0.33964106,32.35297,14.720625,-30.661362,BSC
3793774758000,2.205012,-4.79508693091274,-3.07791263640923,8.283937,0.23976462,0.18509217,0.29626966,32.178917,14.478795,-30.83743,BSC
3793779798000,2.210052,-4.6353261597994,-3.18926099749248,8.283937,0.22266038,0.13072516,0.2519819,32.022774,14.254902,-30.989145,BSC
3793784768000,2.215022,-4.5149474144296,-3.28600843919422,8.27034879329976,0.20738874,0.08582657,0.24312437,31.87021,14.061483,-31.099672,BSC
3793789767000,2.220021,-4.4520513398584,-3.36288153679293,8.23540669181082,0.19486602,0.036651913,0.23915374,31.728523,13.88358,-31.186956,BSC
3793795424000,2.225678,-4.3808764861178,-3.44987315774031,8.19586528990585,0.1994475,-0.009468411,0.24312437,31.592615,13.735918,-31.227253,BSC
3793799746000,2.23,-4.29210187520645,-3.51775100104926,8.1582007126688,0.22052236,-0.027183503,0.25259277,31.457214,13.590992,-31.260153,BSC
3793804881000,2.235135,-4.1726591211503,-3.59897200396386,8.11042371082289,0.23518312,-0.054367006,0.27305678,31.314787,13.448038,-31.27744,BSC
3793809710000,2.239964,-4.09786637238653,-3.66475371144949,8.11673198491947,0.2687807,-0.0720821,0.27152961,31.194824,13.3254595,-31.277336,BSC
3793814697000,2.244951,-4.04658730758419,-3.72535630010737,8.15868776925329,0.30115658,-0.111177474,0.27672195,31.064175,13.19849,-31.265228,BSC
3793819767000,2.250021,-4.01723728795812,-3.79679065910413,8.16855000213302,0.3436117,-0.11484267,0.2764165,30.945425,13.082776,-31.239824,BSC
3793824950000,2.255204,-4.00761210418848,-3.87860396736475,8.14929968484584,0.38026363,-0.119729586,0.28130344,30.821882,12.961664,-31.204102,BSC
3793829773000,2.260027,-4.00790045504702,-3.96007261972832,8.12829698756531,0.410196,-0.1301143,0.27885997,30.700058,12.842614,-31.152086,BSC
3793834719000,2.264973,-4.01779958721003,-4.04916382723093,8.10354941556949,0.43768495,-0.11759156,0.29229903,30.575258,12.7149105,-31.106916,BSC
3793840567000,2.270821,-4.05139702786702,-3.95979303122899,8.04707536776242,0.42546764,-0.07452556,0.30482176,30.467348,12.609173,-31.066996,BSC
3793844768000,2.275022,-4.08521186081435,-3.80950484556406,7.99447451651102,0.38973203,-0.039095376,0.29810223,30.363611,12.506102,-31.028326,BSC
3793849907000,2.280161,-4.10173060172396,-3.59423454836432,7.9583263,0.3408628,0.028099801,0.31856623,30.270605,12.418136,-31.019373,BSC
3793854780000,2.285034,-4.08719080252363,-3.35190525332849,7.9583263,0.3005457,0.076052725,0.31123585,30.19148,12.344049,-31.012337,BSC
3793859768000,2.290022,-4.0797195,-3.19823304181504,7.97375907883659,0.25320363,0.12034045,0.2947425,30.091322,12.246707,-31.043118,BSC
3793864768000,2.295022,-4.0797195,-3.13955579104015,8.00482344847546,0.23182335,0.14996742,0.28405234,29.996172,12.155456,-31.08183,BSC
3793870201000,2.300455,-4.0797195,-3.07579709034816,8.03857799252505,0.2134974,0.1731803,0.2938262,29.861088,12.027825,-31.132124,BSC
3793874852000,2.305106,-4.10363603591774,-2.98599501472434,8.17776743410254,0.1957823,0.1600467,0.29901853,29.73268,11.910522,-31.177662,BSC
3793879784000,2.310038,-4.13555927141064,-2.88110427497345,8.35562634479096,0.18753563,0.15760323,0.3182608,29.601542,11.79458,-31.23239,BSC
3793884763000,2.315017,-4.20239148564617,-2.73922457489818,8.48601127436178,0.21166481,0.12217305,0.33414328,29.44671,11.655798,-31.271135,BSC
3793889762000,2.320016,-4.28799222240985,-2.57753465849806,8.59063373497566,0.226631,0.10842858,0.3475823,29.290632,11.521843,-31.31445,BSC
3793894797000,2.325051,-4.38746073824312,-2.43671518557232,8.61777173895297,0.2452624,0.07880162,0.36102137,29.088316,11.345895,-31.333023,BSC
3793899832000,2.330086,-4.49442433185448,-2.30835882856256,8.60065765332742,0.25625798,0.03145956,0.37751472,28.882034,11.170181,-31.342003,BSC
3793904833000,2.335087,-4.61424678619028,-2.20156382648785,8.52874259220453,0.17440203,-0.0012217305,0.38423425,28.643879,10.972344,-31.35543,BSC
3793910411000,2.340665,-4.77096772129086,-2.11760627661358,8.35522962112322,0.22143865,-0.06169739,0.37904188,28.403818,10.746062,-31.345953,BSC
3793914757000,2.345011,-4.87393489804517,-2.05554562304043,8.31927297950275,0.14630222,-0.0580322,0.37415496,28.148848,10.535812,-31.375471,BSC
3793919763000,2.350017,-4.97402140753464,-1.98730469371797,8.37386631201366,0.13805555,-0.10720685,0.35155296,27.89941,10.308684,-31.369173,BSC
3793924761000,2.355015,-5.05390161751343,-1.94244165480253,8.38863501640117,0.20525073,-0.13103059,0.33414328,27.662197,10.070274,-31.415882,BSC
3793929788000,2.360042,-5.09928051567537,-1.93790375550947,8.33417956150438,0.17073683,-0.12950343,0.29840767,27.442793,9.871757,-31.450327,BSC
3793934684000,2.364938,-5.13001281831951,-1.95186860631807,8.27931564125496,0.18967366,-0.13897185,0.25289822,27.222918,9.632568,-31.48754,BSC
3793940815000,2.371069,-5.11307374749369,-2.04503407071042,8.20308960144248,0.20586158,-0.1414153,0.21899518,27.017916,9.413896,-31.52244,BSC
3793944764000,2.375018,-5.10216322870537,-2.10504229430941,8.15399212448612,0.21899518,-0.13316862,0.18570304,26.834288,9.198378,-31.572016,BSC
3793949796000,2.38005,-5.07186917757172,-2.15356547063768,8.12740241567696,0.2302962,-0.121256754,0.15088372,26.667685,8.9918995,-31.617077,BSC
3793954786000,2.38504,-5.0238452370455,-2.17102873831537,8.14049968408551,0.24648413,-0.106901415,0.122783914,26.515368,8.791896,-31.661072,BSC
3793959682000,2.389936,-4.98573451410637,-2.1816211119893,8.149862,0.24953845,-0.099265605,0.10567969,26.398682,8.627845,-31.707266,BSC
3793964770000,2.395024,-4.97125616450007,-2.17438195608379,8.149862,0.23671028,-0.09407325,0.087964594,26.29533,8.473012,-31.753435,BSC
3793970781000,2.401035,-4.95415133755757,-2.16582956493834,8.149862,0.22204952,-0.0888809,0.07666359,26.201517,8.326726,-31.787691,BSC
3793974768000,2.405022,-4.93538493517672,-2.15644635381889,8.17623548727035,0.20830505,-0.07086037,0.06566802,26.116926,8.190102,-31.82482,BSC
3793980300000,2.410554,-4.90574093700457,-2.1416243289378,8.22564223687401,0.19456059,-0.05497787,0.04642576,26.041239,8.063879,-31.860577,BSC
3793984767000,2.415021,-4.88474882996417,-2.10412989011383,8.263629034043,0.17562376,-0.03573562,0.043982297,25.959484,7.938369,-31.90031,BSC
3793989770000,2.420024,-4.86454948111298,-2.03343224822934,8.30402794266442,0.16126843,-0.032375857,0.022296581,25.892517,7.8244348,-31.936954,BSC
3793994778000,2.425032,-4.82830410378913,-1.91833272828116,8.35842771718836,0.15057829,-0.035430185,0.023823744,25.81246,7.7096257,-31.966385,BSC
3794000256000,2.43051,-4.77428669192751,-1.75267921909665,8.4304513090335,0.13652839,-0.01282817,0.02565634,25.74288,7.6054916,-32.001945,BSC
3794004697000,2.434951,-4.73049492009885,-1.61838436070154,8.48884064298462,0.12034045,-0.0070249503,0.019547688,25.658375,7.490789,-32.02493,BSC
3794009763000,2.440017,-4.69728050052586,-1.49428037211971,8.5515039774357,0.09315695,-0.007941248,0.010995574,25.57699,7.3855333,-32.051235,BSC
3794014786000,2.44504,-4.67428391079453,-1.38849601132996,8.61129491863467,0.06841691,0.0021380284,0.024740042,25.493021,7.284191,-32.08188,BSC
3794019797000,2.450051,-4.64454872036963,-1.31963708029999,8.63300100629436,0.052534413,0.0012217305,0.015577064,25.368221,7.143217,-32.08744,BSC
3794026036000,2.45629,-4.60053857874648,-1.2716260660841,8.62099822140753,0.03756821,-0.009468411,0.02107485,25.23715,7.0079317,-32.093113,BSC
3794029692000,2.459946,-4.57474901667336,-1.24349202730012,8.61396469335074,0.029626964,-0.02107485,0.020463986,25.08384,6.855428,-32.08767,BSC
3794034769000,2.465023,-4.56114965585148,-1.2258313,8.60178042428072,0.040011674,-0.045814894,0.032375857,24.927267,6.70407,-32.075104,BSC
3794039765000,2.470019,-4.56580023839425,-1.2258313,8.58782848240669,0.03726278,-0.079107046,0.02443461,24.780428,6.5654197,-32.05508,BSC
3794044708000,2.474962,-4.58701180972089,-1.24127451620885,8.54478483481847,0.05131268,-0.10048734,0.028710667,24.616226,6.409727,-32.024235,BSC
3794049809000,2.480063,-4.62658514909051,-1.2736525868547,8.46923601583327,0.05955936,-0.105068825,0.05131268,24.451778,6.2591,-31.988625,BSC
3794054757000,2.485011,-4.66497152101775,-1.30505950580308,8.39595321709993,0.06383542,-0.1133155,0.055283304,24.295996,6.10954,-31.948967,BSC
3794059914000,2.490168,-4.65202780853412,-1.35135497943719,8.36897914695604,0.06291912,-0.122783914,0.04886922,24.139841,5.96198,-31.907715,BSC
3794064711000,2.494965,-4.62667910004598,-1.39782725139783,8.35630507945558,0.06719518,-0.124311075,0.040317107,23.986946,5.8163495,-31.866142,BSC
3794069807000,2.500061,-4.6078698751958,-1.46627244882521,8.33195701160969,0.04917465,-0.13041973,0.04337143,23.852734,5.689501,-31.841656,BSC
3794074778000,2.505032,-4.59471048899843,-1.5452287660094,8.30125113590712,0.029626964,-0.14752395,0.040927973,23.725922,5.567928,-31.812696,BSC
3794079737000,2.509991,-4.58517390180402,-1.615146700451,8.27547145141451,0.04153884,-0.13408493,0.035124753,23.615826,5.4562645,-31.786026,BSC
3794084715000,2.514969,-4.58028733862239,-1.6737855096556,8.25592530073801,0.019242255,-0.13927728,0.03604105,23.505352,5.3597946,-31.74939,BSC
3794089699000,2.519953,-4.5672729933998,-1.73181693896428,8.24145392818241,0.009468411,-0.13622294,0.033292156,23.415453,5.281837,-31.718271,BSC
3794094754000,2.525008,-4.54492889481215,-1.78991164195514,8.23251656872519,0.01160644,-0.12797627,0.03726278,23.324764,5.2071013,-31.687622,BSC
3794099732000,2.529986,-4.53423785373281,-1.84386457664047,8.21766029253438,0.0076358155,-0.12522738,0.035430185,23.251091,5.150944,-31.656786,BSC
3794104732000,2.534986,-4.54834910127701,-1.89090195385069,8.18943779744597,0.004276057,-0.11362094,0.022907447,23.18163,5.0964966,-31.630875,BSC
3794109680000,2.539934,-4.55663899698364,-1.92589869649348,8.17093698295754,-0.0030543262,-0.0983493,0.01985312,23.12123,5.0566974,-31.603292,BSC
3794114703000,2.544957,-4.54938396077973,-1.92952619565644,8.17819194340547,-0.00061086525,-0.083383106,0.010995574,23.068275,5.0189567,-31.578733,BSC
3794119768000,2.550022,-4.54206826132268,-1.93318402628761,8.18550756647312,-0.005497787,-0.074830994,-0.0027488936,23.027857,4.998839,-31.56177,BSC
3794124746000,2.555,-4.53067694445629,-1.94324438592751,8.23181627771855,-0.012217305,-0.06688975,-0.020463986,22.992853,4.9809747,-31.548656,BSC
3794129958000,2.560212,-4.51616421683466,-1.9577571640628,8.30437991582671,-0.02687807,-0.052534413,-0.017104227,22.95646,4.9655232,-31.540146,BSC
3794134771000,2.565025,-4.491763835676,-1.92812283329363,8.37234728806829,-0.022602014,-0.043676864,-0.013133603,22.930155,4.948921,-31.529135,BSC
3794140627000,2.570881,-4.45279492846933,-1.85575205544967,8.4558525459599,-0.03726278,-0.03940081,-0.014966198,22.905373,4.9411206,-31.520922,LYI
3794144796000,2.57505,-4.43137982043996,-1.82648842043996,8.49263597378552,-0.03848451,-0.03604105,-0.023518313,22.881035,4.9315605,-31.503708,LYI
3794149749000,2.580003,-4.40964109890009,-1.80474969890009,8.52307036553621,-0.046120327,-0.040011674,-0.02565634,22.855417,4.92658,-31.485983,LYI
3794154719000,2.584973,-4.38878301989117,-1.78214880441354,8.53554077448609,-0.05100725,-0.04795292,-0.025961773,22.819065,4.906953,-31.454475,LYI
3794159757000,2.590011,-4.36933600483676,-1.75784004828698,8.51609391172914,-0.05681047,-0.059253927,-0.035124753,22.786654,4.8914638,-31.421055,LYI
3794165174000,2.595428,-4.32910017361652,-1.7429788,8.50856592761107,-0.049785517,-0.062002823,-0.035430185,22.7474,4.8691235,-31.379719,LYI
3794169806000,2.60006,-4.27291596317225,-1.7429788,8.51720940929462,-0.051923547,-0.056505036,-0.030848695,22.709953,4.8514514,-31.338156,LYI
3794174725000,2.604979,-4.22226812104385,-1.75060793552438,8.52640971156676,-0.05955936,-0.06536258,-0.041233405,22.67731,4.829254,-31.291193,LYI
3794179732000,2.609986,-4.18933760322771,-1.7741295374767,8.5358185291867,-0.04734206,-0.06872234,-0.035430185,22.638624,4.8001776,-31.248678,LYI
3794184685000,2.614939,-4.15705490555094,-1.7908629,8.54029800515207,-0.053450707,-0.065973446,-0.03390302,22.60229,4.782897,-31.191967,LYI
3794189711000,2.619965,-4.12505690202759,-1.7908629,8.53229833721123,-0.047647487,-0.064446285,-0.035430185,22.565336,4.7597194,-31.135078,LYI
3794194851000,2.625105,-4.0923331180821,-1.7908629,8.5241172203756,-0.03940081,-0.0580322,-0.036651913,22.527317,4.741583,-31.074488,LYI
3794199789000,2.630043,-4.06335437279628,-1.81680487235098,8.51903469911952,-0.047647487,-0.044593163,-0.03268129,22.488747,4.7258015,-31.017569,LYI
3794204746000,2.635,-4.03452807081267,-1.84563122450157,8.51423070843032,-0.049785517,-0.042455133,-0.037873644,22.453875,4.708368,-30.96003,LYI
3794209774000,2.640028,-3.99233923099779,-1.8483237,8.49183957277655,-0.043066,-0.042455133,-0.040927973,22.417498,4.6894827,-30.900887,LYI
3794214730000,2.644984,-3.94945993093756,-1.8483237,8.46801773940976,-0.050701816,-0.040011674,-0.04184427,22.382626,4.6753473,-30.844013,LYI
3794219773000,2.650027,-3.9287454607362,-1.86099790444785,8.43209985678681,-0.04917465,-0.03848451,-0.03726278,22.349846,4.662223,-30.783318,LYI
3794224702000,2.654956,-3.9106457493865,-1.87457268796012,8.39590015059433,-0.046731193,-0.040011674,-0.03573562,22.318586,4.6514173,-30.723434,LYI
3794229719000,2.659973,-3.91092033869648,-1.86988782260704,8.37495052004363,-0.047647487,-0.034208454,-0.043066,22.289719,4.64596,-30.66015,LYI
3794235487000,2.665741,-3.91594160789019,-1.85984528421962,8.35486554813199,-0.040011674,-0.03604105,-0.039095376,22.256506,4.635906,-30.59577,LYI
3794239714000,2.669968,-3.92580027986077,-1.86086259328692,8.33616522426653,-0.03848451,-0.032986723,-0.039095376,22.230673,4.6348314,-30.535082,LYI
3794244844000,2.675098,-3.94045835564396,-1.86574861854799,8.31173458776728,-0.04520403,-0.036651913,-0.04153884,22.204159,4.6335626,-30.47311,LYI
3794249780000,2.680034,-3.95452677527489,-1.88820287322437,8.30013014640911,-0.04428773,-0.033292156,-0.04886922,22.17955,4.6288896,-30.418043,LYI
3794254787000,2.685041,-3.96877671215453,-1.92145277554235,8.29538006825161,-0.047036625,-0.029321533,-0.043982297,22.151716,4.6252494,-30.363382,LYI
3794259827000,2.690081,-4.00659578766796,-1.93158581652235,8.28765581656216,-0.05131268,-0.03023783,-0.051618114,22.13878,4.626643,-30.313042,LYI
3794264710000,2.694964,-4.05779496852792,-1.92693134111675,8.27834715736041,-0.060170226,-0.014049901,-0.05589417,22.123755,4.6284986,-30.26982,LYI
3794269788000,2.700042,-4.08468707007033,-1.91003538604671,8.2669094503777,-0.06047566,-0.013133603,-0.057421334,22.115267,4.63664,-30.225847,LYI
3794274793000,2.705047,-4.09301070187549,-1.88506431680125,8.25442367673874,-0.058643065,0.0009162979,-0.0729984,22.113565,4.648693,-30.190504,LYI
3794279686000,2.70994,-4.09475361519757,-1.8674773,8.24700316172309,-0.062002823,0.0076358155,-0.0711658,22.117968,4.657765,-30.164595,LYI
3794284777000,2.715031,-4.07942336079027,-1.8674773,8.25211337103029,-0.070554934,0.0033597588,-0.07391469,22.12876,4.6702437,-30.139551,LYI
3794289680000,2.719934,-4.07182701068186,-1.8674773,8.26699724512266,-0.06780604,0.007330383,-0.07422013,22.140734,4.674014,-30.122265,LYI
3794294850000,2.725104,-4.07660893612131,-1.8674773,8.30047092292834,-0.069027774,0.035124753,-0.06872234,22.15195,4.680198,-30.111088,LYI
3794299763000,2.730017,-4.07544001941188,-1.8674773,8.32937759177398,-0.07452556,0.04184427,-0.07269296,22.165438,4.6872554,-30.092043,LYI
3794305144000,2.735398,-4.06058331938305,-1.8674773,8.35413918940996,-0.07269296,0.038179077,-0.07452556,22.17667,4.691529,-30.078474,LYI
3794309723000,2.739977,-4.04671820213282,-1.87601890465342,8.37183826563257,-0.0720821,0.032986723,-0.07086037,22.189146,4.698925,-30.0627,LYI
3794314699000,2.744953,-4.02746866391986,-1.91451802127969,8.37953783971562,-0.070249505,0.033292156,-0.06536258,22.201323,4.7053194,-30.047825,LYI
3794319804000,2.750058,-4.00772009226046,-1.95401520584101,8.38743702092422,-0.07788532,0.043982297,-0.06536258,22.207834,4.715977,-30.029173,LYI
3794324735000,2.754989,-4.01386494217012,-1.97759188969041,8.4036294147881,-0.076052725,0.03726278,-0.06169739,22.21056,4.7222595,-30.006348,LYI
3794329723000,2.759977,-4.02822304584711,-1.99673589465985,8.42277331980764,-0.07086037,0.037873644,-0.05222898,22.211718,4.7284765,-29.989204,LYI
3794334779000,2.765033,-4.03827997225812,-2.01121925932548,8.41147890112419,-0.07391469,0.03726278,-0.040011674,22.21328,4.744921,-29.964794,LYI
3794340949000,2.771203,-4.04874084487917,-2.02691073210587,8.38532644649022,-0.07422013,0.04062254,-0.03359759,22.213549,4.7584276,-29.942286,LYI
3794344770000,2.775024,-4.06545280094835,-2.04715742604923,8.37247422538337,-0.06872234,0.030848695,-0.035430185,22.214882,4.77465,-29.916658,LYI
3794349741000,2.779995,-4.09427025766747,-2.08077777550444,8.35806574778047,-0.076052725,0.034513887,-0.025961773,22.210773,4.7911167,-29.896746,LYI
3794354722000,2.784976,-4.11075572081869,-2.1019322897901,8.34175282780891,-0.08002335,0.02565634,-0.019547688,22.212694,4.809871,-29.874678,LYI
3794359739000,2.789993,-4.1153189560642,-2.11105885557983,8.32349931503467,-0.07422013,0.025961773,-0.0106901415,22.21092,4.82578,-29.856972,LYI
3794364686000,2.79494,-4.12269155543559,-2.1180293572241,8.30333822418198,-0.07971791,0.021685716,-0.007941248,22.218798,4.8508825,-29.842638,LYI
3794369808000,2.800062,-4.13482017956812,-2.12207224600676,8.27908080705514,-0.06383542,0.02076942,-0.00580322,22.223854,4.867492,-29.82986,LYI
3794374864000,2.805118,-4.14678317102387,-2.1260512,8.25522008571689,-0.054367006,0.021380283,-0.007330383,22.231583,4.8896484,-29.819246,LYI
3794379733000,2.809987,-4.15527828537074,-2.1260512,8.25946770941884,-0.059253927,0.014966198,-0.004581489,22.236725,4.9099865,-29.80679,LYI
3794384684000,2.814938,-4.16391646798142,-2.1260512,8.26378686837311,-0.051923547,0.014049901,-0.004581489,22.2414093847774,4.91854177040714,-29.8038011291617,LYI
3794389705000,2.819959,-4.16917209527573,-2.12278997499122,8.26152270688444,-0.046731193,0.01282817,-0.00061086525,22.24616,4.927218,-29.80077,LYI
3794394787000,2.825041,-4.17344605370566,-2.1185162396909,8.25724888233228,-0.046731193,0.02076942,-0.00061086525,22.255854,4.948385,-29.79595,LYI
3794399732000,2.829986,-4.17784203408203,-2.10470442623047,8.25991506816406,-0.04642576,0.012217305,-0.00061086525,22.264238,4.9637,-29.787846,LYI
3794404775000,2.835029,-4.18255851953125,-2.08112239296875,8.2693480390625,-0.050396383,0.005192355,0.005192355,22.270823,4.9788647,-29.7827,LYI
3794409771000,2.840025,-4.19180514181524,-2.0685902,8.26537383144247,-0.03756821,-0.00061086525,0.007941248,22.277712,4.9870143,-29.777609,LYI
3794414710000,2.844964,-4.20617887256888,-2.0685902,8.24620819003242,-0.03756821,0.01160644,0.017715093,22.2806,4.997207,-29.77615,LYI
3794419809000,2.850063,-4.2183282533613,-2.08218972340994,8.23831962668065,-0.03390302,0.01160644,0.0106901415,22.284079,5.0022783,-29.768488,LYI
3794424835000,2.855089,-4.22750800009536,-2.10972848435206,8.24290950004768,-0.03390302,0.008552114,0.011911872,22.28195,5.0056033,-29.764017,LYI
3794429675000,2.859929,-4.23556837664609,-2.12998030599647,8.25479796869489,-0.032070424,0.02076942,0.01863139,22.280434,5.006012,-29.76967,LYI
3794434828000,2.865082,-4.24282127716049,-2.14085977037037,8.28018353703704,-0.03359759,0.010079277,0.022602014,22.278576,5.007454,-29.767841,LYI
3794441966000,2.87222,-4.25117737784091,-2.15293153636364,8.31174294886364,-0.03726278,0.0106901415,0.023823744,22.281374,5.013408,-29.774076,LYI
3794444806000,2.87506,-4.24634821803977,-2.14327311590909,8.30691363778409,-0.031154128,0.01038471,0.02687807,22.281881,5.0163865,-29.777094,LYI
3794449785000,2.880039,-4.23788188471236,-2.12634027244318,8.29844703924006,-0.03848451,-0.0036651916,0.029626964,22.276772,5.025443,-29.775263,LYI
3794454750000,2.885004,-4.23682702801648,-2.11065729723367,8.30127009652737,-0.030543262,-0.005497787,0.033292156,22.270844,5.028507,-29.776861,LYI
3794459837000,2.890091,-4.24638493912105,-2.0963202808711,8.32038601854032,-0.027794369,-0.016187929,0.034208454,22.264238,5.0345173,-29.771925,LYI
3794464692000,2.894946,-4.25378583026775,-2.08942746542491,8.33013767520372,-0.024129177,-0.008246681,0.03481932,22.252953,5.035187,-29.770977,LYI
3794469777000,2.900031,-4.25851002613504,-2.09415175995343,8.32541377532014,-0.03023783,-0.0061086523,0.034208454,22.241404,5.0376296,-29.76538,LYI
3794474698000,2.904952,-4.2603718802314,-2.1012422412004,8.31963065127,-0.018325957,-0.010079277,0.04550946,22.225067,5.0308633,-29.759872,LYI
3794479752000,2.910006,-4.25599692439664,-2.11436738280756,8.31088037412998,-0.023823744,-0.005497787,0.041233405,22.214615,5.0322843,-29.756954,LYI
3794484808000,2.915062,-4.24956025023034,-2.12478012511517,8.30520950238284,-0.025961773,-0.009162978,0.038179077,22.195936,5.0278573,-29.753489,LYI
3794490505000,2.920759,-4.22355912413026,-2.11177956206513,8.32687755996823,-0.023518313,-0.009773844,0.040927973,22.177355,5.023553,-29.752163,LYI
3794494817000,2.925071,-4.2038791424305,-2.10193957121525,8.34327788721207,-0.026572637,-0.01038471,0.0421497,22.163177,5.0260477,-29.749283,LYI
3794499880000,2.930134,-4.19155960408768,-2.09115661507995,8.34172962607222,-0.014660766,-0.013744468,0.03481932,22.151037,5.0250387,-29.74526,LYI
3794504645000,2.934899,-4.18672718864768,-2.08149148143598,8.32723177422429,-0.020158553,-0.009468411,0.038179077,22.135475,5.0273867,-29.743557,LYI
3794509625000,2.939879,-4.17204230687831,-2.08142267328042,8.32875634656085,-0.017715093,-0.004276057,0.03390302,22.119184,5.0236883,-29.73282,LYI
3794514602000,2.944856,-4.15264274277574,-2.08627256430606,8.33845612861213,-0.0290161,-0.0030543262,0.03390302,22.100681,5.0237565,-29.722513,LYI
3794519665000,2.949919,-4.13386218512553,-2.07484905047845,8.33172763638086,-0.023518313,-0.00030543262,0.040011674,22.08126,5.0174274,-29.714855,LYI
3794524689000,2.954943,-4.11562870639507,-2.05661538135481,8.31805217034581,-0.016798794,-0.00030543262,0.03848451,22.0740149642749,5.01615817894737,-29.7112977026265,LYI
3794529602000,2.959856,-4.10302739852416,-2.04672531341757,8.30182291029227,-0.013744468,0.004581489,0.03176499,22.06693,5.014917,-29.707819,LYI
3794534601000,2.964855,-4.09379142415356,-2.04210735034243,8.28335115443233,-0.02076942,0.00030543262,0.0290161,22.045925,5.0131373,-29.695328,LYI
3794539613000,2.969867,-4.09143320165254,-2.03772287603392,8.26581312562727,-0.03268129,-0.004276057,0.041233405,22.01783,5.00716,-29.682243,LYI
3794544641000,2.974895,-4.09559928986849,-2.03355674431563,8.24914825073542,-0.03359759,-0.0061086523,0.033292156,21.997545,5.003564,-29.668215,LYI
3794549630000,2.979884,-4.098873,-2.03943022277433,8.23833984748102,-0.018936822,-0.0030543262,0.033292156,21.97276,4.9955835,-29.655039,LYI
3794554633000,2.984887,-4.098873,-2.08351842657005,8.24936209983897,-0.018936822,0.004276057,0.0290161,21.952374,4.9932528,-29.642395,LYI
3794559974000,2.990228,-4.10825865512715,-2.09985832802844,8.26224612496582,-0.018020526,0.005192355,0.024129177,21.930515,4.9883337,-29.631723,LYI
3794564609000,2.994863,-4.12444262518458,-2.08772029767569,8.2743839018321,-0.008552114,0.010995574,0.023518313,21.909405,4.9813886,-29.624603,LYI
3794569671000,2.999925,-4.1399778758496,-2.0837621516992,8.28673461966739,-0.0070249503,0.008246681,0.028099801,21.894321,4.9806023,-29.615114,LYI
3794574672000,3.004926,-4.14987227247185,-2.1035509449437,8.2966291712633,-0.00061086525,0.016493361,0.025045475,21.88269,4.977468,-29.610245,LYI
3794579635000,3.009889,-4.16114945748148,-2.11326416205432,8.30630130498766,-0.005497787,0.01038471,0.025961773,21.867285,4.9740763,-29.602316,LYI
3794584652000,3.014906,-4.17538584533333,-2.10377343502222,8.31579223022222,-0.01160644,0.013744468,0.024129177,21.85461,4.9703774,-29.59927,LYI
3794589637000,3.019891,-4.18805078306428,-2.09134914033871,8.33568128879865,-0.006414085,0.013439035,0.02321288,21.844091,4.9683123,-29.59436,LYI
3794594680000,3.024934,-4.19761704989601,-2.07221630700208,8.37873033861543,-0.002443461,0.025350908,0.01985312,21.835644,4.9686728,-29.593784,LYI
3794599656000,3.02991,-4.20563757717682,-2.06043260681526,8.408437,-0.0018325958,0.023518313,0.021991149,21.824543,4.9658303,-29.591078,LYI
3794604735000,3.034989,-4.21045575958395,-2.06525088984646,8.408437,-0.009468411,0.016798794,0.014660766,21.818068,4.9659977,-29.589922,LYI
3794609687000,3.039941,-4.21258610620592,-2.07221698236953,8.40722805571227,-0.010079277,0.021991149,0.020463986,21.806778,4.9581623,-29.588497,LYI
3794614670000,3.044924,-4.20837945971439,-2.08483727325458,8.40302123351552,-0.02321288,0.02687807,0.013744468,21.801968,4.958415,-29.584522,LYI
3794619965000,3.050219,-4.20386984105012,-2.09592655692124,8.39851143377089,-0.02076942,0.03573562,0.011911872,21.794857,4.9561877,-29.58389,LYI
3794624706000,3.05496,-4.19935476459825,-2.0778661568218,8.39399626302705,-0.02443461,0.024740042,0.0067195175,21.79074,4.960257,-29.578665,LYI
3794630088000,3.060342,-4.19553538405,-2.05811960661709,8.38794232859144,-0.019547688,0.02565634,0.008552114,21.791039,4.96261,-29.578964,LYI
3794634722000,3.064976,-4.20510073113482,-2.04855415965082,8.37359435790495,-0.014660766,0.022602014,0.0015271631,21.795465,4.9678674,-29.574615,LYI
3794639679000,3.069933,-4.21514796577226,-2.04256567503555,8.35717058556935,-0.0143553335,0.025350908,0.004581489,21.791027,4.967857,-29.572447,LYI
3794644768000,3.075022,-4.22438990243671,-2.06104916235896,8.33406574390822,-0.015882496,0.025961773,0.004276057,21.789906,4.9686966,-29.568521,LYI
3794649868000,3.080122,-4.23159214810544,-2.07782778879736,8.31165034514003,-0.019242255,0.014966198,-0.0009162979,21.789724,4.968044,-29.56554,LYI
3794654731000,3.084985,-4.2145420944536,-2.07356529763866,8.29886260461285,-0.013439035,0.02565634,0.00030543262,21.78839,4.9648304,-29.569012,LYI
3794659685000,3.089939,-4.19717298777229,-2.06922304363903,8.28583557056562,-0.025045475,0.026267206,-0.010079277,21.796854,4.9735684,-29.570316,LYI
3794664710000,3.094964,-4.2025785299114,-2.07255870639445,8.29981135708783,-0.01863139,0.029932396,-0.006414085,21.800758,4.9742575,-29.575865,LYI
3794669829000,3.100083,-4.21202058062404,-2.07727978104777,8.31869605007704,-0.008857546,0.027794369,-0.008552114,21.80971,4.9792213,-29.579378,LYI
3794674737000,3.104991,-4.20656460524251,-2.07455176487133,8.322245,-0.017104227,0.025961773,-0.009162978,21.815792,4.985873,-29.581917,LYI
3794679760000,3.110014,-4.19736078545872,-2.06994980692624,8.322245,-0.013744468,0.03145956,-0.01160644,21.823275,4.9877706,-29.585781,LYI
3794684778000,3.115032,-4.20794921344736,-2.07191708599233,8.31226413358891,-0.012217305,0.03145956,-0.011911872,21.827162,4.9908247,-29.58825,LYI
3794689704000,3.119958,-4.22649853541728,-2.07655439227367,8.29835192421115,-0.019547688,0.025961773,-0.010079277,21.83117,4.9953847,-29.590593,LYI
3794694789000,3.125043,-4.23860692946124,-2.08099605335085,8.29917210670171,-0.016798794,0.02321288,-0.0030543262,21.831398,4.9968305,-29.59165,LYI
3794699899000,3.130153,-4.24718107523434,-2.08528326053438,8.30774652106877,-0.01740966,0.02687807,-0.004886922,21.833988,5.0019484,-29.592716,LYI
3794704786000,3.13504,-4.25013363964229,-2.087744,8.31069919852709,-0.028405234,0.015882496,-0.007330383,21.83595,5.0084105,-29.594522,LYI
3794709772000,3.140026,-4.24510997580221,-2.087744,8.3056754297738,-0.014660766,0.021380283,-0.004276057,21.837458,5.0084157,-29.602007,LYI
3794714708000,3.144962,-4.25802894918495,-2.09355775594435,8.30696691823846,-0.01985312,0.028405234,-0.006414085,21.838253,5.01736,-29.607868,LYI
3794719762000,3.150016,-4.29107573399334,-2.1059503002475,8.31522878697619,-0.029321533,0.018936822,-0.0070249503,21.837301,5.0233674,-29.610544,LYI
3794724762000,3.155016,-4.31968404031132,-2.1164744,8.32061284498115,-0.027488936,0.02107485,-0.007330383,21.839504,5.025034,-29.61862,LYI
3794729718000,3.159972,-4.32349232249057,-2.1164744,8.30918775984915,-0.029321533,0.01740966,-0.0061086523,21.840967,5.0298805,-29.622215,LYI
3794734687000,3.164941,-4.32731059411057,-2.1164744,8.29773270576908,-0.03023783,0.015882496,-0.011911872,21.847183,5.039385,-29.63264,LYI
3794740732000,3.170986,-4.3326703956905,-2.1204279956905,8.31328239128306,-0.022296581,0.015882496,-0.004886922,21.848763,5.045083,-29.642605,LYI
3794745864000,3.176118,-4.3374841212145,-2.1252417212145,8.3373515215475,-0.021380283,0.009468411,-0.009162978,21.855684,5.0551023,-29.649582,LYI
3794749736000,3.17999,-4.3382936,-2.13179441698057,8.33852703168909,-0.022296581,0.009468411,-0.005497787,21.856632,5.062584,-29.661125,LYI
3794754739000,3.184993,-4.3382936,-2.14134354112606,8.33375187135027,-0.029321533,0.008246681,-0.014966198,21.863085,5.0737877,-29.669737,LYI
3794759715000,3.189969,-4.33269742103493,-2.1452048,8.32902314425646,-0.015882496,0.0036651916,-0.0076358155,21.86387,5.075774,-29.676455,LYI
3794764710000,3.194964,-4.32323148336796,-2.1452048,8.32429057079252,-0.015577064,0.0027488936,-0.008246681,21.870428,5.0851674,-29.68318,LYI
3794769795000,3.200049,-4.31914,-2.15075842029464,8.32779873627535,-0.024129177,-0.009468411,-0.005192355,21.871672,5.096119,-29.685724,LYI
3794774736000,3.20499,-4.31914,-2.16013656037524,8.33717707220717,-0.015882496,-0.0009162979,-0.007330383,21.875511,5.1035595,-29.69359,LYI
3794779767000,3.210021,-4.31914,-2.16968552267953,8.34672623393011,-0.0143553335,-0.0015271631,-0.0106901415,21.87433,5.1128306,-29.695017,LYI
3794784710000,3.214964,-4.3301257743085,-2.1563579611064,8.34218719701341,-0.008246681,-0.0015271631,-0.0030543262,21.870638,5.1176047,-29.699162,LYI
3794789705000,3.219959,-4.35041939216019,-2.1238881725437,8.32595196368573,-0.0067195175,-0.0061086523,0.00061086525,21.869242,5.124138,-29.701479,LYI
3794794794000,3.225048,-4.367024,-2.09426887865151,8.30885311823169,-0.003970624,-0.00030543262,-0.0018325958,21.875656,5.133623,-29.703371,LYI
3794799743000,3.229997,-4.367024,-2.07919506752008,8.29001095269142,-0.008552114,-0.008857546,-0.008246681,21.881504,5.144507,-29.699833,LYI
3794804744000,3.234998,-4.367024,-2.06396287324481,8.27097080925499,-0.009468411,-0.016187929,-0.006414085,21.882639,5.146661,-29.704836,LYI
3794809778000,3.240032,-4.35218296390581,-2.06198160721884,8.27368849768161,-0.009773844,-0.019547688,-0.004276057,21.885658,5.150724,-29.708221,LYI
3794815193000,3.245447,-4.32860883353032,-2.06669643329394,8.28783277897991,-0.009468411,-0.017715093,0.0027488936,21.886427,5.153948,-29.711102,LYI
3794819791000,3.250045,-4.30642511388128,-2.0664710596895,8.28927585214612,-0.007330383,-0.021685716,0.005497787,21.889864,5.1529193,-29.713621,LYI
3794824777000,3.255031,-4.28026068045662,-2.06211033596347,8.28055467789954,-0.00061086525,-0.022602014,0.004581489,21.892443,5.1503987,-29.7175,LYI
3794829689000,3.259943,-4.26294393901734,-2.05395374959538,8.27689074595376,-0.004886922,-0.020158553,0.004581489,21.893402,5.1516805,-29.714548,LYI
3794834713000,3.264967,-4.26757928082852,-2.03541276955684,8.2861609455684,-0.0030543262,-0.015271631,-0.0015271631,21.896763,5.150957,-29.711853,LYI
3794839689000,3.269943,-4.26649546187801,-2.01689776950241,8.29160984440209,-0.005497787,-0.027488936,-0.0033597588,21.900795,5.149469,-29.700596,LYI
3794844826000,3.27508,-4.2418184847512,-1.99715618780096,8.28173936276083,-0.014660766,-0.025350908,0.004886922,21.90411,5.1487913,-29.695053,LYI
3794849807000,3.280061,-4.22136536538426,-1.98440563461574,8.2763675717565,-0.014660766,-0.014049901,0.007941248,21.905416,5.1407275,-29.689638,LYI
3794854729000,3.284983,-4.21270922552566,-1.99306177447434,8.28502344045542,-0.016493361,-0.018020526,0.002443461,21.906454,5.135759,-29.680569,LYI
3794859896000,3.29015,-4.20171698862255,-2.00322019791114,8.29434781636846,-0.021991149,-0.019547688,0.004276057,21.900887,5.1292777,-29.671583,LYI
3794864715000,3.294969,-4.16615857733071,-2.02692566792227,8.3062007989042,-0.015271631,-0.014049901,0.007330383,21.896873,5.1210427,-29.663502,LYI
3794869840000,3.300094,-4.128342254884,-2.05213640330451,8.31880642984334,-0.020158553,-0.01160644,0.0106901415,21.8889,5.117895,-29.652212,LYI
3794874745000,3.304999,-4.11216424355908,-2.07073831288183,8.3075889354163,-0.02076942,-0.0125227375,0.0106901415,21.881247,5.1122856,-29.641663,LYI
3794879730000,3.309984,-4.103831096893,-2.087404606214,8.28675617751789,-0.016187929,-0.006414085,0.0067195175,21.874283,5.1069045,-29.633902,LYI
3794885615000,3.315869,-4.10111804200129,-2.09956579511725,8.2788508495824,-0.017104227,-0.020158553,0.0067195175,21.868156,5.108469,-29.61023,LYI
3794889710000,3.319964,-4.10426756135561,-2.102715248699,8.2851495594282,-0.0076358155,-0.016493361,0.008552114,21.863535,5.1066427,-29.59351,LYI
3794894786000,3.32504,-4.10817158095085,-2.10661918676518,8.29295719097334,-0.0021380284,-0.018020526,0.010995574,21.861418,5.1101675,-29.572517,LYI
3794899807000,3.330061,-4.12751144537007,-2.11166298622236,8.293514,-0.008246681,-0.019242255,0.0067195175,21.86096,5.114847,-29.55289,LYI
3794904800000,3.335054,-4.146757,-2.11696124172383,8.29473112972735,-0.005192355,-0.0290161,0.009162978,21.857119,5.1145563,-29.53103,LYI
3794909722000,3.339976,-4.146757,-2.12525271218997,8.31546023878628,-0.0009162979,-0.024129177,0.010995574,21.862968,5.119767,-29.511103,LYI
3794914803000,3.345057,-4.146757,-2.13381202983289,8.33685897977133,-0.00061086525,-0.013133603,0.009162978,21.873291,5.125097,-29.494184,LYI
3794919788000,3.350042,-4.13367778572053,-2.12254871743424,8.34466888892773,-0.009162978,-0.014660766,0.0027488936,21.884075,5.1319785,-29.475367,LYI
3794924739000,3.354993,-4.11710363934283,-2.10597448452329,8.34881253368872,-0.005192355,-0.009773844,0.0027488936,21.8886763826937,5.13400762697693,-29.4688240193412,LYI
3794929715000,3.359969,-4.11078699629516,-2.0973208,8.35798696448255,-0.010079277,-0.008857546,0.004276057,21.893301,5.136047,-29.462248,LYI
3794934720000,3.364974,-4.1156789521535,-2.0973208,8.37266278097571,-0.011301007,-0.005497787,0.01038471,21.90868,5.143889,-29.444801,LYI
3794939685000,3.369939,-4.11616736494205,-2.10103950894629,8.37226862093781,-0.013439035,0.0012217305,0.008246681,21.919115,5.150989,-29.425917,LYI
3794944836000,3.37509,-4.11243055851072,-2.1085131998485,8.35732131717294,-0.02443461,-0.003970624,0.005192355,21.927378,5.1598306,-29.405128,LYI
3794949697000,3.379951,-4.10890413333838,-2.1155661238391,8.34321554283766,-0.013133603,0.0012217305,0.005192355,21.941998,5.1617517,-29.388378,LYI
3794955275000,3.385529,-4.11785767030351,-2.1164744,8.341399,-0.018325957,0.007941248,0.00061086525,21.958681,5.171515,-29.370783,LYI
3794959721000,3.389975,-4.12630405604047,-2.1164744,8.341399,-0.015271631,0.0015271631,0.0076358155,21.971,5.1747665,-29.35166,LYI
3794964777000,3.395031,-4.11158139358079,-2.1204799266048,8.33338777948914,-0.0067195175,0.0033597588,0.0061086523,21.989105,5.1843786,-29.337244,LYI
3794969841000,3.400095,-4.0930233087439,-2.12511944781402,8.32410854328901,-0.0070249503,-0.00580322,0.00061086525,22.005325,5.1948795,-29.31832,LYI
3794974746000,3.405,-4.09406174350163,-2.12366849068919,8.322245,-0.003970624,0.0021380284,0.0067195175,22.01338,5.1998777,-29.30847,LYI
3794979778000,3.410032,-4.1002293648237,-2.1205846961285,8.322245,0.0015271631,0.009162978,0.007330383,22.024473,5.2058225,-29.295723,LYI
3794984742000,3.414996,-4.10631363991169,-2.11754257446727,8.322245,-0.0015271631,-0.00030543262,0.011911872,22.026228,5.212571,-29.27938,LYI
3794989796000,3.42005,-4.10587785147631,-2.11390230519143,8.31710070295263,0.00061086525,0.0027488936,0.01282817,22.029587,5.2170777,-29.268719,LYI
3794994777000,3.425031,-4.10200836437378,-2.11003289889682,8.30936172874757,0.00061086525,0.007941248,0.017104227,22.030052,5.221748,-29.256449,LYI
3794999740000,3.429994,-4.10026613298548,-2.10829072571204,8.303091,0.0067195175,0.010995574,0.00580322,22.035639,5.224732,-29.246214,LYI
3795004769000,3.435023,-4.10782391700275,-2.11584847027069,8.303091,0.011301007,0.013133603,0.009773844,22.035004,5.2254252,-29.237915,LYI
3795009719000,3.439973,-4.11526297663397,-2.12328749106316,8.303091,0.0027488936,0.01282817,0.015271631,22.034937,5.225873,-29.230919,LYI
3795014769000,3.445023,-4.13066200973806,-2.12289238081151,8.30624988515665,0.01038471,0.008857546,0.0106901415,22.036867,5.2222123,-29.223381,LYI
3795019815000,3.450069,-4.15051805861325,-2.1179283815511,8.31121398808423,-0.004581489,0.0143553335,0.014049901,22.034798,5.2246137,-29.218906,LYI
3795024759000,3.455013,-4.17292243882059,-2.10983907990005,8.31930311224388,-0.005192355,0.0143553335,0.010995574,22.038887,5.227639,-29.212399,LYI
3795029729000,3.459983,-4.19670909229385,-2.100324497991,8.32881739610195,0.0012217305,0.01985312,0.016493361,22.039461,5.23097,-29.209429,LYI
3795034711000,3.464965,-4.2042184,-2.08766281341475,8.32860196247415,0.0009162979,0.023518313,0.0070249503,22.047834,5.237841,-29.20826,LYI
3795039712000,3.469966,-4.2042184,-2.07351116064218,8.32388517177189,-0.008552114,0.016798794,0.007941248,22.050867,5.243247,-29.206127,LYI
3795044787000,3.475041,-4.19610285263336,-2.0685902,8.31683452209992,-0.007330383,0.009773844,0.0076358155,22.056782,5.248313,-29.207365,LYI
3795049776000,3.48003,-4.18396602235394,-2.0685902,8.30874313293819,0.003970624,0.02321288,0.0061086523,22.063244,5.253224,-29.21244,LYI
3795054726000,3.48498,-4.14301447553919,-2.11434832288269,8.32523215149921,-0.003970624,0.018936822,0.013744468,22.067347,5.259456,-29.210478,LYI
3795059709000,3.489963,-4.03256015991583,-2.26998840911099,8.40054229342451,-0.003970624,0.0015271631,-0.0106901415,22.07525198432,5.26228833139009,-29.2075039268268,LYI
3795064675000,3.494929,-4.00285408189842,-2.33807103502082,8.43152159267277,0.00030543262,-0.008552114,-0.014049901,22.08313,5.265111,-29.20454,LYI
3795069897000,3.500151,-4.10695510844296,-2.26311833417152,8.38988125162365,0.011301007,0.005497787,0.010079277,22.079979,5.2639127,-29.20898,LYI
3795074924000,3.505178,-4.20375851473069,-2.19140255401255,8.350976,0.0061086523,0.01863139,0.013439035,22.097673,5.296065,-29.177914,LYI
3795079739000,3.509993,-4.18879670681376,-2.13654259165044,8.350976,0.0015271631,0.023518313,0.0125227375,22.108679,5.321877,-29.149744,LYI
3795084722000,3.514976,-4.17496773692379,-2.0867035173056,8.350976,-0.005192355,0.01863139,0.017104227,22.117668,5.334287,-29.150177,LYI
3795089712000,3.519966,-4.1712590044234,-2.0792863620984,8.350976,-0.004886922,0.027794369,0.021380283,22.127563,5.3460445,-29.15591,LYI
3795094859000,3.525113,-4.16743358434735,-2.07163584148689,8.350976,0.002443461,0.019547688,0.021380283,22.129227,5.350838,-29.151308,LYI
3795099750000,3.530004,-4.1659107,-2.0685902,8.34807986954671,0.009468411,0.018325957,0.020158553,22.130497,5.355147,-29.151373,LYI
3795104873000,3.535127,-4.1659107,-2.0685902,8.34285929378591,0.007941248,0.0143553335,0.01985312,22.131132,5.3596687,-29.148306,LYI
3795109712000,3.539966,-4.16005192117647,-2.06566082588235,8.35018730588235,0.005497787,0.026267206,0.022602014,22.12388,5.3598413,-29.149837,LYI
3795114702000,3.544956,-4.15146844897171,-2.0613691121868,8.36306271585092,0.0061086523,0.020463986,0.018936822,22.118261,5.360707,-29.144947,LYI
3795119800000,3.550054,-4.14847988133913,-2.0590134,8.36151559330435,0.014049901,0.024740042,0.022907447,22.110394,5.3556557,-29.148132,LYI
3795124848000,3.555102,-4.15216665751544,-2.0590134,8.34308171242279,0.014049901,0.0125227375,0.01740966,22.106232,5.3544965,-29.144464,LYI
3795129696000,3.55995,-4.15570736490506,-2.0590134,8.32537817547472,0.01038471,0.011911872,0.021380283,22.096144,5.349415,-29.142323,LYI
3795134782000,3.565036,-4.15913706594669,-2.06461959043268,8.32504786105919,0.018020526,0.011301007,0.02107485,22.089018,5.3431525,-29.13642,LYI
3795141004000,3.571258,-4.16326210764971,-2.07286975998615,8.32917260124611,0.019547688,0.006414085,0.024740042,22.07935,5.3384743,-29.129381,LYI
3795144873000,3.575127,-4.16582716492212,-2.07799992809969,8.33173747102804,0.02687807,0.0033597588,0.027183503,22.067225,5.3308,-29.127123,LYI
3795149875000,3.580129,-4.16103230580861,-2.0635316646051,8.30742877434183,0.02321288,0.00061086525,0.023518313,22.056065,5.3261614,-29.123411,LYI
3795154888000,3.585142,-4.15689714394361,-2.04971816609163,8.283937,0.028710667,0.0036651916,0.03023783,22.041164,5.315984,-29.120815,LYI
3795159780000,3.590034,-4.16558768076424,-2.05406334375812,8.283937,0.02687807,-0.0018325958,0.026267206,22.03224,5.312496,-29.11497,LYI
3795164685000,3.594939,-4.17430131181599,-2.05842006829902,8.283937,0.032375857,-0.00580322,0.029932396,22.018293,5.3021803,-29.11231,LYI
3795169853000,3.600107,-4.1794147881549,-2.01974633849658,8.26037709111617,0.028405234,-0.0021380284,0.024129177,22.009119,5.296929,-29.109797,LYI
3795174771000,3.605025,-4.18370633129841,-1.97683180328018,8.2346287284738,0.025045475,-0.01863139,0.033292156,21.993364,5.2879434,-29.100939,LYI
3795179796000,3.61005,-4.18205793472159,-1.95723139503848,8.2385049471254,0.020463986,-0.02321288,0.03604105,21.98558,5.2830486,-29.097652,LYI
3795184707000,3.614961,-4.17779965975554,-1.94871502296062,8.25553760235401,0.012217305,0.009773844,0.03176499,21.97808,5.279921,-29.100456,LYI
3795189711000,3.619965,-4.17979139388814,-1.95485028472035,8.26263225812032,0.0106901415,0.025045475,0.029321533,21.964132,5.2704782,-29.100075,LYI
3795194872000,3.625126,-4.18929088741111,-1.97859901852777,8.25788241216606,-0.011301007,0.021991149,0.018325957,21.955221,5.270295,-29.103275,LYI
3795199701000,3.629955,-4.1875216689295,-2.00087562090707,8.25698700135383,-0.0030543262,0.02443461,0.022602014,21.938078,5.259442,-29.10993,LYI
3795204800000,3.635054,-4.16863273629243,-2.02448654016053,8.26170928382168,-0.003970624,0.016187929,0.008552114,21.93037,5.2606096,-29.111576,LYI
3795210501000,3.640755,-4.14706722670008,-2.03677088631807,8.27868424058521,-0.0030543262,0.0143553335,0.014966198,21.919641,5.260469,-29.118626,LYI
3795214712000,3.644966,-4.13067815388784,-2.03130788106204,8.30326799241398,0.0070249503,0.0009162979,0.0076358155,21.917496,5.2622395,-29.119005,LYI
3795219802000,3.650056,-4.1108680421295,-2.02470453345977,8.33298333243023,-0.005192355,-0.004276057,-0.009162978,21.916307,5.271816,-29.11792,LYI
3795224761000,3.655015,-4.11036115510819,-2.0207062,8.34441121263581,-0.009162978,0.007330383,-0.0125227375,21.913378,5.2760324,-29.11796,LYI
3795229740000,3.659994,-4.1408350625582,-2.0207062,8.3269972135488,-0.019547688,0.0125227375,-0.014660766,21.91514,5.287011,-29.114275,LYI
3795234714000,3.664968,-4.16661433509257,-2.04885016370947,8.30422479031582,-0.027488936,0.019242255,-0.016187929,21.909546,5.2934427,-29.105501,LYI
3795239703000,3.669957,-4.17061711214711,-2.20895305418447,8.25619380614895,-0.034208454,0.019242255,-0.11026118,21.9189721871108,5.30500705110211,-29.0961058801028,LYI
3795244831000,3.675085,-4.17473141175337,-2.37351661849711,8.20682461657033,-0.049480084,-0.007330383,-0.09407325,21.928661,5.3168936,-29.086449,LYI
3795249722000,3.679976,-4.18711921607875,-2.29134343027071,8.23263956726825,-0.02107485,0.016187929,-0.05131268,21.912474,5.31268,-29.096212,LYI
3795254699000,3.684953,-4.20178197251846,-2.1496033492822,8.276627734516,-0.01282817,0.055588737,-0.034208454,21.92924,5.332942,-29.100002,LYI
3795259777000,3.690031,-4.18542277817175,-2.10349656371191,8.32528749362881,-0.00061086525,0.06505715,-0.029626964,21.965944,5.375211,-29.110588,LYI
3795264737000,3.694991,-4.16349234197599,-2.07718016851339,8.37353459981533,0.0033597588,0.05955936,-0.016493361,21.994648,5.4130683,-29.12857,LYI
3795269794000,3.700048,-4.14279988249923,-2.05167259728702,8.389283,-0.0015271631,0.047647487,-0.009468411,22.003382,5.421684,-29.145376,LYI
3795274788000,3.705042,-4.12314037615867,-2.02709827851197,8.389283,-0.0076358155,0.018020526,-0.011911872,22.010157,5.429163,-29.155252,LYI
3795280383000,3.710637,-4.1344424766384,-1.99197866587531,8.34824323700748,-0.021380283,-0.021685716,0.009468411,21.998451,5.426952,-29.1498,LYI
3795284729000,3.714983,-4.15104931212968,-1.96291677963092,8.30672582314214,-0.01863139,-0.0290161,0.020463986,21.991093,5.424002,-29.144764,LYI
3795289701000,3.719955,-4.17649506452244,-1.91670674193958,8.26327257864894,-0.017104227,-0.018020526,0.028405234,21.976019,5.418931,-29.1298,LYI
3795295005000,3.725259,-4.20629007322319,-1.86208269759507,8.21858032486069,-0.01282817,-0.016493361,0.046120327,21.953856,5.4098263,-29.110977,LYI
3795299732000,3.729986,-4.21705331313334,-1.85809843526638,8.23338882462125,-0.004581489,0.00030543262,0.054061573,21.931591,5.395334,-29.10849,LYI
3795304732000,3.734986,-4.22185766750276,-1.87251119738136,8.27182265626568,0.0015271631,0.004581489,0.061391957,21.903921,5.378438,-29.103327,LYI
3795309776000,3.74003,-4.20033972498514,-1.90337657731326,8.27735659540321,0.0067195175,0.0125227375,0.05681047,21.880232,5.350655,-29.11329,LYI
3795314775000,3.745029,-4.16713951079849,-1.94131950236774,8.26787117366753,0.005192355,0.05131268,0.053450707,21.855663,5.3227277,-29.133127,LYI
3795319942000,3.750196,-4.13365902884374,-1.97917790925508,8.2392747499373,-0.0009162979,0.070554934,0.03604105,21.838846,5.2978606,-29.145966,LYI
3795324743000,3.754997,-4.10290689988295,-2.01377400917983,8.20467873029011,-0.0030543262,0.08552113,0.03359759,21.82011,5.271743,-29.168388,LYI
3795329723000,3.759977,-4.07167145139032,-2.04790789062822,8.18261697528321,0.003970624,0.08277224,0.028405234,21.81463,5.2575865,-29.18368,LYI
3795334774000,3.765028,-4.04178123556128,-2.07779826251287,8.19756190113285,0.0033597588,0.081855945,0.039095376,21.805695,5.244516,-29.203625,LYI
3795340766000,3.77102,-4.0222588,-2.11292293091349,8.22292504945554,0.01038471,0.06780604,0.043066,21.804302,5.2379336,-29.21615,LYI
3795344881000,3.775135,-4.0222588,-2.1367635431337,8.24676553720508,0.026267206,0.06536258,0.04550946,21.800493,5.2282386,-29.231613,LYI
3795349716000,3.77997,-4.0222588,-2.16477553829401,8.27477738611615,0.028710667,0.06505715,0.05100725,21.791624,5.222664,-29.237862,LYI
3795354725000,3.784979,-4.03165104924661,-2.19585060080107,8.29332951077627,0.034208454,0.073303826,0.05955936,21.7814,5.2118754,-29.245832,LYI
3795359798000,3.790052,-4.04555037259203,-2.22828258104139,8.30722922115201,0.04184427,0.07147124,0.06291912,21.770975,5.2002144,-29.250664,LYI
3795364765000,3.795019,-4.07701395510328,-2.24964774477521,8.30688456257594,0.0571159,0.086132,0.07422013,21.75539,5.188126,-29.259989,LYI
3795369759000,3.800013,-4.12059833665452,-2.26417580453625,8.29719895342244,0.06352998,0.09162979,0.069027774,21.74409,5.1786075,-29.265553,LYI
3795374737000,3.804991,-4.16283030991975,-2.25260322234361,8.22796447394373,0.054367006,0.07574729,0.0009162979,21.754124,5.1802955,-29.26947,LYI
3795379742000,3.809996,-4.20453865938316,-2.22479786572561,8.12137728163976,0.05589417,0.07422013,-0.00061086525,21.745142,5.169583,-29.280489,LYI
3795384720000,3.814974,-4.23097414439252,-2.20464025560748,8.0808500385514,0.06963864,0.070249505,0.033292156,21.756037,5.1690207,-29.292725,LYI
3795389711000,3.819965,-4.24493378481308,-2.19068061518692,8.09480948461838,0.08582657,0.09773844,0.055588737,21.77204,5.169373,-29.312876,LYI
3795394748000,3.825002,-4.24793517534078,-2.20851558728344,8.12281434086712,0.09437868,0.11728613,0.06841691,21.78778,5.1618805,-29.349476,LYI
3795399958000,3.830212,-4.23915941120394,-2.26117067610588,8.16669361973441,0.105068825,0.110872045,0.06963864,21.8002,5.1487856,-29.386072,LYI
3795404739000,3.834993,-4.23964845332968,-2.3013047128437,8.20540260089522,0.12095132,0.106595986,0.07819075,21.807163,5.127538,-29.429205,LYI
3795409711000,3.839965,-4.27009606023568,-2.31435377158125,8.24020024225815,0.13988814,0.1020145,0.08368854,21.814722,5.1038313,-29.469513,LYI
3795414977000,3.845231,-4.30150608522793,-2.3274679440277,8.27466491229083,0.1554652,0.08277224,0.08979719,21.824593,5.0854034,-29.497065,LYI
3795419757000,3.850011,-4.32037386546039,-2.33124158676119,8.2784381609925,0.17867808,0.06841691,0.099265605,21.831799,5.059917,-29.52427,LYI
3795424773000,3.855027,-4.3401731930014,-2.33520154323634,8.28239770398153,0.1957823,0.06383542,0.10751228,21.840008,5.033283,-29.550829,LYI
3795429902000,3.860156,-4.37604239796422,-2.30543860355747,8.27454643142093,0.19700404,0.05589417,0.121256754,21.842913,5.0036187,-29.57228,LYI
3795434774000,3.865028,-4.4192177553979,-2.25746588400165,8.26015484597985,0.2049453,0.0571159,0.12583824,21.846497,4.969192,-29.59455,LYI
3795439758000,3.870012,-4.46976970286903,-2.2244921042212,8.27443459313513,0.21991149,0.06261369,0.12308934,21.850168,4.9334126,-29.619667,LYI
3795444779000,3.875033,-4.52395250329375,-2.19948467795787,8.30361009785906,0.2180789,0.058643065,0.12217305,21.851782,4.9000254,-29.64209,LYI
3795449805000,3.880059,-4.54753916923239,-2.1577967793547,8.32775551128216,0.204029,0.049785517,0.1151481,21.849321,4.8585978,-29.674732,LYI
3795454805000,3.885059,-4.51724551676508,-2.08711173085196,8.34290260111767,0.18692477,0.04734206,0.116675265,21.844921,4.8187137,-29.70751,LYI
3795459761000,3.890015,-4.49213919019908,-2.03599681513017,8.34425596722818,0.19456059,0.035124753,0.116675265,21.841526,4.7722006,-29.742357,LYI
3795465148000,3.895402,-4.47107131791731,-2.00439484171516,8.32845465053599,0.1695151,0.029626964,0.11453723,21.838932,4.7394443,-29.777542,LYI
3795469799000,3.900053,-4.42164999576163,-2.05986012847334,8.21938998940409,0.1600467,0.01985312,0.10293079,21.827868,4.6930394,-29.798944,LYI
3795474800000,3.905054,-4.3404537987624,-2.19383389591422,8.01639949690599,0.1255328,-0.02565634,0.08307768,21.819508,4.6619396,-29.807686,LYI
3795479749000,3.910003,-4.28751189023092,-2.28487690192911,7.8802934333365,-0.030848695,-0.03481932,0.0852157,21.803164,4.657107,-29.822138,LYI
3795484771000,3.915025,-4.40634315768317,-2.11577075183883,8.14994949187494,-0.17501289,0.043066,0.08246681,21.796576,4.662324,-29.847609,LYI
3795489913000,3.920167,-4.51998298013052,-1.94881358883737,8.40277278979907,0.14630222,0.0693332,0.07727446,21.818008,4.621448,-29.86466,LYI
3795494778000,3.925032,-4.51598240950541,-1.87680252387944,8.31875942812983,0.1957823,0.06078109,0.0720821,21.841366,4.6823874,-29.893366,LYI
3795500144000,3.930398,-4.511569858226,-1.79737572540787,8.22609433075734,0.044593163,0.043066,0.044593163,21.842476,4.677151,-29.91841,LYI
3795504791000,3.935045,-4.54695520014188,-1.74198356741155,8.27988171597056,0.004581489,0.06811147,0.04795292,21.836702,4.630248,-29.9532,LYI
3795509779000,3.940033,-4.59778684348674,-1.68691586163873,8.3815454449765,0.15057829,0.089491755,0.038789943,21.843584,4.5810046,-29.980341,LYI
3795514776000,3.94503,-4.62338024985708,-1.62574605169457,8.46377409432422,0.19058995,0.08032878,0.039095376,21.835482,4.5509634,-30.016527,LYI
3795519758000,3.950012,-4.61850972948142,-1.55755866472029,8.52222054226215,0.14294247,0.08032878,0.043676864,21.830559,4.50912,-30.060215,LYI
3795524811000,3.955065,-4.59627236555624,-1.50543240736171,8.53974629097265,0.1459968,0.06505715,0.034513887,21.820684,4.436199,-30.09308,LYI
3795529793000,3.960047,-4.55702776954555,-1.47109338585235,8.51521841846597,0.14752395,0.064446285,0.043676864,21.804508,4.374404,-30.129679,LYI
3795535484000,3.965738,-4.51673886285854,-1.4524364285071,8.50096672706804,0.13225232,0.05955936,0.05009095,21.785181,4.3059025,-30.151072,LYI
3795540630000,3.970884,-4.48296740034263,-1.44761198423886,8.49614213166911,0.113926366,0.052534413,0.06169739,21.761871,4.2382994,-30.171284,LYI
3795544747000,3.975001,-4.47019320486653,-1.4700285963501,8.4772239480661,0.10445796,0.03390302,0.06658431,21.731096,4.1715035,-30.180943,LYI
3795549921000,3.980175,-4.46569439918286,-1.51951597561286,8.44123331469039,0.1151481,0.03023783,0.076358154,21.696152,4.104182,-30.192646,LYI
3795554689000,3.984943,-4.462792,-1.56540561190865,8.4138250389478,0.12767084,0.01740966,0.086132,21.655323,4.0368237,-30.191275,LYI
3795559771000,3.990025,-4.462792,-1.61502765269168,8.39893811582382,0.13194689,0.00580322,0.081855945,21.616962,3.9717085,-30.18873,LYI
3795564676000,3.99493,-4.47019522436821,-1.6560945847026,8.38187977563179,0.14355333,-0.010995574,0.09040806,21.579744,3.907574,-30.185957,LYI
3795569760000,4.000014,-4.49358738887287,-1.68416523095993,8.35848761112712,0.14294247,-0.033292156,0.092240654,21.5466,3.8489153,-30.17782,LYI
3795574869000,4.005123,-4.50612066085585,-1.70808809543943,8.32887170735658,0.15363261,-0.028710667,0.0983493,21.51569,3.791853,-30.175463,LYI
3795579739000,4.009993,-4.49021779230245,-1.72001521571904,8.28513843483079,0.16554448,-0.015271631,0.10445796,21.48455,3.7359974,-30.169306,LYI
3795584748000,4.015002,-4.47386102257267,-1.73228276099224,8.24015692310971,0.160963,-0.0036651916,0.116980694,21.457083,3.685888,-30.171778,LYI
3795589771000,4.020025,-4.45120335987415,-1.71929174869313,8.26427372362052,0.16768251,-0.0033597588,0.11881329,21.431902,3.6323676,-30.174486,LYI
3795594770000,4.025024,-4.42803088171184,-1.70384340303324,8.29517065690545,0.17104226,-0.0012217305,0.12583824,21.402025,3.5799084,-30.181057,LYI
3795599986000,4.03024,-4.39136334687146,-1.68803140406144,8.30795897103392,0.1563815,-0.009162978,0.12858713,21.370941,3.5339131,-30.188372,LYI
3795605481000,4.035735,-4.33711686094217,-1.67175745828265,8.29710944727348,0.15485434,-0.02107485,0.13133603,21.338457,3.4845073,-30.19481,LYI
3795609765000,4.040019,-4.27992921912727,-1.66391373419221,8.31066901890909,0.15332718,-0.05589417,0.12980886,21.296696,3.4362705,-30.182972,LYI
3795614758000,4.045012,-4.20044102225455,-1.6589457380987,8.34544571781818,0.16920967,-0.062308256,0.13103059,21.254562,3.384875,-30.175737,LYI
3795619819000,4.050073,-4.15513472280008,-1.62805157328319,8.34259281920757,0.15974127,-0.044898596,0.14935656,21.201344,3.3383102,-30.15756,LYI
3795624865000,4.055119,-4.13633265469814,-1.57791257231049,8.31125565728552,0.15668693,-0.048258353,0.16065755,21.150463,3.2886243,-30.131672,LYI
3795629694000,4.059948,-4.11833915749951,-1.52992976698009,8.28126612995266,0.15302174,-0.053145275,0.16768251,21.083693,3.23368,-30.095001,LYI
3795634784000,4.065038,-4.11306685394815,-1.47816574660598,8.27170922066099,0.14721853,-0.04795292,0.17562376,21.014336,3.1798186,-30.06079,LYI
3795639767000,4.070021,-4.12251093573125,-1.42622297630121,8.28587522006729,0.14355333,-0.03390302,0.17684549,20.946255,3.1277907,-30.028059,LYI
3795644763000,4.075017,-4.15004336151783,-1.39019949841258,8.30633701710641,0.13897185,-0.03145956,0.1704314,20.874304,3.0634925,-29.992468,LYI
3795649819000,4.080073,-4.19917975815454,-1.37265086124239,8.33441548158887,0.13500121,-0.046120327,0.16310102,20.80365,3.0016947,-29.956188,LYI
3795654707000,4.084961,-4.24668345806756,-1.35568532752247,8.36156095911858,0.12950343,-0.027794369,0.1554652,20.728756,2.9361916,-29.929821,LYI
3795659775000,4.090029,-4.29418571160327,-1.34382845767935,8.39288449446317,0.12583824,-0.019242255,0.13316862,20.66214,2.8762143,-29.896336,LYI
3795664737000,4.094991,-4.3399440954261,-1.33467678091478,8.42491507645643,0.11178834,-0.019242255,0.12034045,20.59657,2.8216538,-29.865852,LYI
3795669751000,4.100005,-4.40056644044071,-1.34465097940937,8.46681163289082,0.109650314,-0.007941248,0.10995574,20.534657,2.7647245,-29.850292,LYI
3795674884000,4.105138,-4.47159727734128,-1.3668480406123,8.51564536223246,0.10476339,-0.0015271631,0.08857546,20.481928,2.7170763,-29.832895,LYI
