timestamp,rel_time,acc_x,acc_y,acc_z,gyro_x,gyro_y,gyro_z,azimuth,pitch,roll,label
633080880000,0,-2.4899697,9.62453498269474,-0.391642060412475,0.007941248,-0.013744468,0.019547688,248.94006,-25.984396,-48.35424,STD
633085751000,0.004871,-2.4899697,9.62195884610519,-0.375014289528285,0.02076942,-0.015271631,0.01038471,248.56229,-26.578041,-48.12872,STD
633090752000,0.009872,-2.4899697,9.61931395612687,-0.35794274730044,0.020158553,-0.016798794,0.021991149,248.20529,-27.170757,-47.868214,STD
633095700000,0.01482,-2.4899697,9.61669709637629,-0.341052127235777,0.005192355,-0.015577064,0.02107485,247.86816,-27.750843,-47.609936,STD
633100742000,0.019862,-2.4899697,9.61403052263691,-0.323840626353395,0.01160644,-0.014049901,0.019242255,247.54144,-28.32947,-47.34745,STD
633105717000,0.024837,-2.4899697,9.61139938333635,-0.306857838394281,0.018325957,-0.0033597588,0.02443461,247.22296,-28.899982,-47.084236,STD
633111724000,0.030844,-2.4899697,9.60822244790349,-0.286352188691688,-0.00030543262,0.0012217305,0.01740966,246.9231,-29.456886,-46.82161,STD
633115751000,0.034871,-2.4899697,9.60609267946864,-0.272605517915537,0.00580322,-0.004886922,0.018020526,246.63252,-30.01445,-46.555267,STD
633120737000,0.039857,-2.4899697,9.60345572257365,-0.255585180073498,0.008857546,0.00061086525,0.02443461,246.35013,-30.561071,-46.29146,STD
633125706000,0.044826,-2.4899697,9.60082775650642,-0.238622873868707,0.0070249503,0.0030543262,0.016493361,246.08699,-31.097298,-46.028156,STD
633130662000,0.049782,-2.4899697,9.59820666577806,-0.221704944798281,0.0125227375,0.009162978,0.0125227375,245.8305,-31.630346,-45.76402,STD
633135700000,0.05482,-2.4899697,9.59554220752756,-0.20450709841878,0.004581489,0.021685716,0.01740966,245.58325,-32.154003,-45.501125,STD
633140688000,0.059808,-2.4899697,9.59290419288813,-0.187479933325301,0.0027488936,0.006414085,0.02076942,245.3562,-32.6709,-45.235367,STD
633145711000,0.064831,-2.4899697,9.59024766772095,-0.170333291331606,0.0030543262,-0.012217305,0.014660766,245.13927,-33.178566,-44.97256,STD
633150736000,0.069856,-2.4899697,9.58759008480933,-0.153179822086471,0.004276057,-0.011301007,0.021380283,244.9284,-33.68284,-44.70739,STD
633155681000,0.074801,-2.4899697,9.5849748116754,-0.13629944289897,0.0030543262,-0.007941248,0.014660766,244.73882,-34.174973,-44.444347,STD
633160640000,0.07976,-2.4899697,9.58235213433038,-0.119371272951383,0.007330383,-0.013439035,0.011911872,244.56009,-34.663643,-44.178436,STD
633165674000,0.084794,-2.4899697,9.57968979156877,-0.102187081074764,-0.0033597588,-0.015271631,0.013133603,244.39063,-35.142185,-43.915436,STD
633170783000,0.089903,-2.4899697,9.57698778339057,-0.0847468672691126,-0.0033597588,-0.011301007,0.020158553,244.310021446685,-35.3832695080871,-43.7827019764377,STD
633175690000,0.09481,-2.4899697,9.57439260740105,-0.0679962058589875,-0.0021380284,-0.010079277,0.011301007,244.2326,-35.614822,-43.655216,STD
633181726000,0.100846,-2.4899697,9.57120033467378,-0.0473915610105026,0.0009162979,-0.0067195175,0.016187929,244.08412,-36.08117,-43.393894,STD
633185705000,0.104825,-2.4899697,9.56909595210555,-0.0338087442689318,0.0067195175,-0.013439035,0.016798794,243.94865,-36.539787,-43.134663,STD
633190746000,0.109866,-2.4899697,9.56642990723839,-0.0166006570122698,0.0067195175,-0.0076358155,0.008246681,243.882891493474,-36.7655300816977,-43.0075752565508,STD
633195742000,0.114862,-2.4899697,9.56378766162118,0.000453817086973146,0.002443461,-0.0033597588,0.007330383,243.81772,-36.989258,-42.881622,STD
633200763000,0.119883,-2.4899697,9.56113219419845,0.0175936318292267,0.002443461,-0.0018325958,0.009773844,243.758375876516,-37.214197994788,-42.7520487967325,STD
633205719000,0.124839,-2.4899697,9.55851110347009,0.0345115608996526,0.00030543262,-0.0061086523,0.009773844,243.6998,-37.436226,-42.624153,STD
633210681000,0.129801,-2.4899697,9.55588683950841,0.0514499717244011,-0.008246681,-0.008552114,0.005497787,243.59143,-37.870968,-42.373993,STD
633215664000,0.134784,-2.4899697,9.55325146923007,0.0684600686892785,0.00580322,-0.0033597588,0.013744468,243.48734,-38.305805,-42.12295,STD
633220712000,0.139832,-2.4899697,9.55058172225737,0.0856920513259835,-0.0021380284,-0.0015271631,0.008857546,243.39758,-38.72533,-41.87714,STD
633225716000,0.144836,-2.4899697,9.54793524566239,0.10277383443099,0.0033597588,-0.01282817,0.008246681,243.31644,-39.145473,-41.62922,STD
633230662000,0.149782,-2.4899697,9.54531944365624,0.119657627244212,0.0125227375,-0.007330383,0.015271631,243.23709,-39.559235,-41.385635,STD
633235696000,0.154816,-2.4899697,9.54265710089463,0.136841819120831,0.0106901415,-0.013744468,0.014966198,243.17505,-39.963886,-41.142704,STD
633240683000,0.159803,-2.4899697,9.54001961512742,0.15386557058859,0.020158553,-0.007330383,0.0106901415,243.11441,-40.36595,-40.90412,STD
633245764000,0.164884,-2.4899697,9.53733241537141,0.171210202874069,0.019547688,-0.008552114,0.01282817,243.06496,-40.761494,-40.664368,STD
633251666000,0.170786,-2.4899697,9.53421101152178,0.191357421876017,0.021380283,-0.004886922,0.013744468,243.02051,-41.151226,-40.430016,STD
633255688000,0.174808,-2.4899697,9.53208388744804,0.205087024523566,0.021380283,-0.0027488936,0.014966198,242.98389,-41.535057,-40.19714,STD
633260728000,0.179848,-2.4899697,9.5294183714531,0.222291698154507,0.025045475,0.0021380284,0.014049901,242.95264,-41.913303,-39.967957,STD
633265685000,0.184805,-2.4899697,9.52679675185252,0.239213040850654,0.02321288,0.014966198,0.012217305,242.92508,-42.28481,-39.742622,STD
633270769000,0.189889,-2.4899697,9.52410796547985,0.256567914013294,0.01863139,0.002443461,0.011301007,242.91113,-42.65048,-39.517002,STD
633275705000,0.194825,-2.4899697,9.52149745219592,0.273417570569311,0.020463986,0.005497787,0.013744468,242.89438,-43.011303,-39.2974,STD
633280682000,0.199802,-2.4899697,9.51986827609653,0.285041009868411,0.03848451,0.014966198,0.013133603,242.88684,-43.36701,-39.08052,STD
633285659000,0.204779,-2.4899697,9.52272786700131,0.272649483702385,0.03726278,0.020158553,0.014966198,242.88521,-43.715733,-38.864796,STD
633290678000,0.209798,-2.4899697,9.5256115894749,0.260153387695296,0.03390302,0.0033597588,0.0061086523,242.97787,-44.031284,-38.616596,STD
633295769000,0.214889,-2.4899697,9.52853668035217,0.247478029103526,0.022296581,0.0009162979,0.0070249503,243.06628,-44.34295,-38.372574,STD
633300757000,0.219877,-2.4899697,9.53140259142973,0.235059115598174,0.028099801,0.009468411,0.01160644,243.16121,-44.65005,-38.133625,STD
633305666000,0.224786,-2.4899697,9.53422311217547,0.222836892984346,0.016798794,0.0018325958,0.0143553335,243.26591,-44.94768,-37.897,STD
633310839000,0.229959,-2.4899697,9.53719531706805,0.209957374226691,0.023823744,-0.0009162979,0.010995574,243.37006,-45.243267,-37.666874,STD
633315682000,0.234802,-2.4899697,9.53997791677707,0.19789947564882,0.028405234,-0.005497787,0.005497787,243.48116,-45.532124,-37.43943,STD
633321525000,0.240645,-2.4899697,9.5433350776484,0.183351818950389,0.018325957,-0.010079277,0.007330383,243.59637,-45.81606,-37.214573,STD
633325699000,0.244819,-2.4899697,9.54573329593985,0.172959568555173,0.016187929,-0.00580322,0.007941248,243.71498,-46.095383,-36.995872,STD
633330704000,0.249824,-2.4899697,9.54860897455716,0.160498329161771,0.028405234,0.0027488936,0.004886922,243.8375,-46.370247,-36.781445,STD
633335708000,0.254828,-2.4899697,9.55148407861332,0.14803957952649,0.023518313,-0.0036651916,0.008246681,243.96579,-46.639587,-36.567688,STD
633340663000,0.259783,-2.4899697,9.55433102917252,0.135702828039117,0.023823744,-0.007941248,0.0125227375,244.09433,-46.906395,-36.35949,STD
633345720000,0.26484,-2.4899697,9.55723658497028,0.123112121223446,0.018020526,-0.008246681,0.017104227,244.22635,-47.16815,-36.153698,STD
633350796000,0.269916,-2.4899697,9.56015305743012,0.110474109003485,0.0076358155,-0.012217305,0.014660766,244.36446,-47.42428,-35.951332,STD
633355651000,0.274771,-2.4899697,9.56294255187309,0.0983863333281671,0.022907447,-0.0018325958,0.017104227,244.49963,-47.681316,-35.751797,STD
633360665000,0.279785,-2.4899697,9.56582340154087,0.0859026861116805,0.0143553335,-0.0030543262,0.016798794,244.64343,-47.928055,-35.55532,STD
633365675000,0.284795,-2.4899697,9.568701952964,0.0734289979276762,0.018020526,-0.0076358155,0.021685716,244.7867,-48.176464,-35.36118,STD
633370817000,0.289937,-2.4899697,9.57165634646055,0.0606266616717579,0.017715093,0.0021380284,0.014660766,244.93018,-48.41603,-35.175194,STD
633375739000,0.294859,-2.4899697,9.5744843365014,0.0483720722023628,0.014660766,0.011911872,0.014049901,245.07617,-48.654533,-34.98913,STD
633380683000,0.299803,-2.4899697,9.57732496688782,0.0360627080543154,0.014049901,0.0125227375,0.014049901,245.2254,-48.88786,-34.80811,STD
633385747000,0.304867,-2.4899697,9.58023454461371,0.0234545729318008,0.01740966,0.01160644,0.017715093,245.37402,-49.118248,-34.630447,STD
633391050000,0.31017,-2.4899697,9.58328144245739,0.0102513856184724,0.010995574,0.01740966,0.016798794,245.52336,-49.34227,-34.457973,STD
633395741000,0.314861,-2.4899697,9.58597670886975,-0.00142806972507337,0.014049901,0.015577064,0.007330383,245.67838,-49.56319,-34.28895,STD
633400798000,0.319918,-2.4899697,9.5888822646675,-0.014018776540744,0.013744468,0.018936822,0.011911872,245.83035,-49.782356,-34.120754,STD
633405687000,0.324807,-2.4899697,9.59169129418999,-0.0261912039921607,0.008552114,0.018325957,0.0106901415,245.98837,-49.993935,-33.9589,STD
633410685000,0.329805,-2.4899697,9.59456295087918,-0.0386350150787183,0.010995574,0.016187929,0.010995574,246.14708,-50.204586,-33.79856,STD
633415689000,0.334809,-2.4899697,9.59743805493533,-0.0510937647139993,0.0106901415,0.018936822,0.009468411,246.30676,-50.409954,-33.642372,STD
633420700000,0.33982,-2.4899697,9.60031718091962,-0.0635699426561242,0.01282817,0.01740966,0.009773844,246.47012,-50.6132,-33.487743,STD
633425668000,0.344788,-2.4899697,9.60317160077394,-0.0759390609990651,0.009468411,0.02076942,0.008246681,246.63332,-50.8115,-33.337605,STD
633430739000,0.349859,-2.4899697,9.60608520042796,-0.0885646244284236,0.02321288,0.017715093,0.0076358155,246.80063,-51.00961,-33.18901,STD
633435685000,0.354805,-2.4899697,9.60892697993671,-0.100878968092712,0.016493361,0.029626964,0.015271631,246.96294,-51.202866,-33.043232,STD
633440696000,0.359816,-2.4899697,9.611806105921,-0.113355146034837,0.010079277,0.025350908,0.0143553335,247.13419,-51.392696,-32.900475,STD
633445665000,0.364785,-2.4899697,9.61466110033647,-0.125726754135898,0.016493361,0.021991149,0.01863139,247.30136,-51.583477,-32.758247,STD
633450667000,0.369787,-2.4899697,9.6175350552703,-0.138180524254938,0.016798794,0.03359759,0.018325957,247.46735,-51.768093,-32.62114,STD
633455698000,0.374818,-2.4899697,9.62042567247784,-0.150706497359474,0.006414085,0.027794369,0.023518313,247.6402,-51.95155,-32.481804,STD
633460674000,0.379794,-2.4899697,9.62328468882145,-0.16309553376738,0.018936822,0.020463986,0.026572637,247.81161,-52.13469,-32.346638,STD
633465690000,0.38481,-2.4899697,9.62616668761155,-0.175584160500108,0.016187929,0.03481932,0.021991149,247.97961,-52.31072,-32.216206,STD
633470698000,0.389818,-2.4899697,9.62904408991236,-0.188052869167871,0.0036651916,0.032375857,0.024740042,248.15535,-52.486835,-32.083,STD
633475660000,0.39478,-2.4899697,9.6318950623997,-0.200407048962088,0.009773844,0.02076942,0.032375857,248.33069,-52.66244,-31.952585,STD
633480622000,0.399742,-2.49160213346575,9.63434762830488,-0.21184439742231,0.004276057,0.03481932,0.026572637,248.5011,-52.829243,-31.829706,STD
633485688000,0.404808,-2.50154192665987,9.63483248045932,-0.218874978962478,-0.005497787,0.032986723,0.03481932,248.67877,-52.998993,-31.700624,STD
633490762000,0.409882,-2.51149741632962,9.63531809827055,-0.225916662881707,0.003970624,0.03604105,0.029932396,248.84181,-53.20056,-31.557371,STD
633495745000,0.414865,-2.52127435858905,9.63579500673593,-0.23283205723912,-0.0036651916,0.024740042,0.034208454,249.00938,-53.399296,-31.410728,BSC
633500706000,0.419826,-2.5310081355405,9.63626980964517,-0.239716920054117,-0.010079277,0.023823744,0.01863139,249.17686,-53.589943,-31.274868,BSC
633505766000,0.424886,-2.54093615637789,9.63675408755703,-0.24673917480999,-0.0030543262,0.021991149,0.013744468,249.3477,-53.781826,-31.136599,BSC
633510722000,0.429842,-2.55066012303207,9.63722841193078,-0.253617098638074,-0.022602014,0.025961773,0.020463986,249.51857,-53.965004,-31.002508,BSC
633515747000,0.434867,-2.56051947178857,9.63770934009424,-0.260590780485556,-0.02076942,0.03145956,0.0290161,249.69128,-54.148323,-30.871613,BSC
633520727000,0.439847,-2.57029052786964,9.63818596143833,-0.267502011450822,-0.029626964,0.036651913,0.02565634,249.86476,-54.32321,-30.744856,BSC
633525662000,0.444782,-2.57997329127528,9.63865827596304,-0.274350791533872,-0.035124753,0.036957346,0.027488936,250.03787,-54.49934,-30.616802,BSC
633530667000,0.449787,-2.5897933988427,9.63913728998456,-0.281296717433703,-0.027488936,0.034208454,0.029932396,250.21194,-54.67252,-30.49198,BSC
633535746000,0.454866,-2.59975869880972,9.63962338633127,-0.288345340339844,-0.015882496,0.043982297,0.03604105,250.38266,-54.844097,-30.369076,BSC
633540747000,0.459867,-2.60957095813933,9.6401020175244,-0.295285715050145,-0.015882496,0.054367006,0.03634648,250.55568,-55.011536,-30.24907,BSC
633545765000,0.464885,-2.61941657247965,9.64058227573818,-0.302249682315949,-0.015882496,0.06841691,0.042455133,250.72455,-55.18079,-30.129204,BSC
633550699000,0.469819,-2.62909737382584,9.64105449455579,-0.309097074601616,-0.02076942,0.08124508,0.048258353,250.89188,-55.346638,-30.01226,BSC
633555662000,0.474782,-2.63883507489619,9.64152948887923,-0.315984713011378,0.008246681,0.09712757,0.04886922,251.05502,-55.5146,-29.89867,BSC
633560921000,0.480041,-2.64915354556493,9.64203281250344,-0.323283139446385,0.016187929,0.10934488,0.059253927,251.21503,-55.680237,-29.783684,BSC
633565701000,0.484821,-2.6585321897552,9.64249029242808,-0.329916810935134,0.03268129,0.099265605,0.06352998,251.379,-55.84681,-29.67162,BSC
633570717000,0.489837,-2.66837387997661,9.64297035922767,-0.336878002606173,0.028405234,0.07238753,0.0711658,251.54446,-56.01229,-29.557417,BSC
633576717000,0.495837,-2.6801462367008,9.64354460181091,-0.345204786901675,0.036957346,0.05131268,0.082161374,251.7119,-56.180847,-29.442772,BSC
633580673000,0.499793,-2.68790814390094,9.64392321908745,-0.350694913347175,0.028405234,0.047036625,0.08735373,251.88353,-56.344208,-29.32885,BSC
633585718000,0.504838,-2.69780673384652,9.64440606139286,-0.357696351142309,0.027488936,0.03726278,0.109650314,252.06186,-56.514072,-29.20714,BSC
633590699000,0.509819,-2.70757975198705,9.64488277844404,-0.364608969904958,0.017104227,0.021685716,0.116980694,252.24536,-56.676315,-29.089434,BSC
633595660000,0.51478,-2.71731352893849,9.64535758135328,-0.371493832719954,0.0061086523,0.011911872,0.12644911,252.42868,-56.841778,-28.967007,BSC
633600684000,0.519804,-2.72717091563554,9.64583841380965,-0.378466126770054,-0.006414085,0.014966198,0.13041973,252.61351,-57.003407,-28.84617,BSC
633605736000,0.524856,-2.7370832399973,9.64632192606473,-0.385477279146866,-0.019242255,0.013439035,0.13988814,252.80212,-57.164658,-28.722406,BSC
633610744000,0.529864,-2.74690923374309,9.64680122720754,-0.392427368438845,-0.040317107,0.017104227,0.14446963,252.98889,-57.3203,-28.601921,BSC
633615737000,0.534857,-2.75670579659706,9.64727909274389,-0.399356640770084,-0.061086524,0.028099801,0.14905111,253.17352,-57.474113,-28.481667,BSC
633620718000,0.539838,-2.76647881473758,9.64775580979507,-0.406269259532733,-0.07727446,0.03390302,0.1459968,253.35938,-57.62247,-28.36446,BSC
633625754000,0.544874,-2.77635974614808,9.6482377907366,-0.413258207151423,-0.09254608,0.043066,0.14385876,253.54068,-57.767174,-28.249193,BSC
633630663000,0.549783,-2.78599149600792,9.64870761687679,-0.420070904502526,-0.12370021,0.042455133,0.14355333,253.72368,-57.905003,-28.136173,BSC
633635706000,0.554826,-2.79588616183459,9.649190267768,-0.427069566702895,-0.14294247,0.030543262,0.13316862,253.90874,-58.037037,-28.028517,BSC
633640697000,0.559817,-2.80567880056966,9.64966794189016,-0.433996063439369,-0.16737708,0.027488936,0.12492194,254.09123,-58.16263,-27.923126,BSC
633646588000,0.565708,-2.81723729281335,9.6502317523998,-0.442171577820169,-0.18203785,0.014966198,0.13041973,254.2801,-58.28587,-27.817148,BSC
633650761000,0.569881,-2.82542496691502,9.65063113811644,-0.44796285629769,-0.18417588,-0.0015271631,0.13316862,254.47203,-58.40293,-27.71559,BSC
633655676000,0.574796,-2.83506848913158,9.65110153849921,-0.454783880433088,-0.2012801,-0.013133603,0.13133603,254.66602,-58.514557,-27.615149,BSC
633660687000,0.579807,-2.84490036905572,9.65158112676331,-0.461738133117214,-0.20525073,-0.030543262,0.14752395,254.8648,-58.631172,-27.509224,BSC
633665676000,0.584796,-2.85468908367188,9.65205860947127,-0.468661854258923,-0.226631,-0.046731193,0.15210545,255.06757,-58.73817,-27.408148,BSC
633670758000,0.589878,-2.86466026981726,9.65254499293927,-0.475714640557213,-0.24740042,-0.07238753,0.15241088,255.2771,-58.846066,-27.303747,BSC
633675694000,0.594814,-2.87434499528235,9.65301740317108,-0.482564808437645,-0.25289822,-0.102319926,0.15577064,255.49164,-58.95348,-27.197714,BSC
633680656000,0.599776,-2.88039107881458,9.65274908866827,-0.485446589268756,-0.27030787,-0.12370021,0.16340645,255.71024,-59.056194,-27.091166,BSC
633685670000,0.60479,-2.865396720662,9.64822699012154,-0.465454117448005,-0.29229903,-0.12583824,0.16890424,255.93103,-59.156387,-26.985537,BSC
633690680000,0.6098,-2.85041432450236,9.64370849915242,-0.445477594946618,-0.3023783,-0.13103059,0.17073683,256.2093,-59.238266,-26.889193,BSC
633695731000,0.614851,-2.83530931791506,9.63915303051271,-0.425337591921765,-0.31642818,-0.13775012,0.17531833,256.48514,-59.317783,-26.792595,BSC
633700765000,0.619885,-2.82025514979777,9.63461289407788,-0.405265373504203,-0.33078352,-0.1386664,0.1872302,256.75708,-59.39726,-26.695807,BSC
633705678000,0.624798,-2.80556283196697,9.63018188686605,-0.385675621997353,-0.3491095,-0.13408493,0.20005837,257.026,-59.474754,-26.599678,BSC
633710817000,0.629937,-2.79019466153495,9.6255470515187,-0.365184733946528,-0.3640757,-0.12980886,0.20219639,257.2924,-59.550106,-26.505394,BSC
633716116000,0.635236,-2.77434801138527,9.62076791306654,-0.344055873121208,-0.3717115,-0.121256754,0.21166481,257.5516,-59.628094,-26.408478,BSC
633720778000,0.639898,-2.76040630861156,9.61656328135037,-0.325466941404348,-0.38362336,-0.10598512,0.20952678,257.80554,-59.70014,-26.317223,BSC
633725707000,0.644827,-2.74566614280899,9.61211784382807,-0.305813392620048,-0.40439278,-0.093767814,0.20372356,258.05472,-59.770424,-26.227,BSC
633730692000,0.649812,-2.73075850910524,9.60762190021908,-0.285936553364675,-0.43218717,-0.082161374,0.20616703,258.29636,-59.838722,-26.138319,BSC
633735742000,0.654862,-2.71565649301618,9.60306733347377,-0.265800537669664,-0.45753807,-0.06627888,0.20189096,258.53156,-59.900517,-26.056353,BSC
633740753000,0.659873,-2.7006711063583,9.59854794061025,-0.245820027838435,-0.4783075,-0.048258353,0.20616703,258.75916,-59.961086,-25.974346,BSC
633745731000,0.664851,-2.68578440614219,9.5940583102621,-0.225971099891947,-0.4905248,-0.04886922,0.20861048,258.98575,-60.017105,-25.895634,BSC
633750703000,0.669823,-2.6709156489155,9.58957409128038,-0.206146095924501,-0.5308419,-0.058643065,0.20586158,259.20737,-60.065403,-25.819637,BSC
633755735000,0.674855,-2.65586746179468,9.58503575863436,-0.18608185216662,-0.5534439,-0.063224554,0.21013765,259.4245,-60.11617,-25.743128,BSC
633760747000,0.679867,-2.64087908463857,9.58051546387644,-0.166097355005551,-0.5589417,-0.07666359,0.22235495,259.64447,-60.164436,-25.665442,BSC
633765714000,0.684834,-2.62602527990305,9.57603575436675,-0.146292287687309,-0.58062744,-0.10781772,0.23060162,259.86874,-60.2068,-25.587622,BSC
633770713000,0.689833,-2.611075779224,9.57152718423609,-0.126359625814168,-0.59498274,-0.13469578,0.24373524,260.09186,-60.25311,-25.506115,BSC
633775749000,0.694869,-2.59601563011023,9.56698524401245,-0.106279432736925,-0.6258314,-0.16310102,0.24984388,260.32224,-60.29372,-25.42353,BSC
633780712000,0.699832,-2.58117378736766,9.56250914208038,-0.0864903147380448,-0.6377433,-0.17073683,0.27488935,260.54895,-60.34235,-25.333527,BSC
633785771000,0.704891,-2.56604485679448,9.55794645828542,-0.0663184130744677,-0.6606508,-0.17898351,0.30268374,260.78082,-60.38659,-25.240728,BSC
633790745000,0.709865,-2.55117011857132,9.55346043551489,-0.0464854344473413,-0.68691796,-0.1881465,0.32284227,261.01093,-60.432228,-25.144514,BSC
633795742000,0.714862,-2.53622659888873,9.54895366917305,-0.0265607472338812,-0.7021896,-0.18509217,0.33750305,261.23495,-60.48084,-25.04469,BSC
633800731000,0.719851,-2.52130700319204,9.54445411798644,-0.00666795865914585,-0.7287622,-0.17073683,0.3472769,261.45407,-60.526855,-24.943134,BSC
633805676000,0.724796,-2.5065189894177,9.53999425015365,0.0130493874026032,-0.7684685,-0.13683382,0.3481932,261.663,-60.56919,-24.844124,BSC
633810713000,0.729833,-2.4914558498057,9.53545140803561,0.0331335678096871,-0.7791586,-0.09315695,0.3481932,261.86102,-60.613182,-24.746943,BSC
633815747000,0.734867,-2.47640168168841,9.53091127160078,0.0532057862272492,-0.8008443,-0.042455133,0.33658674,262.04492,-60.64622,-24.658215,BSC
633820768000,0.739888,-2.46138639004818,9.52638285979321,0.0732261693568837,-0.82619524,-0.004581489,0.3231477,262.21725,-60.675888,-24.57457,BSC
633825702000,0.744822,-2.44663127175443,9.52193291279888,0.0928996547903863,-0.84635377,0.03176499,0.30115658,262.37436,-60.69754,-24.502327,BSC
633830741000,0.749861,-2.43156215114596,9.51738826689203,0.112991809857151,-0.87017757,0.057421334,0.2874121,262.52167,-60.713078,-24.435371,BSC
633835758000,0.754878,-2.41655882149867,9.51286346266208,0.132996243667423,-0.88331115,0.07269296,0.25870144,262.66257,-60.717945,-24.382088,BSC
633840708000,0.759828,-2.40175585523316,9.50839908535727,0.152733526378375,-0.89858276,0.07391469,0.23609942,262.7989,-60.716873,-24.333065,BSC
633845735000,0.764855,-2.38672262060351,9.50386526218328,0.172777833487053,-0.9147707,0.06811147,0.23060162,262.93198,-60.710922,-24.28885,BSC
633850651000,0.769771,-2.372021331278,9.49943154928824,0.192379546983425,-0.9233228,0.07819075,0.22143865,263.06055,-60.697754,-24.254034,BSC
633855662000,0.774782,-2.35703594462013,9.49491215642472,0.212360056814654,-0.9266826,0.08032878,0.20738874,263.19244,-60.68073,-24.221643,BSC
633860791000,0.779911,-2.34169767917047,9.49028634002141,0.232811071567072,-0.9334021,0.059864793,0.20525073,263.3261,-60.662918,-24.188068,BSC
633865681000,0.784801,-2.32707414279908,9.4858760763809,0.252309114487589,-0.92149025,0.03726278,0.19792034,263.45987,-60.643448,-24.160233,BSC
633870727000,0.789847,-2.31198408870296,9.48132511721321,0.272429180863238,-0.9251554,0.009162978,0.18509217,263.60043,-60.6192,-24.132767,BSC
633875678000,0.794798,-2.29717813193921,9.476859838014,0.292170450904031,-0.9147707,-0.024129177,0.18234327,263.7473,-60.600304,-24.102644,BSC
633880676000,0.799796,-2.2822316217584,9.47235216977775,0.312099125447331,-0.9129381,-0.05955936,0.18967366,263.90167,-60.579494,-24.071075,BSC
633885770000,0.80489,-2.23215494519673,9.47715626935615,0.35746540064939,-0.91446525,-0.09101892,0.17684549,264.06506,-60.555035,-24.043661,BSC
633890708000,0.809828,-2.17549472590806,9.48400270278217,0.407279180743544,-0.91507614,-0.14477506,0.18173242,264.24142,-60.537582,-24.00493,BSC
633895730000,0.81485,-2.11787066327791,9.49096560044631,0.457940339842944,-0.9104946,-0.19425514,0.1881465,264.4752,-60.530674,-23.879791,BSC
633900693000,0.819813,-2.0609235858519,9.49784669584796,0.508006316069612,-0.9007208,-0.26419923,0.2012801,264.72556,-60.526073,-23.748056,BSC
633905667000,0.824787,-2.00385029084546,9.50474304251888,0.558183258594585,-0.8961393,-0.33108896,0.22785273,264.98322,-60.52489,-23.60987,BSC
633910664000,0.829784,-1.94651308635265,9.51167127820739,0.608592221561472,-0.8781188,-0.39675698,0.267559,265.25397,-60.532505,-23.461641,BSC
633915749000,0.834869,-1.88816614121639,9.5187215240501,0.659888914914808,-0.8533788,-0.4370741,0.30940324,265.52927,-60.547443,-23.305285,BSC
633920732000,0.839852,-1.8309895772805,9.52563034903226,0.710156648047486,-0.8436049,-0.45142943,0.3463606,265.80795,-60.5695,-23.13955,BSC
633925674000,0.844794,-1.77428346068986,9.53248232837438,0.760010779522842,-0.80756384,-0.47342056,0.3744604,266.0926,-60.60626,-22.96444,BSC
633930704000,0.849824,-1.71656760345576,9.53945631787071,0.810752641384647,-0.77640975,-0.46792278,0.39767328,266.36536,-60.64948,-22.786005,BSC
633935678000,0.854798,-1.65949430844931,9.54635266454164,0.86092958390962,-0.75594574,-0.46395215,0.42210788,266.63745,-60.701862,-22.6018,BSC
633940669000,0.859789,-1.60222594990947,9.55327258135599,0.911278019804704,-0.76083267,-0.44409904,0.43554693,266.89767,-60.756012,-22.420729,BSC
633945692000,0.864812,-1.54459041295383,9.56023686549915,0.961949266749405,-0.7788532,-0.42943826,0.43982297,267.1526,-60.812737,-22.239937,BSC
633950784000,0.869904,-1.48616314753911,9.56729681669504,1.01331657501984,-0.8179486,-0.40408736,0.4352415,267.3942,-60.863686,-22.065264,BSC
633955657000,0.874777,-1.43024875940754,9.57405312898443,1.06247464516946,-0.8885035,-0.3811799,0.43310347,267.62775,-60.905037,-21.89431,BSC
633960730000,0.87985,-1.3720395061772,9.58108673707884,1.11365028437919,-0.9245446,-0.3817908,0.4184427,267.85883,-60.939922,-21.732286,BSC
633965676000,0.884796,-1.31528749228459,9.58794426233707,1.16354476723575,-0.9957104,-0.38881573,0.3924809,268.08276,-60.95073,-21.5794,BSC
633970661000,0.889781,-1.25808797969771,9.59485586027727,1.21383267605903,-1.0720685,-0.43127087,0.36835176,268.31476,-60.94958,-21.430157,BSC
633975712000,0.894832,-1.20013116162824,9.60185896583313,1.26478638267214,-1.1343768,-0.49571714,0.33414328,268.55496,-60.928852,-21.291142,BSC
633980719000,0.899839,-1.1426792138805,9.60880106631189,1.31529622409204,-1.1979067,-0.5864306,0.3118467,268.81198,-60.890087,-21.151731,BSC
633985686000,0.904806,-1.08568623915251,9.61568770762964,1.36540255169991,-1.2333369,-0.67011917,0.301462,269.08325,-60.839725,-21.015436,BSC
633990678000,0.909798,-1.02840640628717,9.62260901092301,1.41576107544029,-1.2492194,-0.6942484,0.3115413,269.35843,-60.780552,-20.87931,BSC
633995658000,0.914778,-0.971264265327765,9.62951367646809,1.46599854503707,-1.2675453,-0.70921457,0.30451632,269.65247,-60.708466,-20.7458,BSC
634000661000,0.919781,-0.913858214881998,9.63645023103075,1.51646803507576,-1.2938126,-0.70096785,0.301462,269.9397,-60.634922,-20.611279,BSC
634005659000,0.924779,-0.856509536063701,9.64337985319828,1.56688708588794,-1.3213016,-0.689056,0.28802297,270.2266,-60.55435,-20.483004,BSC
634010833000,0.929953,-0.797141375958485,9.65055349567423,1.61908159747303,-1.3610078,-0.62796944,0.27458394,270.49213,-60.466072,-20.364277,BSC
634015667000,0.934787,-0.741674486521179,9.65725573528164,1.66784624165593,-1.382999,-0.5674938,0.25320363,270.75165,-60.372337,-20.255005,BSC
634020796000,0.939916,-0.682822671063187,9.66436698620146,1.71958680020249,-1.3817772,-0.4804455,0.24312437,270.98166,-60.276024,-20.157982,BSC
634025681000,0.944801,-0.626770591025695,9.67113993623915,1.76886592449571,-1.3732251,-0.41813725,0.21044308,271.202,-60.16938,-20.078503,BSC
634030823000,0.949943,-0.567769609336282,9.67826921138629,1.82073762503118,-1.3454307,-0.35705075,0.18020524,271.39496,-60.067123,-20.012085,BSC
634035705000,0.954825,-0.511751952275272,9.68503800198691,1.8699864857885,-1.3020593,-0.32650748,0.15790866,271.57816,-59.96683,-19.957075,BSC
634041136000,0.960256,-0.449434890518134,9.69256796957231,1.92477357361583,-1.2476922,-0.3222314,0.13439035,271.7519,-59.87047,-19.915228,BSC
634045746000,0.964866,-0.396538249991453,9.6989596378781,1.9712785404514,-1.1893547,-0.30970868,0.14080444,271.91077,-59.787495,-19.876492,BSC
634050737000,0.969857,-0.339269891451613,9.70587955469245,2.02162697634648,-1.144456,-0.29779682,0.15577064,272.06757,-59.712097,-19.842808,BSC
634055656000,0.974776,-0.28282768434733,9.712699645017,2.07124908737992,-1.1285735,-0.26633725,0.16982053,272.21216,-59.645576,-19.812017,BSC
634060868000,0.979988,-0.223023499873347,9.7199259736959,2.12382693708643,-1.0925325,-0.24556783,0.20372356,272.34985,-59.600895,-19.773012,BSC
634065713000,0.984833,-0.167430392855609,9.72664346457259,2.17270254756763,-1.078788,-0.25137106,0.23548855,272.4826,-59.558308,-19.732222,BSC
634070708000,0.989828,-0.110116137013794,9.73356892730304,2.22309133484392,-1.0491611,-0.25534168,0.27214047,272.6025,-59.535072,-19.684776,BSC
634075735000,0.994855,-0.0524347027561741,9.7405387573623,2.27380293316982,-1.0277808,-0.26450464,0.3231477,272.71808,-59.522392,-19.625135,BSC
634080809000,0.999929,0.00578602479965652,9.74757375193574,2.32498866022485,-0.999681,-0.27214047,0.37812558,272.82785,-59.525513,-19.555948,BSC
634085758000,1.004878,0.0414207096350319,9.71137029502241,2.3646632289858,-0.9975429,-0.29168814,0.42210788,272.93707,-59.535133,-19.475573,BSC
634090759000,1.009879,0.0708492892520494,9.6613884388932,2.40156573087746,-0.98349303,-0.3371976,0.47311515,273.0468,-59.564594,-19.37713,BSC
634095773000,1.014893,0.10035436787627,9.61127665592342,2.43856416008856,-0.9746355,-0.41538838,0.50946164,273.20306,-59.637978,-18.99967,BSC
634100717000,1.019837,0.129447528769398,9.56186447901823,2.47504605757953,-0.96974856,-0.46211955,0.55863625,273.35132,-59.718437,-18.611431,BSC
634105666000,1.024786,0.158570112357604,9.51240233025129,2.51156485019336,-0.9728029,-0.44532076,0.59956425,273.4962,-59.797066,-18.22207,BSC
634110883000,1.030003,0.189269752401992,9.46026168969419,2.55006122139287,-0.9642508,-0.46089783,0.5708536,273.66138,-59.868675,-17.83687,BSC
634115655000,1.034775,0.217350772584437,9.41256854483344,2.58527392665721,-0.95539325,-0.4908302,0.5543602,273.81543,-59.942135,-17.44626,BSC
634120699000,1.039819,0.247032387379125,9.36215693069312,2.62249372660551,-0.97402465,-0.4550946,0.5742133,273.95135,-60.005955,-17.067455,BSC
634125690000,1.04481,0.276402121605987,9.31227501828742,2.65932243825143,-1.0213667,-0.45631635,0.57726765,274.1062,-60.053146,-16.696882,BSC
634130675000,1.049795,0.305736548598755,9.26245307211583,2.69610687574991,-1.0919216,-0.48655418,0.5363397,274.25903,-60.080647,-16.340805,BSC
634135689000,1.054809,0.335241627222975,9.21234128914605,2.73310530496101,-1.1328496,-0.4343252,0.50823987,274.3847,-60.101086,-15.997916,BSC
634140725000,1.059845,0.364876165705538,9.16200962998454,2.77026607271273,-1.1753048,-0.38881573,0.4886922,274.52124,-60.094315,-15.665964,BSC
634145672000,1.064792,0.393986980215713,9.1125674699623,2.80677010727742,-1.2009611,-0.37690386,0.47403142,274.65256,-60.073887,-15.348942,BSC
634150735000,1.069855,0.423780401251698,9.06196596274731,2.84413010869262,-1.2089024,-0.39614612,0.42394048,274.78412,-60.035576,-15.054116,BSC
634156685000,1.075805,0.458793408394521,9.00249944725664,2.88803530490444,-1.2043208,-0.38820487,0.3903429,274.9021,-59.991356,-14.769775,BSC
634160661000,1.079781,0.482190335520548,8.96276182278759,2.91737430660834,-1.2336423,-0.4541783,0.36987892,275.0467,-59.92877,-14.4888,BSC
634165691000,1.084811,0.511789566769018,8.91249012986019,2.95449080021262,-1.2168436,-0.55771995,0.3643811,275.19864,-59.873924,-14.214095,BSC
634170882000,1.090002,0.542336208798999,8.86060934298422,2.99279531677322,-1.2003502,-0.6808093,0.38789943,275.3688,-59.811115,-13.931406,BSC
634175665000,1.094785,0.570481958910616,8.8128062600276,3.02808919130787,-1.1710287,-0.8035932,0.4370741,275.56006,-59.756687,-13.635565,BSC
634180747000,1.099867,0.600387186187897,8.76201485973793,3.06558939418996,-1.151481,-0.8897252,0.4999932,275.76535,-59.707005,-13.324696,BSC
634185683000,1.104803,0.629433270768901,8.71268263781156,3.10201225948434,-1.1371256,-0.97066486,0.5500842,275.99265,-59.66594,-12.99541,BSC
634190666000,1.109786,0.658755928683638,8.66288068038467,3.13878193893367,-1.1291844,-0.9795224,0.59742624,276.2116,-59.633396,-12.655785,BSC
634195718000,1.114838,0.688484619790451,8.61238911126554,3.17606077107857,-1.169807,-0.95905846,0.61758476,276.43692,-59.592022,-12.310732,BSC
634200840000,1.11996,0.718625228628356,8.56119793608181,3.2138561349436,-1.2131784,-0.9260717,0.59589905,276.6568,-59.549828,-11.9721775,BSC
634205705000,1.124825,0.747253510939252,8.51257531459239,3.24975508949327,-1.2663237,-0.85062987,0.59956425,276.85046,-59.497272,-11.637932,BSC
634210768000,1.129888,0.777046931975236,8.46197380737739,3.28711509090847,-1.3109168,-0.7993172,0.6151413,277.03955,-59.432144,-11.314374,BSC
634215737000,1.134857,0.806287206343755,8.41231177116342,3.32378146401377,-1.3240504,-0.84971356,0.57360244,277.23932,-59.353752,-11.007222,BSC
634220757000,1.139877,0.835827592202069,8.36214002195953,3.36082416737232,-1.2959507,-0.8857546,0.56138515,277.41266,-59.278225,-10.704072,BSC
634226821000,1.145941,0.87151143679267,8.30153414802081,3.40557057238551,-1.2550226,-0.86193085,0.5842926,277.58105,-59.201,-10.410083,BSC
634230736000,1.149856,0.894549407038745,8.26240618026519,3.43445945359043,-1.2275337,-0.9086621,0.57604593,277.77936,-59.12244,-10.118334,BSC
634235820000,1.15494,0.924466403394057,8.21159479123082,3.47197441452167,-1.1759156,-0.9611965,0.57848936,277.9652,-59.06395,-9.826763,BSC
634240742000,1.159862,0.953430104428842,8.16240249051736,3.50829397347202,-1.1459832,-0.9602802,0.6032294,278.1443,-59.00753,-9.538765,BSC
634245760000,1.16488,0.982958721209125,8.11225073005818,3.54532191878142,-1.1496484,-0.9456194,0.6239988,278.33038,-58.954803,-9.251973,BSC
634250651000,1.169771,1.01174000153443,8.06336825488762,3.58141272797,-1.1618657,-0.9242391,0.6728681,278.50415,-58.911446,-8.95943,BSC
634255730000,1.17485,1.04162757519466,8.012606837715,3.61889079377838,-1.171945,-0.90041536,0.7254025,278.66736,-58.868576,-8.669521,BSC
634260857000,1.179977,1.07179760672764,7.96136569066951,3.65672305276628,-1.2021828,-0.8885035,0.7666359,278.8202,-58.81874,-8.377972,BSC
634265703000,1.184823,1.10031408279724,7.91293296225477,3.69248180584905,-1.196685,-0.8060367,0.8029824,278.9401,-58.77854,-8.0945835,BSC
634270769000,1.189889,1.13012515745028,7.86230147192271,3.72986394433797,-1.2098186,-0.7626653,0.82986045,279.05988,-58.72607,-7.8059597,BSC
634275687000,1.194807,1.159065320329,7.81314914869867,3.76615398719003,-1.2211196,-0.75900006,0.8717047,279.1595,-58.678093,-7.5170984,BSC
634280711000,1.199831,1.18862924434337,7.76293742200537,3.80322620664687,-1.2342533,-0.76052725,0.89858276,279.24597,-58.625477,-7.237008,BSC
634285694000,1.204814,1.21795190225811,7.71313546457849,3.8399958860962,-1.2400564,-0.7309003,0.91690874,279.3172,-58.572754,-6.9600616,BSC
634290743000,1.209863,1.13242655987958,7.41953873244573,3.8498764,-1.2479976,-0.66889745,0.9275989,279.37628,-58.515793,-6.68921,BSC
634295909000,1.215029,1.00236486514586,7.02935358253053,3.8498764,-1.2547172,-0.5647449,0.94042706,279.41302,-58.4577,-6.4300637,BSC
634300683000,1.219803,0.967472347569376,6.75833051611887,3.92341860704586,-1.2910637,-0.4914411,0.9486737,279.47113,-58.18132,-6.034002,BSC
634305670000,1.22479,1.07086831128223,6.62203568833891,4.12081095717378,-1.3289373,-0.46578476,0.9737192,279.50598,-57.903206,-5.6467395,BSC
634310749000,1.229869,1.1894600144842,6.51526378522056,4.31804065986454,-1.3539828,-0.4877759,1.0235047,279.55545,-57.545998,-5.277267,BSC
634315674000,1.234794,1.3287128926537,6.47021145389892,4.50234595488885,-1.3723087,-0.54702985,1.03786,279.60266,-57.180405,-4.9160247,BSC
634320823000,1.239943,1.47312706447368,6.42855751052632,4.69250948947368,-1.3414601,-0.60231316,1.0577132,279.6816,-56.758015,-4.493404,BSC
634325716000,1.244836,1.59355089656661,6.46709310460526,4.83701796726974,-1.3213016,-0.61758476,1.0903945,279.75137,-56.329906,-4.0707245,BSC
634330658000,1.249778,1.69703439620253,6.50137883417722,4.97842420126582,-1.3045027,-0.66645396,1.0903945,279.89505,-55.840916,-3.5679255,BSC
634335732000,1.254852,1.60628223679187,6.48625349182403,5.07421824675244,-1.2776246,-0.6637051,1.0690142,280.01486,-55.36327,-3.0806856,BSC
634340655000,1.259775,1.53843279094025,6.49481019946131,5.15846608452498,-1.251052,-0.6478226,1.0622946,280.19305,-54.84098,-2.5182319,BSC
634345753000,1.264873,1.57828145024486,6.63029570767222,5.19831470222005,-1.2461652,-0.59559363,1.0464121,280.35007,-54.323708,-1.9853867,BSC
634350704000,1.269824,1.61698107994613,6.76187451331211,5.23701429151159,-1.2647965,-0.5644395,1.0366384,280.60654,-53.720936,-1.3951013,BSC
634355736000,1.274856,1.69356976562589,6.81263545103605,5.17602627204087,-1.2883148,-0.5705481,1.0250319,280.8376,-53.12878,-0.832269,BSC
634360652000,1.279772,1.78265974189611,6.83045333465796,5.07802716790614,-1.320996,-0.5821546,1.0198395,281.04056,-52.53997,-0.29420143,BSC
634365645000,1.284765,1.90372295274218,6.85524617683239,5.06641033316248,-1.3405437,-0.5852089,1.022283,281.35336,-51.897533,0.3615226,BSC
634370716000,1.289836,2.04809570030753,6.88511647216812,5.11619388147617,-1.3613132,-0.6282749,1.0231993,281.6475,-51.26283,0.9962128,BSC
634375677000,1.294797,2.04578738397503,6.89208009843913,5.03976387263267,-1.3658947,-0.6759224,1.0290025,282.05276,-50.583588,1.77551,BSC
634380659000,1.299779,1.9663506640999,6.8871152062435,4.8957851094693,-1.3622295,-0.7431176,1.0677924,282.425,-49.922596,2.5341175,BSC
634385660000,1.30478,2.02140278169604,6.90589213406679,4.84199569428488,-1.3866642,-0.8008443,1.073901,282.9207,-49.18284,3.4671006,BSC
634390698000,1.309818,2.12944514668484,6.93407717135625,4.82320583292766,-1.3720033,-0.79412484,1.0858129,283.35773,-48.482456,4.355555,BSC
634395669000,1.314789,2.19639606876814,6.87590582868008,4.79791133183228,-1.3481796,-0.77549344,1.1038336,283.85254,-47.77625,5.336401,BSC
634400759000,1.319879,2.24517612680877,6.77346760492345,4.7686431951366,-1.3203852,-0.7742717,1.1432343,284.29718,-47.1006,6.2711196,BSC
634405688000,1.324808,2.24914469843431,6.72010862553608,4.77614560968346,-1.2733486,-0.7501425,1.1725558,284.76324,-46.405556,7.208562,BSC
634410773000,1.329893,2.23256946766508,6.68695820726685,4.80100854237577,-1.2464706,-0.71868294,1.2064588,285.17795,-45.73631,8.103401,BSC
634415604000,1.334724,2.20613830878505,6.70335320074766,4.84588227327103,-1.2339478,-0.6957755,1.248914,285.60556,-45.033283,9.013698,BSC
634420713000,1.339833,2.15387890029372,6.82964681674232,4.94169109789052,-1.207986,-0.6612616,1.2956452,285.97943,-44.363857,9.878085,BSC
634425737000,1.344857,2.10141468601079,6.95140937098381,5.01959904332918,-1.2082914,-0.7113526,1.2895365,286.39597,-43.649845,10.755759,BSC
634430650000,1.34977,2.0389145550851,7.04515956737235,4.92584901009548,-1.1655309,-0.6899723,1.2815952,286.7476,-42.97706,11.580087,BSC
634435731000,1.354851,1.97427723262765,7.14211555105853,4.82889319514321,-1.187522,-0.6554584,1.2592987,287.14572,-42.26456,12.406637,BSC
634440756000,1.359876,1.98289075610718,7.20809505681513,4.89149123005646,-1.2202033,-0.6200282,1.2357804,287.5108,-41.588127,13.188233,BSC
634445735000,1.364855,2.02562118643248,7.25937152858679,5.0282286517161,-1.2299771,-0.54611355,1.2321151,287.83453,-40.937683,13.918308,BSC
634450716000,1.369836,2.12327301017038,7.15319857649629,5.21334674547837,-1.2974777,-0.5225952,1.2638801,288.19733,-40.2717,14.640743,BSC
634455664000,1.374784,2.28888613688073,6.8509546764526,5.45762619816514,-1.3277156,-0.46609017,1.2623531,288.524,-39.64133,15.302632,BSC
634460684000,1.379804,2.41656251726258,6.54161689036282,5.67805654792234,-1.3692545,-0.410196,1.2263119,288.85196,-38.975243,15.964094,BSC
634465706000,1.384826,2.30670896951594,6.21628146841782,5.73720832249846,-1.3988814,-0.419359,1.248914,289.14807,-38.324364,16.609049,BSC
634470658000,1.389778,2.19838663410349,5.89548078951067,5.79553560001757,-1.4065173,-0.45356745,1.3026701,289.3843,-37.596447,17.263557,BSC
634475771000,1.394891,2.2541082118972,5.82254882592593,5.70727739567649,-1.3952162,-0.52106804,1.3603969,289.60272,-36.889683,17.905054,BSC
634481876000,1.400996,2.35133128287226,5.78277588148148,5.57470042198035,-1.3918564,-0.63255095,1.353372,289.8203,-36.20573,18.53573,BSC
634485775000,1.404895,2.37487011277914,5.7504549394786,5.53216081719626,-1.3610078,-0.59773165,1.387275,289.96146,-35.479626,19.151096,BSC
634490741000,1.409861,2.29533311299557,5.68963250488933,5.59766189308411,-1.3521502,-0.5852089,1.3750577,290.1223,-34.779583,19.761654,BSC
634495689000,1.414809,2.22563470318572,5.65298215573035,5.63735306712814,-1.3625349,-0.54183745,1.3399329,290.27225,-34.08999,20.369083,BSC
634500685000,1.419805,2.19552650351609,5.71696208002832,5.56960953927476,-1.3680327,-0.45570546,1.3271047,290.3936,-33.425594,20.941519,BSC
634505736000,1.424856,2.1650868484858,5.78164634696767,5.50112023599465,-1.3768903,-0.33933565,1.3179418,290.5007,-32.758366,21.474985,BSC
634510683000,1.429803,2.11172982966392,5.81502539616702,5.42340126346635,-1.4010195,-0.25595254,1.3286319,290.58353,-32.107235,21.976194,BSC
634515725000,1.434845,2.04467174315341,5.83290743431164,5.33846118549208,-1.427592,-0.19730948,1.3368785,290.64178,-31.47626,22.434864,BSC
634520762000,1.439882,2.2393479458568,5.80740398632341,5.45529661617056,-1.5042557,-0.21471913,1.3154984,290.72632,-30.85195,22.87854,BSC
634525752000,1.444872,2.69215531914722,5.73905583990346,5.77140729517297,-1.5641204,-0.24220806,1.3142766,290.78613,-30.242136,23.29875,BSC
634530643000,1.449763,3.07399031715923,5.64206785802171,6.02444386975272,-1.6197093,-0.2779437,1.3093897,290.87244,-29.637657,23.714134,BSC
634535814000,1.454934,3.27809048765581,5.44294568468034,6.10907106891838,-1.6520851,-0.25686884,1.3729197,290.92807,-29.035517,24.116913,BSC
634540610000,1.45973,3.43033556047369,5.23819915744516,6.14577433973986,-1.677436,-0.3295618,1.3234396,290.99896,-28.381823,24.577398,BSC
634545757000,1.464877,3.47818237623762,4.95590279455446,6.05486499009901,-1.6664404,-0.3717115,1.317331,291.0247,-27.737167,25.02414,BSC
634551432000,1.470552,3.48255378027884,4.66272076704385,5.96690000315215,-1.6588045,-0.35796702,1.312444,291.03918,-27.05505,25.49171,BSC
634555730000,1.47485,3.40354183728026,4.47142845912306,5.92115630838553,-1.674687,-0.29535335,1.3396275,291.0372,-26.38867,25.94255,BSC
634560702000,1.479822,3.32199212686323,4.3302445010101,5.8684465991992,-1.6957619,-0.34300083,1.3469579,291.03052,-25.691715,26.426476,BSC
634565699000,1.484819,3.27408886314496,4.46524426060606,5.81618868348348,-1.7229455,-0.3830125,1.3060299,291.0103,-25.014408,26.872723,BSC
634570761000,1.489881,3.21960843311722,4.59659888204524,5.77019820386061,-1.7782288,-0.39522982,1.3200798,290.9518,-24.299269,27.324303,BSC
634575643000,1.494763,3.01981985773963,4.58970966175495,5.89764933674206,-1.78617,-0.3378085,1.3341297,290.89243,-23.616686,27.74578,BSC
634580758000,1.499878,2.81049610455316,4.58249164418331,6.03118324593679,-1.7950275,-0.2098322,1.3881912,290.8445,-22.945295,28.147688,BSC
634585740000,1.50486,2.79354555478829,4.59219171597045,6.2267176597613,-1.8500054,-0.23335053,1.3695599,290.82086,-22.290318,28.550507,BSC
634590707000,1.509827,3.17203485988444,4.63725017381832,6.56014888340438,-1.885741,-0.23365596,1.3561208,290.75314,-21.649834,28.907907,BSC
634595664000,1.514784,3.50161921523073,4.7552892362178,6.8213009926583,-1.9355265,-0.32345316,1.4117095,290.68878,-20.986885,29.259336,BSC
634600843000,1.519963,3.63735104542795,5.1952473632915,6.78385780499198,-1.8664987,-0.4092797,1.4349225,290.6334,-20.372143,29.591856,BSC
634605703000,1.524823,3.73417247563841,5.53731078700334,6.73677631092437,-1.8173242,-0.43493605,1.4556919,290.55164,-19.7149,29.954626,BSC
634610791000,1.529911,3.48372070884393,5.08013686372685,6.54993126890756,-1.7266107,-0.43585235,1.4737124,290.46762,-19.102697,30.320799,BSC
634615742000,1.534862,3.24001263152484,4.63527285151342,6.36811723529412,-1.6514742,-0.16798794,1.4538593,290.4472,-18.569256,30.617302,BSC
634620876000,1.539996,3.07948538872805,4.53771250743369,6.40252478553418,-1.8591684,-0.18753563,1.4004086,290.4643,-18.009642,30.974243,BSC
634625704000,1.544824,2.97585404599365,4.63270796129996,6.54933579804819,-1.9480493,-0.15515977,1.3466524,290.4465,-17.516462,31.23306,BSC
634630654000,1.549774,2.76436149484641,4.713436844229,6.69258042606388,-2.0033326,-0.1740966,1.3487904,290.36948,-16.90949,31.505943,BSC
634635717000,1.554837,2.4328323900398,4.77776329518318,6.83112986799673,-1.9871446,-0.21044308,1.3542882,290.30484,-16.32594,31.759464,BSC
634640681000,1.559801,2.38549390601504,4.85524486831735,7.00368246746176,-1.9691241,-0.18875736,1.4052955,290.24747,-15.731133,31.980442,BSC
634645661000,1.564781,2.5874584924812,4.94592283098263,7.20976864843142,-1.9602666,-0.30634892,1.3628404,290.2364,-15.171603,32.231358,BSC
634650788000,1.569908,2.6859728138258,5.00812498562516,7.34745643573746,-1.9388863,-0.31887165,1.3637567,290.2035,-14.620784,32.416386,BSC
634655831000,1.574951,2.41277457107562,4.96393121454954,7.23094539021712,-1.9404135,-0.22327125,1.38025,290.1803,-14.089628,32.592674,BSC
634660718000,1.579838,2.14802743399052,4.9211045321687,7.11803849363614,-1.9947804,-0.025961773,1.4498887,290.1432,-13.545464,32.744526,BSC
634665680000,1.5848,2.39856325879518,4.87067177349398,7.0654448260241,-2.1056526,-0.1459968,1.3796391,290.16833,-13.025305,32.93975,BSC
634670712000,1.589832,2.77507892016064,4.81788923504929,7.02673770465133,-2.2214115,-0.06383542,1.3643675,290.11694,-12.489199,33.029472,BSC
634675780000,1.5949,3.11789308448146,4.77201393766636,6.994178426718,-2.2656991,-0.043676864,1.4141531,290.1016,-11.94007,33.146328,BSC
634680666000,1.599786,3.07089321621328,4.80334711501632,7.02942821545158,-2.2592852,-0.0571159,1.3701707,290.1201,-11.412151,33.2369,BSC
634685655000,1.604775,3.0229025607098,4.83534081575291,7.06542109224073,-2.266921,0.14202617,1.4239268,290.0703,-10.82374,33.326244,BSC
634691406000,1.610526,2.64647838868528,4.87308231227418,7.44810570144351,-2.2989914,0.07147124,1.3573426,290.0995,-10.276762,33.47702,BSC
634695768000,1.614888,2.26372731054542,4.90196916617685,7.84168938750108,-2.316401,0.22632557,1.3536774,290.0603,-9.731518,33.512337,BSC
634700774000,1.619894,1.93613246493577,4.90276928258018,8.19339993819064,-2.4034493,0.1731803,1.3332134,290.08905,-9.178244,33.607193,BSC
634705743000,1.624863,1.79077597885186,4.85146698024436,8.38150857353338,-2.44285,0.17623462,1.3185526,290.10556,-8.650217,33.640156,BSC
634710641000,1.629761,1.74163204713697,4.78435419606047,8.46894211223088,-2.4623978,0.11759156,1.321607,290.14203,-8.098754,33.624283,BSC
634715747000,1.634867,2.33747174679798,4.60067432487403,7.88654234951901,-2.420248,0.043676864,1.2406673,290.21725,-7.588129,33.606564,BSC
634721100000,1.64022,2.94578353508403,4.41531541496849,7.29562572211135,-2.468201,0.24709499,1.2803736,290.23688,-7.0144796,33.50199,BSC
634725649000,1.644769,3.08306790438175,4.42512139746399,7.24986427705582,-2.5341744,0.10903945,1.210735,290.34784,-6.496391,33.50589,BSC
634730779000,1.649899,3.23788628523409,4.4361798037515,7.19825816293517,-2.5149322,0.089186326,1.2156218,290.3842,-5.942558,33.51216,BSC
634735612000,1.654732,3.20004897239702,4.45016383171216,7.26263982290819,-2.5738807,0.27397305,1.2712106,290.42828,-5.37575,33.495663,BSC
634740751000,1.659871,2.66759644278908,4.47458823627792,7.63389092533003,-2.6093109,0.13500121,1.2287555,290.52124,-4.8518305,33.57118,BSC
634745635000,1.664755,2.44141506604796,4.53685794455573,7.85409032366076,-2.6230555,0.19150625,1.2156218,290.55814,-4.3118587,33.53335,BSC
634750760000,1.66988,2.99613158837637,4.71274377222273,7.7097737519434,-2.654515,0.2761111,1.2626585,290.5979,-3.7718642,33.52611,BSC
634755681000,1.674801,3.51436065099559,4.87359407915419,7.53051554815859,-2.676506,0.1282817,1.1600331,290.72058,-3.2457926,33.498592,BSC
634761135000,1.680255,3.94234021159471,4.97023444218502,6.91845897059031,-2.6584857,0.33444872,1.2272283,290.76334,-2.704114,33.351837,BSC
634765633000,1.684753,4.29530171940088,5.04993527696916,6.41368623756828,-2.728735,0.19058995,1.0567969,290.9389,-2.2301202,33.361534,BSC
634770759000,1.689879,3.99156652961017,4.87654320481062,6.63824704011612,-2.71102,0.43004912,1.0677924,291.02283,-1.7537825,33.20877,BSC
634775625000,1.694745,3.55781153176666,4.65751845053912,7.01617227777163,-2.7666087,0.3145956,0.9297369,291.22797,-1.3055292,33.1956,BSC
634780743000,1.699863,3.13794818565733,4.61922137262035,7.20176854530051,-2.7247643,0.39675698,0.8921687,291.39557,-0.8964118,33.117874,BSC
634785927000,1.705047,2.7321886570617,4.683549268484,7.27599280205322,-2.7284296,0.3203988,0.8622363,291.61337,-0.49294594,33.11941,BSC
634790697000,1.709817,2.21353609906327,4.33726119436319,7.50570323549712,-2.69697,0.28955013,0.78801614,291.8235,-0.078125425,33.022377,BSC
634795707000,1.714827,1.59851150423993,3.77743111498767,7.82504277617091,-2.6410758,0.42241332,0.88361657,291.9896,0.34283912,32.902443,BSC
634800768000,1.719888,1.35033904420157,3.3350851655217,8.16591109227953,-2.6719246,0.2874121,0.7452556,292.26105,0.7343345,32.802643,BSC
634806927000,1.726047,2.56341739521912,3.29697782031873,8.65495306772908,-2.6462681,0.42210788,0.80939645,292.435,1.1365334,32.59001,BSC
634810659000,1.729779,3.33896336616527,3.23017598536824,8.32692756920297,-2.7311785,0.35124752,0.77457714,292.5881,1.6851599,32.37857,BSC
634815701000,1.734821,4.44731188067982,3.07453558165657,6.94974575097675,-2.7333164,0.4569272,0.7098254,292.73965,2.1998332,32.082676,BSC
634820648000,1.739768,5.07566991278068,2.5416811839147,6.09348494972462,-2.7207937,0.6374379,0.820392,292.85397,2.748173,31.851732,BSC
634825675000,1.744795,4.66433980860754,1.13092129005084,6.35524054155486,-2.7644706,0.5900958,0.6010914,293.10608,3.2382965,31.665674,BSC
634830815000,1.749935,4.24376357318882,-0.311550532996752,6.62288003668267,-2.7064385,0.55955255,0.63407815,293.2057,3.7487416,31.623457,BSC
634835657000,1.754777,4.22579104602957,-0.901157537256438,6.92936320111622,-2.71102,0.65576386,0.7189884,293.3695,4.2502995,31.564081,BSC
634840712000,1.759832,4.61922036459414,-0.678372308185646,7.30857184891805,-2.737287,0.4914411,0.47219884,293.6306,4.688358,31.598064,BSC
634845659000,1.764779,4.93932296822356,-0.869984177696143,7.58829102644975,-2.6273315,0.49205196,0.43890667,293.54462,5.558584,31.476099,BSC
634850804000,1.769924,5.18497518509577,-1.61987002025715,7.75636903668329,-2.5476136,0.50426924,0.49388456,293.5161,6.3956633,31.401907,BSC
634855658000,1.774778,5.2631738848659,-2.24949164390166,7.83760424623244,-2.4859161,0.41263947,0.321926,293.6087,7.1112814,31.368013,BSC
634860824000,1.779944,4.41412669262452,-2.44694446875798,7.4545456761175,-2.3698518,0.27122417,0.31673363,293.63367,7.80872,31.33815,BSC
634865655000,1.784775,3.62013772907088,-2.63159305506865,7.09632733461047,-2.3463335,0.19700404,0.52534413,293.54276,8.682948,31.313036,BSC
634870683000,1.789803,3.46031705431489,-2.52031286138834,6.85057431506917,-2.3851233,0.11636983,0.41263947,293.55896,9.471374,31.343842,BSC
634876733000,1.795853,3.71795399272068,-2.18156801084486,6.64064798354743,-2.2797492,0.090713486,0.4196644,293.47272,10.245339,31.361761,BSC
634880646000,1.799766,3.75141211657417,-2.13125532974351,6.47597405324734,-2.1838431,0.05009095,0.39645153,293.3363,11.058602,31.282413,BSC
634885718000,1.804838,3.31791469740513,-2.67039493172341,6.15904746677666,-2.0497584,0.04428773,0.46120325,293.17844,11.834572,31.194431,BSC
634890593000,1.809713,2.90125461884656,-3.18859397739613,5.85443052887356,-1.9520199,-0.032986723,0.32162055,293.1891,12.548343,31.219019,BSC
634895698000,1.814818,2.83072699444492,-3.58411426291145,5.64844795239741,-1.7663169,-0.1328632,0.3323107,293.13055,13.2228985,31.235685,BSC
634900736000,1.819856,3.06831946616847,-3.85088469791793,5.54007241149028,-1.6453656,-0.19792034,0.33658674,293.1175,13.850559,31.272827,BSC
634905664000,1.824784,3.34712013180987,-3.98393386879951,5.33025759323583,-1.5048665,-0.20677789,0.31764993,292.93402,14.5483265,31.2255,BSC
634910650000,1.82977,3.783591411883,-3.69295311669714,4.77254417276051,-1.3579534,-0.17287487,0.2959642,292.75314,15.203945,31.182903,BSC
634915700000,1.83482,4.24426303590063,-3.47238630262441,4.32049785756561,-1.212873,-0.17470746,0.29871312,292.5401,15.898127,31.18586,BSC
634920735000,1.839855,4.75495656522078,-3.45736591854217,4.18155914796355,-1.1239921,-0.28038713,0.27550024,292.33856,16.550756,31.210249,BSC
634925653000,1.844773,5.25378293606417,-3.4426945682112,4.04584900420528,-1.042747,-0.25381452,0.29016098,292.20743,17.182732,31.311665,BSC
634930679000,1.849799,5.3231656375,-3.63627929285714,3.89912831428571,-1.0180069,-0.23732115,0.310625,292.06573,17.79239,31.44115,BSC
634935727000,1.854847,5.19579639105191,-3.92403952798595,3.74817222872756,-0.9437868,-0.2284636,0.32925636,291.91962,18.361303,31.559765,BSC
634940685000,1.859805,5.02620241131066,-3.67110158995051,4.39401599881865,-0.8881981,-0.38728857,0.39522982,291.703,18.87457,31.800035,BSC
634947044000,1.866164,4.77829008606322,-2.98083614985632,5.76482493850575,-0.8356637,-0.4083634,0.40530908,291.51477,19.357777,32.00058,BSC
634950829000,1.869949,4.62113168289344,-2.50985620184225,6.58141810222864,-0.9254609,-0.537256,0.41996986,291.2301,19.967281,32.238384,BSC
634955654000,1.874774,4.37861551951015,-1.64523378866814,7.62529127291397,-1.0143417,-0.54305923,0.44440445,290.94995,20.558064,32.440434,BSC
634960625000,1.879745,4.12876104320377,-0.754448707654978,8.70075107218377,-1.2238685,-0.4352415,0.47861293,290.84833,21.02577,32.516476,BSC
634965678000,1.884798,3.92691174044321,-0.816529734425208,8.63418809357687,-1.3222178,-0.37293324,0.5030475,290.73727,21.480932,32.600433,BSC
634970766000,1.889886,3.77506242409972,-1.83307728655817,7.42361098277355,-1.3182472,-0.2574797,0.48747048,290.65482,21.949232,32.64071,BSC
634975681000,1.894801,3.69598625299241,-2.74738199163404,6.20343074718338,-1.2024882,-0.06872234,0.44104472,290.84576,22.08976,32.531578,BSC
634980665000,1.899785,3.88286665948062,-3.40718462022373,4.76559513359968,-0.990518,0.06658431,0.42546764,291.04224,22.205576,32.40659,BSC
634985629000,1.904749,4.06899714459449,-4.06433956571314,3.33352932584898,-0.7828238,0.053145275,0.28252518,291.08563,22.655416,32.327038,BSC
634990675000,1.909795,3.95945338369119,-4.68540362369305,2.13217081853996,-0.63071835,0.29077184,0.15363261,291.1943,23.055313,32.152615,BSC
634995686000,1.914806,3.71753542996639,-5.28123874925317,1.05249931773712,-0.5009095,0.05131268,0.022907447,291.2738,23.376724,32.124496,BSC
635000791000,1.919911,3.42634804193206,-5.71573808087242,0.58261310761243,-0.3173445,0.39736784,-0.10903945,291.3122,23.924212,32.054607,BSC
635005751000,1.924871,3.11004168099788,-6.00912385195908,0.596365566828797,-0.14844026,0.3744604,-0.24617869,291.289,24.407455,32.154427,BSC
635010703000,1.929823,2.16040293351681,-6.96610157977049,0.0060658671575099,0.111177474,0.15118915,-0.2828306,291.11044,25.007349,32.240917,BSC
635015680000,1.9348,0.548537935409769,-8.6166899931959,-1.2137238685163,0.40194935,0.47036624,-0.63071835,291.14554,25.47113,32.26202,BSC
635020680000,1.9398,-0.26887413953908,-8.58500636412009,-1.38899809907816,0.6356053,0.35185838,-0.9138544,291.0656,26.063177,32.37252,BSC
635025727000,1.944847,-0.326783813786736,-6.93628371266474,-0.561230327573472,0.9999864,0.25717425,-1.0595458,291.09518,26.496782,32.430466,BSC
635030726000,1.949846,-0.38414273226584,-5.30324140344633,0.258664875468321,1.1475104,0.22449298,-1.138042,290.8662,27.295893,32.333202,BSC
635035676000,1.954796,0.399989852163366,-4.82514614578793,0.382424299971193,1.3716979,0.36163223,-1.2479976,290.70227,27.921482,32.25677,BSC
635040686000,1.959806,1.59118748646641,-4.87970472770776,0.182375861161376,1.5076154,0.6765333,-1.2657127,290.5619,28.499157,32.15443,BSC
635045675000,1.964795,4.44378432708234,-6.86744090671109,2.58690477409234,1.45783,1.3133603,-1.4941764,290.94702,28.43851,31.997976,BSC
635050641000,1.969761,8.55902527980961,-10.3262350885293,6.9737788529287,1.3316863,1.8142698,-1.7345519,291.3732,28.362225,31.804342,BSC
635055638000,1.974758,11.8362066,-13.0778227724138,10.568105537931,1.3970488,2.6795604,-1.9437732,292.0514,28.335505,31.604017,BSC
635060639000,1.979759,14.0842232776119,-14.9610302701493,13.1858623865672,1.7577647,2.879619,-1.9190332,292.69022,28.25897,31.444473,BSC
635065676000,1.984796,15.6367677923951,-16.2616269364376,14.9927564388141,2.59465,2.8139508,-1.9804251,293.41208,28.046806,31.309105,BSC
635070747000,1.989867,16.5287837774913,-17.0088857461935,16.0295291907275,3.3173037,2.8820622,-1.8075503,294.14368,27.787031,31.046679,BSC
635075778000,1.994898,17.3201256012652,-17.7233565019185,16.8266033743648,3.415653,3.0631838,-1.3616186,294.7454,27.544323,30.792221,BSC
635080668000,1.999788,16.6013731881157,-17.9904601377165,13.9224555489993,2.8047879,3.402214,-0.9224065,295.3802,27.288954,30.435001,BSC
635085665000,2.004785,15.5206796182131,-18.1258674117984,11.2113685624284,1.8869628,3.526525,-0.69974613,295.9027,27.113184,30.083746,BSC
635090709000,2.009829,11.5090619071019,-17.1022132266132,10.6395977476136,1.1551461,3.07815,-0.9468411,296.445,26.985477,29.781305,BSC
635095989000,2.015109,7.48794157590343,-15.6868956603239,10.2835039655121,1.0036516,2.0781636,-1.5613716,296.82663,26.992104,29.667318,BSC
635100694000,2.019814,5.94071065083971,-10.4979292645749,12.736101799895,1.2257011,0.904386,-2.154827,297.19855,27.005388,29.7338,BSC
635105642000,2.024762,4.31356960573549,-5.04096736740891,15.3153694055331,1.3845261,0.10048734,-2.1847596,297.67642,26.9871,29.605501,BSC
635110720000,2.02984,3.23788995093737,-1.39646270674701,17.03714,1.402852,-0.7892379,-2.0344868,298.04565,26.877466,29.844097,BSC
635115694000,2.034814,3.26733056916976,-1.39155597973836,17.03714,1.8023579,-1.4025466,-1.6392568,298.25598,26.670742,30.171503,BSC
635120662000,2.039782,3.68193662570834,-0.6118692527383,16.2499224338735,2.533869,-1.602605,-1.2070698,299.0597,25.664946,30.34341,BSC
635125660000,2.04478,4.66982410429981,1.32057733801032,14.2914787327781,2.8328876,-1.6584991,-1.1053606,299.77002,24.695045,30.603323,BSC
635130719000,2.049839,5.42646583480683,2.53768862984382,12.2253421734405,2.9196305,-1.9272798,-1.1410962,300.32956,23.660208,30.914017,BSC
635135707000,2.054827,5.22141074473468,0.849256160423783,9.86066389779889,2.7363708,-2.223244,-1.1447614,300.8481,22.663954,31.211685,BSC
635140969000,2.060089,5.05388447217866,-0.876792030848383,7.50591374636596,2.627026,-2.4275784,-1.2076806,301.30542,21.436548,31.82984,BSC
635145662000,2.064782,5.57653467478636,-1.65680780050921,7.33169706728923,2.705522,-2.122146,-1.2809844,301.82,20.218529,32.37371,BSC
635150703000,2.069823,6.13794095463836,-2.49466407471765,7.14456169988547,2.8069258,-1.5558738,-1.2431108,302.06512,19.33012,32.97354,BSC
635155713000,2.074833,6.06445667980314,-3.09326236705358,7.38368319338843,2.939789,-1.2541064,-1.1117748,302.32108,18.43743,33.541023,BSC
635160688000,2.079808,5.77245697997028,-3.60647397049865,7.76859195371901,2.919936,-1.3625349,-1.2144,302.6725,17.541586,34.072224,BSC
635165680000,2.0848,5.54468086890286,-3.05769172764382,7.22856242197727,2.7824912,-1.6939293,-1.25319,302.86108,16.806702,34.603878,BSC
635170655000,2.089775,5.36414676474337,-1.75292188739235,6.03047171408887,2.6551259,-1.7950275,-1.0503827,303.02332,16.120491,35.07255,BSC
635175681000,2.094801,5.10356317540124,-0.331690274436169,4.75182371173817,2.4288,-1.5167783,-0.80939645,303.17654,15.561859,35.43286,BSC
635180682000,2.099802,4.62126087038708,1.37646330936746,3.28482156897094,2.257758,-1.0934488,-0.5360342,303.25455,15.0815115,35.74148,BSC
635185652000,2.104772,3.92609613407084,2.97704176681214,2.24551977777327,2.0909917,-0.788627,-0.1908954,303.2997,14.491587,36.14043,BSC
635190693000,2.109813,2.81386571338679,4.41755179759464,1.98093624426063,2.0173824,-0.5571091,0.17501289,303.28653,13.982872,36.41123,BSC
635195606000,2.114726,1.66765769187983,5.56837488955979,2.26660972923855,1.9871446,-0.40103304,0.5039638,303.29254,13.363356,36.710835,BSC
635200751000,2.119871,0.358409603093397,6.33047441826294,3.51723481267103,1.969735,-0.4266894,0.729984,303.21906,12.804076,36.97731,BSC
635205618000,2.124738,-0.500529248316183,6.97021318802619,5.08083211085126,1.9278907,-0.5766568,0.86132,303.27197,12.128174,37.129913,BSC
635210928000,2.130048,-0.709839364780168,7.5125166828812,7.51644069363891,1.8310685,-0.9410379,0.9398162,303.25067,11.493158,37.33753,BSC
635215610000,2.13473,-0.710599220871635,7.84984220576166,9.43037778611293,1.7666223,-1.1756102,1.0015136,303.43054,10.743312,37.270596,BSC
635220719000,2.139839,-0.0319373813525936,7.69724353775443,10.6551817038739,1.6829338,-1.5515977,1.031446,303.55606,10.0222435,37.337784,BSC
635226971000,2.146091,0.86901371310594,7.43965952212047,12.1261321875998,1.5711454,-1.4718798,1.0079277,303.92062,9.184304,37.070103,BSC
635230662000,2.149782,2.42512135890112,6.25773055960682,12.5894009065782,1.396438,-1.2965615,0.979217,304.2399,8.389513,36.879456,BSC
635236450000,2.15557,4.86531400421742,4.40430199416954,13.3158705206251,1.2647965,-0.82436264,0.90469146,304.60977,7.597865,36.548077,BSC
635240661000,2.159781,6.24877270909736,3.73557172638679,13.5273413373569,0.906524,-0.2779437,0.80878556,304.98325,6.9040294,36.15831,BSC
635245744000,2.164864,7.41098353831543,3.80902001620662,13.3718038832875,0.3943135,0.21655174,0.7470882,305.36328,6.282999,35.663525,BSC
635250753000,2.169873,8.44895472999671,3.96283037148502,13.2541714975305,-0.10934488,0.52748215,0.66339964,305.50546,6.000062,35.337963,BSC
635255708000,2.174828,8.96067268809681,4.50579864334047,13.3088588226045,-0.45753807,0.7892379,0.6032294,305.66833,5.803547,34.90702,BSC
635260656000,2.179776,9.47166773485347,5.04799985608331,13.3634688901054,-0.6994407,1.0329732,0.6267477,305.79736,5.6720757,34.605385,BSC
635265670000,2.18479,9.52873236466685,5.52013925894388,13.8682962698369,-0.93828905,1.0488557,0.7122689,305.91827,5.6285334,34.305706,BSC
635270857000,2.189977,9.40512918053636,5.97793022667957,14.5687162253249,-1.1456778,0.9034697,0.8885035,305.9959,5.6575384,33.991856,BSC
635275742000,2.194862,8.40843609148993,5.56532151426036,15.1463793500754,-1.3359623,0.6817256,0.9129381,306.14215,5.6280518,33.784435,BSC
635280693000,2.199813,6.75908001206851,4.53447410740971,15.6723219404561,-1.5650368,0.41080686,0.7351763,306.2821,5.658292,33.640175,BSC
635285682000,2.204802,5.53008784262562,3.68792650300589,16.0464123598008,-1.7968601,0.18325958,0.54428095,306.4727,5.6614676,33.488388,BSC
635290681000,2.209801,5.29169071492983,3.28048428660933,16.0637502224536,-1.9645426,-0.005192355,0.48533243,306.66095,5.703894,33.409542,BSC
635295645000,2.214765,5.05807658239873,2.75330159028114,15.9277070402056,-2.064419,-0.15851954,0.46211955,306.82813,5.8777122,33.179993,BSC
635300766000,2.219886,4.85051930208585,0.89269855241838,14.1412319480048,-2.1398609,-0.3472769,0.42852196,307.00967,6.071816,33.029705,BSC
635306576000,2.225696,4.61503642791717,-1.21823752451632,12.114397289601,-2.1569653,-0.6441574,0.46670106,307.1378,6.3050003,32.96272,BSC
635310653000,2.229773,4.4358913,-2.46884377528604,10.9414580183066,-2.110234,-0.8533788,0.5180137,307.27,6.531074,32.932518,BSC
635315750000,2.23487,4.19725902727273,-3.78893698004993,9.7381418868317,-2.1453588,-1.0332786,0.4578435,307.41614,6.762637,32.98442,BSC
635320729000,2.239849,4.24361541468085,-4.74474232194149,8.93729211462766,-2.2156084,-1.153619,0.42241332,307.23254,7.327782,33.148693,BSC
635325694000,2.244814,4.5302575412766,-5.41076339973404,8.46096066648936,-2.1804836,-1.2608259,0.37232238,307.0654,7.8507433,33.3573,BSC
635330624000,2.249744,4.83556374445852,-5.70141253413553,8.17274805129829,-2.021353,-1.1982121,0.2611449,306.7749,8.500545,33.587082,BSC
635335890000,2.25501,5.22415302343255,-4.89229463565548,8.42293641165294,-1.7815884,-1.1896601,0.17440203,306.47855,9.106226,33.85507,BSC
635340600000,2.25972,5.53704525862069,-4.16789233448276,8.21491939655172,-1.6896533,-1.4141531,0.21227567,306.0615,9.7858925,34.23043,BSC
635345762000,2.264882,5.8179828077827,-3.37269642722019,7.21497192895396,-1.6554449,-1.5995506,0.34422258,305.63495,10.412951,34.581097,BSC
635350729000,2.269849,6.14520269567871,-2.64436107183778,6.47374308597303,-1.6282613,-1.5876387,0.4120286,305.2987,10.904632,34.96222,BSC
635355662000,2.274782,6.59628172214785,-2.00261972588837,6.22727726619746,-1.6157386,-1.5549575,0.4709771,304.89957,11.402089,35.368908,BSC
635360669000,2.279789,6.89738929786842,-1.54340863594999,6.18137228878869,-1.5546521,-1.566564,0.5513059,304.52628,11.752225,35.902184,BSC
635365699000,2.284819,6.75916466075015,-1.62239427542529,6.70958826952244,-1.4657712,-1.7040086,0.61391956,304.11887,12.09337,36.4413,BSC
635370675000,2.289795,6.64738195698127,-1.70374998292231,7.26373513665863,-1.4288138,-1.8060231,0.64934975,303.76422,12.374293,37.026268,BSC
635376355000,2.295475,6.58181987502318,-1.80461453400705,7.97483100908585,-1.4581354,-1.883603,0.66614854,303.37433,12.652495,37.62129,BSC
635380777000,2.299897,6.65828445747202,-1.81709637038157,8.43940857145192,-1.4975362,-1.992337,0.72418076,302.9599,12.887858,38.201603,BSC
635385679000,2.304799,7.31035859866002,-1.53708807447504,8.5583158155078,-1.5460999,-2.025629,0.8588765,302.5016,13.147703,38.753193,BSC
635390608000,2.309728,7.96602433548492,-1.25553750521284,8.67787799542446,-1.5946637,-2.0011945,1.0509937,302.01743,13.469996,39.23129,BSC
635395718000,2.314838,8.4272476137931,-1.43889874877743,8.86245496802508,-1.6374242,-1.9620992,1.1679744,301.50314,13.807563,39.691723,BSC
635400819000,2.319939,8.79478094581281,-1.82393351356919,9.07247408016122,-1.6676621,-1.861001,1.2730432,300.9291,14.180556,40.096416,BSC
635405627000,2.324747,9.16091989266548,-2.61336834067979,9.38197435742397,-1.6865989,-1.711339,1.3359623,300.39096,14.511099,40.521286,BSC
635410671000,2.329791,9.56706566010733,-3.91821937881932,9.83132663184258,-1.7009543,-1.572978,1.3820826,299.82852,14.858587,40.89665,BSC
635415649000,2.334769,9.82020628816439,-4.94864845829625,10.1025829639997,-1.6975945,-1.5317446,1.4217888,299.20358,15.250746,41.25734,BSC
635420688000,2.339808,9.58986924035272,-5.1438492329585,9.80978245425127,-1.6716328,-1.5027285,1.4333953,298.58606,15.637624,41.56746,BSC
635425722000,2.344842,9.35976074686514,-5.33885631762802,9.51727247884475,-1.629483,-1.45783,1.4639386,297.75995,16.212952,41.816917,BSC
635430655000,2.349775,8.82613122925639,-5.32622057365298,8.60264562862475,-1.6594155,-1.4391985,1.5112807,296.9265,16.789366,42.04819,BSC
635435898000,2.355018,8.16299168194086,-5.2493349315724,7.4349431237439,-1.717753,-1.3191634,1.5827519,296.09894,17.360535,42.221745,BSC
635440679000,2.359799,7.25645816491745,-5.1077019915684,6.4360208959316,-1.7986927,-1.0806206,1.6615535,295.227,18.007196,42.340622,BSC
635446036000,2.365156,6.10194006685338,-4.91612254228577,5.34704297646423,-1.88849,-0.7874053,1.7006488,294.38107,18.657984,42.399014,BSC
635450752000,2.369872,5.26468518909647,-4.6885904521909,4.575387805732,-1.933083,-0.41172317,1.7067575,293.5185,19.36424,42.391384,BSC
635455682000,2.374802,4.4708414842731,-4.42397596764606,3.85371170663213,-1.9666806,-0.016798794,1.6679676,292.72635,20.066784,42.29803,BSC
635460609000,2.379729,3.75371140129687,-4.11106131846631,3.14681948697491,-1.9917262,0.40958515,1.5732834,291.99832,20.816622,42.095036,BSC
635465702000,2.384822,3.21742371825956,-3.65727918246405,2.45468743979889,-2.0073032,0.8689558,1.4340062,291.3957,21.536173,41.796837,BSC
635470704000,2.389824,2.76396317223887,-3.21345025782799,1.85758913647683,-2.0271564,1.3121386,1.2614367,290.9157,22.265259,41.407524,BSC
635475698000,2.394818,2.68309422596265,-2.77969923008224,1.68114805735916,-2.0460932,1.6548339,1.0619892,290.5777,22.947063,40.96099,BSC
635480666000,2.399786,2.60264630343555,-2.34820641753901,1.50562557416801,-2.0583105,1.921782,0.8472701,290.40726,23.557343,40.493298,BSC
635485790000,2.40491,2.78113692805936,-1.78656240976591,1.44723979979099,-2.065641,2.087632,0.657291,290.3538,24.11924,40.00582,BSC
635490691000,2.409811,3.14410686261887,-1.16362756291148,1.48157471331383,-2.0607538,2.1093178,0.5027421,290.39255,24.629675,39.529663,BSC
635495705000,2.414825,3.61897863939423,-0.646071401223279,1.84673762171634,-2.058616,2.048842,0.35521814,290.5885,25.023289,39.117855,BSC
635500746000,2.419866,4.15325133177361,-0.191471054173187,2.39507005997476,-2.0555615,1.9211712,0.20555615,290.82886,25.370764,38.75405,BSC
635505644000,2.424764,4.53868297636777,-0.121291401046316,2.85424594081572,-2.076331,1.7146988,0.080634214,291.16193,25.728138,38.422295,BSC
635510957000,2.430077,4.8552481070314,-0.327310018945684,3.29643219755086,-2.0607538,1.4758505,-0.03481932,291.5083,26.041838,38.158947,BSC
635515610000,2.43473,5.12013695528867,-0.556471057843356,3.5757053802179,-2.0295997,1.3469579,-0.064751714,291.9738,26.26128,37.952904,BSC
635520673000,2.439793,5.39882385515141,-0.843477061305653,3.7961592671871,-2.0250182,1.0748174,-0.13255776,292.41003,26.445156,37.867832,BSC
635525781000,2.444901,5.67101710092191,-1.19387052809111,4.00199903969631,-1.9953914,0.8341365,-0.18936823,292.85413,26.586416,37.821022,BSC
635530659000,2.449779,5.90408873452278,-1.71068150722343,4.14893561592191,-1.953547,0.6462954,-0.21288654,293.2652,26.709614,37.83462,BSC
635535670000,2.45479,6.0117135228972,-2.31145624330218,4.27092780451713,-1.9150625,0.47342056,-0.20769419,293.6219,26.825762,37.915394,BSC
635540632000,2.459752,5.90531151933411,-3.01926168010125,4.34494657490265,-1.8497,0.26511553,-0.1826487,293.93402,26.919579,38.04883,BSC
635545614000,2.464734,5.81048774221923,-3.73896554518333,4.38849174740641,-1.7357736,0.042455133,-0.15088372,294.155,27.024841,38.228695,BSC
635550684000,2.469804,5.74039673654124,-4.491276160716,4.36512807884708,-1.6224581,-0.1966986,-0.10842858,294.31665,27.117378,38.45107,BSC
635555656000,2.474776,5.68386310226858,-5.28618088610492,4.28598671530282,-1.475545,-0.48899764,-0.036651913,294.30615,27.240473,38.70208,BSC
635561480000,2.4806,5.66126817644318,-6.4215708067855,3.99225403618594,-1.321607,-0.77549344,0.03940081,294.22565,27.344849,38.98959,BSC
635565661000,2.484781,5.65981067300602,-7.17130298612886,3.76205084199671,-1.1866057,-1.0302242,0.11148291,293.9347,27.588768,39.25179,BSC
635570669000,2.489789,5.69482490158788,-7.9066005066983,3.43816984458843,-1.0274754,-1.2131784,0.16829337,293.57324,27.803381,39.544285,BSC
635575687000,2.494807,5.72966659919524,-8.61330902615475,3.1032306790259,-0.90316427,-1.3399329,0.20891592,292.96576,28.180252,39.819485,BSC
635580654000,2.499774,5.76156732220639,-8.9921305282924,2.66060777250398,-0.79045963,-1.3933836,0.24251351,292.31342,28.530455,40.100403,BSC
635585676000,2.504796,5.79382128455025,-9.37514675211669,2.21308366609104,-0.6747007,-1.3487904,0.25503623,291.47083,28.99209,40.352306,BSC
635590673000,2.509793,5.82289623162606,-9.52102513600199,1.82660084453008,-0.5522222,-1.2339478,0.2519819,290.6241,29.42441,40.585552,BSC
635595812000,2.514932,5.85144804883143,-9.56589236250622,1.45542700790651,-0.4175264,-1.0690142,0.23487769,289.79913,29.823093,40.78791,BSC
635600745000,2.519865,5.89024747627069,-9.53275227531521,1.18982206452916,-0.27000242,-0.893085,0.22388211,288.86053,30.276869,40.963917,BSC
635605666000,2.524786,5.95523797736407,-9.32385359554767,1.13411583071316,-0.113926366,-0.732122,0.21410827,287.9668,30.689781,41.102573,BSC
635610781000,2.529901,5.98786467753147,-9.03545765489874,1.2177038626528,0.047036625,-0.6230826,0.2049453,287.0421,31.10736,41.228275,BSC
635615748000,2.534868,5.92711380892173,-8.56680747564313,1.67333607954753,0.18661933,-0.5946773,0.20830505,286.14276,31.490948,41.33103,BSC
635620716000,2.539836,5.85542103443832,-8.09605399023251,2.13506999125969,0.24801129,-0.59712076,0.20311269,285.29993,31.837803,41.429462,BSC
635625693000,2.544813,5.63733111593986,-7.59756270811467,2.67806919617144,0.3549127,-0.6374379,0.19425514,284.45908,32.144672,41.525867,BSC
635631347000,2.550467,5.36766329338229,-7.01570021809599,3.28296759340851,0.4166101,-0.72265357,0.18295415,283.76215,32.358925,41.62074,BSC
635635625000,2.554745,4.83042779744733,-6.33878362785209,3.55874843893697,0.453262,-0.74036866,0.18051068,283.07407,32.556538,41.707554,BSC
635640610000,2.55973,4.20440653815893,-5.54999699803304,3.8801059693155,0.44226643,-0.7498371,0.16615535,282.54572,32.676502,41.781944,BSC
635645706000,2.564826,3.86532036289411,-5.06083814781984,3.92995972352659,0.4437936,-0.71685034,0.16493362,282.0219,32.790665,41.847324,BSC
635650730000,2.56985,3.70855259350264,-4.76574567211308,3.81468937565884,0.40866885,-0.63285637,0.16737708,281.5131,32.911198,41.90471,BSC
635655747000,2.574867,3.689196145164,-4.53265486557331,3.71367550705542,0.3640757,-0.49327368,0.1685988,281.22842,32.950893,41.90506,BSC
635660747000,2.579867,3.7786906783852,-4.34919131076535,3.62418106728343,0.30726522,-0.3100141,0.16615535,280.9809,32.999393,41.880146,BSC
635665637000,2.584757,3.96234556151591,-4.21552598191754,3.56202414101653,0.2742785,-0.11636983,0.14538592,280.80978,33.0285,41.839745,BSC
635670783000,2.589903,4.30391426084059,-4.14546040720633,3.53574954478408,0.23640485,0.025961773,0.12644911,280.67685,33.068203,41.77436,BSC
635675707000,2.594827,4.64994527686109,-4.1057393091558,3.4988322466462,0.20341812,0.12767084,0.0983493,280.61157,33.085663,41.71239,BSC
635680784000,2.599904,5.10891990905602,-4.21022135857252,3.39808173378358,0.19028452,0.20219639,0.057726767,280.58737,33.09868,41.63617,BSC
635685743000,2.604863,5.55722701976209,-4.31227502866462,3.29967287160399,0.19272798,0.28985557,0.015577064,280.60703,33.084602,41.580067,BSC
635690712000,2.609832,6.16373822921136,-4.82023865948683,3.03725714543894,0.2098322,0.36560285,-0.022602014,280.65356,33.061962,41.52095,BSC
635695736000,2.614856,6.90280816416373,-5.65840206873766,2.64088445541921,0.23854288,0.46975538,-0.06627888,280.74442,33.026142,41.45066,BSC
635701465000,2.620585,7.55890444013437,-6.44508002570583,2.34248263743102,0.2706133,0.591623,-0.12858713,280.82907,32.97237,41.43012,BSC
635705775000,2.624895,7.76358445453091,-6.77520906561625,2.35568779075422,0.33444872,0.7266242,-0.16646078,280.94952,32.904766,41.390884,BSC
635710818000,2.629938,8.00307431824362,-7.16148302113093,2.37113873929457,0.41691554,0.8002335,-0.19730948,280.85843,32.93314,41.402393,BSC
635715673000,2.634793,8.16954272321482,-7.37339479396766,2.50998248270244,0.5216789,0.9071349,-0.20891592,280.82022,32.941044,41.385128,BSC
635720718000,2.639838,8.31878073484344,-7.53433747448368,2.70018741598934,0.5821546,0.9660834,-0.20463985,280.79376,32.93831,41.366665,BSC
635725684000,2.644804,8.46568181824238,-7.69275994255951,2.88741391721882,0.7101309,0.9691377,-0.19486602,280.71027,32.951965,41.33632,BSC
635730678000,2.649798,8.65277897328825,-7.77251867022823,3.25597827333897,0.81153446,0.9095783,-0.17104226,280.62387,32.961887,41.304497,BSC
635735659000,2.654779,8.894716627388,-7.74026031634827,3.8769520065765,0.89858276,0.7626653,-0.12034045,280.50668,32.95891,41.283302,BSC
635740803000,2.659923,9.10484752412868,-7.71287275308311,4.46882553766756,0.96944314,0.5497787,-0.07086037,280.36313,32.944664,41.274696,BSC
635745676000,2.664796,8.81552008956099,-7.75979064703418,4.42190752123827,1.0082331,0.3173445,-0.0125227375,280.16068,32.933655,41.287525,BSC
635750787000,2.669907,8.51206174396783,-7.80900003672922,4.37269800308311,1.031446,0.10293079,0.03970624,280.02078,32.85532,41.314545,BSC
635755647000,2.674767,7.98063354198391,-7.78219524021448,4.2032424889008,1.0302242,-0.040011674,0.06963864,279.8282,32.785126,41.3649,BSC
635760714000,2.679834,7.30413574565684,-7.71714745790885,3.96473386321716,1.0158689,-0.07971791,0.0852157,279.5967,32.72447,41.42746,BSC
635765689000,2.684809,6.56303050358009,-7.58179883278016,3.84782282550811,1.0250319,-0.069027774,0.08827003,279.32556,32.690357,41.47244,BSC
635770677000,2.689797,5.71685006535521,-7.35021272653366,3.88790502815588,1.0225884,-0.005192355,0.07452556,279.06064,32.66261,41.513466,BSC
635775639000,2.694759,4.92127878383323,-7.07381143316316,4.04361062174006,1.0228939,0.09193522,0.030543262,278.79718,32.66855,41.503906,BSC
635780650000,2.69977,4.24242461799617,-6.67058209387364,4.51319403264199,0.99112886,0.18417588,-0.027794369,278.55884,32.675068,41.489395,BSC
635785686000,2.704806,3.75778669521475,-6.24369709243621,4.95427192461636,0.95447695,0.26083946,-0.10476339,278.41556,32.671318,41.402523,BSC
635790695000,2.709815,3.57484380644693,-5.7863400069645,5.34629232907473,0.8924741,0.301462,-0.18967366,278.3047,32.663776,41.32056,BSC
635795618000,2.714738,3.42377897141013,-5.31668009514897,5.69103073372056,0.84696466,0.31306845,-0.24007004,278.35626,32.607,41.16994,BSC
635801005000,2.720125,3.39603340087125,-4.7062759208777,5.87415188170378,0.84238315,0.29657507,-0.24862215,278.4205,32.54565,41.02747,BSC
635805541000,2.724661,3.41645980690806,-4.32968341023566,5.95202947245878,0.86620694,0.29749137,-0.24831672,278.64874,32.397152,40.869778,BSC
635810598000,2.729718,3.53401999383028,-4.20722467973096,5.87365604860929,0.8756753,0.32803464,-0.2706133,278.8857,32.246864,40.716454,BSC
635815538000,2.734658,3.68709288331719,-4.121472566615,5.74452913532261,0.8857546,0.39920044,-0.3036,279.2363,32.01657,40.57414,BSC
635820585000,2.739705,3.92122444548537,-4.10274204555319,5.50571479620229,0.88606006,0.46303585,-0.3399465,279.5964,31.78319,40.431946,BSC
635825564000,2.744684,4.18881213827526,-4.13308326773271,5.27987941986308,0.88606006,0.5549711,-0.3747658,279.9864,31.52737,40.29792,BSC
635830620000,2.74974,4.55986824323082,-4.29634794978032,5.07703545852662,0.8933904,0.6081163,-0.4251622,280.393,31.26199,40.16845,BSC
635835572000,2.754692,4.8968436587517,-4.42728672824191,4.90650311952898,0.91415983,0.63316184,-0.44257188,280.76593,31.00217,40.06818,BSC
635840594000,2.759714,5.18117948643148,-4.49720535045551,4.79463327531498,0.97097033,0.59681535,-0.43127087,281.13876,30.733372,39.973587,BSC
635845564000,2.764684,5.42678324545189,-4.60504894881544,4.68258798651653,1.0442741,0.5357288,-0.41263947,281.43912,30.476976,39.92539,BSC
635850638000,2.769758,5.56890896841182,-4.83244992746417,4.56414998298723,1.1395692,0.48349985,-0.38362336,281.72287,30.215092,39.87849,BSC
635855695000,2.774815,5.65950066760241,-5.04364687625322,4.49088584766543,1.2461652,0.46639562,-0.36254853,281.94882,29.943588,39.876507,BSC
635860629000,2.779749,5.57377655164709,-5.19704768286069,4.57209794240428,1.3341297,0.47678033,-0.33841935,282.1563,29.670898,39.872093,BSC
635865597000,2.784717,5.4848068822381,-5.33161181354534,4.68265925142397,1.4214834,0.5009095,-0.32834008,282.2928,29.41219,39.886417,BSC
635870643000,2.789763,5.37295584572809,-5.30729641056657,5.02793910103653,1.4862351,0.54519725,-0.32589662,282.42853,29.151484,39.88941,BSC
635875592000,2.794712,5.27047638230663,-5.25582937073411,5.36911488407794,1.5030339,0.56596667,-0.34605515,282.54987,28.897373,39.86701,BSC
635880654000,2.799774,5.21800099641803,-5.00299298128321,5.73644308342846,1.5121969,0.58123827,-0.364992,282.67563,28.63956,39.835445,BSC
635885582000,2.804702,5.17996298613371,-4.73443316091874,6.10194212320861,1.5048665,0.58276546,-0.38820487,282.86734,28.352158,39.76668,BSC
635890619000,2.809739,5.27711968875978,-4.2262280328453,6.55783210071268,1.5189165,0.5897904,-0.40561453,283.06287,28.062477,39.69624,BSC
635895627000,2.814747,5.37371702184523,-3.72094884257495,7.01109733941436,1.534799,0.55833083,-0.4370741,283.35852,27.709505,39.616226,BSC
635900992000,2.820112,5.46007348626433,-3.3240696035583,7.17565714459226,1.5671748,0.5552765,-0.47219884,283.66248,27.35346,39.53192,BSC
635905711000,2.824831,5.52361533675103,-3.07967771780229,7.08767586565001,1.6032158,0.535118,-0.5018258,283.9575,26.995726,39.46298,BSC
635910627000,2.829747,5.53869576505313,-2.90968717798111,7.01731737284534,1.6319265,0.5158757,-0.50976706,284.4503,26.50959,39.39057,BSC
635915657000,2.834777,5.52921695670996,-2.77698381168831,6.95570511861472,1.6667458,0.50762904,-0.52564955,284.94452,26.018993,39.323624,BSC
635920665000,2.839785,5.52012151234453,-2.66958249563765,6.73140181733804,1.6694947,0.48624873,-0.5531385,285.44974,25.50625,39.29108,BSC
635925677000,2.844797,5.51121146586226,-2.57602593762762,6.41509177130128,1.6658295,0.47891834,-0.58032197,285.95395,24.997955,39.25505,BSC
635930671000,2.849791,5.45433527761011,-2.54968421929038,5.96346823858075,1.6423112,0.43188173,-0.59681535,286.4476,24.479958,39.235935,BSC
635935719000,2.854839,5.34589710411909,-2.594045320677,5.362128841354,1.6264287,0.44012842,-0.61178154,286.9519,23.969084,39.204453,BSC
635940636000,2.859756,5.2285399790127,-2.66504392128794,4.8877981424886,1.6151277,0.49663344,-0.6261369,287.40848,23.469812,39.200874,BSC
635945656000,2.864776,5.09798838188343,-2.76295738787702,4.50546917808166,1.6154331,0.5900958,-0.63438356,287.8702,22.981674,39.182354,BSC
635950954000,2.870074,5.0278234,-2.815581,4.45879186264426,1.6481144,0.72326446,-0.6417139,288.24564,22.532171,39.17418,BSC
635956002000,2.875122,5.0278234,-2.815581,4.7671187762705,1.6930131,0.81122905,-0.6444628,288.62546,22.089705,39.15083,BSC
635960597000,2.879717,5.09229192480431,-2.76262483455322,5.08752068211853,1.781283,0.8732319,-0.63499445,288.94165,21.671732,39.12648,BSC
635965580000,2.8847,5.22812560729897,-2.65104742549558,5.47561670072176,1.861001,0.8949176,-0.6197228,289.2596,21.256554,39.087643,BSC
635970651000,2.889771,5.27885013268698,-2.49501592910566,5.88719158138108,1.9501873,0.89552844,-0.5864306,289.61734,20.816994,39.005688,BSC
635975595000,2.894715,5.24606086731302,-2.30296437089434,6.30408371861892,2.0430388,0.9129381,-0.5580254,289.97134,20.372585,38.911312,BSC
635980538000,2.899658,5.13913984372518,-2.08368479590945,6.62058185596704,2.1536055,0.9502009,-0.5222898,290.36536,19.869638,38.77947,BSC
635985592000,2.904712,4.94691904253376,-1.82899229956315,6.83202476738483,2.238821,0.98837996,-0.48808134,290.7446,19.369663,38.63899,BSC
635990529000,2.909649,4.74910600014771,-1.55802057695716,6.81014234822747,2.298686,1.0140363,-0.48197266,291.21198,18.80562,38.44916,BSC
635995570000,2.91469,4.53517679420236,-1.25495427943131,6.51598971332164,2.3420575,1.0506883,-0.47433686,291.66327,18.24715,38.242966,BSC
636000811000,2.919931,4.34921817785439,-0.941393748418171,6.25231669787062,2.3829854,1.1065824,-0.45814893,292.18396,17.630043,37.986774,BSC
636005668000,2.924788,4.24545434683634,-0.653684576202596,6.0872376496958,2.4028385,1.1233811,-0.44593164,292.68924,17.023397,37.732395,BSC
636010542000,2.929662,4.20614833276604,-0.433625429540495,6.03571511292422,2.4178047,1.1120802,-0.42485678,293.19055,16.375196,37.47709,BSC
636015643000,2.934763,4.30395843748123,-0.350486784359796,6.22644502138352,2.4474316,1.0375546,-0.4288274,293.67728,15.731132,37.23689,BSC
636020550000,2.93967,4.47381426204588,-0.26636950335926,6.4638411037708,2.4807239,0.91782504,-0.47036624,294.17197,15.041837,37.008415,BSC
636025576000,2.944696,4.80553728864822,-0.171591454758295,6.81925852623806,2.5274549,0.7452556,-0.5308419,294.64755,14.352306,36.81691,BSC
636030570000,2.94969,5.19868703175003,-0.102490244675455,7.14761288447218,2.5647178,0.5332854,-0.5891795,295.126,13.628394,36.660862,BSC
636035638000,2.954758,5.75061253027071,-0.0927216478997685,7.42113392059978,2.593123,0.3359759,-0.6420194,295.59647,12.901493,36.551125,BSC
636040591000,2.959711,6.24990715372671,-0.0556041112511091,7.6837775039929,2.6083946,0.16890424,-0.6713409,296.06952,12.136625,36.4941,BSC
636045613000,2.964733,6.66812215782609,0.0425483878012422,7.93982731552795,2.615725,0.087659165,-0.6762278,296.53265,11.379556,36.465584,BSC
636050675000,2.969795,7.08233662467925,0.156033928267446,8.2062305876708,2.6108382,0.116980694,-0.6591236,296.9538,10.613263,36.489883,BSC
636055669000,2.974789,7.4016129889225,0.445377964065923,8.57040502785021,2.610227,0.25778514,-0.61727935,297.36163,9.866303,36.49823,BSC
636060647000,2.979767,7.66008766605642,0.739419663945451,8.96176048085186,2.5665503,0.45356745,-0.54183745,297.7418,9.117476,36.502758,BSC
636065648000,2.984768,7.5885109586587,1.06598734626378,9.51200454464786,2.5097399,0.68508536,-0.41508293,298.09048,8.406552,36.448536,BSC
636070861000,2.989981,7.49312592341638,1.40468257433116,10.1028257838558,2.4294112,0.8680395,-0.28130344,298.4481,7.6780686,36.3438,BSC
636075633000,2.994753,7.0603638298244,1.68618801811161,10.9305359182679,2.3558018,0.9783007,-0.16737708,298.76193,6.997385,36.19075,BSC
636080580000,2.9997,6.61173137445987,1.97801690125954,11.788600049646,2.2650883,0.9944886,-0.09040806,299.1392,6.2936225,35.931545,BSC
636085646000,3.004766,6.03419998600296,2.22363158846723,12.0527626722523,2.1569653,0.94989544,-0.03145956,299.46423,5.6456656,35.66291,BSC
636090566000,3.009686,5.44900010349926,2.45120935288319,12.1828068319369,2.0705278,0.9275989,-0.05955936,299.77576,5.029044,35.392178,BSC
636095664000,3.014784,4.987652290097,2.79357081402309,11.7227781538106,1.9801197,0.9651671,-0.109650314,300.2154,4.3861203,34.957905,BSC
636100750000,3.01987,4.56469446918245,3.16253396751963,11.110839560739,1.8445076,0.9981538,-0.15271631,300.63687,3.7897053,34.54737,BSC
636105690000,3.02481,4.4429040490163,3.37431011941231,10.7343145224183,1.7342464,1.0341948,-0.19517145,301.13556,3.1623716,34.045055,BSC
636110698000,3.029818,4.47125195924175,3.51200013822511,10.4670337185679,1.6670512,1.026559,-0.26236662,301.63364,2.5640056,33.56529,BSC
636115645000,3.034765,4.49768023108642,3.57104538960648,10.5850414234607,1.5781704,0.96852684,-0.3023783,302.14145,1.9313589,33.0896,BSC
636120673000,3.039793,4.520346466447,3.42598129395594,11.7228874799473,1.5244142,0.88422745,-0.3286455,302.6466,1.3136644,32.63745,BSC
636125818000,3.044938,4.55347148282282,3.4587149264965,12.9943998827828,1.4645494,0.8426886,-0.3268129,303.12427,0.69502026,32.222473,BSC
636130651000,3.049771,4.62760128498498,4.27414125055055,14.6530511341341,1.3582588,0.8597928,-0.41325033,303.62366,0.09718595,31.824207,BSC
636135754000,3.054874,4.87081221077927,5.15625048592761,16.2544900308544,1.0998629,0.9260717,-0.5345071,304.1643,-0.41832712,31.362965,BSC
636140684000,3.059804,5.88866989808149,6.10874125837619,17.0902537412975,0.6908886,0.82344633,-0.6988298,304.73273,-0.87407875,30.959408,BSC
636145759000,3.064879,6.99541012249135,7.04548123183391,17.5753951799308,0.16340645,0.5119051,-0.8206975,305.44485,-1.370397,30.473349,BSC
636150769000,3.069889,8.42041596995387,7.72339673644752,15.9382529596309,-0.45845437,0.09712757,-0.8142834,306.1445,-1.7265292,30.071661,BSC
636155717000,3.074837,9.68280372590361,8.24919271243799,14.3103675131113,-1.0338894,0.054061573,-0.5290093,306.80096,-2.0598464,29.704895,BSC
636160683000,3.079803,8.7727558060241,6.61869011233168,12.5113381070163,-1.3390167,0.3744604,-0.1554652,307.39954,-2.273957,29.37217,BSC
636165682000,3.084802,7.85666044728916,4.9773525170978,10.7003538136074,-1.3939945,0.6976081,0.08827003,307.8695,-2.4549935,29.30562,BSC
636170738000,3.089858,6.11197143559493,3.32735304333602,9.26542497461244,-1.2913691,0.8888089,0.21105394,308.2412,-2.5563898,29.193596,BSC
636175662000,3.094782,4.21319158184015,1.72288419876183,7.96476063501107,-1.1612549,1.1059716,0.27122417,308.53595,-2.6193929,28.991564,BSC
636180711000,3.099831,2.95447337767459,1.20448616398588,7.42252516391159,-1.1230757,1.2803736,0.25900686,308.64224,-2.4802914,28.797272,BSC
636185619000,3.104739,1.88939863510401,0.960042832002229,7.07768533727712,-1.097114,1.3710871,0.23457226,308.73193,-2.3680012,28.571148,BSC
636190686000,3.109806,1.5008071940601,0.87699222911775,7.08482927130503,-1.0228939,1.2641857,0.1994475,308.76855,-2.1289964,28.297764,BSC
636195654000,3.114774,1.49665122424878,0.885304194778127,7.28431595243711,-0.8707884,1.1664472,0.17837265,308.81085,-1.9271756,28.005556,BSC
636200820000,3.11994,1.72174436308901,0.805479672329843,7.33916824816754,-0.6747007,0.9095783,0.20219639,308.83466,-1.7508345,27.662111,BSC
636205680000,3.1248,2.28221325251309,0.59591305760733,7.15884341884817,-0.42638394,0.5039638,0.22968534,308.87085,-1.634609,27.397501,BSC
636211657000,3.130777,2.42370190487664,0.250023335944487,6.46498878581342,-0.27152961,0.057421334,0.28588495,308.88806,-1.5515902,27.203135,BSC
636215678000,3.134798,2.21215835822089,-0.0320346694255975,5.73386495790285,0.04917465,-0.24984388,0.34574974,308.90067,-1.5731561,27.089508,BSC
636220726000,3.139846,1.72194275508449,-0.348910342976579,5.00495362476529,0.34269542,-0.35918877,0.3943135,308.86185,-1.5965275,27.127283,BSC
636225710000,3.14483,0.887042845591462,-0.603625560836051,4.58042804002372,0.5366451,-0.36041048,0.40653083,308.81824,-1.672571,27.220217,BSC
636230665000,3.149785,0.20058533386679,-0.670046682341453,4.433616562288,0.68783426,-0.25228736,0.37995818,308.72235,-1.76459,27.327417,BSC
636235884000,3.155004,-0.25150216466235,-0.387492028617535,4.79836898008017,0.7440339,-0.065973446,0.30879238,308.63617,-1.8828883,27.410357,BSC
636240614000,3.159734,-0.411655199188081,-0.0763010380731565,5.20221090303842,0.70524395,0.02321288,0.22388211,308.5483,-1.9877259,27.394724,BSC
636245894000,3.165014,-0.2084957504227,0.355412781161798,5.76513195769649,0.62125,-0.038179077,0.14996742,308.48056,-2.1008666,27.368229,BSC
636250874000,3.169994,0.0344922571587605,0.797696191617513,6.25784070996095,0.537256,-0.017715093,0.080634214,308.48544,-2.2575758,27.21422,BSC
636255695000,3.174815,1.02409136943923,1.74126750229293,6.17345614801861,0.4129449,0.09468412,0.039095376,308.5067,-2.3870475,27.05094,BSC
636260643000,3.179763,2.03975957262607,2.70969538970674,6.08684863661211,0.27000242,0.069027774,0.03176499,308.59915,-2.5637875,26.909952,BSC
636265703000,3.184823,2.57670301127719,3.03597166330506,5.95033236504324,0.18478674,0.009773844,-0.020158553,308.72076,-2.7331574,26.746801,BSC
636270715000,3.189835,2.79434880615501,2.94327062204215,5.78508294994542,0.11484267,-0.01863139,-0.079107046,308.8493,-2.8707993,26.583437,BSC
636275669000,3.194789,2.93452459541522,2.74258011038266,5.62628916259031,0.051923547,0.03359759,-0.08827003,309.05115,-3.1253223,26.54806,BSC
636280800000,3.19992,2.82494779055392,2.16401489376505,5.47726471164035,0.053145275,0.12583824,-0.05497787,309.2587,-3.377844,26.507113,BSC
636285829000,3.204949,2.71284502933434,1.60170581564096,5.34909790769753,0.12156218,0.2669481,-0.049785517,309.44287,-3.6118417,26.474535,BSC
636290687000,3.209807,2.39350161901565,1.27183458341241,6.02814125104281,0.16737708,0.3817908,-0.06536258,309.6217,-3.8369608,26.422289,BSC
636295841000,3.214961,2.05470047929097,0.921864157124647,6.74855899324156,0.19547687,0.42424592,-0.10323623,309.7451,-3.9938478,26.379604,BSC
636300776000,3.219896,1.73029542990383,0.586764418333396,7.43836527142372,0.18600847,0.41630468,-0.118202426,309.86493,-4.1490297,26.318682,BSC
636305736000,3.224856,1.40424699120875,0.249967112476334,8.13166600896851,0.1777618,0.33536503,-0.15943582,310.00626,-4.3168707,26.265253,BSC
636312545000,3.231665,0.963010677536787,-0.151601219028298,9.15288595193731,0.15302174,0.116675265,-0.22143865,310.16315,-4.4796567,26.25267,BSC
636315766000,3.234886,0.81797521188855,0.2673901433165,10.3319707929473,0.109650314,0.0421497,-0.24220806,310.31824,-4.6326327,26.221449,BSC
636320697000,3.239817,0.595941718839356,0.908820260585111,12.1370211968655,0.115453534,-0.087659165,-0.27305678,310.45398,-4.681908,26.030788,BSC
636325691000,3.244811,0.685815212474963,1.51362365479425,13.4428201285077,0.14446963,-0.17134771,-0.29046643,310.5935,-4.72687,25.85159,BSC
636330775000,3.249895,1.26998045886862,2.05916644634606,13.9545684604859,0.19028452,-0.21624629,-0.32253686,310.7505,-4.7832756,25.699724,BSC
636335644000,3.254764,1.88792666426836,2.56206525602691,14.3042259353392,0.22479841,-0.24648413,-0.34697145,311.05023,-4.9564457,25.383636,BSC
636340751000,3.259871,2.63741608818912,3.05563137123902,14.4276171062418,0.204029,-0.28344148,-0.3173445,311.34238,-5.120672,25.09361,BSC
636345654000,3.264774,3.33218515641328,3.48025219721076,14.436662774504,0.1518,-0.30634892,-0.27855456,311.68622,-5.3425107,24.858221,BSC
636350668000,3.269788,3.95941050646239,3.74906306855235,14.0782484435278,0.064751714,-0.3145956,-0.21960606,312.0112,-5.5373693,24.640017,BSC
636355747000,3.274867,4.534646451452,3.95481822520743,13.6648567125642,-0.064446285,-0.33108896,-0.14385876,312.3467,-5.7417154,24.5273,BSC
636360606000,3.279726,4.86558557903991,3.90885450414856,13.0857132512841,-0.20158553,-0.3475823,-0.06047566,312.6565,-5.9056516,24.423813,BSC
636365560000,3.28468,5.16081641333201,3.82160453820783,12.4713770371548,-0.3371976,-0.37384954,0.01740966,312.93915,-6.042175,24.426807,BSC
636370577000,3.289697,5.2180945942281,3.50180139061196,11.7124414019471,-0.4541783,-0.42058071,0.07666359,313.19757,-6.134609,24.441605,BSC
636375587000,3.294707,5.24903456338028,3.15454621690141,10.9526298873239,-0.5540548,-0.4700608,0.13041973,313.3904,-6.1760235,24.532984,BSC
636380603000,3.299723,5.11947635900509,2.63631385034462,10.1800797069224,-0.64812803,-0.53023106,0.18173242,313.56415,-6.1801157,24.639086,BSC
636385571000,3.304691,4.97192404249404,2.10799289681295,9.4284480909452,-0.68477994,-0.5839872,0.22632557,313.67148,-6.1279235,24.80724,BSC
636390589000,3.309709,4.69996059888801,1.4781828050834,8.75569630976966,-0.68936145,-0.59864795,0.27366763,313.76086,-6.0551333,24.977861,BSC
636395562000,3.314682,4.43318467850922,0.884090668988623,8.12550221812475,-0.67103547,-0.6200282,0.2864958,313.78992,-5.9190288,25.20258,BSC
636400587000,3.319707,4.18397732425265,0.506503743390349,7.75924299882307,-0.64904433,-0.61575216,0.31245756,313.79776,-5.779196,25.419777,BSC
636405803000,3.324923,3.92529761085916,0.114564757535504,7.37906228481758,-0.5925393,-0.60048056,0.3136793,313.74136,-5.583512,25.656542,BSC
636410683000,3.329803,3.60163898398119,-0.204262186589342,7.12106140774295,-0.5180137,-0.55955255,0.29932398,313.67712,-5.401687,25.878456,BSC
636415646000,3.334766,3.21921618583072,-0.497287466637409,6.92240019301985,-0.4260785,-0.54367006,0.27214047,313.61383,-5.2445908,26.096521,BSC
636420828000,3.339948,2.92362039103857,-0.703745187052622,6.77843422721724,-0.32620203,-0.50640726,0.21624629,313.51065,-5.0575814,26.290731,BSC
636425726000,3.344846,2.68936635008786,-0.855576487577915,6.66998318502728,-0.23396139,-0.50640726,0.17104226,313.41058,-4.8977556,26.486185,BSC
636430660000,3.34978,2.52129269588692,-0.923724693030078,6.6045094007546,-0.14477506,-0.50640726,0.10567969,313.31372,-4.743939,26.642529,BSC
636435679000,3.354799,2.41401395796578,-0.913507680785418,6.57896685680731,-0.055588737,-0.49296826,0.06780604,313.2203,-4.617822,26.791756,BSC
636440664000,3.359784,2.38965711288896,-0.878143992525529,6.66221249123583,0.004886922,-0.46181414,0.027794369,313.13837,-4.4989824,26.914564,BSC
636445705000,3.364825,2.41294728678942,-0.827681912595481,6.80971704753558,0.05467244,-0.41905355,-0.015271631,313.06726,-4.4060874,27.026915,BSC
636450800000,3.36992,2.45005565476829,-0.777499655035467,6.96155270231715,0.10567969,-0.3848451,-0.043982297,313.00928,-4.3353915,27.118874,BSC
636455724000,3.374844,2.5504037710041,-0.732900482346312,7.12136653995902,0.1386664,-0.3744604,-0.051923547,312.95682,-4.275736,27.203117,BSC
636460736000,3.379856,2.65254527355769,-0.687504248894231,7.28403651442308,0.17562376,-0.34666604,-0.06047566,312.92236,-4.24423,27.262192,BSC
636465692000,3.384812,2.77704578508786,-0.63552659605034,7.45693066352699,0.22082779,-0.34788775,-0.049480084,312.88397,-4.2213926,27.325394,BSC
636470731000,3.389851,2.91837302350799,-0.578231762118094,7.64027408424885,0.2657264,-0.3726278,-0.031154128,312.8452,-4.2075815,27.386072,BSC
636475678000,3.394798,3.07866473257945,-0.509600643388179,7.82188556282159,0.31795537,-0.39492437,-0.0076358155,312.80954,-4.2080936,27.450068,BSC
636480746000,3.399866,3.48264914196233,-0.301487457515974,8.02591768651421,0.3640757,-0.41813725,0.02687807,312.76453,-4.2137494,27.520647,BSC
636485626000,3.404746,3.87164754720868,-0.101094334576677,8.22238113632083,0.42210788,-0.43157628,0.029932396,312.7229,-4.2439723,27.596174,BSC
636490924000,3.410044,4.15346479189868,0.0736482687612436,8.28660266080792,0.45875978,-0.40530908,0.010079277,312.6766,-4.277508,27.66563,BSC
636495792000,3.414912,4.36003692131305,0.218248787032863,8.29004559973414,0.45142943,-0.3933972,-0.013439035,312.63074,-4.312907,27.741343,BSC
636501058000,3.420178,4.58418919302361,0.376225573273653,8.28468514462108,0.43127087,-0.35888332,-0.03756821,312.60693,-4.3815136,27.843863,BSC
636505718000,3.424838,4.79083178277512,0.534651583923445,8.17103192344497,0.3643811,-0.3387248,-0.041233405,312.58313,-4.4339643,27.944315,BSC
636510709000,3.429829,5.01215220454545,0.704330600909091,8.04930590909091,0.35216382,-0.30848694,-0.05467244,312.58667,-4.52576,28.067278,BSC
636515699000,3.434819,5.25632819015514,0.881120378515297,7.88945308322459,0.29229903,-0.28771752,-0.044593163,312.58167,-4.582508,28.183704,BSC
636520698000,3.439818,5.53398215963462,1.06853672274902,7.67427139277947,0.2519819,-0.26419923,-0.01863139,312.57336,-4.6376667,28.287245,BSC
636525643000,3.444763,5.80863686639119,1.25392856556474,7.46141412947658,0.20280726,-0.22693644,-0.007941248,312.57578,-4.702381,28.418407,BSC
636530736000,3.449856,5.90333390366123,1.37715920308778,7.40038599894133,0.17837265,-0.18661933,0.01160644,312.56454,-4.755552,28.538866,BSC
636535708000,3.454828,5.89493216674019,1.46117481773269,7.42559077106308,0.17715092,-0.16554448,0.028405234,312.5489,-4.798823,28.650843,BSC
636540663000,3.459783,5.84679480557146,1.54920603919099,7.58374369376073,0.19822577,-0.14538592,0.040927973,312.53528,-4.866619,28.810274,BSC
636545643000,3.464763,5.73304632245755,1.64475486002671,7.96138846765884,0.21197024,-0.11453723,0.04337143,312.51788,-4.9294114,28.957516,BSC
636550768000,3.469888,5.62587805570883,1.72646737214559,8.41781026050509,0.22571471,-0.11759156,0.039095376,312.52023,-5.0122423,29.104927,BSC
636555848000,3.474968,5.54328008032682,1.76776635983659,9.03213287086163,0.2134974,-0.13591751,0.027488936,312.5229,-5.0903144,29.244867,BSC
636560627000,3.479747,5.49532990201647,1.81546177639875,9.57775623175234,0.1863139,-0.18570304,0.015882496,312.56543,-5.189583,29.3513,BSC
636565704000,3.484824,5.4907268130266,1.87990372452902,10.1071008915081,0.1591304,-0.25473082,0.012217305,312.60898,-5.2830834,29.465586,BSC
636570671000,3.489791,5.49625247973532,1.94741875412186,10.56445127571,0.12461651,-0.31887165,0.005192355,312.6885,-5.377973,29.54687,BSC
636575689000,3.494809,5.52716845106148,2.02691658399044,10.8736091442882,0.09437868,-0.3735441,0.013744468,312.76425,-5.462034,29.64233,BSC
636580722000,3.499842,5.54857148246966,2.09134428246966,11.1490329335388,0.03634648,-0.41874814,0.0125227375,312.8729,-5.547173,29.716364,BSC
636585685000,3.504805,5.49821247312657,2.04098527312657,11.1627669915238,-0.026267206,-0.42943826,0.0106901415,312.97717,-5.6190643,29.793163,BSC
636590841000,3.509961,5.44388617983651,1.98213967436989,11.1575241294278,-0.08368854,-0.42394048,-0.002443461,313.10834,-5.69567,29.861782,BSC
636595668000,3.514788,5.36516136103542,1.83649863628236,10.881987263624,-0.1432479,-0.40744713,-0.0106901415,313.23572,-5.7530026,29.927416,BSC
636600695000,3.519815,5.2831746893733,1.68482316529292,10.5950339128065,-0.160963,-0.34880406,-0.032070424,313.36298,-5.807735,29.973326,BSC
636606415000,3.525535,5.22810530370439,1.54894861818773,10.1694921885619,-0.19730948,-0.267559,-0.042760566,313.48563,-5.841405,30.005966,BSC
636610659000,3.529779,5.19791766196268,1.45838549595209,9.82610723674682,-0.21960606,-0.17898351,-0.059864793,313.6126,-5.877005,30.017305,BSC
636615697000,3.534817,5.19786171103159,1.30693624732231,9.31909819299112,-0.21624629,-0.11881329,-0.07086037,313.70834,-5.8913,30.030611,BSC
636620685000,3.539805,5.22929903650049,1.11831194572639,8.72964675041132,-0.20738874,-0.06811147,-0.0729984,313.8025,-5.902709,30.020597,BSC
636625668000,3.544788,5.257667,0.94810385,8.197746,-0.20189096,-0.03573562,-0.08002335,313.87912,-5.905158,30.0312,BSC
636630747000,3.549867,5.257667,0.94810385,8.197746,-0.1908954,0.0009162979,-0.081855945,313.95175,-5.9110317,30.02564,BSC
636635699000,3.554819,5.26947152961417,0.925478486165123,8.11314685055482,-0.17989981,0.02443461,-0.07422013,313.97125,-5.8907514,30.07802,BSC
636640733000,3.559853,5.32836548608368,0.812598326061285,7.69107339336252,-0.1704314,0.05589417,-0.07269296,313.99075,-5.874516,30.115803,BSC
636645700000,3.56482,5.36901695233682,0.72337274042102,7.35271113266829,-0.15760323,0.08979719,-0.06627888,314.00446,-5.8605127,30.145277,BSC
636650712000,3.569832,5.35393599354332,0.704521541929149,7.26222545864425,-0.15699236,0.10842858,-0.050701816,314.01346,-5.844695,30.16948,BSC
636655644000,3.574764,5.33909575236823,0.685971240460294,7.17318408907391,-0.13133603,0.1414153,-0.03970624,313.9879,-5.8164587,30.213324,BSC
636660687000,3.579807,5.31548094479711,0.676819885346384,7.13176421051031,-0.11362094,0.15302174,-0.028710667,313.9572,-5.7848945,30.257565,BSC
636665686000,3.584806,5.28818397251734,0.672270382048845,7.1135660072983,-0.09621128,0.16982053,-0.027488936,313.9246,-5.75999,30.290358,BSC
636670716000,3.589836,5.24908898043991,0.675922843912019,7.1059904,-0.0720821,0.18784106,-0.023823744,313.8922,-5.740663,30.33648,BSC
636675662000,3.594782,5.20257793095051,0.685225053809898,7.1059904,-0.055588737,0.1872302,-0.018020526,313.8585,-5.7234907,30.382442,BSC
636680657000,3.599777,5.17852346418114,0.714822740778841,7.10093192836229,-0.021991149,0.1872302,-0.019547688,313.82596,-5.721199,30.422382,BSC
636685695000,3.604815,5.17381456172165,0.76191229149717,7.09151412344329,-0.004581489,0.19547687,-0.01282817,313.7882,-5.716731,30.459997,BSC
636690679000,3.609799,5.18122243988847,0.812588217971133,7.10632994083976,0.011911872,0.20250183,-0.01282817,313.75983,-5.724973,30.493374,BSC
636695678000,3.614798,5.20085275938986,0.867553145371494,7.14559070282926,0.018936822,0.19883664,-0.014049901,313.7293,-5.7336926,30.527124,BSC
636700869000,3.619989,5.21822820677435,0.921637030542278,7.19128234725564,0.03726278,0.20097467,-0.0009162979,313.7008,-5.751525,30.554415,BSC
636705692000,3.624812,5.20680846048294,0.944476463503379,7.27883339100874,0.04886922,0.18448131,0.008857546,313.67432,-5.769242,30.58752,BSC
636710661000,3.629781,5.19504302002637,0.968007282989946,7.36903474626669,0.07819075,0.17989981,0.01863139,313.65378,-5.801794,30.614594,BSC
636715680000,3.6348,5.0836313251509,0.988993174849095,7.57309594945674,0.090713486,0.16249016,0.03573562,313.6283,-5.8293934,30.65012,BSC
636720700000,3.63982,4.91338383299799,1.00833946700201,7.84394420120724,0.10873401,0.13194689,0.04734206,313.6017,-5.8635764,30.69037,BSC
636725767000,3.644887,4.7496681382748,1.0273292171686,8.10000991290565,0.13897185,0.1282817,0.048563786,313.58047,-5.9063907,30.717295,BSC
636730662000,3.649782,4.63234474397264,1.04297235002086,8.26035209610411,0.16371189,0.1255328,0.04734206,313.55692,-5.9492903,30.752253,BSC
636735655000,3.654775,4.51267248498373,1.05892866510386,8.42390439859848,0.18509217,0.13316862,0.04153884,313.5619,-6.0083084,30.735806,BSC
636740682000,3.659802,4.41198343425253,1.0884663632559,8.60900196125199,0.18295415,0.13652839,0.03726278,313.56674,-6.0656714,30.72177,BSC
636746288000,3.665408,4.30725517241532,1.12654938563575,8.82321846506473,0.17684549,0.14446963,0.02565634,313.57513,-6.127213,30.704256,BSC
636750799000,3.669919,4.24316951101863,1.16304535045872,8.99515546703868,0.18295415,0.14263703,0.01740966,313.60034,-6.195982,30.654703,BSC
636755685000,3.674805,4.19006169942306,1.20730175229358,9.1810323455027,0.16401732,0.14508049,0.010079277,313.62833,-6.2569737,30.602606,BSC
636760642000,3.679762,4.15792825355123,1.2561336292269,9.33096457044087,0.12522738,0.14782938,-0.0012217305,313.6801,-6.324013,30.523182,BSC
636765682000,3.684802,4.16226214670019,1.31247487372722,9.41764379105684,0.10720685,0.1328632,-0.0067195175,313.7326,-6.390106,30.449833,BSC
636770717000,3.689837,4.17133061475983,1.37014415737991,9.49001377816594,0.07819075,0.12858713,-0.013133603,313.8048,-6.452956,30.350748,BSC
636775716000,3.694836,4.20554040501786,1.4347622752362,9.48621263302898,0.04886922,0.12797627,-0.016493361,313.87772,-6.510323,30.256891,BSC
636780719000,3.699839,4.23977756858277,1.49943209792775,9.48240844636761,0.022907447,0.124311075,-0.018020526,313.963,-6.567351,30.156452,BSC
636785725000,3.704845,4.26070011923436,1.51984631353875,9.43231896008403,0.0070249503,0.11911872,-0.013133603,314.0468,-6.6181593,30.05898,BSC
636790711000,3.709831,4.27407554141923,1.51538787051354,9.35652547521008,-0.020463986,0.10934488,-0.014966198,314.13318,-6.6600647,29.965708,BSC
636795701000,3.714821,4.280833,1.48976791891972,9.27149836703861,-0.028710667,0.101098195,-0.0106901415,314.22723,-6.7106256,29.880196,BSC
636800761000,3.719881,4.280833,1.44191706733485,9.17579631411079,-0.0421497,0.08582657,-0.011911872,314.32382,-6.7534437,29.801006,BSC
636805737000,3.724857,4.27608835803497,1.39127248938385,9.06501789300583,-0.050701816,0.0693332,-0.0125227375,314.41043,-6.79447,29.730684,BSC
636810687000,3.729807,4.26622030016653,1.33699925301832,8.93673571669442,-0.058643065,0.055283304,-0.011911872,314.49704,-6.831774,29.665482,BSC
636816189000,3.735309,4.2514162637527,1.2658399921888,8.81868893169354,-0.080634214,0.050701816,-0.0106901415,314.57556,-6.8550463,29.612833,BSC
636820699000,3.739819,4.23705989263753,1.20123590992189,8.73613932931694,-0.07788532,0.04153884,-0.014660766,314.65594,-6.8829446,29.566177,BSC
636825683000,3.744803,4.22230669975606,1.13005229224264,8.64837845348837,-0.083383106,0.03573562,-0.005497787,314.72083,-6.8940315,29.530258,BSC
636830737000,3.749857,4.21443531462026,1.05920978492438,8.58147172093023,-0.08032878,0.030848695,0.0033597588,314.78705,-6.908628,29.49703,BSC
636835653000,3.754773,4.20677885848105,0.990301639697512,8.51639188372093,-0.07452556,0.02321288,0.004581489,314.83228,-6.9125724,29.470955,BSC
636840698000,3.759818,4.19825477156459,0.949366415422503,8.44691841206628,-0.082161374,0.022602014,0.008552114,314.87347,-6.912599,29.445175,BSC
636845697000,3.764817,4.18948906190607,0.923068993545729,8.37679191101346,-0.06536258,0.027488936,0.011301007,314.9146,-6.920412,29.42037,BSC
636850676000,3.769796,4.18733637900531,0.893896660679865,8.32322744616127,-0.06291912,0.025961773,0.013133603,314.93976,-6.910274,29.40516,BSC
636855677000,3.774797,4.19196144676002,0.861520481282472,8.2862258416224,-0.057421334,0.037873644,0.01863139,314.96198,-6.904599,29.385296,BSC
636860665000,3.779785,4.20268969670285,0.84477101367109,8.27081995697628,-0.06688975,0.031154128,0.019242255,314.98132,-6.8895698,29.37515,BSC
636865677000,3.784797,4.22198972573382,0.849595995737837,8.28529470164857,-0.06352998,0.029626964,0.014049901,315.0001,-6.8796816,29.360434,BSC
636870732000,3.789852,4.232949,0.848268283906941,8.29148019948087,-0.06261369,0.021685716,0.023518313,315.00662,-6.8598313,29.353498,BSC
636875711000,3.794831,4.232949,0.839100260988271,8.28689609228994,-0.054061573,0.015882496,0.02076942,315.0189,-6.845808,29.345882,BSC
636880656000,3.799776,4.24055054108584,0.830141577215701,8.27481527769626,-0.051923547,0.010995574,0.023823744,315.0277,-6.8290076,29.343641,BSC
636885677000,3.804797,4.26259984079237,0.82132183891416,8.248356486427,-0.04153884,-0.002443461,0.02687807,315.03806,-6.817307,29.345367,BSC
636890671000,3.809791,4.28251325699799,0.812908373657012,8.22815725699799,-0.03390302,-0.009162978,0.027794369,315.0465,-6.801061,29.34549,BSC
636895732000,3.814852,4.29261275897757,0.806175282110856,8.23825675897757,-0.024740042,-0.011911872,0.028099801,315.05457,-6.787973,29.348284,BSC
636900677000,3.819797,4.30248077662013,0.799596515524068,8.24812477662013,-0.01038471,-0.016187929,0.032070424,315.05597,-6.776167,29.358011,BSC
636905647000,3.824767,4.30815877457435,0.796279223285523,8.26222827375916,0.009162978,-0.020158553,0.041233405,315.05566,-6.7675376,29.368385,BSC
636910804000,3.829924,4.30306265175936,0.801375447207718,8.2877094199773,0.018020526,-0.022602014,0.037873644,315.0582,-6.761298,29.378931,BSC
636915606000,3.834726,4.29491815633715,0.805718814300486,8.30942640380699,0.03726278,-0.025961773,0.03848451,315.04922,-6.757924,29.387636,BSC
636920695000,3.839815,4.2796474091493,0.809536481165596,8.32851513676954,0.043676864,-0.027488936,0.028099801,315.04498,-6.755687,29.39579,BSC
636925650000,3.84477,4.2647787606298,0.813253623888454,8.34710123852421,0.050701816,-0.014966198,0.028710667,315.03708,-6.756697,29.397219,BSC
636931441000,3.850561,4.25731574587762,0.831481959207124,8.36842928985924,0.049785517,-0.019547688,0.025961773,315.0345,-6.759164,29.403305,BSC
636935616000,3.854736,4.25348712335536,0.846796785119219,8.38374401982189,0.061086524,-0.016493361,0.022296581,315.03113,-6.7663217,29.403656,BSC
636940720000,3.85984,4.25762357728585,0.860617565928778,8.40860723580366,0.071776666,-0.014049901,0.025045475,315.02676,-6.774219,29.398905,BSC
636945666000,3.864786,4.26522172499198,0.872014787487969,8.43520091145332,0.064751714,-0.0106901415,0.017715093,315.02673,-6.782207,29.39265,BSC
636950792000,3.869912,4.27958249125071,0.884766876195468,8.456321,0.058337633,-0.022602014,0.010079277,315.03113,-6.7947497,29.387642,BSC
636955696000,3.874816,4.31366689283122,0.899915554044029,8.456321,0.06811147,-0.022907447,0.014966198,315.03314,-6.808528,29.378834,BSC
636960601000,3.879721,4.34775824473833,0.915067320937828,8.456321,0.06841691,-0.014660766,0.016187929,315.04025,-6.8238072,29.369373,BSC
636965750000,3.88487,4.3708292878833,0.935432209433611,8.4697032878833,0.06505715,-0.0106901415,0.0067195175,315.04944,-6.8409743,29.361153,BSC
636970750000,3.88987,4.38864857933909,0.956815377787288,8.48752257933909,0.046120327,0.006414085,0.0143553335,315.05164,-6.8513107,29.347805,BSC
636975728000,3.894848,4.40579686265662,0.978464813217591,8.50443793497666,0.04153884,0.00030543262,0.019242255,315.0551,-6.864444,29.340445,BSC
636980720000,3.89984,4.41362711983458,1.0058706111375,8.5083531248874,0.047036625,0.007330383,0.010995574,315.0591,-6.8759303,29.324688,BSC
636985738000,3.904858,4.421498159602,1.03341914758824,8.51228870641225,0.042455133,0.01863139,0.009162978,315.06387,-6.886569,29.311895,BSC
636990702000,3.909822,4.45624361337331,1.05657556534932,8.54554080283217,0.0421497,0.023823744,0.015271631,315.06866,-6.8993344,29.299143,BSC
636995689000,3.914809,4.50800233918792,1.07727905567517,8.59729934849361,0.019242255,0.01038471,0.004581489,315.07986,-6.9076505,29.288118,LYI
637001736000,3.920856,4.56751293005235,1.10154072331588,8.65951273315884,0.02321288,0.01282817,0.010079277,315.08612,-6.924216,29.270634,LYI
637005718000,3.924838,4.55769533348494,1.10481325550502,8.6922380550502,0.008552114,0.018325957,0.013439035,315.09692,-6.9319806,29.255913,LYI
637010748000,3.929868,4.54529389934781,1.10894706688406,8.73357616884064,0.0033597588,0.0012217305,0.0036651916,315.11072,-6.9471736,29.250431,LYI
637015694000,3.934814,4.53279963377832,1.10595461326861,8.74659479928533,-0.010995574,-0.010995574,0.006414085,315.1188,-6.9539037,29.24291,LYI
637020788000,3.939908,4.51964312176375,1.09608725501618,8.73343821858144,-0.003970624,-0.022907447,0.0012217305,315.1333,-6.966912,29.239563,LYI
637025656000,3.944776,4.5070703105178,1.08665767119741,8.72086534169364,-0.013133603,-0.030848695,0.008246681,315.14587,-6.97246,29.234049,LYI
637030778000,3.949898,4.48562711738214,1.07960054840935,8.67621422614028,-0.022602014,-0.03176499,0.0070249503,315.16284,-6.981297,29.229382,LYI
637035715000,3.954835,4.45844395564392,1.07507001356842,8.60825620352626,-0.022907447,-0.039095376,0.007330383,315.17746,-6.9887395,29.229078,LYI
637040736000,3.959856,4.44976450973803,1.06800774269648,8.55592647565492,-0.02565634,-0.03390302,0.00580322,315.19012,-6.9938426,29.224874,LYI
637045688000,3.964808,4.46277351086271,1.05825099185297,8.52340397284323,-0.030543262,-0.032070424,0.008857546,315.20154,-6.9975305,29.22381,LYI
637050682000,3.969802,4.47589284681114,1.04841148989165,8.49060563297216,-0.03390302,-0.02321288,0.0067195175,315.2155,-7.002488,29.221527,LYI
637055626000,3.974746,4.48643500013318,1.04836152357276,8.45751599946728,-0.035430185,-0.0143553335,0.0015271631,315.2293,-7.006652,29.218641,LYI
637060740000,3.97986,4.49513170607298,1.05705827491787,8.42272917570807,-0.03268129,-0.017104227,0.00061086525,315.2424,-7.0107265,29.216621,LYI
637065587000,3.984707,4.50015418178735,1.05924627782038,8.39602555522784,-0.032375857,-0.0067195175,-0.00061086525,315.24768,-7.014618,29.21352,LYI
637071413000,3.990533,4.49604019755198,1.0427901260876,8.38368364548002,-0.022296581,-0.0067195175,0.0015271631,315.250916345026,-7.01964562436649,29.2123806212859,LYI
637075650000,3.99477,4.49304827321192,1.0308222725188,8.37470790370152,-0.015577064,0.0021380284,-0.0015271631,315.25327,-7.023302,29.211552,LYI
637080639000,3.999759,4.48210776585557,1.01765741782393,8.37013,-0.015271631,0.002443461,-0.0033597588,315.2594,-7.0258026,29.210632,LYI
637085739000,4.004859,4.46512964558095,1.00492386085861,8.37013,-0.010995574,0.0027488936,0.0036651916,315.26248,-7.0322165,29.20759,LYI
637090607000,4.009727,4.45050748744699,0.991475358659892,8.36922747382658,-0.01985312,-0.0033597588,-0.0036651916,315.26743,-7.038664,29.208605,LYI
637095684000,4.014804,4.43984337477701,0.973701757120924,8.36567268299459,-0.0033597588,-0.003970624,0.004581489,315.2647,-7.0490847,29.208902,LYI
637100749000,4.019869,4.42920446780962,0.955970165276356,8.36212629426817,-0.00061086525,-0.0076358155,-0.0015271631,315.27087,-7.059197,29.213005,LYI
637105660000,4.02478,4.4244847,0.946072915817545,8.35852202340392,-0.0030543262,-0.008552114,-0.005497787,315.2734,-7.0703325,29.216824,LYI
637110735000,4.029855,4.4244847,0.942203925210954,8.35465295199809,0.009468411,-0.01282817,0.0036651916,315.27393,-7.0845337,29.222788,LYI
637115889000,4.035009,4.42388755629651,0.93852705,8.35246885146463,0.013439035,-0.014049901,0.002443461,315.27692,-7.094576,29.227789,LYI
637120740000,4.03986,4.41513606353019,0.93852705,8.37434746915324,0.024129177,-0.005497787,0.0076358155,315.2745,-7.106909,29.231714,LYI
637125762000,4.044882,4.40607607658472,0.93852705,8.39699731826316,0.0106901415,0.0009162979,-0.00030543262,315.27463,-7.117961,29.236883,LYI
637130667000,4.049787,4.405331,0.934191769782324,8.43354206066714,0.01740966,-0.0027488936,0.004886922,315.2688,-7.133643,29.243143,LYI
637135699000,4.054819,4.405331,0.929335329431623,8.47239338063086,0.018325957,0.00030543262,0.00580322,315.26627,-7.1458726,29.245136,LYI
637140689000,4.059809,4.41884187480794,0.939758963954275,8.48628292557311,0.010079277,0.00030543262,-0.0012217305,315.26917,-7.1547813,29.2467,LYI
637145635000,4.064755,4.43339748073259,0.951403463892815,8.49792765349395,0.021685716,0.005192355,-0.0027488936,315.26953,-7.1676683,29.246265,LYI
637150667000,4.069787,4.4482061764489,0.963250435928953,8.50977485747649,0.022296581,0.012217305,-0.0027488936,315.270746735705,-7.17056926719849,29.2459154378159,LYI
637155726000,4.074846,4.46173140516556,0.975773875523179,8.51662055470199,0.013439035,0.0015271631,-0.0027488936,315.27197,-7.1734858,29.245564,LYI
637160707000,4.079827,4.47436775134658,0.988410177721854,8.52083230357616,0.00580322,0.0021380284,-0.009468411,315.2766,-7.183215,29.242008,LYI
637165702000,4.084822,4.4901846664096,0.9959879,8.52665373538989,0.010995574,0.0067195175,0.0033597588,315.27908,-7.193618,29.242682,LYI
637170796000,4.089916,4.51108621705227,0.9959879,8.5350145302485,0.011301007,0.010079277,0.00030543262,315.28876,-7.203838,29.242529,LYI
637175776000,4.094896,4.53152600289154,0.9959879,8.542512,0.01282817,0.007330383,0.005192355,315.2955,-7.214243,29.246706,LYI
637180731000,4.099851,4.55192933257014,0.9959879,8.542512,-0.0015271631,-0.0018325958,0.0009162979,315.30615,-7.222197,29.25115,LYI
637185827000,4.104947,4.5650534116292,0.998043425580535,8.53840097030253,0.004886922,0.0033597588,0.0027488936,315.31018,-7.228853,29.25245,LYI
637190746000,4.109866,4.55197867413267,1.00675991724489,8.52096807799056,0.007941248,-0.0015271631,0.0027488936,315.31702,-7.2319064,29.258776,LYI
637195870000,4.11499,4.53876069144495,1.01546430427753,8.50388218898109,0.0015271631,-0.0070249503,0.008246681,315.3223,-7.2299376,29.267529,LYI
637200792000,4.119912,4.53069550030798,1.01949689984601,8.49984950919668,0.009773844,-0.0070249503,0.004581489,315.3304,-7.2336545,29.27545,LYI
637205712000,4.124832,4.5226335863718,1.0235278568141,8.49581846804688,0.00061086525,-0.0033597588,0.007330383,315.33868,-7.2339,29.285582,LYI
637210740000,4.12986,4.54251967203382,1.02789929600483,8.49144693756388,0.002443461,-0.004886922,0.0015271631,315.351,-7.240527,29.296324,LYI
637215747000,4.134867,4.57370588992846,1.03235446998978,8.48699167053795,-0.0070249503,-0.0106901415,-0.0076358155,315.36334,-7.242084,29.306889,LYI
637220808000,4.139928,4.5872903,1.0290807727479,8.48244378192646,-0.0070249503,-0.015882496,-0.002443461,315.369262231231,-7.24349287297297,29.3110507732733,LYI
637225737000,4.144857,4.5872903,1.02015666891956,8.47798163682768,-0.002443461,-0.014660766,-0.0033597588,315.37503,-7.244865,29.315104,LYI
637230645000,4.149765,4.58936245712985,1.02343023670681,8.4775462220423,0.0015271631,-0.0067195175,0.0030543262,315.3885,-7.246162,29.320969,LYI
637235798000,4.154918,4.59435676287825,1.0434077204534,8.48254068424249,0.009773844,-0.007941248,0.0030543262,315.391199515915,-7.24571452960875,29.3233503830902,LYI
637240612000,4.159732,4.58968726226192,1.0534488,8.48684598129108,-0.0015271631,0.0015271631,0.0030543262,315.393721438992,-7.24529649691645,29.325575102321,LYI
637245725000,4.164845,4.57318096772291,1.0534488,8.49097266264959,-0.005497787,0.007330383,0.00580322,315.3964,-7.2448525,29.327938,LYI
637250694000,4.169814,4.55695321143947,1.05304710390848,8.49543140896092,-0.00580322,0.011911872,0.007941248,315.40143,-7.245671,29.337736,LYI
637256510000,4.17563,4.53571438810296,1.04773741193518,8.50605101468065,-0.0009162979,0.013744468,0.007941248,315.408548995266,-7.24700096541397,29.340828015071,LYI
637261045000,4.180165,4.52047880532591,1.04409810532591,8.513782,0.0012217305,0.022602014,0.0027488936,315.4141,-7.248038,29.343239,LYI
637265705000,4.184825,4.52397930638482,1.04759860638481,8.513782,-0.002443461,0.026572637,0.0061086523,315.42407,-7.2489786,29.34699,LYI
637270615000,4.189735,4.52766760256491,1.05128690256491,8.513782,-0.01282817,0.024740042,0.00061086525,315.44104,-7.2488227,29.345407,LYI
637275640000,4.19476,4.52350678746412,1.05766392701927,8.50113657492825,-0.015577064,0.029321533,0.005192355,315.45303,-7.247843,29.34142,LYI
637280674000,4.199794,4.50868213217507,1.06754699614596,8.47148726435015,-0.018325957,0.023518313,0.002443461,315.4696,-7.246243,29.34032,LYI
637285629000,4.204749,4.49653636062456,1.07032106840156,8.46772765799219,-0.023823744,0.022296581,0.008246681,315.47784,-7.240974,29.33369,LYI
637290871000,4.209991,4.48648705154639,1.06529638762887,8.49285106185567,-0.02321288,0.022296581,0.008552114,315.4889,-7.237907,29.328089,LYI
637295715000,4.214835,4.49440196667251,1.05264518942805,8.4917484899711,-0.019242255,0.012217305,0.01282817,315.49615,-7.2355967,29.323334,LYI
637300754000,4.219874,4.51976282952615,1.03151109291408,8.46638753884558,-0.014049901,0.008552114,0.0061086523,315.50656,-7.2354174,29.316484,LYI
