timestamp,rel_time,acc_x,acc_y,acc_z,gyro_x,gyro_y,gyro_z,azimuth,pitch,roll,label
8227523684000,0,-2.19967763077687,9.58364030159748,-0.981230969922834,0.030848695,0.08246681,-0.0030543262,96.53778,-50.425594,7.4418516,STD
8227528680000,0.004996,-2.2144173140245,9.57888556826911,-0.993831022179722,0.03756821,0.06963864,-0.0030543262,96.41826,-50.990242,7.3232822,STD
8227533667000,0.009983,-2.22913044460013,9.57413940031303,-1.00640837618395,0.043676864,0.06811147,-0.010995574,96.301865,-51.54895,7.204589,STD
8227538679000,0.014995,-2.24391733259795,9.56936943965616,-1.01904878089002,0.04917465,0.055283304,-0.0033597588,96.187126,-52.10032,7.094941,STD
8227543691000,0.020007,-2.25088071118238,9.56901800688485,-1.02902275712627,0.053145275,0.046120327,-0.006414085,96.07408,-52.645947,6.9819846,STD
8227548665000,0.024981,-2.25147656755763,9.57223564300832,-1.03676891115887,0.05467244,0.03970624,-0.004581489,95.96008,-53.183628,6.874863,STD
8227553695000,0.030011,-2.25207913240835,9.57548950503105,-1.04460227561081,0.056505036,0.034208454,-0.0015271631,95.86663,-53.768524,6.719614,STD
8227558684000,0.035,-2.25267678569667,9.57871684452039,-1.05237178957715,0.058948494,0.031154128,-0.0067195175,95.77451,-54.34698,6.5651364,STD
8227563746000,0.040062,-2.25328318396194,9.58199140705698,-1.06025498855443,0.058643065,0.025961773,-0.006414085,95.68215,-54.917286,6.4155087,STD
8227568713000,0.045029,-2.25387820177775,9.58520451494303,-1.06799024128461,0.056199603,0.021991149,-0.0036651916,95.58998,-55.48041,6.267177,STD
8227573682000,0.049998,-2.25447345918197,9.58841891661121,-1.07572860867261,0.06169739,0.03756821,-0.004886922,95.4942,-56.038452,6.1173215,STD
8227578680000,0.054996,-2.25507219061814,9.59165207812008,-1.08351213859921,0.053450707,0.038179077,-0.009162978,95.40216,-56.58453,5.9719367,STD
8227583665000,0.059981,-2.25566936472963,9.59487683004518,-1.09127542324989,0.044898596,0.04917465,-0.0061086523,95.302,-57.12433,5.825598,STD
8227588692000,0.065008,-2.25627157019774,9.59812875139473,-1.09910411571508,0.043676864,0.06841691,-0.010079277,95.20046,-57.657116,5.676892,STD
8227593681000,0.069997,-2.25686922348606,9.60135609088407,-1.10687362968143,0.03481932,0.07269296,-0.009468411,95.09776,-58.177643,5.532379,STD
8227598683000,0.074999,-2.25746843409904,9.60459183995717,-1.11466338892369,0.038179077,0.087964594,-0.00580322,94.9868,-58.694077,5.3849864,STD
8227603724000,0.08004,-2.25807231668601,9.60785281778153,-1.12251388399372,0.03390302,0.1020145,-0.010995574,94.875244,-59.19912,5.237043,STD
8227610194000,0.08651,-2.25884738519181,9.61203820292807,-1.13258980208597,0.023518313,0.10781772,-0.008246681,94.75922,-59.69565,5.092896,STD
8227613690000,0.090006,-2.25926618573219,9.61429973406752,-1.13803422397941,0.029321533,0.099571034,-0.0036651916,94.64267,-60.188644,4.9499335,STD
8227618713000,0.095029,-2.25986791202348,9.61754906785284,-1.14585668712893,0.0290161,0.115453534,-0.006414085,94.518234,-60.670227,4.803685,STD
8227623684000,0.1,-2.26046340901611,9.62076476330313,-1.15359816917477,0.032070424,0.12034045,-0.011301007,94.39724,-61.14731,4.6627827,STD
8227628676000,0.104992,-2.26106142168704,9.62399404346564,-1.16137235512787,0.032375857,0.116980694,0.005192355,94.270775,-61.61573,4.527611,STD
8227633793000,0.110109,-2.26167440863359,9.62730418501043,-1.16934120719557,0.022907447,0.111177474,0.004276057,94.14573,-62.076447,4.3886003,STD
8227638689000,0.115005,-2.26226092106085,9.63047136363136,-1.17696588957265,0.02321288,0.09712757,0.004276057,94.02035,-62.532364,4.257576,STD
8227643681000,0.119997,-2.26285893373178,9.63370064379387,-1.18474007552575,0.025961773,0.09040806,0.004581489,93.89372,-62.979614,4.1282163,STD
8227648674000,0.12499,-2.26345706619692,9.63693057084745,-1.19251581880776,0.027794369,0.07696902,0.014966198,93.77024,-63.419563,4.006077,STD
8227653724000,0.13004,-2.26406202693174,9.64019737069134,-1.20038032983804,0.028405234,0.056505036,0.0070249503,93.65171,-63.854107,3.8829596,STD
8227658688000,0.135004,-2.26465668536493,9.64340853790422,-1.20811091058146,0.032375857,0.044593163,0.012217305,93.53064,-64.2825,3.7683086,STD
8227663681000,0.139997,-2.26525481783007,9.64663846495779,-1.21588665386347,0.03390302,0.0421497,0.0125227375,93.413185,-64.7044,3.6534994,STD
8227668722000,0.145038,-2.26585870041704,9.64989944278216,-1.2237371489335,0.029321533,0.029321533,0.018020526,93.299416,-65.11873,3.5457973,STD
8227673683000,0.149999,-2.26645299946762,9.65310866932187,-1.23146305769017,0.028710667,0.028405234,0.02107485,93.18265,-65.52827,3.4380903,STD
8227678677000,0.154993,-2.26705125172697,9.6563392432665,-1.2392403583011,0.020463986,0.03268129,0.018325957,93.0671,-65.927986,3.332836,STD
8227683669000,0.159985,-2.2676492643979,9.65956852342902,-1.2470145442542,0.025045475,0.02687807,0.02687807,92.952034,-66.324295,3.2342014,STD
8227688692000,0.165008,-2.26825099068919,9.66281785721434,-1.25483700740372,0.015577064,0.027794369,0.027183503,92.834595,-66.70855,3.1330268,STD
8227693681000,0.169997,-2.2688486439775,9.66604519670368,-1.26260652137007,0.0067195175,0.035124753,0.01985312,92.71611,-67.08811,3.033572,STD
8227698670000,0.174986,-2.26944629726582,9.66927253619302,-1.27037603533641,0.0076358155,0.046731193,0.020158553,92.59466,-67.461426,2.9372025,STD
8227703743000,0.180059,-2.27005401326735,9.67255421453125,-1.27827636493178,-0.0067195175,0.047647487,0.013133603,92.47498,-67.82255,2.8388934,STD
8227708684000,0.185,-2.27064591643384,9.67575050324979,-1.28597112711011,-0.0070249503,0.06963864,0.009773844,92.34547,-68.18194,2.7397552,STD
8227713678000,0.189994,-2.27124416869318,9.67898107719442,-1.29374842772104,-0.013133603,0.086437434,0.0036651916,92.21739,-68.53026,2.6401534,STD
8227718709000,0.195025,-2.2718468533381,9.68223558610821,-1.3015833495019,-0.005497787,0.09407325,0.004886922,92.08478,-68.876625,2.5419765,STD
8227723687000,0.200003,-2.27244318889017,9.6854558097959,-1.30933573285016,-0.005497787,0.105374254,0.0012217305,91.94711,-69.21396,2.4405465,STD
8227728687000,0.205003,-2.27304215991474,9.68869026508689,-1.31712237743459,0.0021380284,0.122783914,0.00580322,91.80411,-69.549835,2.3420734,STD
8227733663000,0.209979,-2.27363825587839,9.69190919499247,-1.32487164612502,0.0143553335,0.13225232,0.004581489,91.66049,-69.881935,2.2425618,STD
8227738687000,0.215003,-2.27424010196388,9.69515917566885,-1.33269566660346,0.010995574,0.15210545,-0.002443461,91.50884,-70.20643,2.1418297,STD
8227743681000,0.219997,-2.27483835422323,9.69838974961348,-1.34047296721439,0.016187929,0.15302174,-0.0067195175,91.35895,-70.53143,2.0442805,STD
8227749095000,0.225411,-2.27548692004863,9.70189201780255,-1.34890434597041,0.007330383,0.15393804,-0.00580322,91.20323,-70.84627,1.9462337,STD
8227753700000,0.230016,-2.27603857236226,9.70487095112554,-1.35607584563267,0.004276057,0.1572978,-0.004886922,91.065544,-71.17656,1.8436615,STD
8227758682000,0.234998,-2.27663538709115,9.70809376237748,-1.3638344582966,0.004276057,0.15882497,-0.005497787,90.9979266478196,-71.3363585864662,1.79326508634586,STD
8227763675000,0.239991,-2.27723351955629,9.71132368943105,-1.37161020157861,-0.007941248,0.14966199,-0.008246681,90.93016,-71.49651,1.7427574,STD
8227768719000,0.245035,-2.27783776152588,9.71458660792859,-1.37946536863539,-0.01985312,0.14019357,-0.009468411,90.79335,-71.810356,1.6441804,STD
8227773731000,0.250047,-2.27843817008091,9.71782882591227,-1.38727070116682,-0.013439035,0.12492194,-0.009162978,90.65966,-72.12087,1.5479004,STD
8227778678000,0.254994,-2.27903079201262,9.72102899597716,-1.39497480731866,-0.008246681,0.12980886,-0.003970624,90.521996,-72.422554,1.4532852,STD
8227783669000,0.259985,-2.27962868488935,9.72425762924862,-1.40274743594284,-0.025350908,0.12156218,-0.007330383,90.39209,-72.7149,1.3604264,STD
8227788690000,0.265006,-2.28023017159222,9.72750566925182,-1.41056678443453,-0.022296581,0.118507855,-0.0027488936,90.25764,-73.009224,1.2718105,STD
8227793677000,0.269993,-2.28082758529213,9.73073171495905,-1.41833318374304,-0.023518313,0.11453723,0.0012217305,90.12538,-73.29273,1.1843914,STD
8227798690000,0.275006,-2.28142811364137,9.73397457983378,-1.42614007360339,-0.02687807,0.10323623,0.002443461,89.99522,-73.5717,1.099786,STD
8227803695000,0.280011,-2.28202768363696,9.73721226958005,-1.43393450483241,-0.017715093,0.09468412,0.00580322,89.864296,-73.84908,1.018382,STD
8227810128000,0.286444,-2.28279831975718,9.74137371975743,-1.44395280175474,-0.015577064,0.08155051,0.005497787,89.73737,-74.11892,0.9389523,STD
8227813673000,0.289989,-2.2832229902136,9.74366694855873,-1.4494735327651,-0.009773844,0.07513642,0.006414085,89.61003,-74.38776,0.86225337,STD
8227819428000,0.295744,-2.28391240586288,9.74738980659865,-1.45843596068178,-0.0070249503,0.06627888,0.022602014,89.48532,-74.651535,0.7921923,STD
8227823683000,0.299999,-2.28442213020479,9.75014232805128,-1.46506239522313,0.0018325958,0.04520403,0.027794369,89.366005,-74.91437,0.72201276,STD
8227828672000,0.304988,-2.28501978349311,9.75336966754062,-1.47283190918948,0.0018325958,0.038789943,0.025961773,89.2439,-75.17086,0.65506357,STD
8227833664000,0.30998,-2.28561779616405,9.75659894770313,-1.48060609514258,0.0070249503,0.018020526,0.032375857,89.130135,-75.42676,0.5955059,STD
8227838690000,0.315006,-2.28621988183795,9.75985022216162,-1.48843323027885,0.00061086525,0.010995574,0.03145956,89.01456,-75.67507,0.5339099,STD
8227843686000,0.320002,-2.2868183736857,9.76308208988837,-1.49621364554761,-0.017715093,-0.011911872,0.031154128,88.908165,-75.91704,0.47780797,STD
8227848671000,0.324987,-2.2874155477972,9.76630684181348,-1.50397693019829,-0.025350908,-0.01863139,0.027488936,88.79907,-76.15599,0.4207981,STD
8227853701000,0.330017,-2.28801811264792,9.76956070383621,-1.51181029465023,-0.04062254,-0.03726278,0.0290161,88.698875,-76.38337,0.36841437,STD
8227858681000,0.334997,-2.28861468778839,9.77278222130602,-1.51956579265632,-0.05131268,-0.06352998,0.029932396,88.60252,-76.60588,0.31664407,STD
8227863676000,0.339992,-2.28921305984194,9.77601344214171,-1.52734465059617,-0.06536258,-0.06780604,0.024740042,88.505104,-76.8192,0.26417217,STD
8227868673000,0.344989,-2.2898116714839,9.77924595675952,-1.53512662319385,-0.09254608,-0.07238753,0.036957346,88.41344,-77.021805,0.21930937,STD
8227873692000,0.350008,-2.29041291859836,9.7824927029806,-1.5429428570277,-0.099265605,-0.08002335,0.03940081,88.32436,-77.22267,0.17149949,STD
8227878677000,0.354993,-2.29101009270986,9.78571745490571,-1.55070614167838,-0.10781772,-0.092240654,0.04795292,88.236305,-77.4117,0.13005373,STD
8227883665000,0.359981,-2.29160762620397,9.78894414750399,-1.55847409831581,-0.11056661,-0.11178834,0.051923547,88.152176,-77.59711,0.08957114,STD
8227888931000,0.365247,-2.29223846248705,9.79235067581645,-1.56667499239214,-0.105068825,-0.15363261,0.06627888,88.07621,-77.779144,0.057035502,STD
8227893683000,0.369999,-2.29280772454881,9.795424702125,-1.57407541940518,-0.103847094,-0.18661933,0.070554934,88.00326,-77.955986,0.023900537,STD
8227898667000,0.374983,-2.2934047788661,9.79864880715905,-1.58183714672694,-0.10873401,-0.22479841,0.07513642,87.942215,-78.12945,-0.0020080756,STD
8227903699000,0.380015,-2.29400758330523,9.80190396296389,-1.58967362583672,-0.11759156,-0.2574797,0.08093964,87.88814,-78.29898,-0.024547702,STD
8227908680000,0.384996,-2.29460427823991,9.80512612732476,-1.59743068117173,-0.11789699,-0.27550024,0.09162979,87.8397,-78.46648,-0.04293798,STD
8227913686000,0.390002,-2.29520396802971,9.80836446396209,-1.60522666972966,-0.12675454,-0.2947425,0.10476339,87.7998,-78.626,-0.05701842,STD
8227918710000,0.395026,-2.2958058141152,9.81161444463847,-1.6130506902081,-0.13469578,-0.30726522,0.109650314,87.76246,-78.78275,-0.069818206,STD
8227923686000,0.400002,-2.29640191007886,9.81483337454405,-1.62079995889852,-0.1328632,-0.31337386,0.119729586,87.72725,-78.936935,-0.076890856,STD
8227928676000,0.404992,-2.29699968316138,9.81806136092445,-1.62857103019379,-0.15332718,-0.33658674,0.129198,87.69964,-79.07969,-0.081313424,STD
8227933662000,0.409978,-2.29759697706708,9.82128675974062,-1.63633587217338,-0.172264,-0.3555236,0.1337795,87.67181,-79.22069,-0.0844314,STD
8227938722000,0.415038,-2.29820313574395,9.82456002849509,-1.64421595649283,-0.19394971,-0.37201694,0.13439035,87.64905,-79.35244,-0.08520493,STD
8227943679000,0.419995,-2.3026683737688,9.82259133566866,-1.6280807680239,-0.22449298,-0.38331795,0.13897185,87.62922,-79.473785,-0.0831866,STD
8227948692000,0.425008,-2.30966554654501,9.81728313319898,-1.59647287448528,-0.24556783,-0.3866777,0.14294247,87.61131,-79.58931,-0.08108803,STD
8227953704000,0.43002,-2.31666132351575,9.81197598961668,-1.56487128613189,-0.27214047,-0.3915646,0.14110987,87.623055,-79.77732,-0.08959333,STD
8227958853000,0.435169,-2.32384832583466,9.8065237784624,-1.53240588740251,-0.28221974,-0.40011674,0.1432479,87.63601,-79.96031,-0.09592493,STD
8227963684000,0.44,-2.33059146201696,9.80140829349711,-1.50194553757505,-0.30757064,-0.39522982,0.14477506,87.646286,-80.127785,-0.10372673,STD
8227968690000,0.445006,-2.33757886415494,9.79610750323913,-1.47038178033301,-0.3268129,-0.4120286,0.14905111,87.66449,-80.29072,-0.109038904,STD
8227973688000,0.450004,-2.34455509984923,9.79081518408025,-1.43886846457278,-0.3539964,-0.42058071,0.15577064,87.6784,-80.44094,-0.11420597,STD
8227978677000,0.454993,-2.35151877329437,9.78553239490785,-1.40741189547959,-0.355829,-0.42424592,0.16584991,87.69494,-80.5899,-0.1170217,STD
8227983658000,0.459974,-2.35847128029582,9.78025807683455,-1.3760057678682,-0.36682457,-0.42730024,0.17134771,87.71323,-80.72562,-0.11924151,STD
8227988693000,0.465009,-2.36549916079217,9.77492657884235,-1.34425916025461,-0.37934732,-0.43799037,0.17806722,87.73379,-80.85764,-0.11816407,STD
8227993679000,0.469995,-2.37245864682093,9.76964696633211,-1.31282150671709,-0.38453966,-0.45020768,0.17501289,87.755486,-80.98596,-0.11854144,STD
8227998709000,0.475025,-2.37947954828997,9.76432076277686,-1.28110642502963,-0.39370266,-0.46395215,0.18600847,87.779335,-81.107086,-0.112950906,STD
8228003699000,0.480015,-2.38644461754057,9.75903691471707,-1.24964355075121,-0.40530908,-0.46944994,0.19211712,87.80425,-81.223526,-0.10988072,STD
8228010140000,0.486456,-2.39543500051515,9.75221662105914,-1.20903185270966,-0.42455134,-0.49021935,0.1994475,87.83646,-81.33283,-0.10258438,STD
8228013685000,0.490001,-2.40038313087454,9.74846286527318,-1.18667997108301,-0.44684792,-0.50732356,0.19700404,87.86895,-81.435646,-0.09676504,STD
8228018677000,0.494993,-2.40735099173606,9.74317689943862,-1.15520448643414,-0.46792278,-0.52198434,0.20219639,87.90557,-81.531235,-0.086480476,STD
8228023692000,0.500008,-2.41435095612319,9.73786657919416,-1.12358398252507,-0.4822781,-0.5369505,0.20586158,87.94685,-81.620346,-0.07711627,STD
8228028645000,0.504961,-2.42126438057174,9.73262190996768,-1.09235440010001,-0.49846604,-0.5558874,0.20708331,87.992874,-81.70107,-0.0667395,STD
8228033673000,0.509989,-2.42828249042986,9.7272978241872,-1.060651928783,-0.5027421,-0.55680364,0.21410827,88.037155,-81.77939,-0.05436319,STD
8228038696000,0.515012,-2.43529362126067,9.72197903284365,-1.02898098339212,-0.49541172,-0.5662721,0.21777347,88.08885,-81.85476,-0.04202957,STD
8228043680000,0.519996,-2.44225031567851,9.71670153810819,-0.997555940225056,-0.5009095,-0.57360244,0.22510384,88.13929,-81.923676,-0.027288312,STD
8228048672000,0.524988,-2.44921817654003,9.71141557227363,-0.966080455576184,-0.49357912,-0.5665775,0.22907446,88.187836,-81.99679,-0.013250568,SCH
8228053726000,0.530042,-2.45627257734014,9.70606395542109,-0.934214049443291,-0.49266282,-0.57360244,0.2302962,88.24178,-82.06496,0.0023171415,SCH
8228058668000,0.534984,-2.46317064792861,9.70083093395586,-0.903053824055726,-0.5009095,-0.5717699,0.2321288,88.290565,-82.13108,0.017942907,SCH
8228063668000,0.539984,-2.47014967523383,9.69553649702221,-0.871527897925045,-0.5149594,-0.57696223,0.23151793,88.3429,-82.19428,0.03316569,SCH
8228068713000,0.545029,-2.47719151378478,9.69019441015615,-0.839718238459188,-0.5143485,-0.559858,0.2312125,88.38782,-82.257904,0.04747664,SCH
8228073652000,0.549968,-2.48408539695687,9.68496456535309,-0.808576928627301,-0.5448918,-0.56505036,0.22052236,88.44047,-82.30727,0.05915969,SCH
8228078647000,0.554963,-2.49105744523478,9.67967542285637,-0.777082528422751,-0.5635232,-0.5681047,0.21960606,88.48685,-82.358925,0.07225658,SCH
8228083699000,0.560015,-2.49810905442397,9.6743259237786,-0.745228732660311,-0.60048056,-0.59406644,0.21013765,88.54145,-82.39552,0.08052283,SCH
8228088670000,0.564986,-2.50504760337081,9.66906219457916,-0.713885656901188,-0.6435465,-0.61544675,0.20830505,88.59491,-82.42404,0.09023537,SCH
8228093627000,0.569943,-2.5119666110412,9.66381328980314,-0.68263085373523,-0.68630713,-0.63529986,0.20769419,88.65511,-82.44129,0.09817205,SCH
8228098706000,0.575022,-2.51905590697783,9.65843520076593,-0.650606817971685,-0.7367035,-0.6404922,0.20097467,88.71698,-82.44351,0.10380357,SCH
8228103683000,0.579999,-2.52600283075744,9.65316511824217,-0.619225911101205,-0.78954333,-0.64904433,0.18509217,88.78527,-82.4325,0.107240856,SCH
8228108589000,0.584905,-2.53285065234931,9.64797021672287,-0.588292672381781,-0.850019,-0.6423248,0.17592919,88.85015,-82.404816,0.11011639,SCH
8228113600000,0.589916,-2.5398450335146,9.64266413202796,-0.556697389213612,-0.91965765,-0.63804877,0.1704314,88.91807,-82.35964,0.109860234,SCH
8228118630000,0.594946,-2.54686593498364,9.63733792847271,-0.524982307526147,-0.9837985,-0.6246097,0.17104226,88.9811,-82.29926,0.10816805,SCH
8228123605000,0.599921,-2.55381006715233,9.63206996372372,-0.493614011026119,-1.0690142,-0.5882632,0.16646078,89.03632,-82.21382,0.102538265,SCH
8228128597000,0.604913,-2.56077792801385,9.62678399788916,-0.462138526377247,-1.1273518,-0.5525276,0.1563815,89.08768,-82.11894,0.09516337,SCH
8228133592000,0.609908,-2.56774997629176,9.62149485539244,-0.430644126172697,-1.1621711,-0.50946164,0.15210545,89.1263,-82.00804,0.08670074,SCH
8228138611000,0.614927,-2.57475552390073,9.61618029959844,-0.398998401522719,-1.181108,-0.4801401,0.15363261,89.15859,-81.886925,0.07650155,SCH
8228144009000,0.620325,-2.52652434058451,9.60170997300582,-0.307407898484142,-1.183246,-0.46883908,0.16707164,89.18334,-81.762764,0.0678699,SCH
8228148581000,0.624897,-2.47484152025938,9.58775342292214,-0.218653017616344,-1.2006557,-0.4633413,0.17379116,89.20154,-81.63101,0.057240408,SCH
8228153711000,0.630027,-2.41685095414655,9.57209351436369,-0.119065848138696,-1.2180653,-0.4746423,0.20219639,89.23175,-81.39075,0.018837662,SCH
8228158655000,0.634971,-2.36096296996295,9.5570013919635,-0.0230894415309985,-1.2278391,-0.5131268,0.24190263,89.26746,-81.15194,-0.012145784,SCH
8228163647000,0.639963,-2.30453238399115,9.54176274410312,0.0738187748495897,-1.2403619,-0.59315014,0.27458394,89.31729,-80.91168,-0.033496957,SCH
8228168657000,0.644973,-2.24789832234879,9.52646914919515,0.171076419895012,-1.244638,-0.65668017,0.31856623,89.37104,-80.6754,-0.038404454,SCH
8228174984000,0.6513,-2.17637662414296,9.50715526197307,0.29390059558411,-1.2357804,-0.70280045,0.36071593,89.44087,-80.44363,-0.031022716,SCH
8228178611000,0.654927,-2.13537627652283,9.496083431887,0.364310471548131,-1.2257011,-0.70707655,0.36957347,89.51576,-80.21516,-0.019351633,SCH
8228183621000,0.659937,-2.07874221488047,9.48078983697904,0.461568116593553,-1.2177598,-0.66889745,0.37720928,89.58912,-79.99265,0.0039751697,SCH
8228188646000,0.664962,-2.0219385901793,9.46545045286477,0.559116952193004,-1.2089024,-0.5867361,0.38912117,89.649956,-79.77715,0.028847305,SCH
8228193639000,0.669955,-1.96549670000359,9.45020875239063,0.656044581277193,-1.2235631,-0.5342017,0.3839288,89.70827,-79.560974,0.050398268,SCH
8228198694000,0.67501,-1.9083539491848,9.43477778986373,0.7541757979847,-1.2366967,-0.48441613,0.36743546,89.743744,-79.3515,0.06785966,SCH
8228203674000,0.67999,-1.85205901366005,9.4195757733684,0.850851061922066,-1.276403,-0.4474588,0.3555236,89.76775,-79.133995,0.0829117,SCH
8228208729000,0.685045,-1.79491626284126,9.4041448108415,0.948982278629572,-1.3109168,-0.39003745,0.36193767,89.77164,-78.91802,0.09465623,SCH
8228214065000,0.690381,-1.73459703072078,9.38785606384971,1.05256846504921,-1.3720033,-0.3295618,0.35246924,89.76562,-78.687096,0.09637912,SCH
8228218708000,0.695024,-1.68211161191728,9.3736827781895,1.14270164787274,-1.4343116,-0.2864958,0.36377025,89.7468,-78.44998,0.10350815,SCH
8228223714000,0.70003,-1.62552276709061,9.35840139373655,1.23988164210375,-1.5250251,-0.2764165,0.38331795,89.72034,-78.19162,0.108866446,SCH
8228228665000,0.704981,-1.56955565347956,9.34328790304008,1.33599393763666,-1.6203201,-0.28252518,0.41355577,89.685196,-77.91872,0.11894097,SCH
8228233672000,0.709988,-1.51295550444896,9.32800346597339,1.43319334457128,-1.713477,-0.25900686,0.45234573,89.63736,-77.62542,0.13451385,SCH
8228238726000,0.715042,-1.45582405783409,9.31257555606024,1.53130514857519,-1.7944167,-0.21044308,0.5207626,89.580696,-77.31355,0.16537105,SCH
8228243733000,0.720049,-1.39922390880349,9.29729111899355,1.6285045555098,-1.8503108,-0.16737708,0.57635134,89.51746,-76.987854,0.20184103,SCH
8228248684000,0.725,-1.34325679519245,9.28217762829708,1.72461685104271,-1.8808541,-0.15882497,0.6056729,89.44788,-76.652115,0.2483823,SCH
8228253695000,0.730011,-1.28661142934616,9.26688098077536,1.82189390879174,-1.8863518,-0.16676621,0.6627888,89.36572,-76.31328,0.31541973,SCH
8228258673000,0.734989,-1.23033910222926,9.25168506950753,1.9185303473219,-1.8777997,-0.21105394,0.7119634,89.29008,-75.9757,0.38904884,SCH
8228263653000,0.739969,-1.17404416670452,9.23648305301219,2.01520561125926,-1.8463402,-0.30115658,0.7162395,89.2288,-75.64901,0.46837354,SCH
8228268697000,0.745013,-1.11702576212886,9.22108566923659,2.11312328822715,-1.8005253,-0.44073927,0.68233645,89.193085,-75.33453,0.5557642,SCH
8228273657000,0.749973,-1.06095691068252,9.20594470501634,2.20941029809248,-1.7699821,-0.5885687,0.6236934,89.18623,-75.030396,0.64296985,SCH
8228278641000,0.754957,-1.0046167583421,9.19073047806598,2.30616321284425,-1.7287487,-0.6536258,0.56230146,89.1977,-74.747986,0.7226138,SCH
8228283802000,0.760118,-0.946275761907722,9.17497593848115,2.40635217613356,-1.6896533,-0.6462954,0.50243664,89.23396,-74.47927,0.79056317,SCH
8228288659000,0.764975,-0.891371243465216,9.16014939347757,2.50063967752789,-1.6200147,-0.5751296,0.45540005,89.273834,-74.23635,0.84394467,SCH
8228293662000,0.769978,-0.834816311250299,9.14487716686589,2.5977614336481,-1.5683966,-0.4896085,0.41355577,89.31148,-74.00462,0.87969464,SCH
8228298653000,0.774969,-0.778397029482429,9.12964157161925,2.69465023732509,-1.5244142,-0.39858958,0.37384954,89.3312,-73.795334,0.8965451,SCH
8228303667000,0.779983,-0.721717751024384,9.11433576625628,2.79198553318492,-1.496009,-0.30451632,0.33567044,89.32959,-73.600685,0.8950644,SCH
8228308666000,0.784982,-0.66520803562515,9.09907575009961,2.88902963849072,-1.5118915,-0.19272798,0.32559118,89.298996,-73.40961,0.8817455,SCH
8228313690000,0.790006,-0.608415715127899,9.08373941859909,2.98655906138656,-1.5952746,-0.057421334,0.32528573,89.238464,-73.21104,0.8514229,SCH
8228318670000,0.794986,-0.552120779603156,9.06853740210375,3.08323432532393,-1.7015651,0.07696902,0.34116822,89.147316,-73.004654,0.81415695,SCH
8228323687000,0.800003,-0.495407588533349,9.05322243889951,3.18062785929457,-1.8164078,0.18875736,0.35796702,89.02578,-72.775795,0.768346,SCH
8228328676000,0.804992,-0.43901091517332,9.03799294888039,3.27747783756435,-1.9388863,0.24801129,0.37873647,88.88104,-72.518456,0.7217856,SCH
8228333677000,0.809993,-0.382478591366244,9.02272682749621,3.37456076827735,-2.032654,0.27488935,0.39278635,88.7148,-72.24135,0.67194545,SCH
8228338717000,0.815033,-0.325505403606264,9.00734165417563,3.47240079443083,-2.0861049,0.27091873,0.4016439,88.54076,-71.94615,0.6244795,SCH
8228343679000,0.819995,-0.296881204745749,8.96294958045483,3.54938342557466,-2.1288655,0.2510656,0.39858958,88.364876,-71.63315,0.5771283,SCH
8228348667000,0.824983,-0.282304409845474,8.90320862327102,3.61677123795379,-2.1352794,0.15363261,0.37843102,88.21333,-71.32144,0.5353153,SCH
8228353774000,0.83009,-0.267379852596935,8.84204241069329,3.68576673871967,-2.1212296,0.018020526,0.35338554,88.090866,-70.61473,0.7790446,SCH
8228358685000,0.835001,-0.253028080392594,8.78322367758791,3.75211428214266,-2.074193,-0.122478485,0.3231477,88.00333,-69.9296,1.0189966,SCH
8228363677000,0.839993,-0.238439596001621,8.72343481265977,3.81955613446756,-2.0027218,-0.20861048,0.30543262,87.94285,-69.26893,1.2569903,SCH
8228368697000,0.845013,-0.223769285175762,8.66331059352129,3.88737626641287,-1.9523253,-0.21838433,0.30665436,87.903656,-68.62844,1.4918565,SCH
8228373684000,0.85,-0.209195412648161,8.60358161327357,3.95475056880556,-1.93797,-0.21502456,0.32559118,87.88622,-68.009926,1.7278334,SCH
8228378689000,0.855005,-0.194568937412419,8.54363704817635,4.02236805095422,-1.9559906,-0.22143865,0.34972036,87.875114,-67.407776,1.9614977,SCH
8228383669000,0.859985,-0.180015521493539,8.48399190648121,4.0896477834418,-1.983174,-0.25595254,0.36987892,87.87056,-66.81789,2.1958797,SCH
8228388717000,0.865033,-0.165263384232795,8.4235323331324,4.15784619500753,-2.0463986,-0.3231477,0.39645153,87.87433,-66.22281,2.4368737,SCH
8228393708000,0.870024,-0.150677822214496,8.36375544514034,4.22527453734599,-2.1001546,-0.3145956,0.42760566,87.86563,-65.63294,2.6736743,SCH
8228398717000,0.875033,-0.136039657488057,8.30376297229879,4.29294605944042,-2.1594086,-0.13561209,0.46578476,87.82707,-65.033455,2.9004385,SCH
8228403781000,0.880097,-0.121240762264521,8.24311176797265,4.36136063078924,-2.2156084,0.11453723,0.5112942,87.76442,-64.429405,3.120469,SCH
8228410193000,0.886509,-0.102502508675794,8.16631565380613,4.44798666386361,-2.2464569,0.310625,0.5204572,87.671165,-63.827415,3.319048,SCH
8228413675000,0.889991,-0.0923268070232765,8.12461196236387,4.49502843665915,-2.2317963,0.37659842,0.50793445,87.547,-63.23389,3.5030003,SCH
8228418729000,0.895045,-0.0775571355264856,8.06408052739856,4.56330790814353,-2.1325307,0.36254853,0.50701815,87.39405,-62.667484,3.6724494,SCH
8228423684000,0.9,-0.0630767789244676,8.00473480910551,4.63024989097003,-2.021353,0.30207285,0.5299256,87.23837,-62.120525,3.8373501,SCH
8228428679000,0.904995,-0.0484795274154707,7.94491001336912,4.69773227325426,-1.9104811,0.19517145,0.5751296,87.09866,-61.61215,4.0109,SCH
8228433676000,0.909992,-0.0338764311611248,7.88506126376056,4.76524167551138,-1.851838,0.06841691,0.6239988,86.978516,-61.129696,4.1970987,SCH
8228438691000,0.915007,-0.0192207321986383,7.82499692930251,4.83299425752447,-1.806634,-0.030543262,0.6872234,86.87235,-60.681465,4.403737,SCH
8228443680000,0.919996,-0.00464101492568819,7.76524399518262,4.90039557989005,-1.788308,-0.08277224,0.7125743,86.78632,-60.250153,4.6182237,SCH
8228448672000,0.924988,0.00994746946528532,7.70545513025448,4.96783743221495,-1.7880026,-0.13041973,0.72692966,86.71786,-59.83196,4.8525248,SCH
8228453696000,0.930012,0.0246294697818421,7.64528300337167,5.03571160410603,-1.813048,-0.07819075,0.7370089,86.63539,-59.4183,5.0786963,SCH
8228458680000,0.934996,0.0391945751914198,7.5855899539322,5.10304537653939,-1.8368717,0.11209377,0.81000733,86.520134,-59.008453,5.3040113,SCH
8228463670000,0.939986,0.0537772148370444,7.52582504287622,5.1704602088914,-1.8579466,0.34300083,0.8943067,86.37972,-58.59854,5.514126,SCH
8228469312000,0.945628,0.0702652414664259,7.4582511694939,5.24668355240444,-1.9168952,0.42943826,0.88697636,86.23257,-58.180134,5.706557,SCH
8228473687000,0.950003,0.0830506219172491,7.40585207412919,5.30578974309383,-1.9617938,0.43004912,0.84604836,86.044846,-57.765476,5.8843527,SCH
8228478671000,0.954987,0.0976157273268268,7.34615902468972,5.37312351552719,-1.9193386,0.41508293,0.8164214,85.84222,-57.36734,6.0471716,SCH
8228483674000,0.95999,0.11223635781722,7.28623841346466,5.44071397770296,-1.8527542,0.36774087,0.8038987,85.654,-56.973476,6.2039423,SCH
8228488688000,0.965004,0.126889134407032,7.22618605594269,5.50845304972962,-1.7965547,0.32345316,0.8014552,85.47453,-56.598045,6.3531103,SCH
8228493688000,0.970004,0.141500997779401,7.16630137552588,5.57600298194606,-1.7321084,0.29016098,0.79473567,85.30912,-56.252266,6.4992743,SCH
8228498671000,0.974987,0.156063180816304,7.1066203030225,5.64332324439297,-1.6869044,0.28344148,0.77640975,85.15261,-55.924797,6.640281,SCH
8228503685000,0.980001,0.170715957406116,7.04656794550052,5.71106231641963,-1.6594155,0.2602286,0.7669413,85.00998,-55.61688,6.7852154,SCH
8228508682000,0.984998,0.185319053660462,6.98671919589197,5.77857171867675,-1.641395,0.22937989,0.752586,84.8765,-55.326523,6.922769,SCH
8228513669000,0.989985,0.199892926188063,6.92699021564424,5.84594602106943,-1.6282613,0.19303341,0.72784597,84.75506,-55.04956,7.0562086,SCH
8228518674000,0.99499,0.214519401423805,6.86704565054702,5.91356350321809,-1.6447546,0.14385876,0.7104363,84.64696,-54.775383,7.1911426,SCH
8228523682000,0.999998,0.22915464377757,6.80706515464155,5.98122151532609,-1.6410894,0.090713486,0.68508536,84.55535,-54.517887,7.3211827,SCH
8228528677000,1.004993,0.243751895286567,6.74724035890516,6.04870389761032,-1.6212363,0.046120327,0.6908886,84.47255,-54.26467,7.457404,SCH
8228533667000,1.009983,0.258334534932191,6.68747544784919,6.11611872996233,-1.577254,-0.030848695,0.7058548,84.41382,-54.025204,7.600212,SCH
8228539028000,1.015344,0.274001374840046,6.62326709350628,6.18854576728481,-1.4972308,-0.14080444,0.73884153,84.37043,-53.804485,7.7577753,SCH
8228543677000,1.019993,0.251742560028146,6.71843208514274,6.08234290329715,-1.409877,-0.19792034,0.7669413,84.33179,-53.601665,7.9177833,SCH
8228548720000,1.025036,0.212903926958183,6.88349629850221,5.89785923652996,-1.3573426,-0.3268129,0.8164214,84.32724,-53.41134,8.116281,SCH
8228553746000,1.030062,0.0951712900593472,7.00975371364985,5.73591028783383,-1.25319,-0.40469822,0.870483,84.34268,-52.921635,8.387143,SCH
8228558705000,1.035021,-0.0551476347062314,7.11779565756677,5.58559127477745,-1.1591167,-0.47250426,0.91599244,84.37826,-52.45013,8.67951,SCH
8228563719000,1.040035,-0.203599139231553,7.18364899722248,5.52050700138876,-1.0748174,-0.5131268,0.97097033,84.41154,-52.0547,8.978901,SCH
8228568741000,1.045057,-0.350541631745209,7.22817699425979,5.4982430028701,-0.99204516,-0.51159966,0.9941832,84.44717,-51.690723,9.277407,SCH
8228573708000,1.050024,-0.41632821384711,7.31530959867412,5.53802296701885,-0.93767816,-0.51068336,1.0213667,84.49542,-51.397312,9.556702,SCH
8228578711000,1.055027,-0.406402218315724,7.44434730219598,5.63728312962503,-0.89827734,-0.505491,1.0512991,84.537155,-51.12509,9.834577,SCH
8228583711000,1.060027,-0.372140709860906,7.50410957070139,5.85682261834862,-0.8729264,-0.4801401,1.097114,84.557594,-50.87834,10.08154,SCH
8228588720000,1.065036,-0.320086610646148,7.51357384816021,6.16441504525994,-0.88208944,-0.47678033,1.1178834,84.58101,-50.636528,10.327053,SCH
8228593704000,1.07002,-0.268371055180521,7.49705860609936,6.40780337766847,-0.89919364,-0.4886922,1.1270463,84.60203,-50.405415,10.570229,SCH
8228598723000,1.075039,-0.216356691883915,7.4592302080669,6.60167502852927,-0.9410379,-0.47555858,1.14018,84.61238,-50.16694,10.808498,SCH
8228603733000,1.080049,-0.194020343684158,7.43372631484972,6.72399855902192,-0.97310835,-0.44623706,1.1560625,84.61874,-49.88547,11.046407,SCH
8228609415000,1.085731,-0.19941816477532,7.41753275575836,6.78877240084317,-0.99204516,-0.4260785,1.1420126,84.62735,-49.60278,11.274281,SCH
8228613677000,1.089993,-0.180010090253927,7.35851893263512,6.69187162953266,-1.0348058,-0.39736784,1.1203269,84.62797,-49.276775,11.499762,SCH
8228618736000,1.095052,-0.13692723437605,7.24841837759115,6.45252239688766,-1.1001683,-0.35033122,1.0567969,84.63035,-48.950455,11.700664,SCH
8228623678000,1.099994,-0.0150008359219794,7.08206516732888,6.18752527657576,-1.1801916,-0.26450464,0.9822713,84.62527,-48.60913,11.87683,SCH
8228628706000,1.105022,0.198061930839805,6.84726133583168,5.88314997980856,-1.2666291,-0.17287487,0.91751957,84.618866,-48.259773,12.027029,SCH
8228633666000,1.109982,0.425983579469632,6.58906439692044,5.67422136184773,-1.3304645,-0.059864793,0.88361657,84.606026,-47.923378,12.162096,SCH
8228638737000,1.115053,0.711592981537639,6.24633295610565,5.73134331383661,-1.389413,-0.015577064,0.86009824,84.59938,-47.576294,12.277622,SCH
8228643610000,1.119926,0.945801405488582,5.93973860556699,5.87721233296089,-1.421178,0.009468411,0.850019,84.606224,-47.23766,12.429869,SCH
8228648668000,1.124984,1.1214616358326,5.65963179063021,6.18105684804469,-1.4349225,-0.014660766,0.8145888,84.62489,-46.898636,12.569199,SCH
8228653663000,1.129979,1.33346837155029,5.39273349991186,6.38619102167271,-1.4446963,-0.06291912,0.77763146,84.66026,-46.5015,12.767113,SCH
8228658694000,1.13501,1.62129872520811,5.14265141278034,6.40978365745764,-1.4395039,-0.07269296,0.7828238,84.692154,-46.110607,12.959847,SCH
8228663629000,1.139945,1.82236893760481,4.97591398970109,6.43575204610832,-1.4611896,-0.027183503,0.8231409,84.71488,-45.627316,13.181616,SCH
8228668715000,1.145031,1.83197880340337,4.99513377147085,6.46938662657591,-1.4807373,-0.04062254,0.8414669,84.75627,-45.154976,13.408364,SCH
8228673647000,1.149963,1.76265785660848,5.24854392518703,6.55626757755611,-1.4462235,-0.15668693,0.83260936,84.83205,-44.651257,13.71937,SCH
8228678768000,1.155084,1.47402675200998,6.15846568139651,6.79597808841895,-1.3836098,-0.2947425,0.8179486,84.91258,-44.156364,14.033926,SCH
8228683690000,1.160006,1.19490039450805,7.02894318416456,6.99284742821657,-1.328021,-0.3735441,0.8344419,84.997574,-43.667824,14.365218,SCH
8228688718000,1.165034,0.905221048884145,7.90732590490976,7.1049814880652,-1.3249667,-0.3912592,0.8552113,85.09974,-43.190197,14.702079,SCH
8228693675000,1.169991,0.640624345581487,8.67003714635223,7.19709811570896,-1.346347,-0.38759398,0.8509353,85.18536,-42.82768,14.944991,SCH
8228698714000,1.17503,0.451342013857619,9.05333393381055,7.22075838988037,-1.3365731,-0.40225476,0.83658,85.27609,-42.479954,15.191244,SCH
8228703744000,1.18006,0.311274158174563,9.26176716346055,7.23646773682595,-1.2883148,-0.3903429,0.80970186,85.3348,-42.260498,15.327732,SCH
8228708755000,1.185071,0.389840623743989,8.69215982533511,7.21682623708176,-1.2635747,-0.29168814,0.8145888,85.37551,-42.039474,15.449996,SCH
8228713679000,1.189995,0.471823616654004,8.05254599870039,7.20072499420174,-1.2968669,-0.20219639,0.8164214,85.41124,-41.878952,15.512743,SCH
8228718679000,1.194995,0.572349943755873,7.11430062231331,7.1959379303209,-1.350623,-0.19486602,0.80756384,85.44584,-41.72161,15.570674,SCH
8228723685000,1.200001,0.679839368132437,6.25563902304708,7.17697947387481,-1.4126259,-0.2415972,0.782213,85.462074,-41.47137,15.652778,SCH
8228728682000,1.204998,0.8118767561821,5.69035385043973,7.10683448491119,-1.4266758,-0.2706133,0.7635816,85.47491,-41.224453,15.727903,SCH
8228733644000,1.20996,0.942989327625453,5.12902804966374,7.03718080565615,-1.428203,-0.27977628,0.7324274,85.48263,-40.832226,15.8515215,SCH
8228738692000,1.215008,1.09131204340741,5.07435410493668,7.07460512688172,-1.4049901,-0.30298916,0.7089091,85.502556,-40.451458,15.978772,SCH
8228743615000,1.219931,1.23776509407407,5.08336664162485,7.12417391397849,-1.4010195,-0.30268374,0.6774496,85.529144,-40.076447,16.092382,SCH
8228748666000,1.224982,1.38802598355556,5.09261350792832,7.17503150967742,-1.3735305,-0.28680122,0.63255095,85.56089,-39.630863,16.25453,SCH
8228753728000,1.230044,1.53861410918519,5.10188051193309,7.22599986236559,-1.3729197,-0.26175576,0.6038403,85.59484,-39.18841,16.40772,SCH
8228758735000,1.235051,1.72115810606724,5.52051574199324,7.46014013129103,-1.3723087,-0.22021692,0.6017023,85.61811,-38.757187,16.548353,SCH
8228763627000,1.239943,1.91221036359658,6.08435294804058,7.75836801225383,-1.3790283,-0.23243423,0.63499445,85.646225,-38.330715,16.692965,SCH
8228768720000,1.245036,2.04290172926224,6.49799808765241,7.93707702047944,-1.391551,-0.2275473,0.67011917,85.68719,-37.89046,16.886457,SCH
8228773657000,1.249973,2.14060933614383,6.82531838195908,8.0543261283323,-1.3921618,-0.2302962,0.70096785,85.72574,-37.45628,17.084597,SCH
8228778676000,1.254992,2.29067997199309,6.86772430788298,7.90077330103616,-1.395827,-0.2125811,0.72784597,85.76907,-37.06898,17.287766,SCH
8228783689000,1.260005,2.4564956411215,6.81895500841121,7.6618036317757,-1.3988814,-0.1853976,0.7812967,85.79803,-36.683083,17.493906,SCH
8228788693000,1.265009,2.34515683795455,6.63171380128788,7.52667375424242,-1.4217888,-0.21960606,0.7816021,85.84315,-36.329437,17.704355,SCH
8228794070000,1.270386,2.15010203855114,6.39277147980114,7.40964070147727,-1.4175128,-0.23609942,0.7809912,85.86796,-35.983536,17.908356,SCH
8228798670000,1.274986,1.98879349089406,6.11713558956072,7.30948125524548,-1.3952162,-0.2125811,0.78954333,85.91116,-35.652946,18.156174,SCH
8228803717000,1.280033,1.81394120616021,5.78741442749354,7.19957428816537,-1.3750577,-0.14660765,0.75747293,85.95892,-35.3336,18.383326,SCH
8228810129000,1.286445,1.83504528225234,5.36395273569544,7.6118563680524,-1.382999,-0.08674286,0.7156286,85.974144,-34.994255,18.574024,SCH
8228813684000,1.29,1.87840360545802,5.12857910588556,7.91226712694442,-1.4132367,-0.08002335,0.68019843,85.99386,-34.66356,18.752155,SCH
8228818695000,1.295011,1.95116749547061,5.08772396559589,8.17005228397045,-1.4477507,-0.11148291,0.6337727,85.9977,-34.304974,18.893723,SCH
8228823689000,1.300005,2.03310609994646,5.28232831165007,8.29296008373488,-1.4376713,-0.14844026,0.5870415,86.011314,-33.9609,19.025402,SCH
8228828670000,1.304986,2.19533266580449,5.42131219007227,8.31013405876759,-1.427592,-0.16310102,0.5354234,86.00652,-33.509907,19.152397,SCH
8228833683000,1.309999,2.39620523472803,5.53544412782427,8.27817737552301,-1.412015,-0.17073683,0.49846604,86.01672,-33.07521,19.27708,SCH
8228838650000,1.314966,2.53882843353204,5.51023380723866,8.23264446731957,-1.4083499,-0.14905111,0.49205196,86.032,-32.66243,19.396263,SCH
8228843684000,1.32,2.64146764232489,5.38193497040664,8.17619282478178,-1.4001031,-0.15577064,0.4877759,86.06358,-32.266777,19.5146,SCH
8228848662000,1.324978,2.6815068163525,5.15868891717539,8.10516530733901,-1.3906348,-0.15088372,0.48716503,86.109024,-31.893736,19.663607,SCH
8228853693000,1.330009,2.6953373246675,4.89129894533538,8.02679247502631,-1.3930782,-0.12736541,0.47311515,86.157555,-31.528986,19.80241,SCH
8228858679000,1.334995,2.70883604427545,4.545833331576,8.03479065918634,-1.3952162,-0.09437868,0.46700647,86.200035,-31.149696,19.96649,SCH
8228864196000,1.340512,2.72362620649435,4.10705968593823,8.10381133040963,-1.4086553,-0.0693332,0.47525316,86.24032,-30.774084,20.121767,SCH
8228868730000,1.345046,2.75864190399317,3.88975207473842,8.21846468652573,-1.4153748,-0.03023783,0.5021312,86.26052,-30.363844,20.282738,SCH
8228873690000,1.350006,2.81950157001922,3.79339091479821,8.40104363164638,-1.4388931,-0.079107046,0.47616947,86.30351,-29.95862,20.446934,SCH
8228878673000,1.354989,2.8415237136958,3.7401681229181,8.5033541541638,-1.4327844,-0.11942416,0.4578435,86.30561,-29.482635,20.614815,SCH
8228883673000,1.359989,2.8368158678596,3.71662864794022,8.55043310411956,-1.42973,-0.1563815,0.4437936,86.322334,-29.011309,20.785078,SCH
8228888687000,1.365003,2.8949934004488,3.62405355773154,8.6397174875561,-1.4440855,-0.1459968,0.43035457,86.3317,-28.51259,20.953093,SCH
8228893678000,1.369994,3.0022507744288,3.47779333106895,8.7616009249286,-1.4373659,-0.116675265,0.42180246,86.34794,-28.030886,21.118244,SCH
8228898683000,1.374999,3.07886522579643,3.41055983310023,8.80230194949495,-1.4019357,-0.086132,0.4437936,86.355576,-27.552343,21.274008,SCH
8228903700000,1.380016,3.13486393117716,3.39656018111888,8.78830249242424,-1.4052955,-0.13225232,0.39858958,86.39239,-27.083633,21.425735,SCH
8228908678000,1.384994,3.22819585379777,3.24479760140832,8.74800728635809,-1.3900238,-0.11453723,0.37048978,86.405304,-26.597729,21.573614,SCH
8228913681000,1.389997,3.35415181582011,2.97489178732513,8.6850294227772,-1.385137,-0.0580322,0.36774087,86.42654,-26.120155,21.714907,SCH
8228918675000,1.394991,3.43870371843342,2.7135118156658,8.68256039477807,-1.4052955,-0.021685716,0.35185838,86.43985,-25.638195,21.861195,SCH
8228923688000,1.400004,3.46377343039164,2.46281469608355,8.76779710130548,-1.4162911,0.0027488936,0.32467487,86.45288,-25.171114,21.989141,SCH
8228928674000,1.40499,3.46953162823985,2.39610053626692,8.87687061266925,-1.4010195,-0.008246681,0.3051272,86.47104,-24.667057,22.15487,SCH
8228933796000,1.410112,3.45529979953578,2.51944315077369,9.01444485773694,-1.3973542,-0.02565634,0.30115658,86.49214,-24.168583,22.308275,SCH
8228938687000,1.415003,3.46676624912863,2.63458959226141,9.09688511037344,-1.3863586,-0.059253927,0.30970868,86.49934,-23.633003,22.47095,SCH
8228943678000,1.419994,3.51139075941909,2.74862995567427,9.11671864024896,-1.3839152,-0.08552113,0.3203988,86.511,-23.107052,22.629671,SCH
8228948664000,1.42498,3.49421256484302,2.73555259509567,9.11348726797325,-1.3662001,-0.093767814,0.33505958,86.50946,-22.603271,22.77145,SCH
8228953690000,1.430006,3.41373760294446,2.59248581980308,9.08666217174438,-1.3353515,-0.09987647,0.3631594,86.50695,-22.111084,22.916616,SCH
8228958653000,1.434969,3.3173950054716,2.43175531440334,9.04211949744659,-1.3148874,-0.09682214,0.36774087,86.50528,-21.64376,23.059156,SCH
8228963669000,1.439985,3.18722627675873,2.23149584034393,8.96201562417926,-1.312444,-0.12644911,0.37415496,86.50253,-21.186039,23.209566,SCH
8228968661000,1.444977,3.13290791569579,2.01833535926375,8.9057841921521,-1.3096951,-0.15241088,0.3680463,86.482185,-20.715185,23.343512,SCH
8228973682000,1.449998,3.18153768187702,1.78491227847896,8.88146930906149,-1.321607,-0.19456059,0.3753767,86.46455,-20.248535,23.486517,SCH
8228978655000,1.454971,3.19574225043623,1.59226596712087,8.8452281990001,-1.3176364,-0.24220806,0.3848451,86.43304,-19.76557,23.620636,SCH
8228983678000,1.459994,3.16744839704931,1.44608095947456,8.79335603597687,-1.3246613,-0.30787608,0.3827071,86.412476,-19.286814,23.765554,SCH
8228988663000,1.464979,3.20310481688,1.3192013288,8.7104428248,-1.3176364,-0.35521814,0.3744604,86.3789,-18.77528,23.93295,SCH
8228993679000,1.469995,3.3328053848,1.218323048,8.580742608,-1.2953397,-0.3894266,0.38240165,86.349556,-18.274458,24.109745,SCH
8228998662000,1.474978,3.4909503455458,1.13969407227102,8.45732408720201,-1.2690725,-0.39828414,0.40500367,86.314445,-17.761782,24.288391,SCH
8229003724000,1.48004,3.69514973791002,1.09190276759276,8.34001752240545,-1.2626585,-0.4129449,0.4111123,86.288345,-17.260841,24.470627,SCH
8229008697000,1.485013,3.89699295261324,1.07296947073171,8.24412845818815,-1.2421945,-0.36865717,0.43890667,86.245224,-16.757315,24.672571,SCH
8229013676000,1.489992,4.10467120623693,1.18096215914634,8.23582159520906,-1.2232577,-0.28344148,0.46670106,86.20026,-16.264446,24.859825,SCH
8229018689000,1.495005,4.31376762829268,1.28969229512195,8.22745800731707,-1.1844677,-0.18234327,0.5140431,86.14252,-15.774107,25.080824,SCH
8229023684000,1.5,4.17845888208802,1.6134753506653,8.39495160307062,-1.1569787,-0.16218472,0.55863625,86.08021,-15.293062,25.29299,SCH
8229028616000,1.504932,3.99958326857728,1.9615574345957,8.58349635967247,-1.1319333,-0.18784106,0.605062,86.001656,-14.825231,25.485655,SCH
8229033672000,1.509988,4.07597271941037,1.64141997169569,9.00749415898298,-1.1203269,-0.1469131,0.64965516,85.9217,-14.38367,25.690142,SCH
8229038620000,1.514936,4.17442039483577,1.26638208230115,9.44347571458251,-1.1276573,-0.07391469,0.64599,85.84594,-13.954143,25.881157,SCH
8229043680000,1.519996,4.09643683647857,0.0978389045830622,10.5501228548387,-1.1575897,-0.17562376,0.50732356,85.78836,-13.58793,26.041924,SCH
8229048641000,1.524957,3.99926903112392,-1.13883960893372,11.711717,-1.1911873,-0.33475417,0.37201694,85.73384,-13.227604,26.193338,SCH
8229053717000,1.530033,4.031264421097,-1.36085845923189,11.9258773705766,-1.1404854,-0.41263947,0.26206118,85.683876,-12.810754,26.327984,SCH
8229058678000,1.534994,4.10543772208576,-1.23723615322648,11.8170898383639,-1.0940597,-0.3005457,0.18173242,85.667816,-12.407961,26.439997,SCH
8229063674000,1.53999,4.14864023353213,-0.657560747612543,11.5728523439785,-1.0684034,-0.14813483,0.1142318,85.5977,-11.750311,26.478216,SCH
8229068653000,1.544969,4.1853337297903,0.0120916821267795,11.3022391919969,-1.0326678,-0.116675265,0.06505715,85.55258,-11.133299,26.511059,SCH
8229073690000,1.550006,4.4522636618239,0.140285162072956,11.3624052880503,-0.97341377,-0.17989981,0.026267206,85.53439,-10.575922,26.53649,SCH
8229078612000,1.554928,4.78825088712788,0.0859342732184486,11.5303992360587,-0.8723156,-0.17531833,0.03726278,85.51428,-10.052653,26.532457,SCH
8229083674000,1.55999,4.90190167550535,-0.419716943123662,11.6992994387634,-0.7837401,-0.0290161,0.05222898,85.51488,-9.674975,26.518885,SCH
8229088630000,1.564946,4.96774359892985,-1.00288868426754,11.8639042473246,-0.7476991,0.17715092,0.008552114,85.53045,-9.32458,26.482996,SCH
8229093679000,1.569995,4.96886600723083,-1.39143729978541,12.1601570556074,-0.70646566,0.38087448,-0.06719518,85.537315,-8.986283,26.442736,SCH
8229098670000,1.574986,4.95548721216645,-1.730365827897,12.481247205822,-0.627664,0.50762904,-0.12705997,85.55066,-8.678748,26.364933,SCH
8229103725000,1.580041,5.00018106177402,-1.69183038594509,12.9022433146779,-0.5412266,0.5137377,-0.16584991,85.56295,-8.29616,26.26818,SCH
8229108691000,1.585007,5.07048902903907,-1.48090601219641,13.3592464128828,-0.45906523,0.408058,-0.21135938,85.60123,-7.9503717,26.167084,SCH
8229113674000,1.58999,4.87983337399174,-0.820168796720851,13.0544535596169,-0.38545597,0.22082779,-0.26908615,85.648506,-7.573023,26.067972,SCH
8229119460000,1.595776,4.57797016371145,0.0854213120077323,12.4653329125736,-0.30268374,-0.007941248,-0.33353242,85.72345,-7.235698,26.011122,SCH
8229123685000,1.600001,4.28182212793138,0.411769829812311,11.857366320888,-0.22204952,-0.22021692,-0.38637227,85.82538,-6.955572,25.983656,SCH
8229128679000,1.604995,3.87401735405651,0.542074315919273,11.0031479122099,-0.1695151,-0.3136793,-0.41233405,85.94489,-6.7027297,25.986155,SCH
8229133671000,1.609987,3.46637589807265,0.672326617610495,10.1492716014127,-0.15088372,-0.43799037,-0.4251622,86.07602,-6.609153,26.040289,SCH
8229138691000,1.615007,3.05644799161453,0.803309501122099,9.29060592028254,-0.14294247,-0.49754974,-0.4560109,86.22048,-6.533541,26.099642,SCH
8229143685000,1.620001,2.67208940886931,0.916015245521292,8.56378009104258,-0.16707164,-0.49357912,-0.48533243,86.361664,-6.454383,26.173586,SCH
8229148661000,1.624977,2.30821018999511,1.01398277249143,7.94331941164953,-0.21135938,-0.4025602,-0.50915617,86.50769,-6.376756,26.236118,SCH
8229153712000,1.630028,1.98290610826324,1.16249927046017,7.48714369708065,-0.2950479,-0.24801129,-0.5314528,86.662056,-6.3557467,26.270882,SCH
8229158691000,1.635007,1.70450008804552,1.35596778812469,7.20401888566056,-0.4034765,-0.113926366,-0.54275376,86.81514,-6.3178105,26.283592,SCH
8229163676000,1.639992,1.51527699571527,1.53343688833054,7.12214592032777,-0.47891834,0.020463986,-0.5354234,86.96952,-6.2968297,26.239677,SCH
8229168672000,1.644988,1.42080425846579,1.6940406057755,7.25440778207128,-0.54183745,0.12767084,-0.50976706,87.115265,-6.249514,26.166079,SCH
8229173678000,1.649994,1.42311566151677,1.82254169075275,7.43764720919087,-0.59528816,0.21074851,-0.4813618,87.26307,-6.2235756,26.04067,SCH
8229178676000,1.654992,1.54006768728503,1.91250479833662,7.68054784860445,-0.6450737,0.25595254,-0.42730024,87.39022,-6.175403,25.898928,SCH
8229183661000,1.659977,1.69867869826378,1.95318177977199,7.93342368528397,-0.6762278,0.30207285,-0.3735441,87.501144,-6.1361074,25.717134,SCH
8229189419000,1.665735,1.98128725224349,1.88397153517414,8.25063763256981,-0.6844745,0.3145956,-0.31337386,87.59136,-6.0822926,25.536465,SCH
8229193644000,1.66996,2.20227763385819,1.7927348263464,8.45504273814061,-0.68019843,0.3100141,-0.26083946,87.66512,-6.0279965,25.35334,SCH
8229198660000,1.674976,2.48170404797914,1.63375086766623,8.66220338722295,-0.6649268,0.2919936,-0.20738874,87.71905,-5.9673004,25.175587,SCH
8229203707000,1.680023,2.75552520409995,1.47713545839889,8.83143182008329,-0.6462954,0.26511553,-0.16187929,87.75083,-5.8851037,25.025341,SCH
8229210186000,1.686502,3.09433498997686,1.2818890994447,8.98073784164739,-0.59589905,0.25534168,-0.13958271,87.77328,-5.8124213,24.879543,SCH
8229213611000,1.689927,3.27965981540683,1.16576120541611,9.07156998638754,-0.57787853,0.2302962,-0.11362094,87.76866,-5.69468,24.78198,SCH
8229218679000,1.694995,3.56996036398886,0.960548681798494,9.23674121253996,-0.5342017,0.22388211,-0.10354166,87.76279,-5.597644,24.684729,SCH
8229223610000,1.699926,3.84682459853883,0.750858246158927,9.37071817544035,-0.49846604,0.22021692,-0.08582657,87.7333,-5.4637275,24.63704,SCH
8229228674000,1.70499,4.1186250678743,0.513032949521617,9.4483754668735,-0.464563,0.19425514,-0.087659165,87.709885,-5.3444967,24.598492,SCH
8229233632000,1.709948,4.34840655910149,0.300052533691054,9.51780024422666,-0.4007276,0.17379116,-0.07971791,87.65364,-5.1930676,24.599712,SCH
8229238692000,1.715008,4.50357185679216,0.12607913842616,9.57422371210945,-0.35124752,0.1414153,-0.08735373,87.60788,-5.0529366,24.610432,SCH
8229243633000,1.719949,4.63211358465909,-0.0358994224431818,9.60273489772727,-0.3032946,0.11301007,-0.086132,87.54096,-4.880152,24.670269,SCH
8229248681000,1.724997,4.69587879797078,-0.178144543709416,9.55368489123377,-0.26389378,0.080634214,-0.07819075,87.48066,-4.7235723,24.736435,SCH
8229253693000,1.730009,4.73265078301677,-0.307890835643473,9.51278873584731,-0.22968534,0.0571159,-0.07941248,87.40955,-4.545041,24.824669,SCH
8229259212000,1.735528,4.70326820586491,-0.420524124761419,9.48830325488743,-0.19975294,0.029626964,-0.074830994,87.34128,-4.3802695,24.91783,SCH
8229263702000,1.740018,4.67708058289027,-0.512607050789526,9.45552039136518,-0.18784106,-0.0009162979,-0.062308256,87.27279,-4.200305,25.027208,SCH
8229268781000,1.745097,4.63333006876874,-0.619552207720368,9.33885262442535,-0.18784106,-0.042455133,-0.06291912,87.21402,-4.0322943,25.14056,SCH
8229273673000,1.749989,4.58523983225056,-0.70807174313003,9.21897563415107,-0.18295415,-0.08124508,-0.0729984,87.164635,-3.858408,25.254286,SCH
8229278669000,1.754985,4.49709213865994,-0.703432385736449,9.04731970125085,-0.16218472,-0.10629055,-0.06719518,87.11613,-3.6924658,25.369722,SCH
8229283710000,1.760026,4.40176395163249,-0.697646452299423,8.8708469633685,-0.15851954,-0.11178834,-0.058337633,87.073395,-3.5130637,25.48508,SCH
8229288707000,1.765023,4.23027358690026,-0.678591994963169,8.65648431833566,-0.14172074,-0.11728613,-0.04428773,87.03197,-3.3461664,25.601555,SCH
8229293731000,1.770047,4.05860808240649,-0.659103431102315,8.44750037027509,-0.121256754,-0.10445796,-0.021991149,86.99453,-3.1890652,25.707195,SCH
8229298750000,1.775066,3.89689789888185,-0.635322499265783,8.32383908371265,-0.10720685,-0.06566802,-0.016798794,86.96119,-3.03911,25.80157,SCH
8229303855000,1.780171,3.73910379483749,-0.60918415790862,8.20121695836081,-0.09193522,-0.055588737,-0.0125227375,86.92787,-2.9023752,25.888237,SCH
8229308604000,1.78492,3.67055140942063,-0.562054348195949,8.12409570372115,-0.08552113,-0.032986723,-0.004886922,86.89395,-2.7690594,25.956688,SCH
8229313585000,1.789901,3.59865007613754,-0.512622134639661,8.04320689147433,-0.07086037,-0.0030543262,0.013744468,86.86338,-2.650308,26.00386,SCH
8229318652000,1.794968,3.48167244497698,-0.434483963624948,8.03037298346588,-0.06811147,0.0125227375,0.02321288,86.83528,-2.5325766,26.046665,SCH
8229323875000,1.800191,3.35982950823485,-0.349656223619174,8.03025335189562,-0.06291912,0.033292156,0.025045475,86.80528,-2.4200656,26.07797,SCH
8229328623000,1.804939,3.32543728023069,-0.250778883458448,8.13342954211969,-0.07238753,0.043982297,0.020158553,86.77773,-2.31625,26.101732,SCH
8229333603000,1.809919,3.28936455582868,-0.147070131562825,8.24164719740947,-0.076052725,0.053145275,0.029626964,86.742355,-2.2256746,26.105467,SCH
8229338618000,1.814934,3.26780063250583,0.010798526034046,8.37877612027561,-0.06414085,0.06841691,0.035124753,86.71118,-2.1393561,26.104067,SCH
8229343583000,1.819899,3.24852864466511,0.174610538390921,8.51849843459317,-0.05681047,0.0729984,0.04520403,86.67721,-2.0507462,26.103138,SCH
8229348603000,1.824919,3.25925848387857,0.314506691620002,8.7237512581786,-0.07574729,0.06719518,0.06261369,86.64323,-1.9772968,26.089361,SCH
8229353582000,1.829898,3.27331179575597,0.450355466038904,8.93455093633952,-0.07422013,0.06291912,0.08552113,86.60545,-1.910259,26.074446,SCH
8229358619000,1.834935,3.30916962915351,0.570968688862178,9.13339992451869,-0.07666359,0.04062254,0.10720685,86.56666,-1.8646019,26.056637,SCH
8229363545000,1.839861,3.34761355420189,0.686300102723846,9.32561929886931,-0.0693332,0.027794369,0.12461651,86.52296,-1.8205421,26.038145,SCH
8229368645000,1.844961,3.36050394196737,0.724971360939199,9.41593598586258,-0.05955936,0.002443461,0.14966199,86.47356,-1.7971773,26.02005,SCH
8229373550000,1.849866,3.3697919219476,0.752835446356896,9.49024031062778,-0.061086524,-0.016798794,0.17012598,86.42117,-1.7719625,26.004566,SCH
8229378619000,1.854935,3.39154310619297,0.740162015045622,9.52480118481848,-0.07269296,-0.055588737,0.18845193,86.360466,-1.7621658,25.989985,SCH
8229383568000,1.859884,3.41454620423219,0.72175953661425,9.55240451815182,-0.062002823,-0.09865474,0.1966986,86.29786,-1.7570152,25.98272,SCH
8229388620000,1.864936,3.4382437581231,0.695071990252282,9.54219407421223,-0.057726767,-0.1469131,0.20097467,86.227295,-1.748248,25.982704,SCH
8229393616000,1.869932,3.46172745931089,0.666891548826936,9.5234072113478,-0.048258353,-0.1908954,0.2012801,86.15713,-1.7437013,25.993826,SCH
8229398612000,1.874928,3.4781000086747,0.638207659060241,9.44403927550201,-0.035430185,-0.22418754,0.21013765,86.08264,-1.7356638,26.018421,SCH
8229403608000,1.879924,3.49251136192771,0.609384922457831,9.34796358714859,-0.030848695,-0.2660318,0.19975294,86.016106,-1.7309784,26.057049,SCH
8229408683000,1.884999,3.47550231315188,0.575293901678787,9.24367515156867,0.004276057,-0.30207285,0.19822577,85.9449,-1.730839,26.106411,SCH
8229413571000,1.889887,3.45118722983586,0.541252764724704,9.14155170008311,0.046120327,-0.31306845,0.19242255,85.87986,-1.7360873,26.158926,SCH
8229418732000,1.895048,3.37988444639416,0.540287427668132,9.05494465223085,0.06841691,-0.3118467,0.18112154,85.81768,-1.7421203,26.2232,SCH
8229423680000,1.899996,3.30453479730615,0.544719754522496,8.97516249116079,0.0983493,-0.3182608,0.17256944,85.75787,-1.7615757,26.290733,SCH
8229428710000,1.905026,3.23373385342242,0.553179540671223,8.90685413812098,0.099265605,-0.31306845,0.15974127,85.699585,-1.7744029,26.355322,SCH
8229433676000,1.909992,3.1658141404162,0.562882364051821,8.84378598877894,0.11178834,-0.28680122,0.15607607,85.64198,-1.7979444,26.413702,SCH
8229438689000,1.915005,3.11085326246732,0.594061535818728,8.78989976246732,0.10293079,-0.26145032,0.15332718,85.5882,-1.818352,26.46792,SCH
8229443820000,1.920136,3.05851229267938,0.632127623394984,8.73755879267938,0.087659165,-0.23548855,0.15393804,85.53504,-1.8403103,26.512907,SCH
8229448659000,1.924975,3.02336257415159,0.656919646424478,8.74992704783974,0.0693332,-0.1957823,0.15851954,85.482475,-1.8612344,26.541178,SCH
8229453763000,1.930079,2.99169663783824,0.678842225544426,8.786464637315,0.047647487,-0.1518,0.17562376,85.42615,-1.8757087,26.560001,SCH
8229458679000,1.934995,2.96119708005681,0.69995731154632,8.82165640648826,0.033292156,-0.12186762,0.17195857,85.36787,-1.8925755,26.569593,SCH
8229463672000,1.939988,2.93021980340858,0.721403126112523,8.85739938929586,-0.003970624,-0.086132,0.1863139,85.29884,-1.8938031,26.565096,SCH
8229468679000,1.944995,2.95115541246377,0.74127257884058,8.90507008695652,-0.03023783,-0.0693332,0.19333886,85.23432,-1.8959067,26.55737,SCH
8229473694000,1.95001,2.99435874774613,0.760474038910545,8.9578742023988,-0.040011674,-0.055588737,0.20250183,85.165375,-1.8911386,26.540764,SCH
8229479251000,1.955567,3.05565913026593,0.736272652439258,8.94732997742491,-0.06078109,-0.047647487,0.21074851,85.097336,-1.8840773,26.510479,SCH
8229483661000,1.959977,3.10817862768318,0.703953013640712,8.91905012473694,-0.06811147,-0.0421497,0.20738874,85.031204,-1.8788792,26.47764,SCH
8229488682000,1.964998,3.16717075807661,0.656938099839886,8.86791232732063,-0.07941248,-0.055588737,0.20280726,84.95546,-1.8662298,26.448444,SCH
8229493680000,1.969996,3.22537684411228,0.603582444156871,8.80485588184029,-0.08093964,-0.07269296,0.18661933,84.885925,-1.85691,26.41943,SCH
8229498661000,1.974977,3.25538871310613,0.531077312070107,8.71112155676728,-0.086132,-0.089186326,0.172264,84.8172,-1.8380185,26.40386,SCH
8229503749000,1.980065,3.2696224302629,0.445674929861733,8.59725191859786,-0.08857546,-0.098043874,0.14355333,84.759766,-1.8242033,26.391127,SCH
8229508717000,1.985033,3.28081656951782,0.378510045511146,8.51047322861632,-0.09437868,-0.083383106,0.12614368,84.70267,-1.8001491,26.386919,SCH
8229513773000,1.990089,3.29032659618973,0.321449855688893,8.43914802857704,-0.12003502,-0.08307768,0.09621128,84.66028,-1.7764907,26.388903,SCH
8229518702000,1.995018,3.29708624869565,0.264902810608696,8.41643143478261,-0.13897185,-0.074830994,0.06383542,84.61858,-1.7384542,26.403023,SCH
8229523687000,2.000003,3.30191338196158,0.206977166053589,8.43091263296259,-0.16615535,-0.057726767,0.05100725,84.58132,-1.6941637,26.413904,SCH
8229528713000,2.005029,3.28513628394868,0.206210384618549,8.48028000724709,-0.18081611,-0.023823744,0.028710667,84.556755,-1.6445594,26.422419,SCH
8229533723000,2.010039,3.25224446375477,0.248499902070316,8.55546140867692,-0.21471913,0.015882496,0.008552114,84.53645,-1.5856651,26.423817,SCH
8229538713000,2.015029,3.20891223118624,0.303848579131826,8.68729035047009,-0.22540927,0.06719518,-0.013133603,84.52075,-1.5217922,26.408499,SCH
8229543716000,2.020032,3.15619773487698,0.370939859971994,8.86939494678936,-0.24281894,0.11942416,-0.025961773,84.50946,-1.4503858,26.381777,SCH
8229549331000,2.025647,3.13470920357248,0.430065634762327,9.09969972010629,-0.25259277,0.15974127,-0.036651913,84.506516,-1.3895735,26.33559,SCH
8229553736000,2.030052,3.1388609409999,0.467431301955516,9.29483198612341,-0.23548855,0.18112154,-0.035124753,84.50421,-1.3323637,26.281376,SCH
8229558714000,2.03503,3.14596917788069,0.474087703889055,9.43069542884175,-0.21044308,0.17531833,-0.03023783,84.50925,-1.2888484,26.210863,SCH
8229563713000,2.040029,3.15550496579026,0.445480315267404,9.48314186405737,-0.17989981,0.14996742,-0.02443461,84.51377,-1.2515138,26.142036,SCH
8229568671000,2.044987,3.18112972586688,0.396317192586688,9.49822263889996,-0.14202617,0.12767084,-0.01740966,84.51319,-1.226448,26.06732,SCH
8229573725000,2.050041,3.22453445079713,0.323975850079713,9.47410887485054,-0.10598512,0.0852157,-0.025350908,84.516106,-1.2103405,26.007544,SCH
8229578715000,2.055031,3.26238782566949,0.260132144391859,9.405276590223,-0.076052725,0.047647487,-0.034208454,84.51714,-1.1964723,25.952705,SCH
8229583719000,2.060035,3.29505484793067,0.204131746425163,9.28860917567436,-0.07727446,0.016798794,-0.040317107,84.52019,-1.1846629,25.909506,SCH
8229588657000,2.064973,3.33354437085153,0.150416504530568,9.14059168231441,-0.07941248,-0.006414085,-0.05009095,84.5255,-1.1689271,25.88064,SCH
8229593699000,2.070015,3.38146633907304,0.0977022494154426,8.94411130736403,-0.08582657,-0.017715093,-0.053450707,84.53091,-1.151983,25.857946,SCH
8229598634000,2.07495,3.41492966666667,0.0260701986111111,8.75905416666667,-0.09743301,-0.0106901415,-0.06078109,84.536316,-1.1242887,25.842913,SCH
8229603757000,2.080073,3.42922510559441,-0.0787630948280886,8.57797880594406,-0.10048734,0.014049901,-0.06872234,84.54313,-1.0981447,25.826252,SCH
8229610105000,2.086421,3.42926355407558,-0.167879742391053,8.43506242529318,-0.10873401,0.05009095,-0.08093964,84.55091,-1.0604184,25.82274,SCH
8229613684000,2.09,3.41933873369046,-0.195173016586072,8.4003250875923,-0.13530666,0.09896017,-0.08827003,84.559746,-1.0182596,25.808388,SCH
8229619092000,2.095408,3.40434196681627,-0.236414152894165,8.34783569885623,-0.12522738,0.15790866,-0.105068825,84.57054,-0.96675843,25.79759,SCH
8229623684000,2.1,3.36245993420249,-0.237518069894072,8.34330043348951,-0.13316862,0.17654006,-0.12034045,84.583855,-0.9056405,25.784363,SCH
8229628711000,2.105027,3.29871431776329,-0.217904055335099,8.36291535944184,-0.1432479,0.19486602,-0.12858713,84.60045,-0.84870934,25.754936,SCH
8229633725000,2.110041,3.25085581374207,-0.241204794956207,8.44031442464512,-0.13255776,0.19364429,-0.122478485,84.61704,-0.7867045,25.728117,SCH
8229638719000,2.115035,3.21233655327696,-0.289353968577469,8.55105724192087,-0.13255776,0.17348573,-0.12186762,84.63842,-0.72202045,25.702303,SCH
8229643716000,2.120032,3.18692182900038,-0.335787015874192,8.6079935677499,-0.12003502,0.15149458,-0.12736541,84.65808,-0.6660925,25.670294,SCH
8229648710000,2.125026,3.16874374492588,-0.381232254532497,8.63526078876853,-0.11575896,0.12644911,-0.1432479,84.68121,-0.6100849,25.64585,SCH
8229653759000,2.130075,3.17081245607812,-0.420541664065365,8.63215771123954,-0.11575896,0.14019357,-0.15485434,84.70633,-0.54862624,25.604847,SCH
8229658793000,2.135109,3.19002712774014,-0.454167359537664,8.60333560342766,-0.1133155,0.14935656,-0.172264,84.738434,-0.4923551,25.573124,SCH
8229663696000,2.140012,3.21095852165289,-0.432348357390374,8.57562989178415,-0.1142318,0.16646078,-0.18417588,84.77607,-0.43004978,25.526876,SCH
8229668710000,2.145026,3.2343022138843,-0.36231709544385,8.54761730510452,-0.09896017,0.18997909,-0.1863139,84.81583,-0.37413648,25.477413,SCH
8229673719000,2.150035,3.2534228637544,-0.284298626318067,8.51916402455964,-0.106901415,0.21563543,-0.19364429,84.859825,-0.30847588,25.428007,SCH
8229678717000,2.155033,3.26787626478108,-0.197578154758933,8.4902571218923,-0.093462385,0.24587326,-0.20555615,84.90561,-0.2537005,25.371983,SCH
8229683718000,2.160034,3.26124807582078,-0.115842952016765,8.50585021544756,-0.09010262,0.25686884,-0.2049453,84.948784,-0.20736842,25.316399,SCH
8229688691000,2.165007,3.23273270226524,-0.0398019012803114,8.5676338225726,-0.10323623,0.23976462,-0.20891592,84.99664,-0.16246052,25.262028,SCH
8229693712000,2.170028,3.20173714027957,0.0275483912203827,8.63670409080995,-0.1255328,0.19761491,-0.22082779,85.050026,-0.1350432,25.213968,SCH
8229698663000,2.174979,3.16883313884207,0.0839553742361455,8.71191320189353,-0.14355333,0.17012598,-0.23335053,85.10404,-0.10577493,25.168293,SCH
8229703712000,2.180028,3.17113951322201,0.18214284061867,8.70838744538735,-0.17470746,0.17898351,-0.23518312,85.15918,-0.081741154,25.118132,SCH
8229708723000,2.185039,3.21492936146546,0.326649591309426,8.61204972438179,-0.23365596,0.21166481,-0.2275473,85.21424,-0.045960348,25.070211,SCH
8229713637000,2.189953,3.25052193045338,0.43626901004491,8.58501357495723,-0.27855456,0.24953845,-0.21013765,85.26891,-0.016326712,25.008003,SCH
8229718705000,2.195021,3.26609139871685,0.457028311901198,8.75108757795124,-0.30634892,0.31764993,-0.19730948,85.32174,0.024539161,24.92956,SCH
8229723613000,2.199929,3.28796672573711,0.454750519384676,8.89613626525984,-0.34208453,0.3371976,-0.19150625,85.36741,0.05184626,24.865498,SCH
8229728707000,2.205023,3.32164102438615,0.416265758773297,9.02121177240903,-0.376293,0.30298916,-0.18753563,85.408875,0.08730777,24.799711,SCH
8229733635000,2.209951,3.3573557350969,0.380943476581395,9.11301601763566,-0.39645153,0.27366763,-0.17654006,85.44693,0.1260427,24.722383,SCH
8229738719000,2.215035,3.39981654443798,0.347918344627907,9.15547677771318,-0.40653083,0.24770586,-0.16310102,85.482475,0.17147045,24.656174,SCH
8229743610000,2.219926,3.43685463024858,0.320039547349506,9.2036587930019,-0.39400807,0.22571471,-0.14966199,85.51431,0.2242075,24.596382,SCH
8229748715000,2.225031,3.46613858592393,0.30051688984726,9.27198868543476,-0.3717115,0.20830505,-0.14172074,85.54346,0.27717698,24.544436,SCH
8229753764000,2.23008,3.48459046591438,0.283202793460505,9.30592910764822,-0.33475417,0.19822577,-0.1282817,85.56295,0.3320677,24.494797,SCH
8229758735000,2.235051,3.48032696306645,0.270412271560989,9.26755700326885,-0.2941316,0.1872302,-0.13408493,85.586006,0.37792394,24.451824,SCH
8229763712000,2.240028,3.4774595527861,0.256775847938886,9.22520890653086,-0.25778514,0.16646078,-0.14446963,85.60616,0.4190836,24.41574,SCH
8229768887000,2.245203,3.4923067487118,0.232030511060515,9.13117676902337,-0.21319197,0.15210545,-0.1432479,85.62444,0.44757652,24.3821,SCH
8229773717000,2.250033,3.5072109896047,0.21278953412327,9.04063300159315,-0.17898351,0.14844026,-0.1301143,85.641594,0.4718988,24.354052,SCH
8229778716000,2.255032,3.53581275590959,0.241391225764214,8.9119257998606,-0.15515977,0.160963,-0.12950343,85.66206,0.48576027,24.326109,SCH
8229783783000,2.260099,3.55961117591914,0.269631108948568,8.795210270439,-0.12583824,0.17745635,-0.115453534,85.67244,0.4971766,24.305819,SCH
8229788727000,2.265043,3.5220745014171,0.288399407004261,8.84213099108116,-0.12034045,0.18997909,-0.10415252,85.683334,0.50824016,24.283611,SCH
8229793842000,2.270158,3.47477608139268,0.309177649976201,8.89362324028206,-0.13316862,0.16798794,-0.10170906,85.69424,0.5100126,24.269682,SCH
8229798719000,2.275035,3.32245131533715,0.346229635434112,8.98007746892904,-0.14874569,0.13103059,-0.098043874,85.70099,0.51264405,24.257149,SCH
8229804439000,2.280755,3.14379688395769,0.389686136729837,9.08147549801675,-0.15577064,0.084910266,-0.09560041,85.70221,0.51559824,24.238997,SCH
8229808637000,2.284953,3.09204930505588,0.444085570797439,9.04090943311273,-0.19150625,0.06352998,-0.10048734,85.704544,0.52958876,24.225018,SCH
8229813612000,2.289928,3.04035712810025,0.511285292887056,8.9788792741673,-0.22113322,0.06078109,-0.09101892,85.701546,0.5456276,24.21907,SCH
8229818721000,2.295037,3.0027173401813,0.537854040832485,8.89064210045324,-0.22082779,0.09621128,-0.06047566,85.70445,0.552839,24.178434,SCH
8229823627000,2.299943,2.96794995081861,0.559583686411988,8.80372362704653,-0.23609942,0.13836098,-0.019547688,85.701004,0.5740725,24.137394,SCH
8229828712000,2.305028,2.96469570343263,0.532257156589071,8.8001400114421,-0.22510384,0.19822577,0.004581489,85.69045,0.5799382,24.076618,SCH
8229833693000,2.310009,2.97175361043598,0.489909685089761,8.82366636811994,-0.21013765,0.26511553,0.030543262,85.666985,0.593379,24.00316,SCH
8229838859000,2.315175,2.97907365612547,0.445989380378773,8.84806652041823,-0.19120082,0.32467487,0.045814894,85.64015,0.5996511,23.916927,SCH
8229843660000,2.319976,2.98587650927205,0.405172233085421,8.87074269757349,-0.172264,0.3817908,0.05589417,85.60758,0.6040005,23.814651,SCH
8229848716000,2.325032,2.97169512689171,0.337335890661862,8.96229664811303,-0.16218472,0.4007276,0.07513642,85.565865,0.6090261,23.704288,SCH
8229853756000,2.330072,2.94881106089513,0.259530008924711,9.08129388687654,-0.13591751,0.40011674,0.06383542,85.53135,0.60209477,23.586725,SCH
8229858712000,2.335028,2.93128485712556,0.223980128355874,9.21757710425918,-0.105374254,0.35705075,0.05681047,85.484,0.61259335,23.472925,SCH
8229863713000,2.340029,2.91678337040775,0.214312465496568,9.36742590129188,-0.0571159,0.29657507,0.065973446,85.43603,0.6114714,23.368029,SCH
8229868694000,2.34501,2.94397066332785,0.213655328625106,9.44285434389794,-0.02076942,0.24587326,0.06352998,85.39621,0.617613,23.266378,SCH
8229874337000,2.350653,3.0032182826581,0.21904147609259,9.47786445288284,0.0012217305,0.16615535,0.06383542,85.35317,0.6157721,23.193203,SCH
8229878709000,2.355025,3.04912127605023,0.223214475689939,9.50498906682613,0.0290161,0.103847094,0.099265605,85.30199,0.6076284,23.12251,SCH
8229883708000,2.360024,3.10160733825684,0.227985936117008,9.53600369287885,0.048258353,0.059864793,0.12583824,85.25384,0.59490556,23.071253,SCH
8229888681000,2.364997,3.10456166408762,0.215278954974879,9.55681551587621,0.082161374,-0.002443461,0.14202617,85.19835,0.573725,23.04431,SCH
8229893725000,2.370041,3.07543854471463,0.19100975809787,9.5713768221463,0.11484267,-0.028099801,0.13958271,85.141266,0.5485707,23.020283,SCH
8229898697000,2.375013,3.04455259168881,0.207706341366514,9.57251589441894,0.11911872,-0.052839845,0.15088372,85.07872,0.5208483,23.01746,SCH
8229903751000,2.380067,3.01180965619715,0.249804495829911,9.56549963831844,0.12889257,-0.07971791,0.15149458,85.020996,0.48190024,23.02279,SCH
8229908701000,2.385017,2.97974049697995,0.29103636456632,9.55862776105339,0.129198,-0.0842994,0.16065755,84.95654,0.45204535,23.022446,SCH
8229913695000,2.390011,2.9473862785697,0.332634738802609,9.55169480043489,0.15363261,-0.11056661,0.1591304,84.89597,0.41233438,23.035927,SCH
8229918675000,2.394991,2.91249658251658,0.410611883494704,9.54357530749431,0.16432275,-0.12095132,0.17470746,84.8282,0.3792729,23.045965,SCH
8229923686000,2.400002,2.87448893381843,0.52938571994456,9.53407320928621,0.16829337,-0.119729586,0.19120082,84.76141,0.34178382,23.059847,SCH
8229928710000,2.405026,2.83647405584006,0.611176475067954,9.53545331711641,0.16493362,-0.12736541,0.19211712,84.69732,0.28681365,23.061743,SCH
8229933719000,2.410035,2.79867988305101,0.648970628124877,9.54962591609218,0.17287487,-0.13316862,0.20341812,84.62568,0.23144415,23.062763,SCH
8229938636000,2.414952,2.75165753150658,0.676287987981007,9.49656758304481,0.18203785,-0.12705997,0.1994475,84.556854,0.15556712,23.06213,SCH
8229944227000,2.420543,2.68280095682066,0.692177953991493,9.33237115698882,0.1731803,-0.10598512,0.17134771,84.49279,0.08190339,23.058815,SCH
8229948655000,2.424971,2.64897156137725,0.697204920758483,9.24555604690619,0.15332718,-0.087964594,0.1704314,84.42288,0.0054317075,23.049673,SCH
8229953752000,2.430068,2.63922850853293,0.692333368902196,9.20658332684631,0.15699236,-0.06963864,0.16798794,84.3627,-0.076981366,23.034685,SCH
8229958614000,2.43493,2.62475493309014,0.670022541687626,9.15400908361332,0.14905111,-0.064751714,0.17287487,84.29755,-0.1506895,23.013062,SCH
8229963713000,2.440029,2.60131627359125,0.618457461420755,9.07431793501008,0.14110987,-0.055588737,0.18478674,84.231445,-0.22381392,22.985643,SCH
8229968633000,2.444949,2.58711678542881,0.58418524,9.01790501843145,0.12980886,-0.050396383,0.18081611,84.16932,-0.2934424,22.959312,SCH
8229973724000,2.45004,2.59170162972541,0.58418524,9.00644284784653,0.122478485,-0.04734206,0.18051068,84.10299,-0.35946748,22.931772,SCH
8229978636000,2.454952,2.59612527050028,0.58418524,8.99538368817002,0.11759156,-0.04337143,0.18692477,84.03624,-0.41272286,22.90406,SCH
8229983714000,2.46003,2.60069840727854,0.58418524,8.98395078653376,0.09896017,-0.043676864,0.17562376,83.97585,-0.4619221,22.877441,SCH
8229988740000,2.465056,2.60582594840014,0.587300059110408,8.9687957742616,0.106901415,-0.03848451,0.16584991,83.91373,-0.5155112,22.84894,SCH
8229993717000,2.470033,2.61839554215014,0.629198585360408,8.9059480242616,0.11178834,-0.03634648,0.160963,83.85433,-0.56368923,22.82216,SCH
8229998642000,2.474958,2.63083380801688,0.670659353248945,8.8437569113924,0.124311075,-0.013439035,0.16676621,83.797745,-0.6172049,22.78704,SCH
8230003787000,2.480103,2.67369774918019,0.733387713608906,8.65615378089403,0.13500121,0.018020526,0.16737708,83.74476,-0.6720821,22.749662,SCH
8230010235000,2.486551,2.73764440365033,0.818650049404556,8.37905059138764,0.14844026,0.09743301,0.17134771,83.68917,-0.7293959,22.693037,SCH
8230013811000,2.490127,2.75584252035897,0.876976195128205,8.26369714871795,0.17104226,0.15485434,0.18967366,83.62711,-0.79802233,22.637522,SCH
8230018670000,2.494986,2.77016062287179,0.962884561025641,8.13006218974359,0.1872302,0.30757064,0.19639318,83.56704,-0.86862236,22.53382,SCH
8230023678000,2.499994,2.80901113295007,0.994985664888747,8.23029096870009,0.23060162,0.44837508,0.21563543,83.49474,-0.962272,22.443638,SCH
8230028707000,2.505023,2.87054006186522,0.974476039763654,8.55331788565953,0.2321288,0.5354234,0.23060162,83.42152,-1.0480297,22.328184,SCH
8230033715000,2.510031,2.91055367438579,0.92442219448446,8.80163508159842,0.2144137,0.5384777,0.23915374,83.345116,-1.1555097,22.205812,SCH
8230038717000,2.515033,2.93891271943759,0.858251040009867,9.00960131327084,0.18112154,0.51068336,0.24251351,83.26557,-1.2571726,22.0722,SCH
8230043712000,2.520028,2.90883602759772,0.736962651188372,9.13795672736201,0.13744467,0.46883908,0.24556783,83.18448,-1.3443328,21.938442,SCH
8230048714000,2.52503,2.8429702201925,0.581707753396189,9.21793665389904,0.10842858,0.42760566,0.2275473,83.10964,-1.4275463,21.816801,SCH
8230053782000,2.530098,2.78797853216938,0.467463069082666,9.28431822079676,0.08277224,0.40011674,0.2125811,83.026695,-1.4813188,21.696352,SIT
8230058728000,2.535044,2.74228850342433,0.385220969632488,9.33914668467252,0.06627888,0.37232238,0.20708331,82.94779,-1.5303634,21.591463,SIT
8230063706000,2.540022,2.65789223485441,0.306659941705101,9.33277523964237,0.06291912,0.35643986,0.19364429,82.87859,-1.5481797,21.480486,SIT
8230068708000,2.545024,2.53619177620676,0.231767328081884,9.26724361437366,0.050701816,0.3567453,0.17379116,82.814415,-1.5607742,21.375957,SIT
8230073714000,2.55003,2.45229159142947,0.18227385878949,9.19962311604629,0.049785517,0.39064834,0.14782938,82.75817,-1.5612576,21.259394,SIT
8230078713000,2.555029,2.41235885389428,0.162307453536649,9.12974083839016,0.05497787,0.42546764,0.13927728,82.70383,-1.5608511,21.14552,SIT
8230083674000,2.55999,2.39293948261658,0.140605726939146,9.12699944480949,0.054061573,0.44318274,0.12858713,82.65808,-1.5470994,21.013268,SIT
8230088729000,2.565045,2.39056559334085,0.116866816830285,9.18159917081842,0.06841691,0.42577308,0.113926366,82.61718,-1.5406159,20.884687,SIT
8230093693000,2.570009,2.3882344387682,0.09355525406463,9.23521599374785,0.082161374,0.39095375,0.1142318,82.57452,-1.529847,20.756609,SIT
8230098748000,2.575064,2.38586054949247,0.0698163439557691,9.28981571975678,0.09682214,0.35888332,0.108123146,82.53931,-1.5256858,20.636177,SIT
8230103779000,2.580095,2.38694547652701,0.0435379711458859,9.32983588263503,0.093767814,0.33964106,0.09193522,82.50803,-1.5217237,20.525238,SIT
8230108727000,2.585043,2.39172952563352,0.0148336565249874,9.35375612816759,0.07788532,0.32253686,0.07086037,82.481064,-1.519522,20.425745,SIT
8230113649000,2.589965,2.3897880550911,-0.0220687392926045,9.37494505894962,0.07513642,0.28680122,0.064751714,82.45329,-1.510233,20.324991,SIT
8230118702000,2.595018,2.38035775782909,-0.0692202571131248,9.39380580117899,0.06994407,0.2510656,0.0571159,82.43317,-1.4986204,20.231867,SIT
8230123642000,2.599958,2.37119689066129,-0.105396344585469,9.4179044620405,0.049785517,0.21380283,0.04550946,82.41718,-1.4780067,20.15131,SIT
8230128692000,2.605008,2.3619133049045,-0.128605326426337,9.45039672137441,0.04062254,0.183565,0.02565634,82.40679,-1.460947,20.081072,SIT
8230133666000,2.609982,2.34927104934906,-0.135372720301058,9.4664944450773,0.03390302,0.15271631,0.009162978,82.398766,-1.4303414,20.022663,SIT
8230138692000,2.615008,2.32968871665989,-0.110894977732303,9.45180801505289,0.032986723,0.12217305,-0.0076358155,82.39751,-1.4014778,19.974236,SIT
8230143611000,2.619927,2.31233733027615,-0.0905182917180004,9.44623173684741,0.027183503,0.100792766,-0.01038471,82.393,-1.3632091,19.929306,SIT
8230148657000,2.624973,2.29772600207619,-0.0759069563981052,9.45597231717396,0.011911872,0.09132435,-0.02565634,82.39789,-1.3257666,19.89056,SIT
8230153753000,2.630069,2.28026995141572,-0.0550161679103819,9.46703716750463,0.01160644,0.073303826,-0.040011674,82.40382,-1.2963063,19.859152,SIT
8230158799000,2.635115,2.25895724440328,-0.0251782935256241,9.47982508547235,-0.007330383,0.0571159,-0.050396383,82.41339,-1.2594612,19.830692,SIT
8230163683000,2.639999,2.24215432873473,0.00472611827000394,9.48884366988569,-0.013744468,0.03268129,-0.058643065,82.42705,-1.230332,19.807745,SIT
8230168714000,2.64503,2.25164996941269,0.0427087077530548,9.47459991141112,-0.022602014,0.014660766,-0.069027774,82.44455,-1.1972322,19.788086,SIT
8230173681000,2.649997,2.26102561230891,0.0757152410338298,9.46233461554394,-0.041233405,-0.014049901,-0.0711658,82.46072,-1.1659468,19.772522,SIT
8230178719000,2.655035,2.27054290561199,0.0661979407742381,9.46709336157412,-0.03573562,-0.048258353,-0.06719518,82.47824,-1.1396708,19.764004,SIT
8230183722000,2.660038,2.27892068801985,0.0571015314715633,9.47038409032258,-0.029321533,-0.07422013,-0.07544186,82.49977,-1.1177945,19.763605,SIT
8230188722000,2.665038,2.27416788404963,0.0523487731589082,9.45612602580645,-0.052534413,-0.087964594,-0.08124508,82.51933,-1.0891895,19.769373,SIT
8230193815000,2.670131,2.26933087710163,0.0497451575301566,9.44068475948373,-0.048258353,-0.10629055,-0.09132435,82.54383,-1.0705254,19.780857,SIT
8230199204000,2.67552,2.26426544983069,0.0750724441008981,9.41282471114492,-0.052839845,-0.13408493,-0.092240654,82.56721,-1.0433409,19.798496,SIT
8230204025000,2.680341,2.25973391803013,0.0977302374869706,9.38790110879914,-0.06780604,-0.15485434,-0.109650314,82.59849,-1.0166355,19.818558,SIT
8230210195000,2.686511,2.25393438448741,0.126728077186632,9.35600344721991,-0.077579886,-0.17256944,-0.10751228,82.62391,-0.9887018,19.844988,SIT
8230214022000,2.690338,2.25174890903214,0.145451067931289,9.33338927539712,-0.077579886,-0.19303341,-0.11148291,82.65443,-0.9612695,19.875858,SIT
8230218694000,2.69501,2.27654170459919,0.182640351891393,9.25074604820835,-0.0842994,-0.1994475,-0.11881329,82.685005,-0.93002564,19.906698,SIT
8230223665000,2.699981,2.30292119662911,0.222209686344662,9.16281379599187,-0.089186326,-0.20097467,-0.11789699,82.71206,-0.90750027,19.94265,SIT
8230228676000,2.704992,2.31952759287693,0.237521479085873,9.09978155005936,-0.09437868,-0.19547687,-0.1160644,82.74066,-0.884011,19.977215,SIT
8230233763000,2.710079,2.33398674116541,0.247160815657895,9.04194586278196,-0.09896017,-0.17256944,-0.122783914,82.77113,-0.8604414,20.006042,SIT
8230238690000,2.715006,2.3443091290606,0.256565110914445,8.99308835469702,-0.105068825,-0.15424347,-0.13439035,82.80095,-0.84393454,20.042244,SIT
8230243675000,2.719991,2.35384099448937,0.266096991272836,8.94542902755316,-0.10781772,-0.122478485,-0.12156218,82.82479,-0.82552516,20.067041,SIT
8230248707000,2.725023,2.38674852238449,0.291744805594446,8.93334602437156,-0.09101892,-0.07727446,-0.12339478,82.85537,-0.8153582,20.086521,SIT
8230253704000,2.73002,2.42570179427819,0.321532639186019,8.93105460617668,-0.0852157,-0.047036625,-0.12644911,82.881966,-0.8005173,20.10052,SIT
8230258648000,2.734964,2.46424191359828,0.351004532177161,8.92878749159684,-0.09407325,-0.028099801,-0.119729586,82.90924,-0.7891943,20.111225,SIT
8230263665000,2.739981,2.50335109212353,0.380911588636821,8.92648690222648,-0.082161374,-0.0106901415,-0.1160644,82.93771,-0.78550833,20.113432,SIT
8230269277000,2.745593,2.51495028460877,0.441396703579106,8.94433307695615,-0.07452556,0.010995574,-0.103847094,82.95957,-0.77567786,20.112675,SIT
8230273647000,2.749963,2.51045215305245,0.499872441992691,8.96682373473775,-0.06414085,0.013439035,-0.10354166,82.983574,-0.77056324,20.112373,SIT
8230278653000,2.754969,2.51261542917157,0.55556099370534,9.00838929171574,-0.065973446,0.021685716,-0.106595986,83.00237,-0.7745636,20.116783,SIT
8230283664000,2.75998,2.51732580851983,0.607375210802905,9.05549308519827,-0.077579886,0.03145956,-0.095294975,83.016266,-0.77701837,20.119884,SIT
8230288653000,2.764969,2.52878289808955,0.609048702723383,9.09276231830846,-0.06566802,0.036651913,-0.07971791,83.03532,-0.79924166,20.121965,SIT
8230293678000,2.769994,2.54314809808955,0.589895107723383,9.12628081830846,-0.080634214,0.037873644,-0.064446285,83.05042,-0.8095357,20.122393,SIT
8230298650000,2.774966,2.56436349173453,0.594344992605863,9.13965965492671,-0.06414085,0.036651913,-0.05222898,83.06805,-0.8433761,20.11523,SIT
8230303580000,2.779896,2.588393327443,0.608762833811075,9.14446570236156,-0.061086524,0.017104227,-0.05131268,83.083954,-0.86851573,20.113235,SIT
8230308602000,2.784918,2.58585250914328,0.600299504087044,9.16162015342416,-0.05222898,0.013133603,-0.03940081,83.092316,-0.89304745,20.107828,SIT
8230313596000,2.789912,2.57273363597879,0.582807837582518,9.18348471372406,-0.052534413,-0.005192355,-0.024740042,83.09926,-0.9149716,20.112179,SIT
8230318627000,2.794943,2.56378111424219,0.569002569948863,9.20214292068328,-0.05131268,-0.004276057,-0.022296581,83.112885,-0.9456338,20.114614,SIT
8230323599000,2.799915,2.5586004644326,0.558641162136873,9.21768535697965,-0.049785517,-0.018020526,-0.014966198,83.12025,-0.97368425,20.126318,SIT
8230328596000,2.804912,2.56340851214224,0.542652489343741,9.20966244203527,-0.049785517,-0.025961773,-0.0033597588,83.12543,-0.9966304,20.13267,SIT
8230333596000,2.809912,2.57263748005204,0.524194717347981,9.19120431348174,-0.049785517,-0.034513887,-0.0012217305,83.131004,-1.0196515,20.142845,SIT
8230338601000,2.814917,2.58830269410319,0.495899747149877,9.19022792383293,-0.04062254,-0.03573562,0.004276057,83.133,-1.0420573,20.149714,SIT
8230343595000,2.819911,2.60788768149058,0.461626014109337,9.20002062203112,-0.04184427,-0.044898596,0.013439035,83.13311,-1.0606676,20.16105,SIT
8230348582000,2.824898,2.59939513136416,0.432022225219749,9.19426728139269,-0.038789943,-0.054061573,0.009162978,83.13555,-1.079892,20.174526,SIT
8230353719000,2.830035,2.5759950505898,0.403942279781202,9.18022751636225,-0.045814894,-0.062002823,0.015577064,83.13189,-1.0938,20.189964,SIT
8230358677000,2.834993,2.576669142467,0.385085277119709,9.18466601083295,-0.04886922,-0.0720821,0.016187929,83.130066,-1.1030728,20.21408,SIT
8230363680000,2.839996,2.59411588097406,0.372000316604461,9.20211252162039,-0.047036625,-0.07147124,0.017104227,83.12619,-1.1109973,20.23671,SIT
8230368660000,2.844976,2.60397135603172,0.353797067701693,9.20736711697423,-0.038179077,-0.0711658,0.024129177,83.11777,-1.1118889,20.264866,SIT
8230373690000,2.850006,2.60152250726958,0.326859708304611,9.19267397326013,-0.037873644,-0.07391469,0.016798794,83.113594,-1.1123927,20.292786,SIT
8230378675000,2.854991,2.59909556669717,0.300163339200346,9.17811227914188,-0.028405234,-0.07788532,0.017715093,83.10674,-1.1143806,20.323198,SIT
8230383672000,2.859988,2.59666278394083,0.273402706017996,9.16351553179808,-0.029932396,-0.07269296,0.020463986,83.101585,-1.1140945,20.350822,SIT
8230388684000,2.865,2.60188307093059,0.252005396783203,9.15761650270105,-0.0076358155,-0.08307768,0.016187929,83.09848,-1.1233605,20.383087,SIT
8230393680000,2.869996,2.61651328990929,0.237375172712262,9.16249334420548,-0.0070249503,-0.080634214,0.015271631,83.09346,-1.1258036,20.409372,SIT
8230398654000,2.87497,2.61916279386196,0.233749208988878,9.16305103676034,-0.0021380284,-0.08246681,0.013133603,83.09066,-1.1263571,20.43947,SIT
8230403781000,2.880097,2.60874165165973,0.242086131455981,9.15888249282622,-0.003970624,-0.077579886,0.018020526,83.08599,-1.1247251,20.466095,SIT
8230410273000,2.886589,2.59554600992444,0.252642655867221,9.15360412590203,0.004276057,-0.07788532,0.017715093,83.08323,-1.1253426,20.492811,SIT
8230413680000,2.889996,2.58862094039392,0.258182717276509,9.15083404024111,0.0030543262,-0.0842994,0.01038471,83.08123,-1.1232547,20.51908,SIT
8230418642000,2.894958,2.57853517725613,0.266251336211903,9.14679965073436,-0.007941248,-0.08735373,0.013439035,83.07621,-1.1198133,20.543772,SIT
8230423685000,2.900001,2.58008356987633,0.283840323866399,9.16153963375965,-0.009468411,-0.08032878,0.013439035,83.074356,-1.1196604,20.566555,SIT
8230428611000,2.904927,2.58506991480816,0.303785505741465,9.18148470108868,-0.0070249503,-0.0842994,0.013439035,83.07171,-1.1174257,20.592571,SIT
8230433675000,2.909991,2.6148997097985,0.314789758214145,9.20498682378507,-0.022296581,-0.08307768,0.018936822,83.06336,-1.1113448,20.6091,SIT
8230438626000,2.914942,2.64768345757606,0.324156567046622,9.22840382141446,-0.020463986,-0.07666359,0.023518313,83.0554,-1.1106821,20.624714,SIT
8230443680000,2.919996,2.6752121254784,0.366745276805176,9.29935150118462,-0.02107485,-0.062002823,0.024740042,83.046745,-1.1086413,20.63691,SIT
8230448655000,2.924971,2.70126164980864,0.41450276527793,9.37750079952615,-0.03145956,-0.06383542,0.033292156,83.034706,-1.1033981,20.651594,SIT
8230454542000,2.930858,2.71829883823574,0.432971934558935,9.39636239862309,-0.042455133,-0.06078109,0.036651913,83.01989,-1.0983001,20.663021,SIT
8230458710000,2.935026,2.72635171610935,0.434985154027337,9.38830945768397,-0.04428773,-0.056505036,0.038789943,83.00318,-1.0924039,20.674236,SIT
8230463674000,2.93999,2.73594252363444,0.437382855908609,9.37871857504918,-0.04917465,-0.055283304,0.04734206,82.98158,-1.0903219,20.68553,SIT
8230468682000,2.944998,2.7456183423463,0.439801810586574,9.36904268056186,-0.04917465,-0.06505715,0.04642576,82.96266,-1.089989,20.69835,SIT
8230473683000,2.949999,2.75023761026786,0.430368431316964,9.33562332059152,-0.04795292,-0.053145275,0.062308256,82.93102,-1.0834811,20.707323,SIT
8230478667000,2.954983,2.75265901708604,0.415839980294237,9.29203771973924,-0.06261369,-0.05009095,0.06047566,82.90576,-1.0749444,20.721012,SIT
8230483675000,2.959991,2.75509208396916,0.401241568833198,9.24824223637886,-0.07819075,-0.062002823,0.056199603,82.88013,-1.0684929,20.735764,SIT
8230488729000,2.965045,2.75754749931007,0.386509066532062,9.20404447821124,-0.053450707,-0.086132,0.055283304,82.85467,-1.0691513,20.752693,SIT
8230493680000,2.969996,2.75162673724609,0.366838346334712,9.14178543016358,-0.045814894,-0.10415252,0.061086524,82.83111,-1.0620699,20.772358,SIT
8230498667000,2.974983,2.74304153113428,0.345375322090599,9.07310369162322,-0.03359759,-0.12064589,0.06352998,82.80946,-1.0635309,20.797684,SIT
8230503713000,2.980029,2.730385058613,0.306582750788271,9.0176207424462,-0.025045475,-0.13622294,0.055283304,82.7867,-1.0597942,20.83864,SIT
8230508738000,2.985054,2.7142884748244,0.252927437877132,8.97469674311517,-0.011301007,-0.1423316,0.046731193,82.76389,-1.0608555,20.880295,SIT
8230513679000,2.989995,2.69107511816922,0.222000909238991,8.99872951241959,-0.018936822,-0.13805555,0.04886922,82.746704,-1.0573246,20.924612,SIT
8230518677000,2.994993,2.66502299989114,0.198317145565562,9.04609700019792,-0.03176499,-0.12889257,0.046120327,82.73388,-1.057556,20.967745,SIT
8230524173000,3.000489,2.63637505230084,0.172273535091539,9.09818417763483,-0.03756821,-0.121256754,0.04062254,82.72191,-1.049349,21.008448,SIT
8230528680000,3.004996,2.61288227577437,0.150916447681346,9.14089831677387,-0.056505036,-0.13316862,0.03604105,82.710884,-1.0347462,21.05086,SIT
8230533669000,3.009985,2.58975911199707,0.152731501199707,9.14332120336503,-0.055283304,-0.1695151,0.018325957,82.70935,-1.0284946,21.091305,SIT
8230538691000,3.015007,2.56776986068032,0.165925006068032,9.12572996762985,-0.055588737,-0.19517145,0.01038471,82.70642,-1.0165826,21.131071,SIT
8230543676000,3.019992,2.56057621701814,0.175951402236642,9.1123615185076,-0.04337143,-0.18967366,-0.0015271631,82.71537,-1.0035068,21.158371,SIT
8230548654000,3.02497,2.56760671520425,0.182981831905815,9.10298766774812,-0.04795292,-0.16249016,-0.0015271631,82.7209224794453,-0.99397325196632,21.1664862001981,SIT
8230553771000,3.030087,2.57483352501106,0.190208571282505,9.09335207226073,-0.058643065,-0.12492194,-0.013744468,82.72663,-0.9841735,21.174828,SIT
8230558774000,3.03509,2.58189933104262,0.197274308453031,9.08393114511134,-0.06383542,-0.10567969,-0.015577064,82.73667,-0.97252727,21.202946,SIT
8230563670000,3.039986,2.59946052840461,0.223412095674342,9.08224352911184,-0.06811147,-0.10170906,-0.0070249503,82.74685,-0.95740724,21.216368,SIT
8230568700000,3.045016,2.63115213440789,0.274911064013158,9.09016619276316,-0.06627888,-0.106595986,-0.008246681,82.76037,-0.94392264,21.22642,SIT
8230574157000,3.050473,2.66323202883129,0.326051302119145,9.09928561391541,-0.06291912,-0.108123146,-0.010079277,82.77109,-0.9319137,21.236856,SIT
8230578829000,3.055145,2.67137082704866,0.33012067998181,9.11149400245566,-0.06872234,-0.11728613,0.0027488936,82.77765,-0.91673064,21.250544,SIT
8230583681000,3.059997,2.67982319197817,0.334346840381992,9.12417274843111,-0.06169739,-0.115453534,-0.0018325958,82.789185,-0.9194051,21.265696,SIT
8230588755000,3.065071,2.68524067662806,0.323984085323714,9.09681904101006,-0.06078109,-0.11178834,0.0015271631,82.79426,-0.9167632,21.282442,SIT
8230594367000,3.070683,2.69034267400797,0.308677922703626,9.05600231611923,-0.05100725,-0.102319926,0.008246681,82.79951,-0.91844696,21.296423,SIT
8230598680000,3.074996,2.70832527651539,0.313354857807965,9.03283942348461,-0.05100725,-0.100792766,0.004276057,82.80684,-0.91934174,21.311632,SIT
8230603745000,3.080061,2.73328487927344,0.323338709336215,9.00787982072656,-0.06536258,-0.0852157,0.0061086523,82.810074,-0.9176443,21.319729,SIT
8230610209000,3.086525,2.77100263415914,0.272218171799286,8.97550138820071,-0.063224554,-0.076358154,0.0076358155,82.82028,-0.92036647,21.33788,SIT
8230613608000,3.089924,2.79150539074113,0.238046882284275,8.95841575771573,-0.05681047,-0.0711658,-0.0021380284,82.83314,-0.92136306,21.352034,SIT
8230618668000,3.094984,2.79241882663971,0.225834682453891,8.96233151415327,-0.05681047,-0.0729984,-0.0036651916,82.84009,-0.921094,21.368525,SIT
8230623652000,3.099968,2.78771118572838,0.221127036626886,8.97174699260282,-0.053450707,-0.07360926,-0.00061086525,82.84838,-0.9238753,21.382692,SIT
8230628711000,3.105027,2.77505249198099,0.22419929011286,8.98133322562123,-0.05497787,-0.06811147,0.0015271631,82.85756,-0.9171952,21.399744,SIT
8230633681000,3.109997,2.76091625913276,0.228911372649243,8.99075708563509,-0.05375614,-0.07452556,0.0030543262,82.86588,-0.91194135,21.419792,SIT
8230638706000,3.115022,2.76582524181927,0.237548265615048,9.01188325398089,-0.041233405,-0.06536258,0.0012217305,82.87443,-0.90853935,21.432163,SIT
8230643689000,3.120005,2.77532393679339,0.247046915956409,9.03562986743631,-0.04153884,-0.0693332,0.008857546,82.87956,-0.9009792,21.449644,SIT
8230648710000,3.125026,2.75328396020408,0.242142679561404,9.03365092785535,-0.032986723,-0.05009095,0.01038471,82.88686,-0.90068114,21.455114,SIT
8230653813000,3.130129,2.72266335663265,0.233393944166667,9.02490247108843,-0.025045475,-0.044593163,0.010995574,82.89207,-0.8994678,21.465284,SIT
8230658794000,3.13511,2.7060472443331,0.225654286836356,9.01576660216455,-0.03848451,-0.035124753,0.012217305,82.89134,-0.8933856,21.4732,SIT
8230663998000,3.140314,2.69855588842569,0.218162899639242,9.00577814500451,-0.026572637,-0.040011674,0.012217305,82.89084,-0.8962674,21.483341,SIT
8230668707000,3.145023,2.69177710384307,0.211384086743161,8.99673978129071,-0.027794369,-0.041233405,0.0076358155,82.895226,-0.8927581,21.482204,SIT
8230673720000,3.150036,2.68456069969937,0.204167652458162,8.98711792584427,-0.0290161,-0.027794369,0.007330383,82.89821,-0.89196557,21.478254,SIT
8230678716000,3.155032,2.67013018059516,0.192581091779293,8.97735698636082,-0.03176499,-0.010995574,-0.005192355,82.90626,-0.8921747,21.47357,SIT
8230683727000,3.160043,2.65029572303162,0.177705277084108,8.96743957635875,-0.034513887,0.0067195175,0.00030543262,82.90869,-0.8901759,21.464935,SIT
8230688717000,3.165033,2.65492377784586,0.175313784870273,8.99027229506941,-0.035124753,0.021685716,-0.002443461,82.911934,-0.8848563,21.451784,SIT
8230693715000,3.170031,2.67325406845381,0.179896350344663,9.03151524557205,-0.044593163,0.025350908,-0.00061086525,82.91211,-0.8754952,21.437246,SIT
8230698694000,3.17501,2.70676949656839,0.245118116266796,9.07281909415176,-0.043982297,0.019547688,-0.0021380284,82.91443,-0.8667525,21.419573,SIT
8230703787000,3.180103,2.75391753175447,0.362988287925568,9.11525222735621,-0.03726278,0.009162978,0.007941248,82.91272,-0.85590404,21.40282,SIT
8230708766000,3.185082,2.80097713493903,0.40715760913635,9.12916215852061,-0.040317107,-0.0067195175,0.015577064,82.91229,-0.8439507,21.390253,SIT
8230713700000,3.190016,2.84859572931573,0.378586432621183,9.11487677909906,-0.042760566,-0.020158553,0.016798794,82.91089,-0.8337547,21.380365,SIT
8230718706000,3.195022,2.86841319070654,0.340774478197987,9.11680061858692,-0.03848451,-0.020463986,0.016187929,82.90647,-0.8459795,21.376202,SIT
8230723690000,3.200006,2.85908444605687,0.294130482200723,9.13545810788625,-0.034513887,-0.01282817,0.02443461,82.898994,-0.85625666,21.373648,SIT
8230728710000,3.205026,2.84527383156286,0.267073764477627,9.14154269389187,-0.03390302,-0.0125227375,0.036651913,82.89068,-0.8610418,21.383463,SIT
8230733741000,3.210057,2.82595992919777,0.264659522270381,9.13188580573232,-0.024740042,-0.039095376,0.03359759,82.88471,-0.8698536,21.39848,SIT
8230738670000,3.214986,2.80703760267074,0.262294227132335,9.12242470421406,-0.027488936,-0.063224554,0.030848695,82.87568,-0.8655032,21.410099,SIT
8230743714000,3.22003,2.7876737935812,0.259873746573132,9.11274286285514,-0.014660766,-0.07086037,0.030848695,82.866974,-0.8679138,21.42411,SIT
8230748657000,3.224973,2.76935373084683,0.252633581574271,9.09170258574734,-0.01160644,-0.08857546,0.033292156,82.85873,-0.8671503,21.447208,SIT
8230753830000,3.230146,2.75101373428043,0.238878615268857,9.05502287987043,0.0018325958,-0.09254608,0.027488936,82.85312,-0.8735031,21.467741,SIT
8230758685000,3.235001,2.74187002867249,0.221133367919268,9.02512222138993,0.002443461,-0.10415252,0.03848451,82.844025,-0.87554896,21.488045,SIT
8230763691000,3.240007,2.75184536383687,0.191207341593841,9.00517113441531,0.020158553,-0.093462385,0.041233405,82.83917,-0.88712156,21.50242,SIT
8230768638000,3.244954,2.75637606515397,0.175870991513371,8.98913263958671,0.017715093,-0.0852157,0.043676864,82.83386,-0.89057463,21.523615,SIT
8230773722000,3.250038,2.75144409076175,0.185734945447731,8.97926899979741,0.025045475,-0.08552113,0.03970624,82.82971,-0.9016323,21.543522,SIT
8230778609000,3.254925,2.74680617671416,0.193273455099933,8.98910387329062,0.022602014,-0.076358154,0.03940081,82.82387,-0.9036664,21.559801,SIT
8230783719000,3.260035,2.74212630218036,0.197953334520417,9.03122264636129,0.021991149,-0.07544186,0.03940081,82.81925,-0.9084915,21.577892,SIT
8230788623000,3.264939,2.74232236493156,0.20715314108155,9.06234351792944,0.013744468,-0.08093964,0.033292156,82.8184,-0.91345775,21.5988,SIT
8230793717000,3.270033,2.75407873161751,0.228314615847311,9.07174856217467,-0.0012217305,-0.07941248,0.03268129,82.81581,-0.91581017,21.616856,SIT
8230798735000,3.275051,2.76565969903605,0.249160371711972,9.08101328773858,-0.0009162979,-0.079107046,0.032070424,82.815125,-0.9211991,21.633495,SIT
8230803814000,3.28013,2.77738144744554,0.270259533536726,9.09039063750723,-0.003970624,-0.08735373,0.029321533,82.81534,-0.92200255,21.651588,SIT
8230810211000,3.286527,2.80004770619583,0.28918948491204,9.0923102358191,0.0018325958,-0.092240654,0.041233405,82.813576,-0.924876,21.668425,SIT
8230813769000,3.290085,2.82051629732258,0.292113566741612,9.08353813078177,0.014966198,-0.09743301,0.035124753,82.8182,-0.9310453,21.68701,SIT
8230818671000,3.294987,2.84871670027461,0.296142192129065,9.07145244812495,0.025961773,-0.07452556,0.037873644,82.81756,-0.9444906,21.702475,SIT
8230823690000,3.300006,2.87401521699653,0.304931706798613,9.06118514507243,0.009773844,-0.06261369,0.0421497,82.81827,-0.9544033,21.721758,SIT
8230828661000,3.304977,2.89829917578045,0.314645290312181,9.0514713587023,0.011301007,-0.055588737,0.037873644,82.8205,-0.9722421,21.7353,SIT
8230833659000,3.309975,2.89770797751708,0.324163673454113,9.02975938758539,0.011301007,-0.05222898,0.040317107,82.8188835575963,-0.977160854410062,21.7420172162108,SIT
8230838679000,3.314995,2.89294849469359,0.333682649040689,9.00596197346797,0.0033597588,-0.0421497,0.039095376,82.81726,-0.98210126,21.748764,SIT
8230843680000,3.319996,2.89960937146932,0.338895075734658,9.00961182629497,-0.010079277,-0.030543262,0.038179077,82.8159,-0.9913626,21.760183,SIT
8230849311000,3.325627,2.90953244825651,0.343856614128255,9.01953511031374,-0.019242255,-0.03023783,0.046120327,82.80501,-0.99732286,21.774887,SIT
8230853688000,3.330004,2.89837163065137,0.336113270974013,9.02459636652042,-0.018325957,-0.015882496,0.048563786,82.795944,-1.004902,21.782394,SIT
8230858686000,3.335002,2.87898657643604,0.323189917240635,9.02944255416807,-0.021991149,0.0061086523,0.04550946,82.786255,-1.0085909,21.787262,SIT
8230863673000,3.339989,2.85964418640567,0.310295006262572,9.03427807593655,-0.03726278,0.023823744,0.04153884,82.78575,-1.0152481,21.785334,SIT
8230868674000,3.34499,2.84024749650354,0.297363895414107,9.03912717246034,-0.047647487,0.03390302,0.03634648,82.78642,-1.0225052,21.77933,SIT
8230873683000,3.349999,2.82081977810327,0.284412098925413,9.04398402598718,-0.040927973,0.040317107,0.03145956,82.78808,-1.0305262,21.76948,SIT
8230878677000,3.354993,2.80145023813702,0.27149908801215,9.04882633513331,-0.054367006,0.043982297,0.02076942,82.79304,-1.0315073,21.757746,SIT
8230883751000,3.360067,2.78567454768743,0.246644751515302,9.03932923482222,-0.054367006,0.055588737,0.023823744,82.79657,-1.0378218,21.739332,SIT
8230888718000,3.365034,2.77154120179261,0.218378133514905,9.02519613489155,-0.043982297,0.055588737,0.021685716,82.80484,-1.0448581,21.723515,SIT
8230893695000,3.370011,2.7778695215311,0.183563102631579,9.01117930143541,-0.046120327,0.05222898,0.018020526,82.8127,-1.0406656,21.69788,SIT
8230898680000,3.374996,2.79185463455717,0.146269573361976,8.9971939450249,-0.04550946,0.062308256,0.012217305,82.821686,-1.0403708,21.669111,SIT
8230903743000,3.380059,2.78827506139655,0.130814321153541,8.99751256531442,-0.03634648,0.04642576,0.0012217305,82.83207,-1.0363728,21.650171,SIT
8230908720000,3.385036,2.77645604393969,0.126086709234279,9.00460412388415,-0.026572637,0.046731193,-0.0027488936,82.84181,-1.0326173,21.62445,SIT
8230913673000,3.389989,2.76469401993652,0.121381894720294,9.01166148566753,-0.027488936,0.051923547,-0.004886922,82.85467,-1.0225984,21.60471,SIT
8230919316000,3.395632,2.75129343414005,0.116021654804602,9.01970200505852,-0.024129177,0.049480084,-0.011301007,82.86992,-1.0171957,21.587524,SIT
8230923681000,3.399997,2.76037604040453,0.135628612580303,9.03318446318324,-0.03268129,0.043066,-0.002443461,82.87898,-1.0056381,21.57437,SIT
8230928678000,3.404994,2.77881296101613,0.167893203195762,9.05162126347219,-0.02687807,0.032986723,-0.0036651916,82.892975,-1.0005437,21.563255,SIT
8230933714000,3.41003,2.7973937759451,0.200409608706959,9.07020195713942,-0.022296581,0.009162978,-0.006414085,82.90483,-0.9901697,21.554384,SIT
8230938713000,3.415029,2.81583807575247,0.232687112906814,9.08864613657597,-0.018020526,-0.008552114,-0.0061086523,82.916016,-0.9811669,21.54697,SIT
8230943713000,3.420029,2.81116739730341,0.242001688130105,9.10029780769609,-0.018936822,-0.017104227,-0.00580322,82.92463,-0.9711662,21.54009,SIT
8230948776000,3.425092,2.78253586074205,0.227685959711643,9.10506981350261,-0.013133603,-0.01282817,-0.016187929,82.93636,-0.965282,21.534616,SIT
8230953693000,3.430009,2.78311197533093,0.207053785941637,9.12075580314882,-0.006414085,-0.04062254,-0.009162978,82.94578,-0.972143,21.540716,SIT
8230958804000,3.43512,2.8174713032491,0.177603093790614,9.15020658243081,0.004886922,-0.0852157,0.005497787,82.95572,-0.98176306,21.550335,SIT
8230963671000,3.439987,2.8473751444168,0.173339198611616,9.15868378480528,0.03848451,-0.13072516,0.007941248,82.96733,-0.99652094,21.563965,SIT
8230968727000,3.445043,2.87517356554397,0.196504604379485,9.14478425978375,0.05589417,-0.1554652,0.007330383,82.975266,-1.0085663,21.583906,SIT
8230973675000,3.449991,2.89545903644894,0.222111436090156,9.11506138123275,0.0729984,-0.15577064,0.008246681,82.97954,-1.0220999,21.613327,SIT
8230978702000,3.455018,2.90431691567617,0.25311403650874,9.05748535124195,0.08460484,-0.1469131,0.017104227,82.98144,-1.037769,21.64598,SIT
8230983629000,3.459945,2.90944431970035,0.279632382288811,9.00701254925088,0.08979719,-0.14080444,0.019242255,82.98448,-1.061168,21.682611,SIT
8230988889000,3.465205,2.89873898169164,0.290337731475932,8.98024920422909,0.087659165,-0.12034045,0.016493361,82.98596,-1.0848379,21.711369,SIT
8230993611000,3.469927,2.89632627744705,0.301011600322458,8.97008685179355,0.090713486,-0.10995574,0.021380283,82.98612,-1.1177655,21.741692,SIT
8230998722000,3.475038,2.91033515689754,0.3150204895249,8.9911001222095,0.08582657,-0.087659165,0.026572637,82.98647,-1.1476116,21.761839,SIT
8231003695000,3.480011,2.92396578838008,0.328651130496089,9.01154602199008,0.08246681,-0.07941248,0.010995574,82.99135,-1.1815689,21.782183,SIT
8231008620000,3.484936,2.93746485535203,0.342150206865102,9.0317945754627,0.057421334,-0.05955936,0.01160644,82.989136,-1.2055831,21.792433,SIT
8231013654000,3.48997,2.95129599891908,0.357620858979453,9.05500048534424,0.042760566,-0.03390302,0.0070249503,82.992905,-1.2330236,21.7981,SIT
8231018681000,3.494997,2.9653604375986,0.385749746129126,9.09719370347648,0.022602014,-0.018936822,0.0143553335,82.99042,-1.249004,21.805948,SIT
8231023771000,3.500087,2.98046423466613,0.410556278332667,9.13585756777289,0.025350908,-0.008552114,0.0290161,82.98639,-1.2716037,21.809258,SIT
8231028678000,3.504994,3.00395151855258,0.396463898190724,9.13116050339864,0.016187929,-0.0036651916,0.022907447,82.98632,-1.2867904,21.809595,SIT
8231033702000,3.510018,3.02688831669792,0.381837425959461,9.12546214081615,-0.003970624,0.0036651916,0.02565634,82.97264,-1.299092,21.8072,SIT
8231038651000,3.514967,3.03535256943477,0.364908911647469,9.10853328181087,0.005497787,0.01282817,0.021380283,82.96307,-1.3180156,21.8028,SIT
8231043623000,3.519939,3.04385615896955,0.347901723698545,9.09152574756675,0.0030543262,-0.005192355,0.029626964,82.94892,-1.3241541,21.807348,SIT
8231048705000,3.525021,3.03777884694269,0.333296552430516,9.06927486735672,0.0009162979,-0.013439035,0.03145956,82.93808,-1.3339318,21.806404,SIT
8231053676000,3.529992,3.02865362693119,0.3196087128848,9.04646181732797,0.004886922,-0.0012217305,0.02687807,82.92686,-1.3444412,21.804607,SIT
8231058716000,3.535032,3.02269402009183,0.323188312588083,9.01904424343747,0.008246681,-0.008857546,0.029626964,82.91344,-1.3495932,21.81606,SIT
8231063616000,3.539932,3.01801023827727,0.33255578818445,8.99094223724923,0.006414085,-0.008246681,0.026572637,82.90325,-1.3555323,21.821283,SIT
8231068667000,3.544983,2.99554698890113,0.331663732016428,8.9724712552339,0.012217305,0.0012217305,0.018020526,82.89634,-1.3633976,21.823626,SIT
8231073624000,3.54994,2.96701521589703,0.326908428240008,8.95820504597816,0.010995574,0.013439035,0.021685716,82.88673,-1.3679308,21.824797,SIT
8231078682000,3.554998,2.9627265332874,0.315131623413386,8.95780734271654,0.0076358155,0.019242255,0.021685716,82.876945,-1.3744255,21.828848,SIT
8231083662000,3.559978,2.96742062442913,0.301049193137795,8.96250158090551,-0.00061086525,0.019242255,0.01038471,82.869675,-1.3800973,21.830858,SIT
8231088666000,3.564982,2.95531461976048,0.310376477744511,8.97063886626747,0.0012217305,0.02565634,0.007330383,82.862076,-1.386644,21.82665,SIT
8231093668000,3.569984,2.93619170419162,0.329499503137725,8.9802005736527,-0.009162978,0.030543262,0.01863139,82.85362,-1.3873744,21.82296,SIT
8231098737000,3.575053,2.92732751509259,0.322486558998148,8.99257112314815,-0.008246681,0.032986723,0.011301007,82.85198,-1.391196,21.818373,SIT
8231103694000,3.58001,2.92293184944444,0.304904254411111,9.00575766111111,-0.019547688,0.025961773,0.0125227375,82.84443,-1.3869805,21.815353,SIT
8231108694000,3.58501,2.94388686919877,0.308361445608581,9.0376058841944,-0.0030543262,0.030848695,0.015271631,82.836845,-1.393162,21.80916,SIT
8231113681000,3.589997,2.98570785338222,0.329271921324431,9.08465432081874,-0.010995574,0.0067195175,0.028710667,82.826004,-1.388652,21.813377,SIT
8231118672000,3.594988,3.0009522766942,0.348835353901881,9.10478969589014,0.0070249503,-0.03940081,0.036651913,82.820984,-1.3937709,21.82498,SIT
8231123699000,3.600015,3.00574305921982,0.367998494009354,9.1143714610409,0.026267206,-0.064446285,0.043066,82.81246,-1.3959554,21.83727,SIT
8231128681000,3.604997,2.99697311328546,0.383639653776182,9.07992457809695,0.027488936,-0.082161374,0.04520403,82.80162,-1.4003273,21.865068,SIT
8231133669000,3.609985,2.98267955302214,0.397933223989627,9.02751475763016,0.03390302,-0.082161374,0.0421497,82.790634,-1.4110395,21.893919,SIT
8231138659000,3.614975,2.96174903146269,0.395570711737313,8.98515449373134,0.032375857,-0.06291912,0.046731193,82.77661,-1.4223597,21.921453,SIT
8231143681000,3.619997,2.93782137516418,0.385999619235821,8.94687036358209,0.02321288,-0.041233405,0.043982297,82.76591,-1.4343246,21.94708,SIT
8231148711000,3.625027,2.91967829140787,0.381989789140787,8.94706808902692,0.025045475,-0.02107485,0.042760566,82.75303,-1.4508725,21.968025,SIT
8231153691000,3.630007,2.90424982867495,0.380446942867495,8.96403926915114,0.010995574,-0.00061086525,0.04184427,82.74086,-1.4608976,21.981916,SIT
8231158691000,3.635007,2.88875940424431,0.378897900424431,8.98107860662526,0.009162978,0.0106901415,0.04184427,82.72901,-1.4729676,21.990881,SIT
8231163681000,3.639997,2.87329996066253,0.377351956066253,8.99808386542443,-0.014049901,0.02107485,0.040927973,82.71772,-1.4757615,21.99403,SIT
8231168664000,3.64498,2.85786220367495,0.375808180367495,9.01506526915114,-0.016798794,0.019547688,0.03604105,82.71227,-1.4858043,21.9987,SIT
8231174320000,3.650636,2.84033943555901,0.374055903555901,9.03434016770186,-0.021991149,0.02076942,0.033292156,82.70646,-1.4888924,21.999552,SIT
8231178674000,3.65499,2.8371747225976,0.367396119114114,9.04538457257257,-0.030848695,0.023518313,0.03848451,82.69525,-1.4880924,21.997587,SIT
8231183695000,3.660011,2.84198802207207,0.355362802576577,9.05501142282282,-0.03634648,0.027183503,0.040011674,82.6862,-1.487561,21.99496,SIT
8231188651000,3.664967,2.84673901036036,0.343485264882883,9.06451364744745,-0.03848451,0.02107485,0.03604105,82.6781,-1.4842739,21.98564,SIT
8231193680000,3.669996,2.8515599789039,0.331432775564565,9.07415583623624,-0.028099801,0.019547688,0.036957346,82.668205,-1.4823556,21.97422,SIT
8231198708000,3.675024,2.85870187715142,0.318391331550957,9.0691859943918,-0.02107485,0.029321533,0.04153884,82.65777,-1.477876,21.969425,SIT
8231203707000,3.680023,2.8679600812222,0.304503943272094,9.05066910288145,-0.033292156,0.01863139,0.032986723,82.65151,-1.4725134,21.970737,SIT
8231210235000,3.686551,2.85333632445169,0.28374393154613,9.04707367282944,-0.014049901,0.009468411,0.039095376,82.63819,-1.4699181,21.97203,SIT
8231213682000,3.689998,2.83538562053652,0.271776821635853,9.05305734493384,-0.0012217305,0.0027488936,0.03390302,82.63135,-1.4647851,21.97532,SIT
8231218664000,3.69498,2.81929275710059,0.25609929239645,9.06460793195266,-0.003970624,0.0070249503,0.03390302,82.62122,-1.457131,21.980152,SIT
8231223697000,3.700013,2.83513777278106,0.245536064424721,9.0857342886259,-0.009162978,0.0021380284,0.034208454,82.61294,-1.4529222,21.989096,SIT
8231228628000,3.704944,2.84241292835938,0.241318969484911,9.10176366224319,0.0015271631,-0.019547688,0.04795292,82.60307,-1.4479715,21.99833,SIT
8231233684000,3.71,2.83765329057309,0.246078652001376,9.11128323601691,0.005497787,-0.055283304,0.04337143,82.59911,-1.4420171,22.012566,SIT
8231238656000,3.714972,2.83819393806676,0.255914887669303,9.12057884777156,0.015271631,-0.09010262,0.04917465,82.588165,-1.4362453,22.033407,SIT
8231244299000,3.720615,2.84862064079684,0.276768418335906,9.13100527831372,0.0125227375,-0.108123146,0.04550946,82.581894,-1.4299451,22.05877,SIT
8231248731000,3.725047,2.85535464900746,0.288770352069333,9.12747622843033,0.019242255,-0.10934488,0.043066,82.57354,-1.4291006,22.085197,SIT
8231253696000,3.730012,2.85995896894548,0.29337468162293,9.099850693425,0.023823744,-0.099265605,0.0421497,82.56609,-1.4273744,22.112429,SIT
8231258620000,3.734936,2.86873350791221,0.302149230112619,9.05036463326595,0.016493361,-0.08827003,0.032375857,82.557884,-1.427464,22.136374,SIT
8231263638000,3.739954,2.89186200074117,0.32527773260179,8.92547057878526,0.01740966,-0.076052725,0.03176499,82.54722,-1.4301639,22.15626,SIT
8231268647000,3.744963,2.91057988524843,0.346303870306553,8.82562489522683,0.015577064,-0.043676864,0.026267206,82.5408,-1.4329454,22.1684,SIT
8231273673000,3.749989,2.90562844025306,0.356206765467544,8.86028495849193,0.007941248,-0.00030543262,0.034208454,82.53036,-1.4330904,22.17329,SIT
8231278658000,3.754974,2.90071738706923,0.366028876963275,8.89466227949799,0.002443461,0.017104227,0.029626964,82.52451,-1.4404207,22.186548,SIT
8231283656000,3.759972,2.89579352672565,0.375876602791894,8.92912925048863,-0.011911872,0.04795292,0.03145956,82.51392,-1.4418162,22.183468,SIT
8231288645000,3.764961,2.90733215741306,0.381810888548911,8.9644050506354,-0.020158553,0.05131268,0.032070424,82.505356,-1.443995,22.18321,SIT
8231293691000,3.770007,2.96445898172594,0.377050319856172,9.00248989843365,-0.016493361,0.050396383,0.03390302,82.49582,-1.4452615,22.175625,SIT
8231298737000,3.775053,3.004626123448,0.356057213730918,9.05584076552005,-0.02321288,0.04642576,0.029932396,82.48829,-1.4452914,22.163584,SIT
8231303594000,3.77991,2.99515848298392,0.289783690938327,9.1505171701608,-0.021991149,0.057726767,0.03268129,82.47819,-1.4475118,22.147848,SIT
8231308602000,3.784918,2.98159045816069,0.234321581204649,9.21609175816069,-0.031154128,0.034208454,0.021991149,82.47015,-1.4439967,22.153362,SIT
8231313747000,3.790063,2.95669271384538,0.214403364954017,9.19119401384538,-0.027183503,-0.0070249503,0.019242255,82.459175,-1.4433093,22.160793,SIT
8231318633000,3.794949,2.93733048276203,0.216233567347624,9.16495873249037,-0.025961773,-0.018936822,0.009773844,82.45229,-1.427518,22.158566,SIT
8231323607000,3.799923,2.92791919126741,0.267995439630544,9.13201918769139,-0.013133603,-0.028099801,0.00030543262,82.44686,-1.4165651,22.167103,SIT
8231328602000,3.804918,2.92335670108441,0.305242475803048,9.09903553985932,-0.02107485,-0.0125227375,0.0021380284,82.44126,-1.397152,22.169622,SIT
8231333604000,3.80992,2.93271649078742,0.300562605384916,9.06627625146542,-0.020158553,-0.016493361,-0.004886922,82.44166,-1.3857619,22.17987,SIT
8231338602000,3.814918,2.94214066536087,0.299972470193339,9.03844409920032,-0.0076358155,-0.0061086523,-0.006414085,82.43926,-1.3848513,22.18087,SIT
8231343594000,3.81991,2.95181925339609,0.314490362352465,9.02876581435368,0.0061086523,0.00580322,-0.007941248,82.43907,-1.385363,22.182203,SIT
8231348603000,3.824919,2.95708701007092,0.326684584964539,9.01920566524823,-0.01038471,0.016798794,-0.013439035,82.44265,-1.3818905,22.186699,SIT
8231353767000,3.830083,2.94773389513948,0.33136114243026,9.00985235498818,-0.019547688,0.015882496,-0.0076358155,82.443115,-1.3828719,22.190998,SIT
8231358675000,3.834991,2.94104859999506,0.335834176252782,8.99864534757454,-0.023823744,0.014049901,-0.009773844,82.44449,-1.3842871,22.18792,SIT
8231363709000,3.840025,2.94820027532512,0.340601981379617,8.97242239697374,-0.029932396,0.01160644,-0.007330383,82.44272,-1.3817017,22.18532,SIT
8231368662000,3.844978,2.95523687602235,0.345293069737428,8.94662138896306,-0.034513887,0.021991149,-0.0067195175,82.43771,-1.3780543,22.175526,SIT
8231373726000,3.850042,2.96243117158681,0.350089288482421,8.92024216332888,-0.021685716,0.01863139,-0.0030543262,82.4313,-1.3769569,22.17046,SIT
8231378673000,3.854989,2.96755224091388,0.353084095660504,8.89769152648721,-0.034513887,0.016187929,-0.008857546,82.427704,-1.368959,22.162222,SIT
8231383891000,3.860207,2.95319121922598,0.338723013989846,8.90726577421209,-0.033292156,0.019242255,-0.010079277,82.42529,-1.3694286,22.149994,SIT
8231389032000,3.865348,2.94122769796502,0.325447439948217,8.91813898937088,-0.041233405,0.02321288,-0.00580322,82.42255,-1.3663038,22.142792,SIT
8231393717000,3.870033,2.95549393262321,0.32340940216943,8.94463334004088,-0.044593163,0.021991149,-0.011301007,82.42324,-1.3659185,22.136305,SIT
8231399061000,3.875377,2.97176687990461,0.321084690560073,8.97485443075176,-0.05497787,0.01740966,-0.005497787,82.41794,-1.3561139,22.130583,SIT
8231403745000,3.880061,2.98603006947536,0.319047087794685,9.00134312627754,-0.03848451,0.027794369,-0.0030543262,82.41539,-1.3536577,22.121023,SIT
8231410196000,3.886512,3.00567392855326,0.316240816351578,9.03782446163979,-0.04062254,0.027488936,-0.0061086523,82.414764,-1.3450962,22.111052,SIT
8231413684000,3.89,3.00425077482993,0.308868304081633,9.04480487755102,-0.048563786,0.025350908,-0.006414085,82.412605,-1.3389139,22.099031,SIT
8231418670000,3.894986,2.99950873949551,0.297013210793982,9.05191807910025,-0.041233405,0.022296581,-0.0018325958,82.409966,-1.3361154,22.087719,SIT
8231423710000,3.900026,2.99471534637768,0.28502972299419,9.05910831893341,-0.05131268,0.016187929,0.0015271631,82.40401,-1.3234591,22.083076,SIT
8231428678000,3.904994,2.98999043030438,0.273217427877253,9.06619584105467,-0.028710667,0.014660766,-0.0015271631,82.39885,-1.321869,22.078012,SIT
8231433668000,3.909984,2.98282477091779,0.278428409870496,9.08208325563063,-0.02443461,0.010995574,-0.0027488936,82.39242,-1.3124894,22.07532,SIT
8231438696000,3.915012,2.97378715796734,0.296503550838964,9.10467717004505,-0.018936822,0.0015271631,-0.0012217305,82.38633,-1.3096346,22.074692,SIT
8231443679000,3.919995,2.96452960744928,0.308598027449278,9.10213845846371,-0.012217305,-0.014966198,0.0009162979,82.3877,-1.3070767,22.074991,SIT
8231448691000,3.925007,2.95483975764611,0.313442977646109,9.06822360472393,-0.01740966,-0.009773844,0.004276057,82.38813,-1.3025821,22.07172,SIT
8231453735000,3.930051,2.94649646595141,0.321301329482405,9.04692202094582,-0.008857546,-0.011301007,0.0009162979,82.390175,-1.3073646,22.072586,SIT
8231458696000,3.935012,2.93986213293614,0.332358521925154,9.04028780338857,-0.015271631,-0.008246681,0.013133603,82.38628,-1.3047702,22.070679,SIT
8231463657000,3.939973,2.93322779992087,0.343415714367902,9.03365358583132,-0.020463986,-0.0012217305,0.017715093,82.38109,-1.3049624,22.066916,SIT
8231468677000,3.944993,2.9265145663517,0.354604407385962,9.02694046909328,-0.02565634,-0.00030543262,0.011911872,82.37554,-1.3033645,22.06399,SIT
8231473687000,3.950003,2.91972728135261,0.365516957927399,9.02255070613044,-0.016798794,0.002443461,0.013744468,82.374176,-1.3070061,22.05545,SIT
8231478680000,3.954996,2.91252487195863,0.375120208891901,9.02975304031732,-0.027794369,0.002443461,0.0143553335,82.3738082417421,-1.30591592619872,22.0536953342435,SIT
8231483778000,3.960094,2.90517099991967,0.384925410858061,9.03710683556761,-0.028710667,0.002443461,0.0125227375,82.3734327497336,-1.30480282665157,22.0519037688466,SIT
8231488703000,3.965019,2.89806668061957,0.394397874507205,9.04421108068484,-0.0290161,-0.0067195175,0.02076942,82.37307,-1.3037275,22.050173,SIT
8231493680000,3.969996,2.89306292819489,0.400491421799121,9.05094924630591,-0.03023783,-0.00030543262,0.021380283,82.373055,-1.3105576,22.03887,SIT
8231498684000,3.975,2.89784750359425,0.390922261008387,9.0557339216254,-0.023518313,-0.0033597588,0.016187929,82.3754,-1.3169748,22.035807,SIT
8231503741000,3.980057,2.90348874332439,0.381356015779566,9.05708462605299,-0.027794369,-0.0067195175,0.016187929,82.37405,-1.3216759,22.030937,SIT
8231508721000,3.985037,2.91246657079863,0.372378183618053,9.04361783796885,-0.020158553,0.0009162979,0.024129177,82.37172,-1.3308829,22.023829,SIT
8231513674000,3.98999,2.92139572330463,0.363449026450186,9.03022406259118,-0.01863139,0.002443461,0.01985312,82.37488,-1.338276,22.013235,SIT
8231518680000,3.994996,2.93042042297049,0.354424322072568,9.01668696597487,-0.016798794,0.0027488936,0.015271631,82.3756,-1.3468136,22.001118,SIT
8231523658000,3.999974,2.93939464489152,0.34545009546614,9.00322558623935,-0.011301007,-0.0036651916,0.020463986,82.376465,-1.356779,21.991426,SIT
8231528679000,4.004995,2.92406559840951,0.342477314613959,9.00906131948734,-0.016187929,0.0015271631,0.015882496,82.3815,-1.365783,21.978455,SIT
8231533799000,4.010115,2.906398673147,0.339953471912703,9.0166330057134,-0.016493361,-0.008552114,0.01038471,82.38528,-1.3767852,21.971895,SIT
8231538730000,4.015046,2.88938390586782,0.337522794498662,9.02392519024089,-0.016798794,-0.006414085,0.010995574,82.38839,-1.3829947,21.96406,SIT
8231543831000,4.020147,2.87463478775175,0.335506797550351,9.03156609514262,-0.022907447,-0.011911872,0.0143553335,82.39232,-1.3877014,21.961287,SIT
8231548698000,4.025014,2.89587341237583,0.339754522475166,9.04006127886631,-0.019242255,-0.0027488936,0.0143553335,82.396805,-1.3950546,21.95371,SIT
8231553723000,4.030039,2.91780151772533,0.344140143545065,9.04883224624077,-0.02321288,-0.003970624,0.009162978,82.39894,-1.3955858,21.950495,SIT
8231558739000,4.035055,2.920926,0.340749414451487,9.06012106387128,-0.023823744,-0.002443461,0.007330383,82.39994,-1.3975935,21.943941,SIT
8231563608000,4.039924,2.920926,0.336202418917601,9.071488552706,-0.030848695,-0.0067195175,0.0009162979,82.40395,-1.3978558,21.939362,SIT
8231569485000,4.045801,2.920926,0.330714086045831,9.08520938488542,-0.026267206,-0.0033597588,0.007330383,82.41117,-1.4040227,21.934738,SIT
8231573662000,4.049978,2.920926,0.326813326065334,9.09496128483666,-0.030543262,-0.007941248,0.0018325958,82.42385,-1.4077471,21.9334,SIT
8231578678000,4.054994,2.92867433448687,0.313988990859189,9.09021794868735,-0.033292156,-0.0143553335,0.0015271631,82.42746,-1.409397,21.93014,SIT
8231583634000,4.05995,2.93897220139944,0.298542260384031,9.07992045812541,-0.043982297,-0.008857546,0.005192355,82.43135,-1.4078975,21.924746,SIT
8231588747000,4.065063,2.93584898160116,0.29053497111647,9.07458221533639,-0.03023783,-0.011301007,-0.00030543262,82.438324,-1.4111837,21.922132,SIT
8231593617000,4.069933,2.93135037928623,0.283787098176995,9.07008354256089,-0.033292156,-0.004276057,-0.008857546,82.44495,-1.4071639,21.915236,SIT
8231598672000,4.074988,2.9266808855076,0.276782889201833,9.06541397564505,-0.03390302,-0.0030543262,-0.010079277,82.456314,-1.4072499,21.911808,SIT
8231603770000,4.080086,2.92197167101037,0.269719099418375,9.06070468738847,-0.040927973,-0.0061086523,-0.0027488936,82.467384,-1.4047135,21.907595,SIT
8231610239000,4.086555,2.91019626036528,0.262785685366852,9.03819952073055,-0.042455133,-0.0021380284,-0.0143553335,82.484344,-1.4055257,21.900885,SIT
8231613613000,4.089929,2.90341302230503,0.259394038004618,9.02463304461006,-0.04520403,-0.0030543262,-0.013439035,82.49503,-1.4019943,21.89659,SIT
8231618704000,4.09502,2.90576906579461,0.254577204205388,9.02934488119875,-0.037873644,-0.0033597588,-0.01038471,82.50849,-1.3990455,21.890135,SIT
8231623649000,4.099965,2.91039199394768,0.249954276052323,9.03859044787192,-0.040011674,-0.014660766,-0.01863139,82.52502,-1.3939552,21.887047,SIT
8231628714000,4.10503,2.90943412957391,0.26048800255555,9.05008085213045,-0.043676864,-0.011301007,-0.016187929,82.53697,-1.3881139,21.879688,SIT
8231633712000,4.110028,2.90706540356807,0.274700370957589,9.06192448215965,-0.032375857,-0.008246681,-0.0125227375,82.55092,-1.3863997,21.875538,SIT
8231639272000,4.115588,2.90443032621864,0.290510848811798,9.07509986890681,-0.029932396,-0.014966198,-0.017104227,82.56249,-1.3789988,21.874771,SIT
8231643710000,4.120026,2.90232700368684,0.303130794983916,9.08561648156579,-0.025961773,-0.015882496,-0.022296581,82.572914,-1.3747338,21.871437,SIT
8231648729000,4.125045,2.89475404783892,0.331022545472201,9.06031519135567,-0.025350908,-0.01740966,-0.01985312,82.58786,-1.3728849,21.867073,SIT
8231653925000,4.130241,2.88527941093869,0.364183967543793,9.02241664375476,-0.024129177,-0.020158553,-0.016493361,82.6038,-1.372573,21.86327,SIT
