timestamp,rel_time,acc_x,acc_y,acc_z,gyro_x,gyro_y,gyro_z,azimuth,pitch,roll,label
3156409990000,0,2.44770174728339,9.57394954976581,-0.600737224225407,-0.01985312,-0.010995574,0.004581489,157.11917,-1.0614984,40.1795,STD
3156414943000,0.004953,2.44699040856849,9.5722897685094,-0.586510391000515,-0.0125227375,-0.009162978,0.007941248,157.36496,-1.5034888,40.22455,STD
3156419924000,0.009934,2.44627504855659,9.57062060427799,-0.572203131502597,-0.01282817,-0.0036651916,0.005497787,157.60724,-1.9359473,40.262375,STD
3156424917000,0.014927,2.44555796513169,9.56894741877159,-0.557861403601954,-0.009468411,0.01038471,0.007330383,157.83875,-2.3599834,40.291073,STD
3156429937000,0.019947,2.44483700402755,9.56726518539643,-0.543442121795178,-0.008857546,0.015577064,0.007330383,158.06404,-2.7749531,40.31465,STD
3156434919000,0.024929,2.44412150039791,9.56559568605878,-0.529131989930366,-0.010995574,0.018936822,0.01282817,158.2783,-3.17976,40.329082,STD
3156439910000,0.02992,2.44340470420851,9.56392317076487,-0.514796006763511,-0.0125227375,0.022602014,0.01863139,158.48422,-3.576063,40.33637,STD
3156444926000,0.034936,2.44268431757537,9.56224227781471,-0.50038821442431,-0.007330383,0.03145956,0.016798794,158.68256,-3.9653137,40.335773,STD
3156449916000,0.039926,2.44196766500372,9.56057009762706,-0.486055103624348,-0.003970624,0.017715093,0.0076358155,158.87408,-4.3459287,40.335308,STD
3156454915000,0.044925,2.44124971987233,9.55889490148315,-0.471696141522342,-0.0106901415,0.021380283,0.01985312,159.04922,-4.7138524,40.3229,STD
3156459990000,0.05,2.44052085979195,9.55719423726424,-0.457118879536409,-0.01282817,0.0143553335,0.01282817,159.22783,-5.080908,40.311684,STD
3156464979000,0.054989,2.43980435083805,9.55552239218284,-0.442788641103341,-0.01038471,0.022907447,0.028405234,159.38464,-5.433448,40.291428,STD
3156469922000,0.059932,2.43909444830065,9.55386596198893,-0.428590531547386,-0.01863139,0.013133603,0.017715093,159.54713,-5.78197,40.272644,STD
3156474924000,0.064934,2.43837607231601,9.55218976052628,-0.414222952344699,-0.016493361,0.015882496,0.02107485,159.68976,-6.1206503,40.244537,STD
3156479940000,0.06995,2.43765568568286,9.55050886757612,-0.399815160005499,-0.017715093,0.0067195175,0.025350908,159.82942,-6.451642,40.217953,STD
3156484918000,0.074928,2.43694075652422,9.54884070866347,-0.385516517608262,-0.01863139,0.005192355,0.025350908,159.9612,-6.776573,40.184242,STD
3156489911000,0.079921,2.43622367309932,9.54716752315706,-0.371174789707619,-0.01740966,0.014966198,0.021380283,160.08516,-7.095074,40.145897,STD
3156494930000,0.08494,2.43550285561293,9.54548562488815,-0.356758380267737,-0.014966198,0.014966198,0.02565634,160.19933,-7.405718,40.10721,STD
3156499925000,0.089935,2.43478548495254,9.54381176916925,-0.342410907633306,-0.009468411,0.0143553335,0.027488936,160.3078,-7.7122817,40.061886,STD
3156504916000,0.094926,2.43406868876314,9.54213925387534,-0.32807492446645,-0.008857546,0.019547688,0.02443461,160.40872,-8.012412,40.011234,STD
3156509928000,0.099938,2.433348876601,9.54045970135018,-0.313678621594825,-0.002443461,0.019242255,0.013439035,160.50499,-8.310294,39.95838,STD
3156514860000,0.10487,2.43264055385884,9.53880695732503,-0.299512108074702,0.0027488936,0.03573562,0.021685716,160.58644,-8.599352,39.896782,STD
3156519959000,0.109969,2.4307120970794,9.54169449825063,-0.324433549795259,0.003970624,0.037873644,0.021685716,160.66861,-8.886921,39.834915,STD
3156524938000,0.114948,2.42857325422938,9.54549689050258,-0.357229161999561,0.008857546,0.049785517,0.016187929,160.74048,-9.170549,39.762604,STD
3156529929000,0.119939,2.42642925650605,9.54930844698571,-0.390103815647216,0.0015271631,0.04184427,0.014049901,160.92558,-9.580118,39.690346,STD
3156534920000,0.12493,2.42428525878272,9.55312000346883,-0.422978469294871,0.002443461,0.04062254,0.014660766,161.1026,-9.987881,39.609135,STD
3156539905000,0.129915,2.42214383849604,9.55692697783637,-0.455813602220849,0.009773844,0.051618114,0.009162978,161.27441,-10.3917055,39.522675,STD
3156544932000,0.134942,2.41998437615279,9.56076602701302,-0.488925380198561,0.0009162979,0.044593163,0.015271631,161.43561,-10.784602,39.43893,STD
3156549919000,0.139929,2.41784209672056,9.56457452875242,-0.521773686698431,0.0018325958,0.043676864,0.01160644,161.59264,-11.178659,39.346016,STD
3156554924000,0.144934,2.41569208497837,9.56839677683858,-0.55474055536333,-0.008246681,0.035124753,0.007941248,161.7407,-11.561858,39.254272,STD
3156559939000,0.149949,2.41353777750842,9.57222666178406,-0.587773291897689,-0.002443461,0.043066,0.003970624,161.88043,-11.944037,39.15469,STD
3156565363000,0.155373,2.41120777477323,9.57636889427543,-0.623500024292977,-0.009468411,0.034513887,0.0009162979,162.01532,-12.31628,39.058662,STD
3156569927000,0.159937,2.40924720462511,9.57985435686589,-0.653562119914675,-0.0015271631,0.02076942,0.004581489,162.14061,-12.687115,38.95903,STD
3156574926000,0.164936,2.40709977031957,9.58367202283647,-0.686489467857898,0.004276057,0.021380283,0.00580322,162.25883,-13.05153,38.85439,STD
3156579930000,0.16994,2.40495018815016,9.5874935072367,-0.719449749735851,-0.008857546,0.021991149,0.0030543262,162.37027,-13.408141,38.750492,STD
3156584919000,0.174929,2.40280704957238,9.59130353634796,-0.752311229809613,0.0012217305,0.01863139,0.0012217305,162.47293,-13.765299,38.64475,STD
3156589943000,0.179953,2.40064887594745,9.59514029446682,-0.785403247426487,-0.004886922,0.018020526,0.009162978,162.56442,-14.109401,38.53591,STD
3156594935000,0.184945,2.39850444865134,9.59895261463587,-0.818284487861087,-0.003970624,0.007330383,0.009468411,162.6524,-14.45367,38.42712,STD
3156599917000,0.189927,2.39636431708299,9.60275729794562,-0.851099860426228,0.004886922,0.007330383,0.016187929,162.690698468948,-14.6226691170864,38.3716017156617,STD
3156604902000,0.194912,2.39422289679632,9.60656427231315,-0.883934993352206,0.00580322,-0.0015271631,0.01038471,162.72902,-14.79177,38.31605,STD
3156609944000,0.199954,2.39205699086143,9.61041477677877,-0.917145573134108,0.0076358155,0.0061086523,0.010079277,162.79706,-15.123339,38.20065,STD
3156614926000,0.204936,2.38991685929308,9.61421946008852,-0.949960945699248,0.014966198,0.004276057,0.0106901415,162.8585,-15.452795,38.08772,STD
3156619915000,0.209925,2.3877737207153,9.61802948919978,-0.982822425773011,0.005497787,0.009468411,0.0067195175,162.91167,-15.774814,37.967754,STD
3156624925000,0.214935,2.38562156110923,9.6218555557156,-1.01582222837264,-0.01038471,0.0027488936,0.00061086525,162.95894,-16.09232,37.84878,STD
3156629936000,0.219946,2.38346897193038,9.62568238591735,-1.04882861775922,-0.0070249503,0.004581489,0.0030543262,162.99481,-16.406286,37.724155,STD
3156635397000,0.225407,2.38112307500249,9.62985287478818,-1.08479906127151,-0.006414085,0.01282817,0.003970624,163.02528,-16.712795,37.59653,STD
3156639965000,0.229975,2.37916078656327,9.63334139212237,-1.11488750404099,-0.0015271631,0.005497787,0.0015271631,163.04993,-17.01651,37.47021,STD
3156644963000,0.234973,2.37701378183051,9.63715829440701,-1.14780826519726,-0.004886922,-0.00030543262,0.0106901415,163.06122,-17.311735,37.340435,STD
3156649954000,0.239964,2.37486978410718,9.64096985089013,-1.18068291884492,-0.01282817,0.00030543262,0.004886922,163.07062,-17.605724,37.206875,STD
3156654937000,0.244947,2.37272922296605,9.64477529788581,-1.21350487819701,-0.019242255,0.00030543262,0.005192355,163.068888151659,-17.7463953495261,37.142339541173,STD
3156660082000,0.250092,2.37051907103527,9.64870446200235,-1.24739389703435,-0.018325957,-0.002443461,0.009468411,163.0671,-17.89164,37.075706,STD
3156664937000,0.254947,2.36843349520943,9.65241215719882,-1.27937274765734,-0.022296581,-0.009468411,0.002443461,163.06229,-18.175085,36.94153,STD
3156669966000,0.259976,2.36627317372062,9.65625273374733,-1.31249769920895,-0.018020526,-0.004581489,0.004581489,163.04424,-18.452583,36.80444,STD
3156674960000,0.26497,2.36412788727896,9.66006658128825,-1.34539211321744,-0.025045475,-0.01863139,0.004581489,163.035040526316,-18.5894502809686,36.7377100860516,STD
3156679960000,0.26997,2.36198002340065,9.66388501094476,-1.37832604794761,-0.016493361,-0.018020526,0.0033597588,163.02583,-18.726482,36.6709,STD
3156684969000,0.274979,2.35982829336736,9.66771031377465,-1.41131926376029,-0.015882496,-0.018325957,0.0076358155,162.99507,-18.995874,36.53156,STD
3156689941000,0.279951,2.35769245752676,9.67150736022508,-1.44406876845597,-0.013744468,-0.015882496,0.008857546,162.96007,-19.262909,36.39262,STD
3156694966000,0.284976,2.35553385432906,9.67534488202987,-1.47716737285979,-0.016798794,-0.021685716,0.0076358155,162.91866,-19.524906,36.254204,STD
3156699961000,0.289971,2.35338813831463,9.67915949325671,-1.51006837365523,-0.019547688,-0.027794369,-0.00030543262,162.87173,-19.784864,36.11267,STD
3156705447000,0.295457,2.35103150206734,9.68334907427583,-1.54620348684117,-0.020158553,-0.022602014,0.002443461,162.81404,-20.039457,35.968994,STD
3156709986000,0.299996,2.34908167123861,9.68681544471801,-1.57610091278922,-0.016798794,-0.027183503,0.006414085,162.75409,-20.292126,35.826847,STD
3156714867000,0.304877,2.3469849265206,9.69054299574869,-1.60825101987281,-0.02076942,-0.029626964,0.004581489,162.68727,-20.540306,35.68066,STD
3156719959000,0.309969,2.33799908035234,9.69104990738691,-1.61457559547429,-0.021685716,-0.021685716,0.009468411,162.60956,-20.784853,35.53254,STD
3156724994000,0.315004,2.32616388582678,9.69008374991109,-1.60902030095974,-0.01985312,-0.02443461,0.005497787,162.53072,-21.027994,35.384754,STD
3156729971000,0.319981,2.31446502522028,9.68912872195535,-1.60352899990733,-0.018936822,-0.021380283,0.013133603,162.64865,-21.434772,35.304714,STD
3156734957000,0.324967,2.30274500935047,9.68817196700511,-1.59802776883494,-0.028099801,-0.017104227,0.004276057,162.76662,-21.838583,35.219093,STD
3156739956000,0.329966,2.29099443587812,9.68721271750728,-1.59251219440034,-0.034513887,-0.006414085,0.0067195175,162.87045,-22.235092,35.130215,STD
3156744965000,0.334975,2.27922035655765,9.68625154912666,-1.5869855866102,-0.039095376,-0.0036651916,0.010995574,162.97018,-22.626408,35.038223,STD
3156749957000,0.339967,2.26748623717898,9.68529364284677,-1.58147773552448,-0.038789943,-0.007330383,0.01282817,163.06229,-23.012636,34.942112,STD
3156754954000,0.344964,2.25574036487625,9.68433477712548,-1.57596436776099,-0.027183503,-0.009773844,0.0143553335,163.14551,-23.394943,34.842598,STD
3156760052000,0.350062,2.24375708350757,9.6833565306882,-1.57033956310654,-0.030848695,-0.002443461,0.020463986,163.2187,-23.768028,34.739594,STD
3156764921000,0.354931,2.2323120860607,9.6824222266664,-1.56496742229396,-0.03176499,-0.00030543262,0.023518313,163.28653,-24.139843,34.635464,STD
3156769961000,0.359971,2.22046513861108,9.68145510974919,-1.55940661110165,-0.032070424,-0.01282817,0.030848695,163.3454,-24.504446,34.53188,STD
3156775098000,0.365108,2.20839018443475,9.6804693796691,-1.55373877636059,-0.022907447,-0.0067195175,0.027183503,163.39589,-24.867731,34.419342,STD
3156779978000,0.369988,2.19691933055496,9.67953296487625,-1.54835449885693,-0.024740042,-0.007330383,0.035124753,163.43704,-25.220497,34.311684,STD
3156784958000,0.374968,2.18521341819402,9.67857736125568,-1.54285988779785,-0.02565634,-0.0061086523,0.042455133,163.4709,-25.571676,34.1989,STD
3156789944000,0.379954,2.17349340232422,9.67762060630545,-1.53735865672546,-0.028099801,0.0015271631,0.034208454,163.49886,-25.918943,34.081036,STD
3156794963000,0.384973,2.16169581715564,9.67665751904206,-1.53182101557978,-0.023518313,0.004276057,0.03573562,163.51537,-26.260088,33.96418,STD
3156799967000,0.389977,2.14993349075923,9.67569731010284,-1.52629992446741,-0.017104227,0.019242255,0.037873644,163.52332,-26.598074,33.83904,STD
3156804958000,0.394968,2.13820172196537,9.67473959571122,-1.52079317671724,-0.020463986,0.02565634,0.040011674,163.52475,-26.930292,33.713276,STD
3156810063000,0.400073,2.126201986503,9.67376000605599,-1.51516064871392,-0.025961773,0.043676864,0.03940081,163.51418,-27.259338,33.57885,STD
3156814958000,0.404968,2.11469587385104,9.67282071293898,-1.50975982117694,-0.021380283,0.058948494,0.043066,163.49388,-27.584602,33.44249,STD
3156819958000,0.409968,2.10294294979388,9.67186127155287,-1.50424314340678,-0.026572637,0.06811147,0.043676864,163.46523,-27.903114,33.300747,STD
3156824933000,0.414943,2.091248790357,9.67090662737368,-1.49875404902548,-0.027794369,0.074830994,0.04642576,163.42531,-28.218616,33.155,STD
3156829935000,0.419945,2.07949116513021,9.66994680221101,-1.49323516458422,-0.03359759,0.080634214,0.04520403,163.37766,-28.528759,33.00498,STD
3156834923000,0.424933,2.06776644809078,9.66898966348422,-1.48773172684072,-0.020463986,0.0842994,0.045814894,163.32076,-28.838419,32.852882,STD
3156839906000,0.429916,2.05605348397542,9.66803348419882,-1.48223380577498,-0.028405234,0.08857546,0.043982297,163.25664,-29.139128,32.697037,STD
3156844913000,0.434923,2.04428410582457,9.66707269959477,-1.47670940465595,-0.03604105,0.095294975,0.05131268,163.18161,-29.437635,32.539757,STD
3156849921000,0.439931,2.03251237708892,9.66611172310243,-1.47118390020137,-0.028710667,0.09682214,0.058948494,163.10028,-29.734613,32.380913,STD
3156854920000,0.44493,2.02076180361656,9.66515247360459,-1.46566832576677,-0.02687807,0.0983493,0.055588737,163.01184,-30.02606,32.218388,STD
3156859942000,0.449952,2.00895716669355,9.66418881067638,-1.46012737461443,-0.02076942,0.106901415,0.051923547,162.91295,-30.315693,32.053604,STD
3156864920000,0.45493,1.99725595550224,9.66323359083236,-1.45463497022646,-0.02687807,0.10445796,0.06505715,162.80563,-30.597548,31.891836,STD
3156869925000,0.459935,1.98549127852102,9.66227319000486,-1.44911277577854,-0.025350908,0.10720685,0.06627888,162.6931,-30.882273,31.722857,STD
3156874943000,0.464953,1.97369604393725,9.66131029462975,-1.44357623796841,-0.023823744,0.116675265,0.081855945,162.56583,-31.157955,31.556236,STD
3156879923000,0.469933,1.96199013157631,9.66035469100918,-1.43808162690934,-0.008552114,0.13072516,0.08674286,162.43317,-31.436031,31.38493,STD
3156884918000,0.474928,1.9502489604432,9.65939620906445,-1.43257046581696,-0.015271631,0.13927728,0.089186326,162.2899,-31.704613,31.213606,STD
3156890548000,0.480558,1.93701516795484,9.65831587806369,-1.42635868664777,-0.015577064,0.1591304,0.10170906,162.1312,-31.973026,31.03779,STD
3156894932000,0.484942,1.92671020414152,9.65747463985634,-1.4215216635789,-0.016798794,0.18570304,0.10720685,161.96437,-32.238197,30.856411,STD
3156899920000,0.48993,1.91498548710209,9.65651750112955,-1.41601822583539,-0.014049901,0.22540927,0.116980694,161.78023,-32.499172,30.66932,STD
3156904900000,0.49491,1.90327957474116,9.65556189750898,-1.41052361477632,-0.017715093,0.25381452,0.119729586,161.58733,-32.756756,30.477308,STD
3156909952000,0.499962,1.8914044202738,9.65459247793245,-1.40494956355736,-0.020463986,0.29565877,0.12003502,161.3755,-33.01221,30.2736,STD
3156914944000,0.504954,1.87967030089512,9.65363457165255,-1.39944171247164,-0.030543262,0.32406402,0.12064589,161.1539,-33.263123,30.066055,STD
3156919917000,0.509927,1.85498896987664,9.66813139395145,-1.42763391189813,-0.03634648,0.3491095,0.12644911,160.91702,-33.512154,29.850039,STD
3156924954000,0.514964,1.82619568997215,9.68732731476323,-1.46602500188022,-0.04520403,0.3631594,0.13316862,160.67043,-33.75683,29.629627,STD
3156929928000,0.519938,1.78251144114367,9.70285339115888,-1.50078555153604,-0.053145275,0.3585779,0.13561209,160.58395,-34.177795,29.383696,STD
3156934888000,0.524898,1.7343506608537,9.71730140900335,-1.53449816311467,-0.05955936,0.3707952,0.13958271,160.48254,-34.59335,29.132572,STD
3156939903000,0.529913,1.70897747734175,9.71674699181621,-1.57527333722146,-0.074830994,0.37384954,0.14538592,160.4792,-35.096794,28.894194,STD
3156944922000,0.534932,1.6900202857819,9.71200759495169,-1.61792696874384,-0.0852157,0.3747658,0.1423316,160.47003,-35.59879,28.652754,STD
3156949919000,0.539929,1.68910317552145,9.70729674960645,-1.69259033425817,-0.094989546,0.37323865,0.14721853,160.51399,-36.154476,28.41367,STD
3156954931000,0.544941,1.69382561959858,9.70257420690673,-1.77759442626919,-0.09896017,0.37751472,0.14355333,160.55568,-36.709503,28.171103,STD
3156960755000,0.550765,1.72025391996088,9.68872561515892,-1.83817837994132,-0.111177474,0.38362336,0.12705997,160.63521,-37.29633,27.93157,STD
3156964925000,0.554935,1.74368781101222,9.67700883276284,-1.87332921651834,-0.11789699,0.38759398,0.12583824,160.70866,-37.880028,27.694063,STD
3156969915000,0.559925,1.73691664068154,9.67883071436776,-1.87099194068154,-0.118507855,0.40744713,0.13255776,160.8142,-38.49203,27.459435,STD
3156974926000,0.564936,1.71394863800134,9.68801810730353,-1.84802393800134,-0.12217305,0.40622538,0.1328632,160.92276,-39.101192,27.226952,STD
3156979922000,0.569932,1.68360625379573,9.7067756534151,-1.82670957726792,-0.13316862,0.40744713,0.14752395,161.05267,-39.72403,27.005058,STD
3156984931000,0.574941,1.64810278167689,9.73213523852823,-1.80642190917742,-0.14569137,0.39736784,0.1518,161.18535,-40.34491,26.783756,STD
3156989898000,0.579908,1.61807873744515,9.74939044514871,-1.81347647503657,-0.15393804,0.3830125,0.16982053,161.3406,-40.984592,26.561655,STD
3156994929000,0.584939,1.58988904609459,9.76348509458801,-1.83226960260361,-0.16126843,0.3576616,0.18661933,161.4979,-41.617615,26.344606,STD
3156999918000,0.589928,1.57163425303141,9.74272651853543,-1.84443946464573,-0.16218472,0.35033122,0.19242255,161.68694,-42.27985,26.116299,STD
3157004903000,0.594913,1.55855709415632,9.70349513294376,-1.85315757056245,-0.16493362,0.3539964,0.19914207,161.87325,-42.932083,25.894995,SCH
3157009918000,0.599928,1.53715039492386,9.66547757360406,-1.83884412639594,-0.1685988,0.3549127,0.20555615,162.11938,-43.628227,25.665705,SCH
3157014924000,0.604934,1.50608340438492,9.62923259812075,-1.79742154443244,-0.14966199,0.35460728,0.19792034,162.36324,-44.323196,25.43484,SCH
3157019917000,0.609927,1.48569256067128,9.59853546363895,-1.767470672267,-0.14813483,0.3594942,0.18845193,162.68831,-45.06413,25.195387,SCH
3157024993000,0.615003,1.47186535763724,9.57088096131601,-1.7444252857495,-0.14019357,0.36041048,0.17012598,163.01291,-45.804024,24.95334,SCH
3157030104000,0.620114,1.4529644352238,9.55028090837797,-1.69654100303175,-0.13530666,0.36468655,0.16065755,163.46584,-46.628582,24.686487,SCH
3157034965000,0.624975,1.43070318446825,9.53692431599082,-1.6297570648049,-0.12736541,0.35796702,0.15393804,163.91553,-47.443916,24.418001,SCH
3157039893000,0.629903,1.42775084327202,9.52476956727977,-1.57313649438529,-0.12583824,0.34055737,0.13469578,164.61421,-48.42516,24.108068,SCH
3157044936000,0.634946,1.45372465285576,9.51437980477573,-1.53157825801872,-0.11759156,0.32253686,0.1133155,165.29636,-49.38647,23.796118,SCH
3157049917000,0.639927,1.50952383333994,9.52279029592545,-1.46105021629821,-0.10629055,0.3036,0.09590584,166.45111,-50.668934,23.38447,SCH
3157054920000,0.64493,1.59027300723704,9.54654003836621,-1.36605124653514,-0.092240654,0.29016098,0.09285152,167.55276,-51.90367,22.969292,SCH
3157059926000,0.649936,1.67851118451122,9.53494873836117,-1.27366801708016,-0.06811147,0.2751948,0.09773844,168.60675,-53.08838,22.55519,SCH
3157064925000,0.654935,1.77315282371256,9.49236014401502,-1.1837584548977,-0.04734206,0.23426682,0.087964594,169.6229,-54.231525,22.14219,SCH
3157069916000,0.659926,1.86102262658114,9.46710115726204,-1.10911312179062,-0.029626964,0.18692477,0.0870483,170.6509,-55.357887,21.730726,SCH
3157074990000,0.665,1.94384863251996,9.45838290822643,-1.04808342122544,-0.0009162979,0.1591304,0.076358154,171.63673,-56.446964,21.31988,SCH
3157079919000,0.669929,2.05243042641661,9.47507002396951,-0.960042456333367,0.028099801,0.13347405,0.07666359,172.64407,-57.51234,20.920607,SCH
3157084923000,0.674933,2.23506503429947,9.55677458920871,-0.796632623257447,0.058948494,0.10567969,0.0870483,173.60936,-58.536354,20.529818,SCH
3157089883000,0.679893,2.42464480975817,9.65174518784472,-0.640504327795927,0.08277224,0.06627888,0.112399206,174.55704,-59.514393,20.163816,SCH
3157094934000,0.684944,2.64013499915146,9.78514398366568,-0.496844083669919,0.08155051,0.03390302,0.1518,175.46227,-60.443516,19.81297,SCH
3157100142000,0.690152,2.8164240102124,9.8839627595582,-0.386536837090909,0.06963864,0.01863139,0.19242255,176.3792,-61.33549,19.484539,SCH
3157104925000,0.694935,2.92150123737468,9.92677203186066,-0.332052379636364,0.04795292,0.040317107,0.23151793,177.24721,-62.172638,19.174067,SCH
3157110054000,0.700064,3.02868305472264,9.97152354422789,-0.274970657811094,0.020463986,0.07086037,0.2657264,178.07076,-62.9261,18.91484,SCH
3157114921000,0.704931,3.06129404648676,9.99947559355322,-0.23770103494053,-0.008246681,0.11942416,0.27550024,178.84569,-63.632507,18.664034,SCH
3157120093000,0.710103,3.09839532250382,10.0313249127797,-0.197721853845601,-0.028405234,0.1459968,0.30818152,179.5763,-64.26043,18.456514,SCH
3157124933000,0.714943,3.16088073600252,10.0854790190078,-0.156064856415925,-0.05222898,0.16401732,0.34972036,180.26424,-64.84444,18.258818,SCH
3157129874000,0.719884,3.22467008065067,10.1407632005932,-0.113538570403523,-0.06536258,0.19181168,0.3643811,180.90807,-65.385445,18.074486,SCH
3157134917000,0.724927,3.32392360526925,10.1741010597375,-0.0826588802733063,-0.09315695,0.22327125,0.40683624,181.51518,-65.87574,17.915133,SCH
3157139882000,0.729892,3.42946536062536,10.2016337624011,-0.0551262504412276,-0.13775012,0.26145032,0.45204028,182.08844,-66.33002,17.765446,SCH
3157144891000,0.734901,3.48570001445203,10.1804029625652,-0.0443249283353071,-0.17195857,0.2929099,0.49296826,182.63329,-66.740166,17.639896,SCH
3157149873000,0.739883,3.52400721445203,10.1420954625652,-0.0395365258353071,-0.22388211,0.31703907,0.5290093,183.14731,-67.10756,17.529919,SCH
3157154914000,0.744924,3.42274334411019,9.98906782875351,-0.045713781603303,-0.26358834,0.3359759,0.5564982,183.62976,-67.41951,17.455423,SCH
3157159999000,0.750009,3.27257464894813,9.79551725039402,-0.055725033638868,-0.30879238,0.3494149,0.5665775,184.09027,-67.69903,17.39013,SCH
3157164969000,0.754979,3.12580209930104,9.60634392208593,-0.0655098758447201,-0.35430184,0.3622431,0.5720753,184.5333,-67.94287,17.34365,SCH
3157169901000,0.759911,2.9956555955626,9.48849990364501,-0.0954220300760697,-0.37812558,0.3594942,0.5647449,184.96407,-68.16859,17.301035,SCH
3157175123000,0.765133,2.8609215818542,9.37754233454834,-0.131086908025357,-0.38026363,0.36285394,0.54641896,185.37735,-68.3781,17.259892,SCH
3157179886000,0.769896,2.73094517946679,9.27459072217025,-0.177755928534144,-0.37720928,0.35033122,0.52656585,185.76537,-68.58477,17.201124,SCH
3157184940000,0.77495,2.57700312885875,9.16139814218896,-0.259254647581852,-0.37965274,0.3399465,0.49510628,186.14294,-68.78626,17.137787,SCH
3157189884000,0.779894,2.43946534140648,9.06412103959758,-0.333087119438002,-0.36254853,0.32589662,0.46792278,186.49524,-68.99477,17.062304,SCH
3157204826000,0.794836,2.21962222475468,8.97192835162058,-0.467829703470116,-0.3491095,0.23335053,0.42760566,187.51125,-69.61835,16.799658,SCH
3157209814000,0.799824,2.16078324038399,8.95253917010031,-0.525575675565743,-0.3481932,0.16462818,0.43951756,187.84174,-69.82448,16.70283,SCH
3157215315000,0.805325,2.21760772188545,9.02641135206558,-0.696049256541905,-0.3286455,0.12461651,0.47036624,188.16692,-70.019844,16.617603,SCH
3157219825000,0.809835,2.25179538560315,9.04182866469719,-0.781171319259478,-0.30604348,0.09865474,0.46853364,188.4797,-70.206795,16.538855,SCH
3157224869000,0.814879,2.25655219300837,8.93717870310192,-0.728846403032989,-0.3036,0.009162978,0.4578435,188.81435,-70.380646,16.475183,SCH
3157229838000,0.819848,2.2905195510671,8.85094778590656,-0.721008719938473,-0.34116822,-0.08857546,0.44532076,189.14127,-70.5291,16.441355,SCH
3157234837000,0.824847,2.41938754274178,8.81873110036531,-0.854479136454528,-0.3866777,-0.14905111,0.44165558,189.47763,-70.670204,16.411865,SCH
3157239820000,0.82983,2.55755336935867,8.79751437292162,-0.974764263182898,-0.42546764,-0.16554448,0.45020768,189.83249,-70.800575,16.385077,SCH
3157244844000,0.834854,2.75134056258391,8.83726535257668,-1.02445329906021,-0.46273044,-0.17745635,0.4718934,190.19617,-70.91538,16.366362,SCH
3157249841000,0.839851,2.93449171826509,8.8787086430338,-1.05532695508839,-0.49113566,-0.1740966,0.50762904,190.54749,-70.975784,16.403996,SCH
3157254923000,0.844933,3.08606789622607,8.92774805770816,-1.01966194739397,-0.52412236,-0.16187929,0.53786683,190.8939,-71.02164,16.44724,SCH
3157259973000,0.849983,3.23856346040045,8.98102175063202,-0.982180996491051,-0.5384777,-0.13775012,0.5757405,191.25235,-71.02794,16.533857,SCH
3157264929000,0.854939,3.41614647753059,9.10101017413287,-0.914987429214278,-0.5516113,-0.13164146,0.60903263,191.60669,-71.019554,16.62822,SCH
3157269925000,0.859935,3.59561009839206,9.2154124047096,-0.837820386591688,-0.56413406,-0.13561209,0.65026605,191.97102,-70.97698,16.754004,SCH
3157274974000,0.864984,3.78254829194271,9.24940098971971,-0.642384860462174,-0.5748242,-0.17501289,0.69027776,192.33795,-70.92147,16.889954,SCH
3157279864000,0.869874,3.96359954297513,9.28231922713294,-0.453103869617784,-0.571159,-0.19883664,0.7113526,192.69754,-70.826584,17.058538,SCH
3157285443000,0.875453,4.07200078953662,9.24213611659193,-0.390272764878924,-0.5671884,-0.21227567,0.73914695,193.05968,-70.716705,17.240211,SCH
3157289885000,0.879895,4.13982771709018,9.19550507623319,-0.369076868831091,-0.5662721,-0.23701571,0.763887,193.42763,-70.60081,17.426914,SCH
3157294931000,0.884941,4.20493960604569,9.13555178436392,-0.334007638544703,-0.5726862,-0.24495697,0.7699956,193.79079,-70.44501,17.643442,SCH
3157299877000,0.889887,4.2655709622883,9.07492091512406,-0.29669618529933,-0.573297,-0.24495697,0.7699956,194.15453,-70.28568,17.86297,SCH
3157304935000,0.894945,4.33550351922348,9.00134358159497,-0.221699394254916,-0.57818395,-0.23823744,0.77946407,194.5142,-70.10013,18.103502,SCH
3157310055000,0.900065,4.4089137102605,8.92303911208704,-0.133606919716539,-0.5885687,-0.24648413,0.77579886,194.87569,-69.91871,18.337465,SCH
3157314920000,0.90493,4.47218128107259,8.86974029278183,-0.129597574380576,-0.58032197,-0.25534168,0.786489,195.22797,-69.71187,18.591002,SCH
3157319854000,0.909864,4.5344556740369,8.82183687510138,-0.14875895645884,-0.58032197,-0.2593123,0.79320854,195.57883,-69.50733,18.838753,SCH
3157324936000,0.914946,4.55227585288201,8.79749093230123,-0.189449555907461,-0.57787853,-0.2846632,0.78801614,195.93062,-69.28328,19.10106,SCH
3157329894000,0.919904,4.55642898556809,8.78087883521385,-0.235133087428496,-0.56413406,-0.30298916,0.77824235,196.27899,-69.06323,19.359608,SCH
3157334923000,0.924933,4.53841535578246,8.74717422759496,-0.263609932369061,-0.5571091,-0.31795537,0.7809912,196.63028,-68.82023,19.636217,SCH
3157339907000,0.929917,4.49801257639403,8.69667081927838,-0.273710629852926,-0.5403103,-0.31306845,0.7828238,196.97937,-68.58625,19.905369,SCH
3157344923000,0.934933,4.47602720699664,8.63811801822996,-0.265890746014869,-0.5320636,-0.3222314,0.77213365,197.33453,-68.35025,20.17652,SCH
3157349923000,0.939933,4.46627392254812,8.57472154201039,-0.246384065090131,-0.5143485,-0.30695978,0.7620544,197.67882,-68.1199,20.442802,SCH
3157354998000,0.945008,4.41950373621197,8.52116881157998,-0.149751566748773,-0.50488013,-0.27550024,0.7458665,198.0179,-67.90053,20.69649,SCH
3157359986000,0.949996,4.35387399159961,8.47429042257115,-0.0138041372967615,-0.5006041,-0.2666427,0.7247916,198.35785,-67.68961,20.942242,SCH
3157364922000,0.954932,4.28215692347267,8.46505085530547,0.111057086641479,-0.50915617,-0.28588495,0.7134906,198.68652,-67.470184,21.187069,SCH
3157369960000,0.95997,4.20458792282958,8.47959484043408,0.232258737724076,-0.52534413,-0.31123585,0.70402217,199.0136,-67.25908,21.422728,SCH
3157375049000,0.965059,4.14953964235837,8.51964872990778,0.338273261758893,-0.52595496,-0.3378085,0.6973027,199.3194,-67.05373,21.64357,SCH
3157379975000,0.969985,4.10958290283267,8.57292425898739,0.431505182679277,-0.54458636,-0.3735441,0.70371675,199.63396,-66.84767,21.86372,SCH
3157384956000,0.974966,4.08440434037075,8.6464465653965,0.52042201961895,-0.54153204,-0.41080686,0.73975784,199.92265,-66.639854,22.076614,SCH
3157389957000,0.979967,4.07453954597322,8.74016200916581,0.604272797749743,-0.54305923,-0.44715336,0.79412484,200.21947,-66.42675,22.295229,SCH
3157394963000,0.984973,4.0930166717221,8.80480589210627,0.646729125468272,-0.52656585,-0.50640726,0.84574294,200.50418,-66.209045,22.51501,SCH
3157399958000,0.989968,4.13416016785168,8.84594924503058,0.655872161735474,-0.5131268,-0.5684101,0.9089675,200.797,-65.97722,22.751877,SCH
3157404950000,0.99496,4.21635218548794,8.85478559965688,0.689697316409325,-0.47678033,-0.61483586,0.96486163,201.08797,-65.748146,22.988335,SCH
3157409984000,0.999994,4.34771372711676,8.82559408951458,0.752945403802604,-0.46792278,-0.68203104,1.0082331,201.40106,-65.50859,23.238697,SCH
3157414956000,1.004966,4.4242205637931,8.77806790517241,0.738735076327586,-0.46914452,-0.7171558,1.0693196,201.70045,-65.23645,23.52102,SCH
3157419947000,1.009957,4.44361105436106,8.71020093509128,0.641782051496957,-0.47861293,-0.72295904,1.0934488,202.0104,-64.968094,23.801838,SCH
3157425156000,1.015166,4.4795032262035,8.65268865791393,0.502948270200584,-0.48349985,-0.7281514,1.1621711,202.3235,-64.648865,24.136175,SCH
3157429934000,1.019944,4.52539476613786,8.61096915536105,0.344414038522976,-0.49357912,-0.70402217,1.1688906,202.6303,-64.34546,24.45269,SCH
3157434917000,1.024927,4.5726700181896,8.54162441408089,0.151454134138669,-0.50732356,-0.6401868,1.1716396,202.93808,-64.02345,24.79179,SCH
3157439903000,1.029913,4.6186520774663,8.41389617526214,-0.10400251955061,-0.5317582,-0.5540548,1.1533136,203.23164,-63.710743,25.118284,SCH
3157444953000,1.034963,4.70221188888889,8.29670711111111,-0.312842354444444,-0.56230146,-0.4370741,1.1319333,203.50829,-63.37873,25.465801,SCH
3157449968000,1.039978,4.83201655455455,8.19574773148148,-0.457069653088088,-0.5699373,-0.3390302,1.1255192,203.76445,-63.05497,25.802605,SCH
3157454911000,1.044921,4.9614327932059,8.08632840585322,-0.505172068717441,-0.569021,-0.2312125,1.1328496,204.00804,-62.712097,26.16002,SCH
3157459968000,1.049978,5.09573403189066,7.96162044191344,-0.433225077448747,-0.5531385,-0.16035213,1.1365148,204.23428,-62.380257,26.504858,SCH
3157464850000,1.05486,5.19434763186274,7.8417335545098,-0.333563936619608,-0.54092115,-0.12675454,1.151481,204.4737,-62.02429,26.880177,SCH
3157469956000,1.059966,5.2518759827451,7.71708868580392,-0.184948792727843,-0.552833,-0.1282817,1.1578951,204.70418,-61.677113,27.244747,SCH
3157474940000,1.06495,5.30237730996524,7.60145454924681,-0.0620328474994206,-0.5687156,-0.12156218,1.1716396,204.93097,-61.304405,27.633684,SCH
3157479971000,1.069981,5.34424940576477,7.4944476665701,0.0263639619872538,-0.60048056,-0.124005646,1.1835514,205.16313,-60.937042,28.015888,SCH
3157484850000,1.07486,5.37635593472111,7.39314215292234,0.0874470387648786,-0.65270954,-0.11575896,1.1976013,205.35568,-60.531456,28.42311,SCH
3157489910000,1.07992,5.38928857630104,7.29399208086469,0.0917579210920737,-0.70280045,-0.059864793,1.2030991,205.53601,-60.13277,28.82033,SCH
3157494979000,1.084989,5.39650400496032,7.1986636378373,0.0916409164369048,-0.75747293,0.030848695,1.212262,205.69969,-59.721073,29.223013,SCH
3157499922000,1.089932,5.33075671081349,7.15639740808532,0.0352859705684524,-0.80909103,0.15699236,1.2235631,205.83575,-59.31419,29.614979,SCH
3157505116000,1.095126,5.26202764290976,7.10991663778572,-0.0165454358633951,-0.8454375,0.26725355,1.2229522,205.93709,-58.887794,30.017353,SCH
3157509920000,1.09993,5.20222005469613,7.0451249841404,0.013358353559636,-0.8772025,0.3454443,1.1997393,206.01175,-58.472317,30.40292,SCH
3157514916000,1.104926,5.13151029040192,6.97877100779844,0.0600652098518296,-0.88117313,0.36682457,1.181108,206.06245,-58.05928,30.783478,SCH
3157519928000,1.109938,5.02593357774445,6.91638483683263,0.17044072610018,-0.852157,0.36896262,1.1658363,206.09914,-57.662766,31.146603,SCH
3157524922000,1.114932,4.94073976095453,6.88352873254416,0.247863294930477,-0.8384125,0.34330627,1.1212431,206.13692,-57.291763,31.482384,SCH
3157529933000,1.119943,4.93623117914318,6.96919173988162,0.193760280239572,-0.79779,0.33658674,1.0906999,206.17203,-56.93521,31.808475,SCH
3157534961000,1.124971,4.93169451610987,7.05466634497906,0.14906686212136,-0.74067414,0.3594942,1.0961977,206.15614,-56.577007,32.12564,SCH
3157539906000,1.129916,4.92708194418038,7.13308030860037,0.218255489227623,-0.6994407,0.37965274,1.110553,206.1487,-56.23604,32.429295,SCH
3157545215000,1.135225,4.92199108963992,7.22279449127357,0.288767024461235,-0.6609562,0.36560285,1.1224649,206.15399,-55.91553,32.720963,SCH
3157549918000,1.139928,4.9158594545504,7.36688725961473,0.307161846496494,-0.6414085,0.35185838,1.1462886,206.1549,-55.598328,33.01152,SCH
3157554935000,1.144945,4.90931843536179,7.520600510469,0.326784815271935,-0.6249151,0.33292156,1.1722504,206.13353,-55.282616,33.2976,SCH
3157559910000,1.14992,4.90764251165564,7.67047310723192,0.341232534301204,-0.6243043,0.3191771,1.2089024,206.1169,-54.966606,33.586166,SCH
3157564929000,1.154939,4.96496947197224,7.79033834214464,0.29432870863385,-0.6267477,0.30634892,1.2348641,206.10931,-54.65625,33.87234,SCH
3157569918000,1.159928,5.03316513980685,7.89555701568178,0.260703782592274,-0.63438356,0.310625,1.2666291,206.06868,-54.34884,34.147354,SCH
3157574997000,1.165007,5.14013918544655,7.95602033008223,0.270005875417862,-0.6356053,0.31245756,1.325883,206.0337,-54.03584,34.430614,SCH
3157579922000,1.169932,5.2401608304648,8.01017147889926,0.272445442382341,-0.6606508,0.33933565,1.3927728,205.98553,-53.709385,34.722755,SCH
3157584926000,1.174936,5.31937881191171,8.03813091530533,0.235166294401011,-0.6994407,0.36835176,1.4804319,205.93456,-53.369034,35.029007,SCH
3157589903000,1.179913,5.39253463316685,8.05336699229436,0.208246494491897,-0.71837753,0.40683624,1.5803084,205.85872,-52.991093,35.36687,SCH
3157594921000,1.184931,5.40233126674141,7.92601351774539,0.29641441675874,-0.7287622,0.43035457,1.6423112,205.77911,-52.608128,35.7082,SCH
3157599888000,1.189898,5.41905768500321,7.79631055281477,0.384207693005786,-0.73761976,0.4437936,1.6786577,205.67926,-52.18555,36.085636,SCH
3157604945000,1.194955,5.49021913510883,7.63619680244283,0.477607283195886,-0.752586,0.4297437,1.6991217,205.58246,-51.761627,36.464985,SCH
3157610526000,1.200536,5.56942002006921,7.45838371204152,0.575542884899654,-0.77182823,0.42210788,1.6948457,205.48015,-51.339523,36.837467,SCH
3157614967000,1.204977,5.6409001432526,7.30280984023727,0.588157010855166,-0.7812967,0.41630468,1.6887369,205.38628,-50.924763,37.204678,SCH
3157619853000,1.209863,5.71954276470588,7.13164705310924,0.602035105747899,-0.7742717,0.43463063,1.6899587,205.28848,-50.495697,37.583466,SCH
3157624923000,1.214933,5.78369537033521,6.94527316102047,0.629537992126965,-0.7806858,0.46883908,1.6801848,205.19386,-50.08221,37.945755,SCH
3157629861000,1.219871,5.84448574897656,6.76290178095521,0.65759511925838,-0.77121735,0.48899764,1.6453656,205.1052,-49.689476,38.290474,SCH
3157634927000,1.224937,5.96789910618427,6.67967714668596,0.631682136534491,-0.74189585,0.5137377,1.611768,205.02261,-49.28387,38.650383,SCH
3157639877000,1.229887,6.09595930734202,6.61107329863965,0.599667045651712,-0.7272351,0.53969944,1.5986344,204.93893,-48.89378,38.994514,SCH
3157644966000,1.234976,6.20003152353651,6.55014842468316,0.577671612094146,-0.6969972,0.5839872,1.59558,204.77505,-48.43465,39.391857,SCH
3157649856000,1.239866,6.29423922782136,6.49362387097164,0.558830090911285,-0.6808093,0.6178902,1.5937474,204.61293,-47.992664,39.77265,SCH
3157654914000,1.244924,6.36918418777825,6.41518213202559,0.603275943249467,-0.6545421,0.65148777,1.5867225,204.44183,-47.525787,40.18006,SCH
3157659932000,1.249942,6.43886081897655,6.33320962473348,0.660656741151386,-0.6469063,0.63713247,1.5800029,204.28255,-47.07348,40.575428,SCH
3157664981000,1.254991,6.48922636614605,6.3047162439848,0.732894556184044,-0.61941737,0.61208695,1.593442,204.11488,-46.600372,40.993977,SCH
3157669930000,1.25994,6.51923618086745,6.32972446644154,0.817922564763613,-0.59528816,0.61086524,1.6059648,203.95093,-46.144108,41.39691,SCH
3157674910000,1.26492,6.5520629567772,6.24825898062176,0.932105147419689,-0.56077427,0.61391956,1.5787812,203.80237,-45.69307,41.799255,SCH
3157680112000,1.270122,6.58820079256995,6.08822012445596,1.07149384250777,-0.5412266,0.6001751,1.5543466,203.66512,-45.252766,42.194622,SCH
3157684960000,1.27497,6.65535238612225,6.01766164266015,1.15202758870416,-0.5381723,0.6038403,1.5506815,203.44962,-44.783978,42.60103,SCH
3157689948000,1.279958,6.73944484640587,5.98028730259169,1.2127609400978,-0.5705481,0.61453044,1.577254,203.24231,-44.32668,42.99653,SCH
3157694968000,1.284978,6.7374935578347,5.85431130442265,1.29596987626576,-0.6010914,0.6270532,1.5491543,202.9951,-43.86,43.385395,SCH
3157699959000,1.289969,6.6848844026616,5.67735303726236,1.39162298555133,-0.61544675,0.62796944,1.4850134,202.75674,-43.409523,43.75842,SCH
3157704963000,1.294973,6.65953122724158,5.58830277084965,1.49509838089272,-0.64873886,0.61544675,1.412015,202.49309,-42.941517,44.136543,SCH
3157709990000,1.3,6.65010624193422,5.55060292803446,1.60348514604542,-0.68294734,0.6017023,1.3631458,202.24237,-42.497643,44.491127,SCH
3157714993000,1.305003,6.68746800500867,5.58479097794259,1.70484036432287,-0.7049385,0.6084218,1.3494014,201.9803,-42.06328,44.827915,SCH
3157719948000,1.309958,6.75602855788865,5.66706392775958,1.80082523380851,-0.71776664,0.59528816,1.3347405,201.7454,-41.653065,45.14365,SCH
3157724935000,1.314945,6.81181423784514,5.73934997358944,1.87261062812125,-0.7501425,0.5720753,1.3319917,201.41359,-41.194447,45.47784,SCH
3157729937000,1.319947,6.85494437816127,5.80164899287715,1.92053300069028,-0.78038037,0.528093,1.3411547,201.10448,-40.74929,45.803238,SCH
3157734909000,1.324919,6.89536398701467,5.83948170779519,1.97051474464517,-0.7831292,0.49235737,1.3390167,200.76169,-40.30156,46.12158,SCH
3157739905000,1.329915,6.93356795371794,5.85380829503942,2.02304519886216,-0.79229224,0.45081854,1.3497068,200.44461,-39.85825,46.43972,SCH
3157744928000,1.334938,6.98130179555292,5.84911426247653,2.07559847222057,-0.79168135,0.40317106,1.3680327,200.11356,-39.40848,46.764324,SCH
3157750141000,1.340151,7.0405057422769,5.82444588694535,2.12986900142307,-0.79809546,0.35735616,1.385137,199.80591,-38.968384,47.08471,SCH
3157754929000,1.344939,7.08439455965392,5.80894405555556,2.1673151715847,-0.8151997,0.3051272,1.391551,199.51872,-38.537178,47.40072,SCH
3157759943000,1.349953,7.11938068078324,5.80019741111111,2.19355455693989,-0.82558435,0.26725355,1.4059063,199.24861,-38.112495,47.716454,SCH
3157764850000,1.35486,7.18095525756852,5.80740901995989,2.17802893408461,-0.8313876,0.24129178,1.4208726,198.92395,-37.643085,48.0605,SCH
3157769922000,1.359932,7.3201211336071,5.85843660471779,2.04814068623818,-0.8396343,0.22021692,1.4196508,198.6218,-37.18733,48.396442,SCH
3157774912000,1.364922,7.40500410603073,5.88987501652653,1.91920987289069,-0.8393288,0.24709499,1.4312572,198.28093,-36.713306,48.741695,SCH
3157779930000,1.36994,7.2610254308012,5.83878569498405,1.78452000208756,-0.86437434,0.29046643,1.4926492,197.94173,-36.237392,49.088352,SCH
3157784887000,1.374897,7.13420117826597,5.76432105572952,1.65128085885116,-0.86498517,0.36254853,1.4892895,197.6442,-35.782013,49.43049,SCH
3157789910000,1.37992,7.12949384228398,5.49600285560231,1.51476801706625,-0.8735373,0.464563,1.4727961,197.31721,-35.325085,49.76382,SCH
3157794930000,1.38494,7.13058483370805,5.22663119313015,1.39861094565742,-0.8781188,0.6017023,1.42973,196.91171,-34.85466,50.08587,SCH
3157799925000,1.389935,7.20228527400283,4.94381262105921,1.53006175979682,-0.9138544,0.7125743,1.3658947,196.49399,-34.40473,50.376545,SCH
3157804915000,1.394925,7.2739139420851,4.661277150662,1.66138099153968,-0.95111716,0.7809912,1.3130548,196.03738,-33.90731,50.704536,SCH
3157809934000,1.399944,7.37697483136974,4.4555855421883,1.86025721008093,-1.0057896,0.8029824,1.278541,195.57594,-33.431065,51.00052,SCH
3157814893000,1.404903,7.49374477676468,4.29016135973773,2.08893208867944,-1.0231993,0.816116,1.269378,195.1086,-32.975887,51.27061,SCH
3157819940000,1.40995,7.57895472102326,4.15870040308837,2.32565586635349,-1.0497719,0.79626286,1.2638801,194.59639,-32.46496,51.56767,SCH
3157824909000,1.414919,7.64978215367442,4.04360579036279,2.56027156945116,-1.0488557,0.78893244,1.2605205,194.08958,-31.972109,51.84778,SCH
3157829923000,1.419933,7.71492275578595,3.92202076460362,2.75388202671484,-1.0409144,0.752586,1.2614367,193.5258,-31.434837,52.15203,SCH
3157834922000,1.424932,7.77508560823123,3.79668182023249,2.91431579384229,-1.0262536,0.7150178,1.2681563,192.97942,-30.914028,52.44575,SCH
3157839910000,1.42992,7.83582390465414,3.72000563264784,3.00291263209682,-1.0155635,0.6948592,1.2745703,192.35756,-30.365334,52.737335,SCH
3157844935000,1.434945,7.89738077270491,3.66791888464036,3.05499947899242,-1.0027353,0.7134906,1.2825116,191.74818,-29.833244,53.017403,SCH
3157849917000,1.439927,7.94618859833366,3.64004018031389,3.11195564900213,-1.0137309,0.7480045,1.2993103,191.0829,-29.274057,53.29919,SCH
3157854930000,1.44494,7.98804826535555,3.62608692559581,3.17241980134664,-1.0241156,0.7858781,1.3090842,190.42458,-28.733498,53.563835,SCH
3157859947000,1.449957,8.03020179657199,3.62536449179236,3.20131924589618,-1.02717,0.838718,1.3292428,189.70416,-28.166248,53.831795,SCH
3157864918000,1.454928,8.07216633589618,3.63468991251714,3.20598195625857,-1.0384709,0.89552844,1.3472633,188.98235,-27.612766,54.08,SCH
3157869922000,1.459932,8.12454326960784,3.60704480457516,3.22800980882353,-1.0558805,0.979217,1.3521502,188.19972,-27.049816,54.308662,SCH
3157874922000,1.464932,8.18618839735591,3.54539962731234,3.26594519206774,-1.0574077,1.0708468,1.361924,187.40497,-26.499544,54.516354,SCH
3157879913000,1.469923,8.22830095238095,3.44172188095238,3.33044845714286,-1.0595458,1.1746938,1.3552046,186.5678,-25.94769,54.69844,SCH
3157884921000,1.474931,8.25113934019048,3.29555615127619,3.42180210377143,-1.0732902,1.2565498,1.3335189,185.72917,-25.413536,54.85253,SCH
3157889879000,1.479889,8.24932309616788,3.14123287666058,3.54337827715328,-1.0839803,1.314582,1.310306,184.83821,-24.862686,54.99377,SCH
3157894933000,1.484943,8.20957772080292,2.9690024709854,3.71560882116788,-1.0958922,1.3878858,1.276403,183.94939,-24.336355,55.096043,SCH
3157899898000,1.489908,8.1531465247304,2.81539567114268,3.90891216990875,-1.1065824,1.4370605,1.2657127,182.99927,-23.777552,55.194317,SCH
3157904951000,1.494961,8.02770160810867,2.72005749678557,4.19994411659063,-1.099252,1.46852,1.2479976,182.07394,-23.248043,55.260445,SCH
3157910096000,1.500106,7.92028736700268,2.64468177982159,4.4781745520339,-1.1129965,1.484708,1.2370021,181.0765,-22.69174,55.296864,SCH
3157915081000,1.505091,7.86066521057984,2.6191294080107,4.70814612067797,-1.1239921,1.5460999,1.2263119,180.09407,-22.159061,55.30196,SCH
3157920123000,1.510133,7.80548043997577,2.60412001544518,4.9339639112659,-1.1340714,1.6563611,1.2055426,179.02768,-21.62593,55.23405,SCH
3157924934000,1.514944,7.81013155897436,2.71109570384615,5.07349762692308,-1.1844677,1.7986927,1.1924089,177.97447,-21.104013,55.134785,SCH
3157930059000,1.520069,7.81064584583786,2.82927810518416,5.22630008047793,-1.2501358,1.9642372,1.1701124,176.84001,-20.582771,54.951805,SCH
3157935259000,1.525269,7.76147100629999,2.99647281635233,5.42791702527896,-1.303281,2.1261165,1.1472049,175.72083,-20.076508,54.72726,SCH
3157940150000,1.53016,7.67909763657735,3.16277127685028,5.65414617870306,-1.3539828,2.2626448,1.1139128,174.56631,-19.57581,54.42219,SCH
3157944930000,1.53494,7.19118510026895,3.42724716747684,6.28797636896105,-1.4358387,2.3472497,1.070236,173.45439,-19.087208,54.082314,SCH
3157950238000,1.540248,6.69164175821942,3.69009990377228,6.94706674182385,-1.4999796,2.3790147,1.0167851,172.33478,-18.621084,53.65806,SCH
3157954929000,1.544939,6.66443351176674,3.62013565592663,7.09088213566361,-1.5699236,2.4150558,0.9822713,171.26625,-18.162355,53.21019,SCH
3157961553000,1.551563,6.64658206391533,3.5176719516776,7.306861056105,-1.645671,2.6484063,0.93279123,170.0993,-17.77288,52.502857,SCH
3157964925000,1.554935,6.98088427576486,3.40424805094741,7.63220840909511,-1.7290541,2.7601945,0.93676186,169.01994,-17.377554,51.82914,SCH
3157969918000,1.559928,7.47589345244477,3.2362986036325,8.11395791487198,-1.7327193,3.0161471,0.9602802,167.88145,-16.971203,51.034546,SCH
3157974968000,1.564978,8.13377717110665,2.89482560709443,8.77605771154397,-1.6985108,3.1884112,0.9990701,166.80664,-16.564821,50.24836,SCH
3157979964000,1.569974,8.91041927671154,2.41970333569178,9.57097411945001,-1.6581937,3.1917708,1.0009027,165.79153,-16.174181,49.45352,SCH
3157984954000,1.574964,9.60791417521413,1.92860408705721,10.2736216788622,-1.616044,2.977968,0.9459248,164.78366,-15.725307,48.689644,SCH
3157989909000,1.579919,10.2100470117373,1.42180902387649,10.8657187672623,-1.5806139,2.5857925,0.8533788,163.88495,-15.303115,47.9848,SCH
3157994930000,1.58494,10.6155340326744,1.12784732581174,11.1171684952371,-1.5647314,2.1209242,0.6942484,163.03114,-14.784241,47.38437,SCH
3157999927000,1.589937,10.8606188918365,1.00530479386459,11.0975618088702,-1.561677,1.6862935,0.5271767,162.3224,-14.304193,46.88115,SCH
3158005205000,1.595215,10.9276054336544,0.998503090013761,10.8010451869471,-1.5949692,1.3322971,0.408058,161.67676,-13.742365,46.513313,SCH
3158009947000,1.599957,10.887432667584,1.05653060003932,10.3903891055632,-1.6300939,1.2089024,0.36193767,161.1288,-13.215679,46.194023,SCH
3158014920000,1.60493,10.7490483997015,1.03283148183284,9.98132820149254,-1.6609426,1.0604621,0.2883284,160.68991,-12.681402,46.006313,SCH
3158019912000,1.609922,10.5397425322388,0.947206244053731,9.58650073880597,-1.6954565,0.98868537,0.22296582,160.29431,-12.164614,45.827553,SCH
3158024937000,1.614947,10.2838157621028,0.847779226415206,9.20637745619246,-1.7327193,0.9795224,0.16432275,159.95763,-11.662578,45.71069,SCH
3158029933000,1.619943,9.99487474081774,0.738834395828136,8.84164917740818,-1.7278323,1.0085385,0.0870483,159.67664,-11.196661,45.594906,SCH
3158034915000,1.624925,9.71109115922218,0.6192915764536,8.52105885194455,-1.6963727,1.0522153,0.02107485,159.40707,-10.724975,45.493702,SCH
3158039900000,1.62991,9.43075161262996,0.490611297189064,8.2361239684251,-1.6267341,1.0870347,-0.03726278,159.18013,-10.292417,45.38238,SCH
3158044959000,1.634969,9.10421813541769,0.330189772285296,8.01165248744504,-1.5039502,1.1099422,-0.07696902,158.95323,-9.866454,45.262318,SCH
3158049954000,1.639964,8.734989785149,0.138564744967269,7.86209140195408,-1.3631458,1.0989466,-0.08307768,158.75195,-9.47752,45.143307,SCH
3158054917000,1.644927,8.34788765496728,-0.0430529018322427,7.79032494170137,-1.2018774,1.0311406,-0.10567969,158.56712,-9.109529,45.020927,SCH
3158059976000,1.649986,7.92517123805275,-0.215982342379536,7.82395028792386,-1.0326678,0.91507614,-0.12461651,158.40213,-8.78428,44.919174,SCH
3158064885000,1.654895,7.51002858830775,-0.415693746522617,7.86257014351777,-0.89888823,0.7476991,-0.12705997,158.23209,-8.46108,44.81457,SCH
3158069952000,1.659962,7.07396386780089,-0.670473158273425,7.91156599730412,-0.7852673,0.5558874,-0.14844026,158.09839,-8.185136,44.750774,SCH
3158075134000,1.665144,6.69102104366894,-0.942953075664832,7.95996702995241,-0.7141015,0.34483343,-0.16401732,157.95085,-7.9036217,44.676483,SCH
3158079928000,1.669938,6.40827958391341,-1.20855863135766,8.00280674537651,-0.66339964,0.14080444,-0.16890424,157.82825,-7.6502686,44.65589,SCH
3158084902000,1.674912,6.1259687677379,-1.48352363449499,8.03907183681135,-0.6533204,-0.046731193,-0.18692477,157.70976,-7.3861628,44.626415,SCH
3158089905000,1.679915,5.87100734755843,-1.75848217722245,8.05406935246244,-0.6722572,-0.21502456,-0.1908954,157.60443,-7.129814,44.650097,SCH
3158094868000,1.684878,5.6527677108618,-2.01530985976543,8.07570433809281,-0.70005155,-0.34574974,-0.19028452,157.48866,-6.84573,44.671356,SCH
3158099928000,1.689938,5.4946160045895,-2.24759508159103,8.11030018510964,-0.7693848,-0.3998113,-0.17715092,157.37717,-6.552096,44.71769,SCH
3158104935000,1.694945,5.37771952848973,-2.4663155439205,8.1815387855067,-0.85062987,-0.5036584,-0.16982053,157.25597,-6.2244186,44.783722,SCH
3158109931000,1.699941,5.31940945941689,-2.66815825283585,8.30713008540358,-0.89949906,-0.57879484,-0.16126843,157.13087,-5.890741,44.855415,SCH
3158114898000,1.704908,5.26572044578855,-2.8809492409615,8.4518944963846,-0.97433007,-0.643852,-0.1328632,156.97931,-5.506095,44.931347,SCH
3158119918000,1.709928,5.2234417840727,-3.12992387649013,8.65389235059605,-1.0497719,-0.7128797,-0.119729586,156.83464,-5.117722,45.026173,SCH
3158124908000,1.714918,5.19664674085383,-3.39435603771418,8.82971657509333,-1.1142182,-0.7831292,-0.10476339,156.65979,-4.688465,45.116695,SCH
3158129927000,1.719937,5.22425234583134,-3.72102245936633,8.91713422810376,-1.1749994,-0.83016586,-0.11056661,156.49007,-4.252184,45.21589,SCH
3158134918000,1.724928,5.2639657020942,-4.0322099618587,8.97357054179983,-1.2311989,-0.8164214,-0.15088372,156.29704,-3.7809517,45.290867,SCH
3158139908000,1.729918,5.38454143489487,-4.2532659126577,8.8288798470984,-1.2571607,-0.72692966,-0.17806722,156.10085,-3.3088233,45.353195,SCH
3158144951000,1.734961,5.50639783179142,-4.47666975231287,8.68265235744323,-1.2412782,-0.5308419,-0.18600847,155.87465,-2.801045,45.38045,SCH
3158149880000,1.73989,5.78130914517468,-4.67448543443038,8.2753680774076,-1.1814134,-0.23609942,-0.19242255,155.65652,-2.3090103,45.348793,SCH
3158154881000,1.744891,6.11110845893671,-4.86848498607595,7.77581937751899,-1.0665708,0.10567969,-0.19150625,155.43797,-1.8378732,45.24443,SCH
3158159893000,1.749903,6.34511640409077,-4.85023954932816,7.31127306569125,-0.89949906,0.42241332,-0.21288654,155.20563,-1.3529785,45.09499,SCH
3158164863000,1.754873,6.54882471811486,-4.76970363522445,6.86121940768389,-0.70371675,0.60903263,-0.24953845,154.9848,-0.906251,44.884644,SCH
3158169897000,1.759907,6.94623168053027,-4.13417909430154,6.76614108231104,-0.52534413,0.61086524,-0.28099802,154.76187,-0.4592523,44.73659,SCH
3158174871000,1.764881,7.39864192926395,-3.33303574149189,6.78499140067273,-0.3827071,0.46578476,-0.2782491,154.54736,-0.050848197,44.5782,SCH
3158179886000,1.769896,7.71754391259259,-2.81365163259259,6.7479032437037,-0.2751948,0.2012801,-0.28955013,154.36821,0.31994903,44.52144,SCH
3158184878000,1.774888,7.9866819842963,-2.3981402322963,6.69124268785185,-0.19333886,-0.15271631,-0.30940324,154.19533,0.66021216,44.531734,SCH
3158189903000,1.779913,8.17159473438418,-1.89480320615821,6.40185354880556,-0.13439035,-0.5305365,-0.3231477,154.13126,0.87252194,44.64917,SCH
3158194908000,1.784918,8.32176384491874,-1.35982785081261,6.02173938124143,-0.11026118,-0.8564331,-0.35369098,154.08371,1.0615933,44.85061,SCH
3158199897000,1.789907,8.4770701344,-0.787359633382187,5.52329638730667,-0.0888809,-0.9841039,-0.37690386,154.0954,1.1862032,45.116432,SCH
3158204835000,1.794845,8.633442768,-0.202221304641067,4.97346812746667,-0.08674286,-1.1368202,-0.3747658,154.11067,1.3034534,45.47407,SCH
3158209861000,1.799871,8.73587984768812,0.298342561831973,4.56465793109701,-0.09896017,-1.1334605,-0.3567453,154.21048,1.3539969,45.851482,SCH
3158214814000,1.804824,8.82188901450589,0.766613388714415,4.20150903037171,-0.13408493,-0.9963212,-0.3286455,154.31047,1.4096113,46.222374,SCH
3158219837000,1.809847,8.83191867693653,1.14966822362717,4.11265516605112,-0.19242255,-0.77396625,-0.28252518,154.47864,1.4078801,46.628525,SCH
3158224849000,1.814859,8.82258833890563,1.50887897969676,4.09399487968704,-0.23762658,-0.516792,-0.2171626,154.63283,1.4219891,46.974136,SCH
3158229840000,1.81985,8.79835216966292,1.74888630101124,4.14766116820225,-0.27275133,-0.26633725,-0.15393804,154.82753,1.3967277,47.306076,SCH
3158234827000,1.824837,8.76908168886619,1.94890070976507,4.22571576668029,-0.33658674,-0.033292156,-0.09162979,155.00038,1.4008312,47.5627,SCH
3158239837000,1.829847,8.68378619958088,2.02582956341683,4.3817021043808,-0.3652974,0.17165314,-0.03940081,155.19893,1.3636684,47.75583,SCH
3158244903000,1.834913,8.58211636702924,2.06940252212354,4.56083527795629,-0.36377025,0.31703907,0.009162978,155.3754,1.3466436,47.896606,SCH
3158249841000,1.839851,8.4534755073461,2.03279697679003,4.8097574368886,-0.33658674,0.40469822,0.03756821,155.56268,1.3082936,47.98283,SCH
3158254911000,1.844921,8.31350975134834,1.97410189700577,5.08517323556816,-0.2779437,0.44318274,0.07788532,155.7247,1.2775594,48.041245,SCH
3158260062000,1.850072,8.1787002914029,1.87420670982234,5.38301833465387,-0.20219639,0.4111123,0.095294975,155.89243,1.2290586,48.059597,SCH
3158264925000,1.854935,8.05506618776802,1.76008291421278,5.67308297769042,-0.12339478,0.33292156,0.101098195,156.04599,1.1761379,48.08136,SCH
3158269918000,1.859928,7.96119725569434,1.66620255841293,5.90474551138868,-0.057421334,0.22388211,0.093767814,156.18237,1.1140798,48.072155,SCH
3158274930000,1.86494,7.88184580602498,1.58244250051433,6.10753311204996,0.0027488936,0.098043874,0.09101892,156.31084,1.0420302,48.091236,SCH
3158279917000,1.869927,7.80368104625027,1.51803157244435,6.26932927069375,0.05467244,-0.021380283,0.07269296,156.42427,0.9684824,48.089153,SCH
3158284919000,1.874929,7.7260338338016,1.47144313687054,6.39356470250702,0.08246681,-0.113926366,0.050396383,156.53699,0.8888593,48.115807,SCH
3158289903000,1.879913,7.67366503885481,1.48636625961145,6.38650730616418,0.09896017,-0.17806722,0.0106901415,156.64342,0.80754715,48.130043,SCH
3158295494000,1.885504,7.62934483503749,1.53850757498296,6.30308113623527,0.09193522,-0.21991149,-0.032375857,156.7575,0.72262317,48.16413,SCH
3158299917000,1.889927,7.5942834396728,1.57975619560327,6.23708329155711,0.07269296,-0.22204952,-0.055588737,156.87154,0.64020276,48.17877,SCH
3158304909000,1.894919,7.55471154601227,1.62631127453988,6.16259510692375,0.06658431,-0.19333886,-0.08368854,157.00264,0.5494629,48.19635,SCH
3158309942000,1.899952,7.50736903942076,1.72787779629928,6.10495595253419,0.02321288,-0.15882497,-0.1133155,157.14088,0.46726093,48.212597,SCH
3158314921000,1.904931,7.4546223826428,1.87173219188455,6.06179977906275,-0.00580322,-0.12308934,-0.12461651,157.27974,0.38446146,48.220154,SCH
3158319920000,1.90993,7.40873962286465,2.01326342369063,6.03788443343345,-0.036651913,-0.089491755,-0.13133603,157.43889,0.29236922,48.231987,SCH
3158324933000,1.914943,7.3681843869908,2.15295409883612,6.02887209082974,-0.07544186,-0.084910266,-0.12522738,157.59344,0.21066657,48.24191,SCH
3158329969000,1.919979,7.2957051528697,2.29501934564405,5.99995261545149,-0.090713486,-0.09040806,-0.10934488,157.76578,0.10767885,48.24684,SCH
3158334923000,1.924933,7.18483492923911,2.43693292255562,5.94673518039821,-0.1001819,-0.1001819,-0.07391469,157.92293,0.019476283,48.251842,SCH
3158339891000,1.929901,7.06487002135201,2.53638513038311,5.89126691924016,-0.10323623,-0.11942416,-0.027794369,158.08347,-0.0806492,48.256386,SCH
3158344940000,1.93495,6.92119058066433,2.53125377536878,5.82968980176165,-0.106595986,-0.108123146,0.019547688,158.22438,-0.16824403,48.255062,SCH
3158349902000,1.939912,6.78460648688608,2.50461769743797,5.77030873861266,-0.08124508,-0.08460484,0.067500606,158.35994,-0.2722617,48.24934,SCH
3158354901000,1.944911,6.65370912729114,2.44644118316962,5.71213232558987,-0.07574729,-0.040317107,0.1301143,158.46553,-0.3562043,48.234497,SCH
3158359903000,1.949913,6.54179109005056,2.34432251288753,5.69482552679576,-0.05222898,0.01985312,0.19853121,158.54222,-0.43533218,48.200943,SCH
3158365574000,1.955584,6.44335653038252,2.16299527675284,5.73627170273777,-0.03604105,0.0842994,0.25259277,158.59552,-0.50219434,48.15395,SCH
3158369851000,1.959861,6.38827081679094,1.96069696424906,5.8068658285078,-0.03940081,0.16065755,0.30787608,158.60388,-0.54673666,48.082718,SCH
3158374959000,1.964969,6.35984912723928,1.59121608825409,5.96792140979955,-0.041233405,0.23090707,0.34483343,158.59518,-0.5864306,47.995796,SCH
3158379859000,1.969869,6.34728662363564,1.2220473490127,6.14823744438381,-0.044898596,0.27855456,0.3436117,158.54993,-0.5959575,47.87963,SCH
3158384919000,1.974929,6.37613685780909,0.798911727560032,6.40788889923596,-0.0580322,0.2910773,0.3304781,158.4937,-0.59868807,47.75547,SCH
3158389903000,1.979913,6.41070300937469,0.399516212541271,6.65565728708354,-0.07788532,0.28099802,0.30970868,158.37923,-0.5378562,47.597897,SCH
3158394935000,1.984945,6.4637389804002,0.0475496371735868,6.88226589306653,-0.095294975,0.27366763,0.28344148,158.2747,-0.48160738,47.439415,SCH
3158399894000,1.989904,6.52260673550353,-0.275250043262068,7.0919610901809,-0.116675265,0.24556783,0.25900686,158.10733,-0.35139742,47.256927,SCH
3158404904000,1.994914,6.60151338733675,-0.530535812198897,7.26369886903357,-0.122478485,0.21746802,0.2312125,157.95842,-0.23360935,47.082336,SCH
3158409971000,1.999981,6.67802232097615,-0.77510802348166,7.42026878147925,-0.12797627,0.18173242,0.18845193,157.7857,-0.08228502,46.908283,SCH
3158414951000,2.004961,6.740159175456,-0.961518886380036,7.50630449524955,-0.13530666,0.14874569,0.1600467,157.62613,0.060235452,46.747284,SCH
3158419915000,2.009925,6.80859618083617,-1.1342098455091,7.58084607371474,-0.13591751,0.12064589,0.12370021,157.46239,0.21803209,46.593384,SCH
3158424955000,2.014965,6.90514963552711,-1.25490176469294,7.60981221094219,-0.15210545,0.09712757,0.090713486,157.3167,0.36758706,46.45304,SCH
3158429920000,2.01993,6.99872602976708,-1.36847085305886,7.62908677423408,-0.17165314,0.06658431,0.059253927,157.17216,0.5274014,46.32838,SCH
3158435186000,2.025196,7.09133256114816,-1.46595124633227,7.60959061414903,-0.16798794,0.04642576,0.029626964,157.04759,0.6722306,46.212376,SCH
3158439893000,2.029903,7.17466570750534,-1.54363662562799,7.59145654701515,-0.17837265,0.012217305,0.0009162979,156.9074,0.8560602,46.10846,SCH
3158444929000,2.034939,7.26785670056951,-1.55835093365199,7.56693261494966,-0.183565,-0.0290161,-0.029321533,156.7874,1.023894,46.017014,SCH
3158449909000,2.039919,7.35309562365015,-1.57339071390533,7.5374417402182,-0.18906279,-0.08155051,-0.05131268,156.67827,1.1948216,45.958454,SCH
3158454904000,2.044914,7.40174542736686,-1.5910815852071,7.47994631612426,-0.18997909,-0.11575896,-0.0720821,156.587,1.3530828,45.9098,SCH
3158460265000,2.050275,7.4530401768179,-1.60531343659623,7.41517125932256,-0.18509217,-0.15454891,-0.09010262,156.51125,1.5053052,45.89339,SCH
3158464923000,2.054933,7.48538534039776,-1.5544851225088,7.31813562383468,-0.18387043,-0.18875736,-0.112704635,156.45052,1.647194,45.88764,SCH
3158469951000,2.059961,7.52072709697021,-1.49651680832555,7.21475091351948,-0.17501289,-0.23365596,-0.13041973,156.39336,1.7962893,45.90194,SCH
3158474962000,2.064972,7.56145496377833,-1.39877049785284,7.12922263137571,-0.16523905,-0.26389378,-0.14110987,156.34665,1.9361122,45.923138,SCH
3158479862000,2.069872,7.60128065672579,-1.30318939202241,7.04558890906391,-0.15332718,-0.28221974,-0.15851954,156.3233,2.059387,45.969666,SCH
3158484917000,2.074927,7.6172099047619,-1.1788593,6.94318471428571,-0.1386664,-0.28619036,-0.16126843,156.30127,2.176515,46.020634,SCH
3158489879000,2.079889,7.62231794320112,-1.04605019390519,6.83591606707514,-0.11728613,-0.28985557,-0.17195857,156.2921,2.2806826,46.076927,SCH
3158494925000,2.084935,7.60302363820069,-0.875870222076125,6.69397585058824,-0.11789699,-0.2855795,-0.17806722,156.28827,2.3828237,46.143196,SCH
3158499859000,2.089869,7.5796660870786,-0.703025690074147,6.54916004823529,-0.116675265,-0.2556471,-0.17745635,156.28894,2.4762597,46.202595,SCH
3158504953000,2.094963,7.60218047712797,-0.558824529141092,6.37563390793283,-0.099571034,-0.21624629,-0.17928895,156.31107,2.5490108,46.26819,SCH
3158509991000,2.100001,7.63477432426173,-0.423793575468056,6.1986969850029,-0.10629055,-0.20066923,-0.19394971,156.33989,2.6213212,46.331673,SCH
3158514937000,2.104947,7.61503958789246,-0.324518533491258,6.09997593551419,-0.12064589,-0.18478674,-0.20861048,156.3924,2.672476,46.394363,SCH
3158519890000,2.1099,7.57936802415868,-0.235340257366046,6.02417426997556,-0.12370021,-0.17898351,-0.23182335,156.45502,2.7166173,46.455555,SCH
3158524978000,2.114988,7.51712780339343,-0.133144017435843,5.94976848409332,-0.12705997,-0.15790866,-0.23640485,156.5381,2.7506578,46.53094,SCH
3158529904000,2.119914,7.44208753276776,-0.0280875654273595,5.87973100265111,-0.1441642,-0.12583824,-0.25320363,156.63586,2.7801735,46.601563,SCH
3158534920000,2.12493,7.41536631328947,0.0732463707941729,5.87099399530075,-0.14782938,-0.09743301,-0.26145032,156.74173,2.7985523,46.670536,SCH
3158539918000,2.129928,7.40636925565789,0.17221510862312,5.88448953477444,-0.16218472,-0.08002335,-0.26511553,156.8521,2.819814,46.733475,SCH
3158544932000,2.134942,7.37756148571429,0.255685541031746,5.86442594444444,-0.16615535,-0.08399397,-0.26267207,156.9686,2.827046,46.79557,SCH
3158549942000,2.139952,7.33627080757315,0.329091243756932,5.82313536211513,-0.15790866,-0.064446285,-0.25503623,157.08405,2.8353777,46.845924,SCH
3158554901000,2.144911,7.30624694109705,0.395219061221519,5.78528644691983,-0.12644911,-0.035430185,-0.25442538,157.21045,2.8267481,46.889538,SCH
3158559930000,2.14994,7.28592553721519,0.45618332061076,5.74972399012658,-0.10476339,-0.0036651916,-0.2434298,157.3282,2.8228042,46.92646,SCH
3158564921000,2.154931,7.26296784800082,0.531218672269167,5.75191278417148,-0.09010262,0.021991149,-0.22571471,157.45085,2.804839,46.957893,SCH
3158569917000,2.159927,7.23831533724237,0.615037409635202,5.77656534641385,-0.070554934,0.056505036,-0.20433442,157.56639,2.7858076,46.977627,SCH
3158574918000,2.164928,7.24630854334914,0.708087026893683,5.81286609749444,-0.06047566,0.08124508,-0.19028452,157.68242,2.7596006,46.99672,SCH
3158579908000,2.169918,7.26942363099545,0.805170694302022,5.85447334214956,-0.0421497,0.087964594,-0.16737708,157.78416,2.7354002,47.010826,SCH
3158584980000,2.17499,7.30163908162476,0.889290793617021,5.90257318723404,-0.025045475,0.093462385,-0.15577064,157.89589,2.6957262,47.012974,SCH
3158589901000,2.179911,7.33810131203095,0.962215302021277,5.95270875404255,-0.012217305,0.0888809,-0.1414153,157.99452,2.6599534,47.016033,SCH
3158594925000,2.184935,7.36023419046003,1.03271444410737,6.00216059883245,-0.011911872,0.089186326,-0.1301143,158.10402,2.6073785,47.014454,SCH
3158599924000,2.189934,7.36978891020856,1.09959823062569,6.04993464654226,-0.002443461,0.0711658,-0.10842858,158.20007,2.5572908,47.01924,SCH
3158604905000,2.194915,7.37164074641305,1.14756536672782,6.09169782474655,-0.01038471,0.058948494,-0.083383106,158.29854,2.5007284,47.02129,SCH
3158609936000,2.199946,7.36698883228734,1.18012949424544,6.12891406069325,-0.005497787,0.045814894,-0.07086037,158.39032,2.4434273,47.028652,SCH
3158614921000,2.204931,7.36343600416854,1.19935769166293,6.14605316120668,-0.016493361,0.035430185,-0.0580322,158.47409,2.391568,47.029606,SCH
3158620525000,2.210535,7.36075994397407,1.20470981205186,6.14070092904513,-0.01740966,0.021991149,-0.0421497,158.54893,2.3415473,47.034958,SCH
3158624890000,2.2149,7.35867553948641,1.20887862102718,6.13653203300922,-0.014966198,0.012217305,-0.035430185,158.62215,2.289713,47.036488,SCH
3158629929000,2.219939,7.35626928193468,1.21369113613064,6.13171941740214,-0.0018325958,-0.009468411,-0.02107485,158.6832,2.242224,47.04484,SCH
3158634917000,2.224927,7.35281418723404,1.20756066737589,6.10524798297872,-0.007941248,-0.012217305,-0.013744468,158.74768,2.19273,47.054028,SCH
3158639906000,2.229916,7.34810795620567,1.1887353501182,6.05347840966312,0.014049901,-0.015882496,-0.008246681,158.80482,2.1392536,47.069073,SCH
3158644920000,2.23493,7.3433446769123,1.18621241974369,6.02174502006408,0.033292156,-0.0125227375,-0.00061086525,158.86113,2.0871356,47.083557,SCH
3158649921000,2.239931,7.33854946495795,1.2053928670004,6.0169499082499,0.037873644,-0.0061086523,0.00030543262,158.91641,2.0348132,47.097748,SCH
3158655063000,2.245073,7.32282081882353,1.21439547411765,6.00679841588235,0.056199603,-0.0061086523,0.016493361,158.940089186232,2.00873775582969,47.1055377309988,SIT
3158659973000,2.249983,7.29516076705882,1.21044403815126,5.99099271327731,0.055588737,0.016187929,0.022907447,158.9627,1.9838388,47.112976,SIT
3158665071000,2.255081,7.26765417941792,1.20781992058208,5.97859258135819,0.06811147,0.03573562,0.03634648,159.01105,1.9327832,47.126686,SIT
3158669915000,2.259925,7.25441753707438,1.22105656292562,6.00947808015979,0.07422013,0.053145275,0.04520403,159.05328,1.8818377,47.13387,SIT
3158674901000,2.264911,7.24079286764314,1.23468123235686,6.04126897549933,0.07147124,0.06536258,0.0580322,159.09044,1.8320987,47.13595,SIT
3158679911000,2.269921,7.22493538907638,1.21019032735346,6.07322627451155,0.08307768,0.08155051,0.070249505,159.12317,1.7815093,47.131557,SIT
3158684914000,2.274924,7.20929888442057,1.18073470764582,6.1078940592383,0.07727446,0.090713486,0.07788532,159.15126,1.737842,47.125412,SIT
3158690590000,2.2806,7.19365481780507,1.12858776447621,6.1652559090848,0.06536258,0.10873401,0.089186326,159.17091,1.6950321,47.105457,SIT
3158694978000,2.284988,7.18006584468766,1.08522596637181,6.21121268995502,0.0729984,0.11942416,0.092240654,159.18417,1.6564808,47.07722,SIT
3158699957000,2.289967,7.14670450431784,0.999439587916042,6.28270127646177,0.069027774,0.118507855,0.10476339,159.18788,1.6276703,47.047333,SIT
3158705096000,2.295106,7.11018790235966,0.911303781627022,6.35569939391056,0.05681047,0.112704635,0.10598512,159.18785,1.6020216,47.00842,SIT
3158709969000,2.299979,7.05690384971456,0.83137798085157,6.41786375880114,0.067500606,0.11178834,0.116675265,159.178,1.5778283,46.968765,SIT
3158715311000,2.305321,6.99960975280015,0.744746555326684,6.48591498701501,0.056505036,0.10445796,0.11942416,159.15268,1.5721837,46.919632,SIT
3158719952000,2.309962,6.97520687536603,0.69187344045937,6.5428552750183,0.04520403,0.09285152,0.12308934,159.12238,1.5669421,46.872772,SIT
3158724951000,2.314961,6.9489215954063,0.634921770297401,6.60418785414532,0.0421497,0.083383106,0.11728613,159.06604,1.5760185,46.81497,SIT
3158729965000,2.319975,6.91486513912183,0.555232800150758,6.64943328672383,0.035124753,0.07696902,0.118507855,159.0061,1.5895047,46.76056,SIT
3158734853000,2.324863,6.87957901116555,0.471428295765571,6.68913035914445,0.02443461,0.07574729,0.11178834,158.95277,1.6006988,46.708523,SIT
3158739950000,2.32996,6.86971926927107,0.396450070458514,6.72580646709574,0.01863139,0.065973446,0.108123146,158.88333,1.622333,46.649006,SIT
3158744902000,2.334912,6.87445150157162,0.330198427882054,6.75893221673402,-0.0009162979,0.061086524,0.092240654,158.82324,1.6436043,46.589954,SIT
3158749956000,2.339966,6.87928120715462,0.262582151310682,6.79274028189393,-0.013744468,0.05009095,0.0852157,158.74629,1.6793777,46.52505,SIT
3158754959000,2.344969,6.88406217609639,0.195648191736766,6.82620718929302,-0.03756821,0.04734206,0.07360926,158.67975,1.7151585,46.46103,SIT
3158760551000,2.350561,6.90795486986645,0.142741441682097,6.86377596325936,-0.040317107,0.039095376,0.0571159,158.6196,1.7451688,46.403355,SIT
3158764925000,2.354935,6.9331917826087,0.109092317217391,6.89321896956522,-0.04795292,0.03634648,0.043676864,158.56464,1.7774401,46.346485,SIT
3158769956000,2.359966,6.95283584307097,0.0989850394591182,6.91774561392934,-0.063224554,0.02107485,0.03573562,158.51097,1.8196192,46.290207,SIT
3158774949000,2.364959,6.96744228728235,0.10385389622401,6.93722105929131,-0.07788532,0.01863139,0.029626964,158.46379,1.8590323,46.232914,SIT
3158779924000,2.369934,6.98319234224066,0.0892347125819868,6.94157395084208,-0.09621128,0.010079277,0.023518313,158.4173,1.9032941,46.183395,SIT
3158784924000,2.374934,6.99955499784232,0.0658595422134245,6.93923638677081,-0.094989546,0.013744468,0.02076942,158.37366,1.9442136,46.132694,SIT
3158789901000,2.379911,7.01584238522822,0.0425918976285575,6.93690957549426,-0.10354166,0.002443461,0.015882496,158.34914,1.9747317,46.092857,SIT
3158794929000,2.384939,7.03229667170125,0.0190858263059312,6.93455892106419,-0.11301007,-0.025045475,0.007330383,158.32774,2.002681,46.058083,SIT
3158799917000,2.389927,7.04429670453343,-0.00111072119777106,6.9442955206649,-0.118202426,-0.034208454,0.007330383,158.3057,2.0311048,46.022507,SIT
3158804901000,2.394911,7.05331262308274,-0.0191427592944843,6.96232754605213,-0.119729586,-0.052534413,-0.004276057,158.29185,2.055471,45.99874,SIT
3158809935000,2.399945,7.06518293170782,-0.0263715910399835,6.94360929484451,-0.13775012,-0.086132,-0.0106901415,158.26761,2.0970335,45.985992,SIT
3158814990000,2.405,7.08018790980473,-0.0213699633584048,6.88358985249509,-0.12675454,-0.12217305,-0.004581489,158.24353,2.1319788,45.97992,SIT
3158819918000,2.409928,7.09866394065974,-0.0156055403232565,6.77775343345585,-0.13439035,-0.14080444,-0.005497787,158.21182,2.1804361,45.97664,SIT
3158824941000,2.414951,7.12076465603694,-0.00897534163341909,6.62967908120463,-0.13316862,-0.15515977,0.0018325958,158.17508,2.2262776,45.98244,SIT
3158829876000,2.419886,7.14247817990444,-0.00246130011752274,6.48419890434623,-0.122783914,-0.14202617,-0.0067195175,158.15141,2.2675886,45.995182,SIT
3158834920000,2.42493,7.16467129325554,0.00419661789791418,6.33550548751263,-0.121256754,-0.112399206,-0.004581489,158.12196,2.312596,46.006763,SIT
3158839868000,2.429878,7.18613412721318,0.0148700517809001,6.20652586748363,-0.106901415,-0.070554934,-0.009162978,158.10919,2.3468828,46.008514,SIT
3158844932000,2.434942,7.20662722469892,0.0456097210130995,6.1552927492922,-0.09437868,-0.030848695,-0.0009162979,158.09195,2.3830616,46.002342,SIT
3158849854000,2.439864,7.22899019080994,0.0697302196950111,6.12361819460715,-0.08246681,-0.013439035,0.0015271631,158.10173,2.4189134,46.03844,SIT
3158854907000,2.444917,7.25831244056756,0.0795043250605938,6.1382794980913,-0.070554934,-0.00580322,-0.00030543262,158.11127,2.4520755,46.065697,SIT
3158859917000,2.449927,7.288649550153,0.0803190731394729,6.15124615260093,-0.057726767,-0.009468411,0.004886922,158.12056,2.4813995,46.100716,SIT
3158864922000,2.454932,7.32176811584246,0.0613942210873556,6.16070876932188,-0.061391957,-0.03481932,-0.0033597588,158.13622,2.50776,46.1397,SIT
3158869877000,2.459887,7.35704796385307,0.0465910323409535,6.17134294294646,-0.06078109,-0.029932396,-0.0033597588,158.14469435603,2.51936501961861,46.1576193300719,SIT
3158874938000,2.464948,7.39966350224697,0.0418559590598867,6.18554795760063,-0.0693332,-0.043066,-0.0143553335,158.15335,2.5312183,46.175922,SIT
3158879893000,2.469903,7.43475209669749,0.04880755732893,6.20984442998679,-0.065973446,-0.05681047,-0.021380283,158.1718,2.5517347,46.22043,SIT
3158884921000,2.474931,7.44838263559162,0.0942427216093603,6.26891014597094,-0.07574729,-0.07391469,-0.03359759,158.2089,2.5731242,46.266953,SIT
3158889907000,2.479917,7.45927239758713,0.137255342104558,6.32334253370356,-0.08002335,-0.09132435,-0.03604105,158.2547,2.5916321,46.317913,SIT
3158894924000,2.484934,7.45007165,0.1648578875,6.34634464285714,-0.082161374,-0.10354166,-0.032375857,158.3023,2.6101055,46.371746,SIT
3158900189000,2.490199,7.43955999376206,0.194774128528904,6.37019549778523,-0.07849618,-0.11484267,-0.032375857,158.35315,2.619845,46.422455,SIT
3158904903000,2.494913,7.42121385096007,0.231466256089607,6.38854154480341,-0.07727446,-0.11636983,-0.029321533,158.40068,2.6317937,46.473003,SIT
3158910210000,2.50022,7.40167651193277,0.271138321415966,6.40210334773109,-0.0729984,-0.115453534,-0.032070424,158.4507,2.636622,46.520878,SIT
3158914924000,2.504934,7.39219226084034,0.29484895905042,6.36416634336134,-0.055283304,-0.115453534,-0.030543262,158.4971,2.6401408,46.56856,SIT
3158919902000,2.509912,7.38175986436516,0.316687333241392,6.32961658812172,-0.03023783,-0.10781772,-0.03176499,158.54688,2.6344802,46.608067,SIT
3158924962000,2.514972,7.3688249213987,0.320998989901237,6.32530494046623,-0.030848695,-0.112399206,-0.03359759,158.5952,2.6309195,46.650356,SIT
3158929864000,2.519874,7.35629387586084,0.325176013803719,6.32112792528695,-0.030848695,-0.11911872,-0.04184427,158.63762,2.623696,46.69571,SIT
3158934920000,2.52493,7.34553660531973,0.353964433909456,6.28761406796222,-0.021685716,-0.11636983,-0.044898596,158.67822,2.6158953,46.738735,SIT
3158939956000,2.529966,7.33512460740741,0.383426957037037,6.24975333333333,-0.017104227,-0.13103059,-0.03940081,158.7174,2.6095083,46.78775,SIT
3158945581000,2.535591,7.32433992272272,0.388819310640641,6.19043745495495,-0.02076942,-0.13744467,-0.04153884,158.75018,2.6041439,46.833515,SIT
3158949957000,2.539967,7.31601354032715,0.395316547937494,6.14230819331079,-0.023518313,-0.1423316,-0.04153884,158.78017,2.5986333,46.884342,SIT
3158954907000,2.544917,7.30734961544366,0.429972627440373,6.06433196467148,-0.035430185,-0.13072516,-0.03848451,158.80974,2.5962014,46.931175,SIT
3158959978000,2.549988,7.29847390572969,0.465475855553322,5.98444965044321,-0.03970624,-0.0870483,-0.043676864,158.8451,2.5888517,46.978172,SIT
3158965053000,2.555063,7.30197033855915,0.482593827984036,5.92260631653704,-0.03970624,-0.0571159,-0.045814894,158.87758,2.5846093,47.024475,SIT
3158969882000,2.559892,7.30670277832583,0.496791458609292,5.86581595216946,-0.04153884,-0.020463986,-0.03940081,158.90964,2.5825822,47.055485,SIT
3158974931000,2.564941,7.31979365768682,0.510684029771537,5.86946595011899,-0.045814894,0.005497787,-0.04153884,158.95564,2.5745268,47.09108,SIT
3158979895000,2.569905,7.33336983147073,0.524260227182294,5.87851663813422,-0.05681047,0.02565634,-0.034513887,158.99529,2.571786,47.11707,SIT
3158984917000,2.574927,7.34368480421723,0.554202231155759,5.9076372147603,-0.05131268,0.044593163,-0.030543262,159.05775,2.5589135,47.142212,SIT
3158989885000,2.579895,7.35314920493336,0.587327653427491,5.94076261726676,-0.051618114,0.041233405,-0.014660766,159.11115,2.5537446,47.167458,SIT
3158994925000,2.584935,7.37475642615703,0.572196030939443,5.947197,-0.05681047,0.038179077,0.0021380284,159.16382,2.5478432,47.187504,SIT
3158999943000,2.589953,7.39909997699286,0.545639409230025,5.947197,-0.06719518,0.04795292,0.013133603,159.21162,2.545497,47.204567,SIT
3159004907000,2.594917,7.42318156056182,0.519368570217361,5.947197,-0.06719518,0.0711658,0.008552114,159.2574,2.535517,47.218143,SIT
3159010089000,2.600099,7.44832071568962,0.491944015873359,5.947197,-0.04886922,0.07941248,0.009773844,159.29533,2.5277715,47.232788,SIT
3159015637000,2.605647,7.4573663822966,0.466976263700978,5.98278918146991,-0.043066,0.10629055,0.008246681,159.33678,2.5211725,47.235653,SIT
3159019922000,2.609932,7.45322921242061,0.450427562597036,6.03243517678193,-0.04520403,0.10720685,0.006414085,159.37657,2.5130868,47.24364,SIT
3159024924000,2.614934,7.44468362411392,0.433246723864463,6.0864064669473,-0.032070424,0.11636983,0.011911872,159.41298,2.5097694,47.249054,SIT
3159029936000,2.619946,7.43221118840038,0.418279790589336,6.13629634003742,-0.034513887,0.122478485,0.010079277,159.45247,2.5081515,47.25539,SIT
3159034914000,2.624924,7.41982336218688,0.40341438878495,6.18584777424384,-0.01985312,0.12644911,0.013744468,159.48058,2.5050795,47.251186,SIT
3159039911000,2.629921,7.40738825419395,0.388492248805737,6.23558833606174,-0.02565634,0.13439035,0.020158553,159.50793,2.506766,47.244476,SIT
3159044930000,2.63494,7.38806411655246,0.365303273678216,6.28030840835827,-0.02687807,0.12003502,0.019242255,159.52156,2.5077791,47.2469,SIT
3159049923000,2.639933,7.36498865935721,0.337612715405849,6.32184413492906,-0.031154128,0.122478485,0.017715093,159.53323,2.511676,47.242386,SIT
3159054903000,2.644913,7.33494615546679,0.310580346136554,6.31228906608453,-0.027488936,0.12156218,0.018020526,159.53214,2.517185,47.22698,SIT
3159059986000,2.649996,7.29877049404552,0.283448581183465,6.26254762606595,-0.025961773,0.115453534,0.02565634,159.52853,2.5249352,47.21274,SIT
3159064993000,2.655003,7.27492705290598,0.264704442110659,6.24897523362802,-0.03726278,0.11453723,0.027794369,159.519,2.5367374,47.189083,SIT
3159069930000,2.65994,7.26698047270833,0.256757837019732,6.2823509069683,-0.03848451,0.14752395,0.02321288,159.51012,2.5460718,47.158077,SIT
3159074952000,2.664962,7.25889707676897,0.248674415758513,6.31630120705234,-0.023823744,0.16829337,0.025045475,159.50102,2.562243,47.129753,SIT
3159079926000,2.669936,7.25089094148375,0.240668255393459,6.34992701203402,-0.014966198,0.1740966,0.016493361,159.49893,2.575978,47.097588,SIT
3159085401000,2.675411,7.24207839812095,0.231855684424687,6.38693973464654,-0.00061086525,0.16371189,0.01985312,159.49062,2.5882094,47.06521,SIT
3159089906000,2.679916,7.23482716381055,0.22460442739924,6.41739495206562,-0.005497787,0.16401732,0.024740042,159.4857,2.6005597,47.029324,SIT
3159094924000,2.684934,7.22825129321966,0.223623562507419,6.44009002524521,0.0015271631,0.15851954,0.022602014,159.48187,2.6066787,46.99906,SIT
3159099917000,2.689927,7.22344097558976,0.230839043975152,6.44971068561944,-0.0070249503,0.17134771,0.024129177,159.47507,2.6181874,46.964222,SIT
3159104907000,2.694917,7.21863354819677,0.238050190084503,6.45932556550475,0.0015271631,0.16523905,0.029321533,159.4484,2.6348982,46.917088,SIT
3159109955000,2.699965,7.2137702428902,0.245345153122579,6.46905220150898,0.0009162979,0.1591304,0.030543262,159.4236,2.6537542,46.86773,SIT
3159114981000,2.704991,7.20665039300117,0.227913186351801,6.4715786587314,0.0009162979,0.15027285,0.036651913,159.41057205903,2.66272945228391,46.8435813843992,SIT
3159119916000,2.709926,7.19739789598669,0.186277143012921,6.46695243437745,0.010995574,0.14905111,0.03604105,159.39778,2.6715422,46.81987,SIT
3159124941000,2.714951,7.19641571637842,0.174448418489283,6.46751979004681,0.015271631,0.14080444,0.03848451,159.37312,2.6894133,46.77458,SIT
3159129907000,2.719917,7.20578916066519,0.200225342563193,6.47454987937916,0.025961773,0.14172074,0.028099801,159.35568,2.7014065,46.723263,SIT
3159134902000,2.724912,7.21521734314856,0.226152796399113,6.48162102239468,0.027794369,0.12950343,0.03726278,159.32318,2.7249737,46.67856,SIT
3159139918000,2.729928,7.22468516363636,0.252189254545455,6.48872189393939,0.03970624,0.12034045,0.029626964,159.30263,2.7380116,46.63455,SIT
3159144886000,2.734896,7.22934696336484,0.267579429893195,6.5056407268431,0.05681047,0.106595986,0.03604105,159.25862,2.7544754,46.601875,SIT
3159149878000,2.739888,7.22633452570888,0.266073206346881,6.53877760396975,0.0711658,0.099265605,0.038789943,159.22011,2.7660923,46.57093,SIT
3159155174000,2.745184,7.22313863832388,0.264475257648708,6.57393243194707,0.07086037,0.08368854,0.047647487,159.18213,2.772399,46.54614,SIT
3159159928000,2.749938,7.22026982249527,0.263040845241021,6.60548946597354,0.076052725,0.07513642,0.043676864,159.14891,2.7724442,46.522053,SIT
3159165063000,2.755073,7.2171710910523,0.261491474666037,6.63957557655955,0.07727446,0.07849618,0.034513887,159.1148,2.7737916,46.499207,SIT
3159169909000,2.759919,7.21424675754253,0.260029303330813,6.67174330623819,0.06780604,0.063224554,0.028405234,159.08092,2.7758112,46.48434,SIT
3159175148000,2.765158,7.20864745519374,0.259341840001933,6.70453306478887,0.058948494,0.048563786,0.029626964,159.05226,2.7791748,46.46495,SIT
3159179897000,2.769907,7.17788486583245,0.268131151903566,6.71332231703546,0.030543262,0.033292156,0.033292156,159.0251,2.7873015,46.450466,SIT
3159185262000,2.775272,7.14312005778993,0.279073612690355,6.72375988227255,0.019547688,0.026267206,0.022296581,158.99844,2.789477,46.421604,SIT
3159189893000,2.779903,7.11281422237407,0.313708673629442,6.74540677840687,-0.004886922,0.027183503,0.0125227375,158.97018,2.8004758,46.395267,SIT
3159194913000,2.784923,7.07996272295978,0.351253049771574,6.76887199511909,-0.0143553335,0.008552114,0.00580322,158.94319,2.8068266,46.371445,SIT
3159199962000,2.789972,7.0383177626524,0.36602453120428,6.77469672373476,-0.030848695,0.002443461,0.007330383,158.9177,2.8186433,46.34446,SIT
3159204909000,2.794919,6.99676313621612,0.378490919135164,6.77885218637839,-0.0421497,-0.009773844,0.005192355,158.89622,2.8287494,46.32528,SIT
3159209869000,2.799879,6.96100153133583,0.386487351186017,6.75988879567586,-0.043066,-0.01282817,0.014660766,158.88309,2.8310273,46.295845,SIT
3159214812000,2.804822,6.92876588951311,0.391859978726592,6.72765309775281,-0.04153884,-0.03481932,0.0076358155,158.87674,2.8310406,46.27636,SIT
3159219836000,2.809846,6.90780054532729,0.416995169639196,6.69857243154574,-0.02443461,-0.038789943,0.014660766,158.85486,2.8339865,46.244686,SIT
3159224847000,2.814857,6.88887725271096,0.445380059165024,6.67018756671924,-0.022907447,-0.045814894,0.015577064,158.83784,2.8367774,46.221012,SIT
3159229840000,2.81985,6.89562020120284,0.448130683559322,6.62785203209404,-0.021685716,-0.04886922,0.03023783,158.81277,2.8400795,46.19749,SIT
3159234807000,2.824817,6.90744185377007,0.445766345639445,6.58292962889806,0.006414085,-0.03848451,0.036957346,158.79105,2.8361661,46.172672,SIT
3159239836000,2.829846,6.91941106874099,0.443372495146379,6.53744648702719,0.011301007,-0.02687807,0.052534413,158.77617,2.8317075,46.148407,SIT
3159244823000,2.834833,6.9312803220836,0.440998637041602,6.49234320038769,0.015882496,-0.018325957,0.058948494,158.76237,2.8214624,46.122475,SIT
3159249839000,2.839849,6.93723134170336,0.436909833964209,6.49074456990537,0.018936822,-0.014049901,0.059253927,158.7391,2.8141227,46.09611,SIT
3159254926000,2.844936,6.94179596261595,0.432345308376277,6.49987366874356,0.017715093,0.0009162979,0.06414085,158.71208,2.809022,46.064423,SIT
3159259989000,2.849999,6.98092310324093,0.400079589961272,6.50608244317163,0.0061086523,0.009773844,0.070249505,158.6915,2.8081095,46.04918,SIT
3159265073000,2.855083,7.03550646508357,0.355420359851203,6.51104457639625,0.008552114,0.0033597588,0.076052725,158.66927,2.8055823,46.03414,SIT
3159270718000,2.860728,7.06530612142292,0.336376823083004,6.50384032687747,0.011301007,-0.004886922,0.071776666,158.66191,2.79629,46.017883,SIT
3159274988000,2.864998,7.08146942162055,0.328295215177866,6.49575876116601,-0.0036651916,0.00030543262,0.069027774,158.65175,2.7916713,45.99971,SIT
3159279924000,2.869934,7.13089558833115,0.288331154010663,6.47274024514636,0.002443461,-0.0012217305,0.06963864,158.64095,2.788018,45.99298,SIT
3159284922000,2.874932,7.19348934173624,0.235367291198069,6.4438507895584,-0.0015271631,-0.004886922,0.06688975,158.63287,2.7880337,45.98564,SIT
3159289906000,2.879916,7.2272359425919,0.210726377880202,6.42925392288673,-0.0027488936,-0.012217305,0.06291912,158.63068,2.7908804,45.978962,SIT
3159294931000,2.884941,7.24968570910618,0.197256480464639,6.42027404441127,-0.013744468,-0.01282817,0.062308256,158.62837,2.7964456,45.97162,SIT
3159299917000,2.889927,7.28361355383547,0.169852651643346,6.41103966225067,-0.007941248,-0.0015271631,0.05222898,158.6394,2.801724,45.97505,SIT
3159304929000,2.894939,7.3264825919222,0.131746903563561,6.40151328118488,-0.002443461,0.0021380284,0.049480084,158.6475,2.8103478,45.98072,SIT
3159309936000,2.899946,7.36711019390881,0.0835783052768066,6.38525186429987,-0.00580322,0.0070249503,0.04917465,158.65854,2.8187354,45.989483,SIT
3159314964000,2.904974,7.40615942331952,0.0271736924964859,6.36355779762119,-0.01282817,0.0076358155,0.03970624,158.67438,2.8241727,45.998596,SIT
3159319916000,2.909926,7.44736275247447,-0.00563662431225452,6.36833584701492,-0.013439035,0.013133603,0.03573562,158.6897,2.8365624,46.010597,SIT
3159324945000,2.914955,7.49465441368814,0.00618627469530636,6.42508567257463,-0.013439035,0.022907447,0.03145956,158.70909,2.8479073,46.021347,SIT
3159329898000,2.919908,7.54123138684211,0.0178305019342105,6.480977875,-0.0125227375,0.049480084,0.023823744,158.731,2.8658328,46.035824,SIT
3159334921000,2.924931,7.58846662531422,0.0296392952758248,6.53765999347015,-0.02321288,0.058337633,0.02076942,158.75252,2.8856442,46.052433,SIT
3159340590000,2.9306,7.61232226951927,0.0392905065021757,6.60581457376709,-0.04520403,0.057726767,0.011911872,158.77858,2.9030013,46.0663,SIT
3159344932000,2.934942,7.58862719457107,0.0414445930806051,6.66397497099047,-0.059864793,0.03940081,0.01038471,158.8024,2.921497,46.082703,SIT
3159349868000,2.939878,7.56169055478657,0.0438933658468711,6.7300919034397,-0.06658431,0.010995574,0.00061086525,158.83846,2.9345977,46.097046,SIT
3159354904000,2.944914,7.53420819701616,0.04639174908247,6.79754831993369,-0.081855945,-0.035430185,0.00030543262,158.86974,2.9535425,46.121765,SIT
3159359914000,2.949924,7.45774174069856,0.0497037709536826,6.85967686820425,-0.08552113,-0.0870483,0.00061086525,158.90337,2.9692771,46.15622,SIT
3159364952000,2.954962,7.3066237365224,0.0542831140349279,6.91462898709188,-0.10170906,-0.12614368,-0.0030543262,158.93747,2.9892275,46.20006,SIT
3159369872000,2.959882,7.174839525227,0.056114869353336,6.89488496837742,-0.101098195,-0.14263703,-0.0067195175,158.96007,3.0021658,46.22732,SIT
3159374963000,2.964973,7.07859862208843,0.0513028352506909,6.68796752407225,-0.098043874,-0.18295415,-0.010995574,158.98248,3.0165534,46.27213,SIT
3159379855000,2.969865,7.00658906732791,0.0490951439024003,6.48040339223368,-0.07360926,-0.17592919,-0.013439035,158.98688,3.0230901,46.282166,SIT
3159384920000,2.97493,6.9921554751835,0.0539063453029161,6.23984327196985,-0.054061573,-0.15424347,-0.01160644,158.99074,3.0297444,46.299076,SIT
3159389878000,2.979888,6.98952409396,0.0528710689076756,6.04031711409006,-0.017104227,-0.11728613,-0.015271631,159.00435,3.030222,46.324768,SIT
3159394900000,2.98491,7.02269611358755,0.0339156162550005,5.9502788245837,0.00061086525,-0.064751714,0.0021380284,159.00972,3.0353436,46.338676,SIT
3159399887000,2.989897,7.05894152264323,0.0212359912444175,5.8905712791553,0.023518313,-0.029932396,-0.016493361,159.0454,3.0285091,46.377663,SIT
3159404905000,2.994915,7.1074982399515,0.0309473007355764,5.93912779365464,0.03023783,-0.008857546,-0.013744468,159.06607,3.0295217,46.404106,SIT
3159410626000,3.000636,7.15105977078962,0.0467594242477453,6.00635532442481,0.04062254,-0.011911872,-0.017104227,159.10248,3.025102,46.44445,SIT
3159414932000,3.004942,7.16624026350083,0.0657350036788147,6.07466744255476,0.02321288,-0.014966198,-0.011911872,159.13437,3.027452,46.478004,SIT
3159419950000,3.00996,7.18374241898947,0.08922357968,6.15172136488421,0.014049901,-0.02687807,-0.02107485,159.18018,3.0207334,46.511543,SIT
3159424984000,3.014994,7.19896650673684,0.1298211788,6.19739373410526,0.01160644,-0.03176499,-0.02687807,159.2219,3.018155,46.543335,SIT
3159429916000,3.019926,7.21510904991109,0.168843097194197,6.24204810770239,-0.0015271631,-0.039095376,-0.020158553,159.25931,3.016035,46.569023,SIT
3159434923000,3.024933,7.23754748578381,0.204744697682733,6.28692502630791,0.0036651916,-0.036651913,-0.020158553,159.30125,3.0085723,46.593243,SIT
3159440145000,3.030155,7.26200952060377,0.241512621909434,6.33619788492453,-0.0036651916,-0.020158553,-0.01282817,159.32845,3.0100737,46.609825,SIT
3159444913000,3.034923,7.2964715450566,0.267359158241509,6.40942973186792,0.0076358155,-0.0027488936,-0.004886922,159.35498,3.007232,46.62514,SIT
3159449882000,3.039892,7.332386352,0.2942952822,6.4857487435,0.020463986,-0.009773844,-0.004581489,159.38297,3.0003674,46.638474,SIT
3159454901000,3.044911,7.34818198228615,0.317460999072672,6.5383508920704,0.01985312,-0.01740966,-0.009468411,159.40979,2.9947376,46.646965,SIT
3159459888000,3.049898,7.36173975147615,0.340057290493944,6.58806266524413,0.019547688,-0.02443461,-0.004276057,159.43152,2.9890065,46.656986,SIT
3159464932000,3.054942,7.34557109307715,0.367557024173517,6.63260781112212,0.027794369,-0.03970624,-0.016798794,159.45761,2.971524,46.668167,SIT
3159469882000,3.059892,7.32209621935228,0.395726892253145,6.67486277992473,0.038179077,-0.050701816,-0.006414085,159.47142,2.9599926,46.67932,SIT
3159474956000,3.064966,7.28666068691579,0.409730816107623,6.66960140427504,0.044898596,-0.06505715,-0.00580322,159.49312,2.9397686,46.690243,SIT
3159480102000,3.070112,7.24737242559043,0.419552891695067,6.64995722233184,0.049785517,-0.070249505,-0.0036651916,159.5092,2.921011,46.701103,SIT
3159484915000,3.074925,7.18746166434948,0.435407294765432,6.60772752136752,0.055283304,-0.08093964,-0.004886922,159.52373,2.8963902,46.70789,SIT
3159489925000,3.079935,7.11911422617284,0.453633241802469,6.55760611111111,0.05589417,-0.07727446,-0.007330383,159.53752,2.8727462,46.711735,SIT
3159494896000,3.084906,7.05741455113392,0.475936337087737,6.52145940769625,0.048563786,-0.06658431,-0.0076358155,159.5498,2.8494112,46.713795,SIT
3159499908000,3.089918,6.99830864459723,0.50056380328784,6.49190635156491,0.04734206,-0.065973446,-0.004276057,159.56073,2.8258398,46.71737,SIT
3159504913000,3.094923,6.95527008360907,0.520681735843932,6.45399837400784,0.03573562,-0.05467244,-0.00061086525,159.572,2.804499,46.71234,SIT
3159510068000,3.100078,6.91750143901693,0.539566112366836,6.41150869197667,0.041233405,-0.040927973,0.0125227375,159.5774,2.7834551,46.706043,SIT
3159514940000,3.10495,6.90193210239305,0.55176925672983,6.3707963139578,0.028710667,-0.022907447,0.01038471,159.57356,2.7648013,46.697144,SIT
3159519926000,3.109936,6.89726816156476,0.56109723578824,6.32882035949404,0.020463986,-0.018936822,0.015882496,159.5609,2.7490735,46.68777,SIT
3159524933000,3.114943,6.90223399775639,0.559485201794884,6.30972911492746,0.012217305,-0.014049901,0.02107485,159.55235,2.7331367,46.673977,SIT
3159529907000,3.119917,6.91410890507055,0.549985275943561,6.30735415826395,0.010079277,-0.006414085,0.008246681,159.54901,2.7154012,46.658554,SIT
3159534952000,3.124962,6.92615331749514,0.540349746003889,6.30494530093234,-0.0009162979,-0.00030543262,0.0030543262,159.54694,2.7021275,46.64682,SIT
3159539900000,3.12991,6.93796615251533,0.530899477987735,6.302582758598,-0.006414085,-0.002443461,0.002443461,159.54791,2.686907,46.635517,SIT
3159544901000,3.134911,6.97554831942777,0.529421347979192,6.28266036414566,-0.009773844,0.004581489,0.005497787,159.54955,2.6735027,46.62004,SIT
3159549929000,3.139939,7.03335392158864,0.53423848987595,6.24894037086835,-0.015271631,0.017715093,0.004886922,159.55267,2.661067,46.603672,SIT
3159554906000,3.144916,7.08742493032423,0.528305258436977,6.24782791360993,-0.028710667,0.022907447,0.008552114,159.54045,2.6568105,46.59603,SIT
3159559933000,3.149943,7.1396148212378,0.514071689656056,6.27155042916133,-0.033292156,0.030543262,0.005497787,159.53171,2.6505022,46.584145,SIT
3159564920000,3.15493,7.18212643340909,0.5101173035,6.29002497454545,-0.044898596,0.025350908,0.005192355,159.5273,2.649649,46.586502,SIT
3159569921000,3.159931,7.21683187442688,0.51484988026087,6.30422267517786,-0.04642576,0.025961773,0.008246681,159.52312,2.647847,46.58498,SIT
3159574898000,3.164908,7.25137076263834,0.519559745195652,6.31835224047431,-0.04886922,0.025045475,0.01160644,159.50874,2.652466,46.592243,SIT
3159579935000,3.169945,7.28632603286561,0.524326389695652,6.33265214411067,-0.057421334,0.002443461,-0.0009162979,159.4995,2.6557631,46.605526,SIT
3159584950000,3.17496,7.32112862968709,0.529072215021739,6.34688959035573,-0.053145275,-0.010079277,0.0061086523,159.4814,2.6616127,46.615505,SIT
3159589909000,3.179919,7.35554260329381,0.533765046086957,6.3609680541502,-0.05497787,-0.025350908,0.013133603,159.46815,2.6676137,46.632595,SIT
3159594899000,3.184909,7.37194570913962,0.545082546829414,6.35540447975588,-0.051618114,-0.034208454,0.0143553335,159.44301,2.6728375,46.65548,SIT
3159599916000,3.189926,7.36717784150045,0.56415441567927,6.3267966764811,-0.03756821,-0.026572637,0.018325957,159.41461,2.6781318,46.677044,SIT
3159604927000,3.194937,7.36054343088208,0.562545354089137,6.29905268767874,-0.03390302,-0.025961773,0.015882496,159.39922,2.679505,46.7097,SIT
3159609982000,3.199992,7.35155360386258,0.535575563253482,6.27208297194058,-0.029932396,-0.021380283,0.024740042,159.37825,2.6812522,46.737812,SIT
3159614901000,3.204911,7.33752774796956,0.513564248928845,6.24577174796956,-0.035124753,-0.0125227375,0.022296581,159.35811,2.6803474,46.770123,SIT
3159619960000,3.20997,7.31030496843234,0.50119027655412,6.21854896843234,-0.040011674,0.003970624,0.019547688,159.33536,2.6804066,46.797703,SIT
3159624890000,3.2149,7.28377634555856,0.489131829468254,6.19202034555856,-0.03359759,0.0067195175,0.021991149,159.30937,2.6844575,46.828842,SIT
3159629946000,3.219956,7.25656970919957,0.476765194890943,6.16481370919957,-0.03359759,0.019242255,0.02321288,159.28644,2.689747,46.851715,SIT
3159634868000,3.224878,7.23674608386283,0.46096368285741,6.16158976854793,-0.049480084,0.016798794,0.0290161,159.27274,2.6961346,46.873497,SIT
3159639949000,3.229959,7.22765255615773,0.438229735406466,6.19796416423099,-0.04337143,0.02076942,0.029932396,159.26144,2.6974015,46.88942,SIT
3159644953000,3.234963,7.21989620663467,0.41426544219784,6.22898977346134,-0.05009095,0.022602014,0.035430185,159.2431,2.7101753,46.9068,SIT
3159649960000,3.23997,7.21578588282188,0.385493158340477,6.2454310687125,-0.04184427,0.03023783,0.03848451,159.22626,2.7182462,46.920956,SIT
3159655767000,3.245777,7.21236674274823,0.353998177169952,6.26426283915954,-0.040317107,0.036957346,0.036957346,159.20302,2.7318647,46.928104,SIT
3159660000000,3.25001,7.22367348874117,0.350229240849758,6.27556954579769,-0.04734206,0.03390302,0.034513887,159.17957,2.745557,46.93558,SIT
3159665780000,3.25579,7.23911241901264,0.345082902099293,6.29100842233172,-0.043676864,0.03726278,0.032986723,159.1512,2.7611732,46.93621,SIT
3159669921000,3.259931,7.24402355902588,0.332892602599105,6.31570694091952,-0.045814894,0.046731193,0.03176499,159.12474,2.7782562,46.93591,SIT
3159674922000,3.264932,7.24925393764333,0.317201783507699,6.34708866648466,-0.05009095,0.057726767,0.03390302,159.0985,2.794881,46.93408,SIT
3159679934000,3.269944,7.26636559666949,0.290950572206228,6.35360362734029,-0.04428773,0.05467244,0.042760566,159.0799,2.8106737,46.92925,SIT
3159684858000,3.274868,7.2841117315834,0.264331207694045,6.35804013790573,-0.043676864,0.06811147,0.040927973,159.06624,2.8259728,46.91703,SIT
3159689910000,3.27992,7.29160812406591,0.221993274181836,6.38460603370377,-0.040317107,0.070249505,0.037873644,159.05644,2.8407295,46.90243,SIT
3159694895000,3.284905,7.29618192603947,0.176256185730983,6.41662197890401,-0.042455133,0.07391469,0.038179077,159.0468,2.8562264,46.88409,SIT
3159700156000,3.290166,7.30800867179389,0.15581783421842,6.43651911772736,-0.028710667,0.05589417,0.037873644,159.0359,2.8711312,46.873997,SIT
3159704909000,3.294919,7.32113630974813,0.14706594459527,6.44964693845414,-0.026267206,0.067500606,0.035124753,159.02733,2.887593,46.854984,SIT
3159709950000,3.29996,7.32294924837975,0.150267748308226,6.45807552070012,-0.031154128,0.06383542,0.03634648,159.00919,2.909535,46.842125,SIT
3159714982000,3.304992,7.31772659191503,0.160713290287201,6.46329828623605,-0.025350908,0.06963864,0.036957346,158.99371,2.9274752,46.823887,SIT
3159719919000,3.309929,7.30922215335976,0.147889059279485,6.46807366225966,-0.025961773,0.061391957,0.032070424,158.97818,2.9465363,46.812263,SIT
3159724998000,3.315008,7.29958091266601,0.128606361443013,6.47289433294351,-0.018936822,0.0571159,0.027794369,158.96304,2.9625397,46.798306,SIT
3159729935000,3.319945,7.28722886304045,0.110767725550907,6.48078671269177,-0.022602014,0.06078109,0.022602014,158.95738,2.9695714,46.787483,SIT
3159735493000,3.325503,7.27238138049279,0.0909712044593212,6.49068501716411,-0.014966198,0.058643065,0.028405234,158.94873,2.97423,46.77961,SIT
3159739901000,3.329911,7.26031993672055,0.0777147908198614,6.49590045825635,-0.021991149,0.057726767,0.025961773,158.94276,2.9820933,46.769203,SIT
3159744934000,3.334944,7.24640537713626,0.0638002215492687,6.50053859635296,-0.014660766,0.06169739,0.027183503,158.93317,2.987372,46.75807,SIT
3159749931000,3.339941,7.22940391785898,0.0601263772352033,6.48932402774061,-0.01160644,0.059864793,0.026267206,158.92805,2.9941478,46.744987,SIT
3159754907000,3.344917,7.20978316314977,0.0650315966443644,6.46479795630468,-0.01160644,0.0580322,0.02076942,158.92459,2.9991238,46.731262,SIT
3159759976000,3.349986,7.19344854743064,0.0725779353217657,6.46584829378396,-0.013133603,0.0720821,0.022602014,158.91661,3.006303,46.71156,SIT
3159765055000,3.355065,7.17953661974449,0.0818525263399752,6.48439751455811,-0.00061086525,0.058643065,0.018936822,158.91238,3.0082035,46.700897,SIT
3159769919000,3.359929,7.16691949359029,0.0841549303420221,6.50529294903,-0.0143553335,0.05497787,0.014049901,158.92104,3.0121286,46.681854,SIT
3159774934000,3.364944,7.15460572062217,0.0800503510676011,6.52992036638749,-0.013439035,0.061086524,0.015577064,158.9281,3.011304,46.66429,SIT
3159779872000,3.369882,7.14464999066256,0.0783743718821893,6.55123966662362,-0.013133603,0.055588737,0.013133603,158.93683,3.0096588,46.647137,SIT
3159784923000,3.374933,7.14705256476607,0.0903870005618357,6.55604471448297,-0.021380283,0.05222898,0.005192355,158.94713,3.0086825,46.62832,SIT
3159789941000,3.379951,7.14943944198868,0.102321146417006,6.56081836923612,-0.015271631,0.043066,0.0067195175,158.9482,3.0061104,46.608616,SIT
3159794932000,3.384942,7.15181347630873,0.114191079052151,6.56556633872057,-0.009773844,0.036957346,0.011301007,158.95099,3.0042696,46.5897,SIT
3159799893000,3.389903,7.15156972338036,0.126227444154909,6.57257088825223,-0.0030543262,0.03145956,0.019242255,158.9512,3.002051,46.5736,SIT
3159805300000,3.39531,7.13168992962856,0.141137260926193,6.59742056557251,-0.011911872,0.02321288,0.014049901,158.9545,3.0000768,46.560623,SIT
3159809988000,3.399998,7.11584554090387,0.152673227902145,6.61840683141517,-0.014049901,0.016187929,0.004581489,158.95497,3.0013707,46.542404,SIT
3159814925000,3.404935,7.12037260540023,0.143619094182306,6.63198816671773,-0.007941248,0.0015271631,0.0076358155,158.95184,3.0041487,46.52907,SIT
3159820275000,3.410285,7.12553808558761,0.1342720929308,6.6452544370631,-0.009773844,-0.016493361,0.0061086523,158.95277,3.0033402,46.513554,SIT
3159824923000,3.414933,7.13806812539057,0.140537117193526,6.61184095397607,-0.0015271631,-0.022602014,-0.0027488936,158.95525,2.9984634,46.49932,SIT
3159829874000,3.419884,7.15141499007741,0.147210554182501,6.57624926835562,-0.009773844,-0.019547688,0.0018325958,158.94456,3.0010595,46.48909,SIT
3159834915000,3.424925,7.16500447601689,0.154005301882243,6.54001059188365,-0.026267206,-0.03848451,-0.015271631,158.94568,2.9973733,46.487667,SIT
3159839899000,3.429909,7.1784403018297,0.160723219465165,6.50418167628431,-0.02076942,-0.042760566,-0.01038471,158.93642,2.9964898,46.480743,SIT
3159844932000,3.434942,7.17777234671329,0.167638691790692,6.48824201306969,-0.015577064,-0.041233405,-0.016493361,158.92444,2.9977615,46.480797,SIT
3159849905000,3.439915,7.17088178573426,0.174529279151676,6.48135140412346,-0.008552114,-0.04428773,-0.014966198,158.90741,3.0000405,46.482956,SIT
3159854907000,3.444917,7.16395104251748,0.181460048904268,6.47442061265975,-0.018325957,-0.04184427,-0.015577064,158.90242,3.0027835,46.496964,SIT
3159859982000,3.449992,7.15691915090909,0.188491967435737,6.46738867210031,-0.03023783,-0.049480084,-0.014660766,158.89595,3.005234,46.51418,SIT
3159865053000,3.455063,7.15919562236613,0.188875804927508,6.45636349700367,-0.026267206,-0.046731193,-0.019547688,158.89279,3.0051281,46.527466,SIT
3159869923000,3.459933,7.16821142992461,0.184367877612604,6.44283966798763,-0.017104227,-0.03481932,-0.020158553,158.88782,3.0073335,46.539764,SIT
3159874910000,3.46492,7.18002770760981,0.186625454601634,6.42394869458631,-0.019547688,-0.036957346,-0.015882496,158.88773,3.0123065,46.550472,SIT
3159879936000,3.469946,7.19477740045965,0.196458554076609,6.3993659587334,-0.02321288,-0.035430185,-0.010995574,158.88812,3.015705,46.55659,SIT
3159884898000,3.474908,7.20437663133333,0.208965921466667,6.39034771333333,-0.022296581,-0.029932396,-0.013744468,158.89113,3.0189035,46.56535,SIT
3159889933000,3.479943,7.20947913762963,0.22427361085291,6.3954503794709,-0.0030543262,-0.03756821,-0.017104227,158.89214,3.019974,46.57714,SIT
3159894994000,3.485004,7.20830282786387,0.220744642249902,6.4155043911632,-0.005497787,-0.027794369,-0.015271631,158.88425,3.0308976,46.58761,SIT
3159899924000,3.489934,7.20367227362691,0.206852824811691,6.44328795834641,-0.00580322,-0.025961773,-0.0030543262,158.87328,3.0389395,46.60197,SIT
3159904920000,3.49493,7.20997043221289,0.214798716564281,6.44655623920603,0.0067195175,-0.035124753,-0.009468411,158.87624,3.0322258,46.620197,SIT
3159909950000,3.49996,7.22392903445378,0.238063149182846,6.43259758838018,-0.0030543262,-0.028405234,-0.014660766,158.87437,3.0327902,46.63264,SIT
3159914918000,3.504928,7.23422905012247,0.250243557713072,6.41980436143464,-0.004276057,-0.021685716,-0.0076358155,158.85474,3.0385606,46.64239,SIT
3159919923000,3.509933,7.24141701070732,0.252639552914271,6.40782438542864,-0.0076358155,-0.008552114,0.0009162979,158.8375,3.045744,46.648132,SIT
3159924898000,3.514908,7.24856188661335,0.255021186505874,6.39591621747063,-0.0018325958,0.0009162979,0.0030543262,158.82506,3.04845,46.656166,SIT
3159929935000,3.519945,7.25579580418895,0.257432500757311,6.38385964621345,-0.0009162979,0.009773844,0.0061086523,158.80952,3.0545607,46.66016,SIT
3159934919000,3.524929,7.25195106054296,0.256150915081249,6.3733075901625,0.011911872,0.012217305,0.003970624,158.78613,3.058793,46.66559,SIT
3159939909000,3.529919,7.23800105596964,0.251500897371801,6.3640075547436,0.0015271631,0.0125227375,0.0061086523,158.76054,3.068654,46.6687,SIT
3159944865000,3.534875,7.2295278913105,0.25188119908017,6.36284534479692,0.014660766,0.012217305,0.00061086525,158.74298,3.068842,46.67635,SIT
3159949925000,3.539935,7.22738389485001,0.25831319517786,6.37142135302628,0.0021380284,0.009162978,-0.0009162979,158.72333,3.0771627,46.684254,SIT
3159954968000,3.544978,7.22524710153969,0.264723581802495,6.37996854857977,0.0015271631,0.0030543262,0.003970624,158.70029,3.083242,46.691833,SIT
3159959968000,3.549978,7.22312852796213,0.271079309171755,6.38844286501195,-0.0021380284,0.004886922,0.005497787,158.68002,3.0911143,46.69785,SIT
3159965467000,3.555477,7.22138740934648,0.278202312321873,6.3975444534335,0.01038471,-0.005497787,0.008246681,158.65535,3.096016,46.71031,SIT
3159969922000,3.559932,7.22925254369066,0.286067495942483,6.40147700007374,0.01160644,-0.0076358155,0.009773844,158.63156,3.1036382,46.71953,SIT
3159974960000,3.56497,7.23814694252927,0.294961950506037,6.40592417627431,-0.00061086525,-0.010995574,0.010079277,158.60725,3.1093724,46.728107,SIT
3159979926000,3.569936,7.23635453838545,0.304304020739335,6.40317223838545,0.015271631,-0.010995574,0.0076358155,158.58414,3.1089509,46.735962,SIT
3159984856000,3.574866,7.23163747064642,0.313738254728744,6.39845517064642,0.009773844,-0.012217305,0.005497787,158.56128,3.1150239,46.74472,SIT
3159990530000,3.58054,7.22617530451067,0.32034862449859,6.40162095044301,0.0106901415,-0.010079277,0.0033597588,158.54124,3.1150124,46.752544,SIT
3159994866000,3.584876,7.22199437370117,0.324529564039468,6.40580183759565,0.00030543262,-0.00030543262,0.005192355,158.52115,3.1186008,46.758087,SIT
3159999920000,3.58993,7.21358072866044,0.323778493337227,6.39955192866044,0.00030543262,0.0027488936,-0.0018325958,158.52829,3.1045978,46.765053,SIT
3160004906000,3.594916,7.20428362492212,0.321454212548676,6.39025482492212,-0.0067195175,0.0070249503,-0.004886922,158.53317,3.095553,46.76852,SIT
3160009995000,3.600005,7.19479446308411,0.31908191713493,6.38076566308411,-0.009162978,0.0061086523,-0.005192355,158.53937,3.084292,46.77119,SIT
3160014964000,3.604974,7.18552905825545,0.316765561090343,6.37150025825545,-0.0036651916,0.009468411,0.0021380284,158.54361,3.0741692,46.77121,SIT
3160019917000,3.609927,7.1916790454749,0.328132959932823,6.35950272294271,0.00061086525,0.0067195175,0.00030543262,158.55124,3.0631232,46.773354,SIT
3160025089000,3.615099,7.20554297799963,0.346618222601232,6.34563874216272,-0.0018325958,0.008246681,0.012217305,158.55008,3.0570226,46.772743,SIT
3160029925000,3.619935,7.20878363061367,0.359446052070133,6.32708551982467,0.009468411,0.0106901415,0.010995574,158.55553,3.0492904,46.76921,SIT
3160034923000,3.624933,7.20401531555091,0.368982781777246,6.30324369555688,0.002443461,0.018020526,0.008857546,158.55652,3.0479927,46.763664,SIT
3160039896000,3.629906,7.20672098748386,0.366052434733287,6.30684809198371,0.00061086525,0.0070249503,0.005497787,158.56203,3.0405846,46.766464,SIT
3160044934000,3.634944,7.21630629919539,0.351674382089997,6.33560427734181,0.00030543262,0.0070249503,0.018020526,158.56216,3.0373228,46.763752,SIT
3160049919000,3.639929,7.2173178578295,0.34476504,6.35421581452203,-0.0012217305,0.008857546,0.017104227,158.57117,3.030272,46.76662,SIT
3160054903000,3.644913,7.21033045666813,0.34476504,6.36353226833553,0.009468411,0.0061086523,0.010079277,158.57722,3.0223825,46.770554,SIT
3160060715000,3.650725,7.20218222722393,0.34476504,6.37439647972478,0.006414085,0.015577064,0.008246681,158.59552,3.008735,46.76992,SIT
3160064927000,3.654937,7.19627714421998,0.34476504,6.38226985521885,-0.0018325958,0.015882496,0.004276057,158.61658,2.9926965,46.77277,SIT
3160069917000,3.659927,7.18928474451918,0.346696552393625,6.38869577535702,-0.007941248,0.016798794,0.0061086523,158.63557,2.9782395,46.772625,SIT
3160074925000,3.664935,7.18227195793245,0.351371764605937,6.39103342784033,-0.004581489,0.017715093,0.012217305,158.65375,2.9641392,46.772377,SIT
3160079912000,3.669922,7.17528857799873,0.356027372294195,6.39336127786713,0.005497787,0.019242255,0.011911872,158.67104,2.9489868,46.767315,SIT
3160084922000,3.674932,7.16827299077838,0.360704451604036,6.39569986391773,0.00061086525,0.015577064,0.002443461,158.68889,2.935887,46.763634,SIT
3160089898000,3.679908,7.16120032223585,0.363168200745284,6.40030882134642,-0.007330383,0.0125227375,0.0106901415,158.70477,2.9264529,46.75556,SIT
3160094933000,3.684943,7.15380587537188,0.360703385123959,6.410168032357,-0.004276057,0.004581489,0.006414085,158.72878,2.9116914,46.750626,SIT
3160099858000,3.689868,7.14657297550989,0.358292418503297,6.41981184848949,-0.004581489,0.01038471,0.009773844,158.74553,2.901382,46.739864,SIT
3160104902000,3.694912,7.13916531116393,0.355823197054644,6.42968868271737,-0.00061086525,0.008246681,0.0067195175,158.76553,2.8878243,46.73407,SIT
3160109947000,3.699957,7.12929393406624,0.350723675233907,6.44285038086639,-0.008246681,0.005497787,0.011301007,158.78052,2.879273,46.72678,SIT
3160115001000,3.705011,7.11570804628555,0.341666564878368,6.46096462994948,-0.009773844,0.012217305,0.0061086523,158.8004,2.8664777,46.717873,SIT
3160119851000,3.709861,7.10718009679139,0.332808968153289,6.4751109222591,-0.0106901415,0.005497787,0.009468411,158.82304,2.8566022,46.704994,SIT
3160124920000,3.71493,7.11206315188091,0.323043357634279,6.47999367143432,-0.009468411,0.015577064,0.013744468,158.84727,2.8460994,46.686016,SIT
3160130231000,3.720241,7.11632441781986,0.319818212259954,6.48198457226184,-0.021380283,0.005497787,0.014049901,158.86732,2.8390682,46.670944,SIT
3160134933000,3.724943,7.11845118840504,0.330452074068861,6.47773105329901,-0.021991149,0.011911872,0.015577064,158.88516,2.830993,46.648777,SIT
3160140133000,3.730143,7.12080321031975,0.342212193466207,6.47302703402919,-0.032375857,0.0009162979,0.014660766,158.90166,2.8280027,46.635197,SIT
3160144895000,3.734905,7.12295711961933,0.352981748960469,6.46871923792094,-0.031154128,0.014049901,0.014660766,158.91748,2.823494,46.61341,SIT
3160150182000,3.740192,7.12426499489921,0.363478918928935,6.46566372780493,-0.0290161,0.011301007,0.018936822,158.93063,2.8216264,46.599747,SIT
3160154927000,3.744937,7.11501166518021,0.358852374844227,6.47954340836897,-0.034208454,0.0076358155,0.019242255,158.94527,2.82021,46.583252,SIT
3160159949000,3.749959,7.1074925100703,0.353215288426577,6.49232394888603,-0.02321288,0.014966198,0.014966198,158.93907,2.8227453,46.568733,SIT
3160164884000,3.754894,7.12621198784038,0.339175816924448,6.48296425886721,-0.017104227,0.009162978,0.015577064,158.93042,2.8280866,46.55922,SIT
3160170070000,3.76008,7.1458726338283,0.324036808638017,6.47431495331891,-0.027183503,0.014049901,0.016798794,158.92206,2.8336377,46.541885,SIT
3160174888000,3.764898,7.16402236058609,0.305887110307798,6.47885232578425,-0.040011674,0.013439035,0.0143553335,158.91473,2.8377612,46.52817,SIT
3160180199000,3.770209,7.18225438584723,0.286953285847228,6.48419983196976,-0.032986723,0.00580322,0.016493361,158.90422,2.840232,46.522514,SIT
3160184905000,3.774915,7.17788559747964,0.282584497479643,6.49293745432338,-0.03145956,0.0076358155,0.0143553335,158.89694,2.8447006,46.514656,SIT
3160190253000,3.780263,7.17297650576617,0.277467428613685,6.50259970630909,-0.030848695,0.0076358155,0.01740966,158.88905,2.8495216,46.51205,SIT
3160194896000,3.784906,7.17089539173453,0.267061849763175,6.50051861400824,-0.022907447,0.004276057,0.016187929,158.88393,2.8511298,46.51009,SIT
3160199917000,3.789927,7.16864484821679,0.255809122774502,6.49826809399045,-0.023823744,-0.002443461,0.02107485,158.88216,2.8540068,46.505306,SIT
3160204839000,3.794849,7.16643867908827,0.244778267917252,6.49606194789853,-0.03604105,-0.005192355,0.013439035,158.88606,2.854678,46.50079,SIT
3160209869000,3.799879,7.16418410153515,0.233505370734812,6.49380739388748,-0.032070424,-0.007941248,0.012217305,158.88507,2.8546493,46.498066,SIT
3160214839000,3.804849,7.16994787828386,0.223347178324522,6.48008260951606,-0.028710667,-0.01160644,0.013133603,158.88625,2.855947,46.4966,SIT
3160219837000,3.809847,7.17968046193575,0.213614589591297,6.46061739139894,-0.03023783,-0.01985312,0.01282817,158.88815,2.856896,46.497356,SIT
3160224868000,3.814878,7.18955363545436,0.200267293978207,6.44087110164474,-0.0290161,-0.014966198,0.008857546,158.87492,2.8684118,46.4946,SIT
3160229840000,3.81985,7.19934312932771,0.185583119611431,6.42129221611842,-0.028710667,-0.011911872,0.011301007,158.85939,2.8812468,46.494587,SIT
3160234839000,3.824849,7.19468282405485,0.174883187304603,6.40584625455436,-0.026267206,-0.008552114,-0.0018325958,158.85231,2.8928442,46.496204,SIT
3160239834000,3.829844,7.18531233125367,0.16551273853379,6.39179053981391,-0.022602014,-0.00580322,0.005497787,158.83636,2.9084015,46.496674,SIT
3160244841000,3.834851,7.18913272271945,0.179124201824441,6.38446633975904,-0.026572637,-0.013744468,0.007330383,158.82957,2.9255948,46.501144,SIT
3160249843000,3.839853,7.1982938249761,0.202026852241346,6.37988586037483,-0.036957346,-0.0076358155,0.004886922,158.82253,2.9434283,46.500847,SIT
3160254894000,3.844904,7.20753246436069,0.21646324751813,6.38104001710878,-0.03359759,-0.014049901,-0.0009162979,158.81543,2.9597847,46.50737,SIT
3160260071000,3.850081,7.2169940740458,0.225924911541985,6.38577079725191,-0.023518313,-0.014660766,-0.00030543262,158.80757,2.9770727,46.510494,SIT
3160264963000,3.854973,7.22344128316518,0.232372148446238,6.38520124324013,-0.03023783,-0.00580322,0.011911872,158.81609,2.9882517,46.512825,SIT
3160269923000,3.859933,7.22800560794657,0.236936482759681,6.38063696611896,-0.028710667,-0.013439035,0.0070249503,158.83076,2.9922874,46.520447,SIT
3160274921000,3.864931,7.2294235112886,0.238354389062833,6.38454802113951,-0.019547688,-0.010079277,0.0033597588,158.84113,2.9913359,46.528233,SIT
3160280106000,3.870116,7.2270198077355,0.235950680489883,6.39897021735889,-0.008857546,-0.006414085,0.007941248,158.84973,2.990539,46.53785,SIT
3160284914000,3.874924,7.2247908768419,0.233721744941427,6.41234377944622,-0.020463986,-0.013133603,0.005192355,158.86359,2.9896085,46.550766,SIT
3160289906000,3.879916,7.22247664576435,0.231407509030884,6.42622914174654,-0.01863139,-0.017715093,0.0036651916,158.87502,2.9853127,46.56169,SIT
3160294930000,3.88494,7.21919417464115,0.231561688947368,6.43905066866029,-0.013744468,-0.01740966,0.0012217305,158.88768,2.9820638,46.573006,SIT
3160299943000,3.889953,7.21397358977816,0.236782284712919,6.44949189289909,-0.008246681,-0.020463986,0.00580322,158.89763,2.9796245,46.586205,SIT
3160304898000,3.894908,7.21580616537535,0.234949707622627,6.44806200193698,-0.007330383,-0.012217305,0.014049901,158.90073,2.9797704,46.591244,SIT
3160310092000,3.900102,7.22539311713405,0.225362740848029,6.43368157429893,-0.018936822,-0.014049901,0.009468411,158.90678,2.9796658,46.600002,SIT
3160315551000,3.905561,7.22535707109942,0.222832667129804,6.41577281540371,-0.005497787,-0.01740966,0.008552114,158.90189,2.9795477,46.604195,SIT
3160319924000,3.909934,7.217038599275,0.226991907385043,6.39913582832456,-0.004886922,-0.017104227,0.00030543262,158.90213,2.9816403,46.608032,SIT
3160324933000,3.914943,7.21039785029462,0.230781221457025,6.38960572878987,-0.0070249503,-0.012217305,0.0033597588,158.89871,2.9854636,46.614456,SIT
3160329933000,3.919943,7.20806605092768,0.233113050042367,6.39426940056976,-0.0076358155,-0.009773844,0.008552114,158.8978,2.9875998,46.62143,SIT
3160334881000,3.924891,7.20575850227417,0.235420627610421,6.39888457016314,-0.010995574,-0.009162978,0.0012217305,158.90588,2.9861703,46.628986,SIT
3160339908000,3.929918,7.20341411119065,0.237765048070124,6.40357342577064,-0.016798794,-0.004276057,0.003970624,158.90782,2.9885416,46.634144,SIT
3160344898000,3.934908,7.20392965697748,0.239854310942179,6.40427891616019,-0.022296581,-0.0036651916,0.005192355,158.91325,2.989717,46.64042,SIT
3160350125000,3.940135,7.2118033724676,0.241429052395873,6.39483047401535,-0.018936822,-0.004276057,0.007330383,158.9172,2.991049,46.645496,SIT
3160354891000,3.944901,7.21898265848748,0.242864908100541,6.38621534578457,-0.009773844,-0.0012217305,0.004581489,158.9224,2.9906294,46.647392,SIT
3160360092000,3.950102,7.22681720875802,0.244431816518498,6.37681390182144,-0.009468411,-0.00030543262,0.011911872,158.92238,2.9938123,46.649773,SIT
3160365493000,3.955503,7.23495302994841,0.246058979057506,6.36705093338367,-0.015577064,-0.0030543262,0.01038471,158.92708,2.9940836,46.652554,SIT
3160369925000,3.959935,7.24162919353215,0.247394210380018,6.35903955102554,-0.018020526,-0.0009162979,0.0027488936,158.93146,2.9938228,46.653633,SIT
3160375450000,3.96546,7.24929552137168,0.248823231774336,6.34994421340708,-0.0125227375,-0.007941248,0.0015271631,158.92374,2.9968941,46.660145,SIT
3160379930000,3.96994,7.24170184207965,0.245026415915929,6.36133463323009,-0.0125227375,-0.0033597588,0.003970624,158.91829,3.0006,46.662704,SIT
3160385482000,3.975492,7.23229110381416,0.240321076262832,6.37545061779646,-0.026572637,-0.008552114,0.0033597588,158.92911,3.0001092,46.67619,SIT
3160389907000,3.979917,7.24034454626059,0.232849982667075,6.39457876760535,-0.018325957,-0.004581489,0.010079277,158.9361,2.997427,46.68531,SIT
3160394899000,3.984909,7.25497791607999,0.223094353551678,6.41896780219365,-0.015882496,-0.004581489,0.0018325958,158.94916,2.9954507,46.697166,SIT
3160399922000,3.989932,7.2495726936338,0.213835253346479,6.43246862687324,-0.0027488936,-0.007330383,0.002443461,158.94984,2.9964287,46.7041,SIT
3160404918000,3.994928,7.23609508060094,0.204850142026291,6.44145378041315,-0.013439035,-0.0012217305,0.0021380284,158.95457,2.9996896,46.70859,SIT
3160410002000,4.000012,7.22764647564805,0.202534353660198,6.43950533645386,-0.021380283,-0.00061086525,-0.0009162979,158.94728,3.0023916,46.71745,SIT
3160415002000,4.005012,7.22291789222831,0.204898647838839,6.43004814492668,-0.013133603,-0.0018325958,0.004581489,158.93695,3.0056255,46.724674,SIT
3160419921000,4.009931,7.21826591185997,0.207224640451785,6.42074415990224,-0.0106901415,0.004581489,-0.0015271631,158.9304,3.00954,46.72661,SIT
3160424915000,4.014925,7.21354300274034,0.209586097477411,6.41129831700489,-0.019242255,0.008857546,0.0033597588,158.91725,3.0172632,46.72898,SIT
3160429920000,4.01993,7.2168148973439,0.21342934867195,6.39318570664025,-0.0061086523,0.014660766,0.006414085,158.90788,3.0184898,46.72917,SIT
3160434922000,4.024932,7.22707582774981,0.218559813874906,6.36753338062547,-0.01160644,0.008552114,0.003970624,158.89883,3.0247204,46.731518,SIT
3160439899000,4.029909,7.22747419609427,0.223281658628243,6.3589997,-0.008552114,0.008857546,0.008857546,158.88693,3.0290298,46.73101,SIT
3160444949000,4.034959,7.22287827858025,0.227877583340777,6.3589997,-0.0018325958,0.011911872,0.008552114,158.87839,3.0319393,46.731552,SIT
3160449916000,4.039926,7.21835789792835,0.232397971072888,6.3589997,-0.017104227,0.01282817,0.01038471,158.8696,3.0399606,46.736763,SIT
3160455442000,4.045452,7.21332878106053,0.237427095817733,6.3589997,-0.013133603,0.009162978,0.0018325958,158.86548,3.0405483,46.74249,SIT
3160460089000,4.050099,7.21358019826871,0.237175678215768,6.36461094567177,-0.015882496,0.014660766,0.0018325958,158.85767,3.0474026,46.745007,SIT
3160464992000,4.055002,7.21805914617733,0.23269672329184,6.37580831544332,-0.0106901415,0.01740966,0.0033597588,158.85278,3.0503416,46.74937,SIT
3160469915000,4.059925,7.22255636432012,0.228199498105118,6.3870513608003,-0.013439035,0.019547688,0.00580322,158.85837,3.0484674,46.75101,SIT
3160474923000,4.064933,7.22713123095817,0.223624624301521,6.39848852739543,-0.0067195175,0.0106901415,0.009468411,158.86235,3.0444362,46.75491,SIT
3160479922000,4.069932,7.2330582725365,0.217697589534672,6.40816817956204,-0.008552114,0.018020526,0.009773844,158.86716,3.0425248,46.75359,SIT
3160484924000,4.074934,7.24277104700933,0.207984860700527,6.41302454144363,-0.0067195175,0.019242255,0.0067195175,158.87128,3.0387545,46.75644,SIT
3160489879000,4.079889,7.24823581602158,0.202520096061015,6.41786765459168,-0.009468411,0.013744468,0.006414085,158.88315,3.0317943,46.757206,SIT
3160494930000,4.08494,7.2432162635675,0.207539548931203,6.42288710222061,-0.0033597588,0.008552114,0.00580322,158.89604,3.0223358,46.757656,SIT
3160499849000,4.089859,7.24345151252147,0.214075264289035,6.43450108130369,0.0021380284,0.013133603,0.0061086523,158.9079,3.0150733,46.75762,SIT
3160504929000,4.094939,7.2532847907428,0.223908547644265,6.459084276857,0.0012217305,0.009162978,0.009162978,158.91805,3.0085936,46.7614,SIT
3160509969000,4.099979,7.25302688052787,0.232497383554682,6.47126728660677,0.00580322,0.0036651916,0.0061086523,158.92764,2.9999862,46.762783,SIT
3160514999000,4.105009,7.23724705330151,0.239260169005569,6.46450452704853,0.005192355,-0.0036651916,0.0036651916,158.93529,2.9935575,46.765713,SIT
3160519898000,4.109908,7.22187819175441,0.2458468262469,6.4579178950255,-0.00061086525,-0.0033597588,0.0061086523,158.94193,2.9863665,46.76569,SIT
3160525002000,4.115012,7.20586621597641,0.252709103968833,6.45105564357714,0.0030543262,-0.0012217305,0.005497787,158.95038,2.976605,46.767246,SIT
3160529904000,4.119914,7.19018395305709,0.259572800252101,6.44319293740945,0.002443461,0.0015271631,0.010079277,158.95715,2.9715495,46.766727,SIT
3160534925000,4.124935,7.17160581657491,0.268861931540616,6.42461465543321,0.0070249503,0.00061086525,0.008857546,158.96625,2.9636657,46.76678,SIT
3160540131000,4.130141,7.1536861693099,0.278671534522075,6.40763900895842,-0.0015271631,0.002443461,0.008857546,158.96762848721,2.96236945385691,46.7651018868905,SIT
3160544933000,4.134943,7.15149591574987,0.289622582770872,6.41639986310902,-0.0021380284,-0.0027488936,0.0015271631,158.9689,2.9611738,46.763554,SIT
3160549921000,4.139931,7.14922082521313,0.300997807399152,6.42550005896557,-0.005192355,0.0009162979,0.0061086523,158.9672,2.9589386,46.75841,SIT
3160554936000,4.144946,7.14693341963138,0.312434606018003,6.43464951410201,-0.002443461,-0.005497787,-0.0009162979,158.97388,2.9522812,46.757683,SIT
