timestamp,rel_time,acc_x,acc_y,acc_z,gyro_x,gyro_y,gyro_z,azimuth,pitch,roll,label
6523382960000,0,-0.240031170271921,9.83782495087983,0.576654281762671,0.004886922,0.009468411,0.0036651916,107.77539,-81.117805,-7.1048036,STD
6523386709000,0.003749,-0.240211164184338,9.83854492352233,0.571614443193463,-0.009773844,0.010995574,0.004581489,107.80046,-81.13787,-7.0941496,STD
6523391805000,0.008845,-0.240455829155713,9.8395235793202,0.56476381173209,-0.0143553335,0.018936822,0.014049901,107.82059,-81.16315,-7.0819087,STD
6523396686000,0.013726,-0.240690171723467,9.84046094567604,0.558202208089437,-0.018020526,0.021380283,0.010079277,107.841644,-81.182625,-7.073247,STD
6523401706000,0.018746,-0.24093118784519,9.84142500613626,0.551453744601193,-0.005497787,0.034208454,0.0027488936,107.85679,-81.2049,-7.0635223,STD
6523406660000,0.0237,-0.241169035229057,9.842376391698,0.544794005931719,-0.025961773,0.032986723,0.007330383,107.87461,-81.22225,-7.051382,STD
6523411684000,0.028724,-0.241410243395498,9.84334122033389,0.538040165181732,-0.024129177,0.035430185,0.011911872,107.88748,-81.243355,-7.0418468,STD
6523416710000,0.03375,-0.241651547584298,9.8443064330576,0.531283635800872,-0.027794369,0.029932396,0.013744468,107.90257,-81.26007,-7.0316563,STD
6523421665000,0.038705,-0.241889442979345,9.84525801066326,0.524622552815962,-0.03268129,0.030543262,0.009773844,107.91492,-81.27618,-7.02219,STD
6523426727000,0.043767,-0.242132475570612,9.84623013696796,0.51781762807941,-0.03176499,0.027183503,0.015882496,107.92932,-81.29498,-7.009242,STD
6523431685000,0.048725,-0.242370514999198,9.84718229070537,0.511152512148193,-0.04062254,0.0106901415,0.019242255,107.94721,-81.30941,-6.998002,STD
6523436672000,0.053712,-0.242609946751993,9.84814001371635,0.504448411069334,-0.01863139,0.013744468,0.01038471,107.96027,-81.32743,-6.989094,STD
6523441702000,0.058742,-0.242851442985512,9.84910599461573,0.497686504426731,-0.023518313,0.004276057,0.0067195175,107.98111,-81.340996,-6.9771886,STD
6523446682000,0.063722,-0.243090538660049,9.8500623733193,0.490991813555923,-0.02443461,0.0076358155,0.007941248,107.99709,-81.35764,-6.966941,STD
6523451674000,0.068714,-0.243330210468742,9.85102105654986,0.484280990899885,-0.022907447,0.004581489,0.003970624,108.01745,-81.37149,-6.958881,STD
6523456655000,0.073695,-0.243569354154459,9.85197762729734,0.477584955713641,-0.034513887,-0.00030543262,0.009468411,108.0367,-81.38511,-6.94789,STD
6523461685000,0.078725,-0.243810850387978,9.85294360819672,0.470823049071038,-0.031154128,0.009773844,0.011301007,108.05233,-81.39945,-6.9394183,STD
6523466669000,0.083709,-0.244050138107234,9.85390075507595,0.464122980938487,-0.02443461,0.008552114,0.010079277,108.072174,-81.41268,-6.929925,STD
6523471660000,0.0887,-0.244289761904748,9.8548592462626,0.457413502597884,-0.030543262,0.02076942,0.003970624,108.085014,-81.42333,-6.921997,STD
6523476718000,0.093758,-0.244532602451296,9.85583060439164,0.450613955123076,-0.020463986,0.011301007,0.010079277,108.10381,-81.44009,-6.9104443,STD
6523481666000,0.098706,-0.244770161768085,9.85678083768988,0.443962282346217,-0.032375857,0.018325957,0.011301007,108.11437,-81.449356,-6.9027815,STD
6523486682000,0.103722,-0.24501098584509,9.85774412997443,0.437219196119717,-0.02443461,0.024740042,0.017715093,108.1272,-81.46598,-6.891725,STD
6523491706000,0.108746,-0.245252194011531,9.85870895861032,0.43046535536973,-0.026267206,0.03176499,0.0076358155,108.13798,-81.47518,-6.8853154,STD
6523496681000,0.113721,-0.24549104963017,9.8596643770943,0.423777386076102,-0.029932396,0.03604105,0.018020526,108.14679,-81.49134,-6.871474,STD
6523501674000,0.118714,-0.245730769450043,9.86062325236878,0.417065219104627,-0.028405234,0.03604105,0.017104227,108.15515,-81.50289,-6.86386,STD
6523506660000,0.1237,-0.245970153191658,9.86158078333584,0.410362462341204,-0.027794369,0.02321288,0.013744468,108.16562,-81.51527,-6.8539143,STD
6523511686000,0.128726,-0.246211457380458,9.86254599605956,0.403605932960345,-0.02687807,0.022296581,0.019242255,108.17231,-81.529526,-6.8421407,STD
6523516674000,0.133714,-0.246450937144433,9.86350391111445,0.39690048756605,-0.0290161,0.007941248,0.01282817,108.18672,-81.53961,-6.8341646,STD
6523521660000,0.1387,-0.246690320886048,9.86446144208152,0.390197730802627,-0.025045475,0.006414085,0.01038471,108.19726,-81.5528,-6.8239307,STD
6523526724000,0.143764,-0.246933449499674,9.86543395247406,0.383390117435203,-0.024129177,-0.0009162979,0.009468411,108.21345,-81.563774,-6.814672,STD
6523531678000,0.148718,-0.247171296883541,9.86638533803579,0.376730378765729,-0.024129177,-0.005192355,0.0076358155,108.229004,-81.57427,-6.806465,STD
6523536682000,0.153722,-0.24741154482639,9.86734632579335,0.37000342432446,-0.016493361,-0.005497787,0.003970624,108.24528,-81.585365,-6.799006,STD
6523541732000,0.158772,-0.247654001283501,9.86831614757106,0.363214631373139,-0.021380283,-0.005497787,0.005497787,108.253271497449,-81.5902907327198,-6.7940143450035,STD
6523546679000,0.163719,-0.247891512589111,9.86926618882539,0.356564302911716,-0.027488936,-0.0018325958,0.0106901415,108.2611,-81.595116,-6.7891245,STD
6523551673000,0.168713,-0.248131280420163,9.87022525614378,0.349850791624806,-0.027794369,-0.004581489,0.0036651916,108.27897,-81.60372,-6.7840433,STD
6523556674000,0.173714,-0.248371384329473,9.87118566776959,0.343127870129844,-0.02321288,0.00030543262,0.0076358155,108.29286,-81.61524,-6.7742333,STD
6523561613000,0.178653,-0.248608511545646,9.87213417267258,0.336488296191909,-0.015577064,0.0009162979,0.0033597588,108.30885,-81.62356,-6.7685947,STD
6523566675000,0.183715,-0.248851544136913,9.87310629897729,0.329683371455357,-0.014660766,-0.0027488936,-0.00030543262,108.324295,-81.632416,-6.7616935,STD
6523571662000,0.188702,-0.249090618707743,9.87396894221174,0.325798737415485,-0.013133603,-0.007330383,0.009468411,108.33931,-81.64462,-6.752161,STD
6523576702000,0.193742,-0.249331675646978,9.87469210296108,0.326280851293955,-0.008552114,-0.0030543262,0.0070249503,108.35293,-81.65368,-6.747247,STD
6523582933000,0.199973,-0.249629696636735,9.87558615348273,0.326876893273469,-0.011301007,-0.0012217305,0.0061086523,108.34846,-81.67568,-6.7429814,STD
6523586677000,0.203717,-0.249808767505881,9.8761233586108,0.327235035011761,-0.016798794,-0.004581489,0.0067195175,108.34409,-81.69722,-6.7389646,STD
6523591674000,0.208714,-0.250047767808531,9.87684034953629,0.327713035617062,-0.020463986,-0.005192355,0.009773844,108.33819,-81.71846,-6.7346087,STD
6523596679000,0.213719,-0.250287150741244,9.87755848833597,0.328191801482488,-0.027183503,-0.008552114,0.011911872,108.3339,-81.73774,-6.730187,STD
6523602297000,0.219337,-0.250555852702479,9.87836458299664,0.328729205404957,-0.042455133,-0.0061086523,0.007330383,108.32806,-81.75369,-6.726954,STD
6523606662000,0.223702,-0.250764625230209,9.8789908918599,0.329146750460418,-0.029626964,-0.009773844,0.00580322,108.32466,-81.77398,-6.722041,STD
6523611675000,0.228715,-0.251004390792984,9.87971017853379,0.329626281585968,-0.030543262,-0.014966198,0.010079277,108.32091,-81.78952,-6.7167597,STD
6523616674000,0.233714,-0.25124348675315,9.88042745642782,0.3301044735063,-0.026572637,-0.02107485,0.010079277,108.31848,-81.80627,-6.7130075,STD
6523621664000,0.238704,-0.251482152254496,9.88114344296338,0.330581804508992,-0.047036625,-0.019547688,0.003970624,108.31525,-81.8181,-6.7098346,STD
6523626747000,0.243787,-0.251725265830316,9.88187277353656,0.331068031660632,-0.03634648,-0.008857546,0.00030543262,108.310936,-81.83589,-6.706042,STD
6523631715000,0.248755,-0.251962879098991,9.88258560341805,0.331543258197981,-0.030848695,-0.008857546,0.0012217305,108.309166,-81.848946,-6.702413,STD
6523636672000,0.253712,-0.25219996625133,9.88329685497251,0.332017432502659,-0.03023783,-0.0070249503,0.007941248,108.30366,-81.86326,-6.698363,STD
6523641672000,0.258712,-0.252439110040254,9.88401427635081,0.332495720080507,-0.028405234,-0.005497787,0.011301007,108.29821,-81.87785,-6.694937,STD
6523646680000,0.26372,-0.25267863645924,9.88473284560333,0.332974772918479,-0.029626964,0.0067195175,0.007941248,108.289085,-81.891785,-6.691784,STD
6523651679000,0.268719,-0.252917732419406,9.88545012349736,0.333452964838811,-0.034208454,0.015882496,0.013439035,108.280045,-81.90806,-6.6851344,STD
6523656660000,0.2737,-0.253155967461931,9.88616481867443,0.333929434923863,-0.03176499,0.020158553,0.02107485,108.26894,-81.92473,-6.678991,STD
6523661688000,0.278728,-0.253396450456073,9.88688625761246,0.334410400912146,-0.04520403,0.018325957,0.018020526,108.25711,-81.93663,-6.6744413,STD
6523666676000,0.283716,-0.253635020299904,9.88760195717946,0.334887540599807,-0.036651913,0.02107485,0.008857546,108.24279,-81.95251,-6.6697702,STD
6523672224000,0.289264,-0.253900374248093,9.88839800794083,0.335418248496187,-0.02687807,0.026267206,0.0125227375,108.22818,-81.96853,-6.6624026,STD
6523676730000,0.29377,-0.254115890630672,9.88904454808696,0.335849281261343,-0.028710667,0.02687807,0.007330383,108.214584,-81.97961,-6.6601167,STD
6523681756000,0.298796,-0.254356277967298,9.88976570005643,0.336330055934596,-0.030848695,0.017715093,0.0061086523,108.20222,-81.99377,-6.6555834,STD
6523686675000,0.303715,-0.254591547626841,9.89047149920841,0.336800595253682,-0.02443461,0.021991149,0.011911872,108.18585,-82.00925,-6.6508136,STD
6523691668000,0.308708,-0.25483035661446,9.89118791619679,0.337278213228921,-0.022296581,0.01038471,0.007330383,108.17701,-82.02077,-6.6487665,STD
6523696685000,0.313725,-0.255070313492266,9.89190777680779,0.337758126984533,-0.019547688,0.002443461,0.004276057,108.165794,-82.03491,-6.6448216,STD
6523701705000,0.318745,-0.255310413856346,9.89262806787161,0.338238327712692,-0.020463986,0.002443461,0.005497787,108.161554087772,-82.0426057310991,-6.6423828994215,STD
6523706711000,0.323751,-0.255549844617816,9.89334635015557,0.338717189235633,-0.013439035,-0.0036651916,0.008246681,108.157326,-82.05028,-6.639951,STD
6523711717000,0.328757,-0.255789275379287,9.89406463243953,0.339196050758574,-0.023518313,-0.0061086523,0.012217305,108.15012,-82.0626,-6.635802,STD
6523716710000,0.33375,-0.256028084366906,9.89478104942791,0.339673668733812,-0.020158553,-0.009162978,0.009773844,108.144844,-82.07715,-6.632191,STD
6523721707000,0.338747,-0.256267084669557,9.89549804035339,0.340151669339113,-0.02321288,-0.008552114,0.0076358155,108.13907,-82.08989,-6.627412,STD
6523726797000,0.343837,-0.256510533046681,9.89622837531651,0.340638566093362,-0.03023783,-0.011911872,0.0067195175,108.13527,-82.10202,-6.6228304,STD
6523731779000,0.348819,-0.256748815917965,9.89694321397786,0.34111513183593,-0.024740042,-0.0067195175,0.0061086523,108.12884,-82.11499,-6.618945,STD
6523736717000,0.353757,-0.256984994323906,9.89765173933107,0.341587488647812,-0.01863139,0.0021380284,0.004581489,108.12231,-82.12637,-6.6155505,STD
6523742215000,0.359255,-0.257247956834206,9.89844061587866,0.342113413668413,-0.019242255,0.00030543262,-0.0015271631,108.11743,-82.13617,-6.613484,STD
6523746720000,0.36376,-0.257463425388027,9.89908701254052,0.342544350776054,-0.020463986,-0.002443461,0.005497787,108.110016,-82.14944,-6.60823,STD
6523751715000,0.368755,-0.257702330033162,9.89980371649744,0.343022160066323,-0.02443461,-0.007330383,-0.00030543262,108.10411,-82.15752,-6.6081905,STD
6523756701000,0.373741,-0.257940804219477,9.90051912909589,0.343499108438953,-0.024129177,-0.0036651916,0.0076358155,108.09608,-82.17093,-6.6023097,STD
6523761614000,0.378654,-0.258175786906473,9.90122406734222,0.343969073812946,-0.022907447,-0.0021380284,0.003970624,108.09041,-82.17957,-6.6011605,STD
6523766718000,0.383758,-0.258419904886206,9.9019564110852,0.344457309772413,-0.024740042,0.00030543262,-0.0015271631,108.083275,-82.189125,-6.5983453,STD
6523771708000,0.388748,-0.255435197428276,9.90301178715092,0.344849866406854,-0.015271631,-0.007330383,0.0033597588,108.07847,-82.202095,-6.593393,STD
6523776804000,0.393844,-0.246414235315752,9.90471846471499,0.345093676541839,-0.02076942,-0.01160644,0.008246681,108.07211,-82.21111,-6.5900245,STD
6523781898000,0.398938,-0.23739681361222,9.9064244724684,0.345337390989959,-0.014049901,-0.0018325958,0.0033597588,108.04329,-82.22478,-6.57907,STD
6523786709000,0.403749,-0.228880359781106,9.90803570201329,0.345567565746515,-0.021685716,0.0030543262,0.008552114,108.01717,-82.23881,-6.564006,STD
6523791720000,0.40876,-0.220009865050757,9.90971391262427,0.345807309189689,-0.024740042,-0.0027488936,-0.00061086525,107.992165,-82.24971,-6.554715,STD
6523796678000,0.413718,-0.211233191158705,9.91137437325274,0.346044516930909,-0.0067195175,-0.0027488936,-0.008246681,107.964386,-82.26409,-6.5440583,STD
6523801708000,0.418748,-0.202329062542928,9.91305894706499,0.346285169399311,-0.007330383,-0.0027488936,0.00030543262,107.950404628469,-82.2711093052505,-6.53725092956678,STD
6523806696000,0.423736,-0.193499282515991,9.91472945485338,0.346523812443523,-0.005192355,0.003970624,0.004276057,107.93654,-82.27807,-6.5305004,STD
6523811846000,0.428886,-0.184382729360673,9.91645421730529,0.346770206123895,0.004581489,0.007330383,-0.005192355,107.91064,-82.28874,-6.525498,STD
6523816715000,0.433755,-0.175763603668782,9.91808487135934,0.34700315579957,-0.009162978,0.010995574,-0.0009162979,107.88255,-82.30221,-6.513411,STD
6523821706000,0.438746,-0.166928513028356,9.91975638386372,0.347241942374082,-0.005192355,0.0027488936,-0.005497787,107.85767,-82.31523,-6.5065627,STD
6523826736000,0.443776,-0.158024384412579,9.92144095767598,0.347482594842484,-0.005497787,0.008246681,-0.0027488936,107.82795,-82.3282,-6.496945,STD
6523831807000,0.448847,-0.149047677412459,9.92313926260679,0.347725208891642,-0.00061086525,0.005497787,-0.00061086525,107.80344,-82.341156,-6.488643,STD
6523836699000,0.453739,-0.140387837017155,9.92477761948344,0.347959258966279,0.004581489,0.014049901,-0.006414085,107.774574,-82.35271,-6.4823427,STD
6523841733000,0.458773,-0.131476627583394,9.92646353291702,0.348200102808413,0.0067195175,0.01985312,-0.008246681,107.74751,-82.36585,-6.4743643,STD
6523846695000,0.463735,-0.122692872873358,9.92812533316681,0.348437501923365,0.018020526,0.032070424,-0.010995574,107.71663,-82.37937,-6.468741,STD
6523851687000,0.468727,-0.113856012028436,9.92979718057651,0.34867633634131,0.022907447,0.026572637,-0.01038471,107.68952,-82.39249,-6.462554,STD
6523856697000,0.473737,-0.104987287502583,9.93147505628216,0.34891603194105,0.027488936,0.03634648,-0.007941248,107.65492,-82.40687,-6.4572654,STD
6523861690000,0.47873,-0.0961486564531648,9.93314723859719,0.349154914202428,0.042760566,0.03176499,-0.010079277,107.62644,-82.422424,-6.452807,STD
6523866672000,0.483712,-0.0873294976532048,9.93481573695359,0.349393270186042,0.03970624,0.025350908,-0.021991149,107.5962,-82.4339,-6.450715,STD
6523871660000,0.4887,-0.0784997176262677,9.93648624474197,0.349631913230254,0.05375614,0.035124753,-0.01863139,107.56266,-82.45313,-6.4451857,STD
6523876719000,0.493759,-0.0695442530801019,9.93818053080881,0.349873953158216,0.07574729,0.027794369,-0.021380283,107.53652,-82.46848,-6.444318,STD
6523881724000,0.498764,-0.0606843795767298,9.93985673198781,0.35011340954079,0.08399397,0.021991149,-0.024129177,107.50735,-82.48442,-6.442726,STD
6523886678000,0.503718,-0.0519147865026627,9.94151585299495,0.350350425908278,0.09132435,0.013439035,-0.020158553,107.48117,-82.50405,-6.4398017,STD
6523891680000,0.50872,-0.0430602236127791,9.94319104945796,0.350589738760554,0.09743301,0.005497787,-0.026572637,107.456894,-82.52108,-6.440498,STD
6523896682000,0.513722,-0.0342056607228955,9.94486624592097,0.350829051612829,0.108123146,-0.01160644,-0.02687807,107.43761,-82.54185,-6.437982,SCH
6523901692000,0.518732,-0.0253369361970425,9.94654412162662,0.351068747212569,0.13225232,-0.015271631,-0.02443461,107.41686,-82.56405,-6.4365845,SCH
6523906742000,0.523782,-0.0163974034913423,9.94823539354549,0.351310356549633,0.13041973,-0.028710667,-0.0290161,107.40391,-82.58173,-6.43672,SCH
6523911749000,0.528789,-0.00753398957897786,9.94991226453515,0.351549908619074,0.13683382,-0.04917465,-0.029321533,107.3938,-82.60504,-6.43473,SCH
6523916650000,0.53369,0.00114178265679174,9.95155363555977,0.351784389284608,0.15241088,-0.058643065,-0.021685716,107.38416,-82.62961,-6.4316797,SCH
6523921660000,0.5387,0.0100105071826447,9.95323151126542,0.352024084884348,0.172264,-0.07391469,-0.02076942,107.38196,-82.653244,-6.4301057,SCH
6523927524000,0.544564,0.020390986348234,9.95519539612329,0.35230463877594,0.19181168,-0.09101892,-0.018020526,107.38249,-82.68059,-6.425641,SCH
6523931673000,0.548713,0.0277355648028776,9.95658491833941,0.352503141179797,0.2098322,-0.112399206,-0.016798794,107.38826,-82.70938,-6.4210525,SCH
6523936674000,0.553714,0.036588357488265,9.95825977989709,0.35274240618864,0.23182335,-0.118507855,-0.013133603,107.393936,-82.74162,-6.415038,SCH
6523941691000,0.558731,0.0454694734455913,9.95993999994005,0.352982436692411,0.2452624,-0.13622294,-0.016187929,107.40857,-82.772606,-6.4101114,SCH
6523946681000,0.563721,0.0543027938815207,9.96161117753909,0.35322117542349,0.2556471,-0.15057829,-0.0070249503,107.42303,-82.80888,-6.4007425,SCH
6523951678000,0.568718,0.0631485057489234,9.96328469947544,0.3534602490586,0.2733622,-0.15485434,-0.007941248,107.43914,-82.843185,-6.3951235,SCH
6523956659000,0.573699,0.0719658943443873,9.96495286292651,0.353698557198781,0.2724459,-0.1731803,0.00030543262,107.462296,-82.87975,-6.3839927,SCH
6523961618000,0.578658,0.0807443384409352,9.96661365846031,0.353935812783434,0.28619036,-0.16279559,-0.0021380284,107.47776,-82.91601,-6.376763,SCH
6523966676000,0.583716,0.0896980327826048,9.96830760962182,0.354177804867962,0.30757064,-0.16187929,-0.0015271631,107.50013,-82.9545,-6.366116,SCH
6523971662000,0.588702,0.096813434369173,9.96833596112071,0.351205748861294,0.30909783,-0.16432275,0.0009162979,107.51965,-82.99062,-6.355986,SCH
6523976755000,0.593795,0.100232876430957,9.96467227582063,0.340947422573925,0.31887165,-0.16829337,0.0027488936,107.5385,-83.02878,-6.346094,SCH
6523982940000,0.59998,0.10438548769193,9.9602230526553,0.328489588667117,0.321926,-0.16035213,-0.0009162979,107.5607,-83.08077,-6.3170953,SCH
6523986674000,0.603714,0.106892496656922,9.95753697354465,0.320968561697349,0.3371976,-0.1572978,0.005192355,107.5844,-83.1363,-6.2856884,SCH
6523991683000,0.608723,0.110255541087999,9.95393371423421,0.310879428303783,0.35918877,-0.15424347,-0.00030543262,107.60519,-83.18691,-6.2597356,SCH
6523997360000,0.6144,0.114067080963269,9.94984992443476,0.29944480856426,0.37598756,-0.15424347,0.0018325958,107.62494,-83.24015,-6.2308774,SCH
6524001680000,0.61872,0.116967530542477,9.94674230211072,0.290743459740104,0.38759398,-0.15607607,-0.0061086523,107.64369,-83.28905,-6.2074165,SCH
6524006662000,0.623702,0.120312447163685,9.9431584654398,0.280708709776689,0.40469822,-0.16371189,-0.006414085,107.66314,-83.34092,-6.181864,SCH
6524011683000,0.628723,0.123683548399149,9.93954657384511,0.270595405969724,0.40775254,-0.1685988,-0.018936822,107.681694,-83.38521,-6.1627707,SCH
6524016673000,0.633713,0.12703383622328,9.93595698231803,0.260544542397376,0.41996986,-0.1853976,-0.02107485,107.70482,-83.43289,-6.141227,SCH
6524021701000,0.638741,0.130409637261304,9.93234005522422,0.250417139182593,0.43554693,-0.18478674,-0.027488936,107.72362,-83.47483,-6.1251464,SCH
6524026784000,0.643824,0.133822365319432,9.92868356349433,0.240178954906392,0.4373795,-0.19181168,-0.037873644,107.7485,-83.5131,-6.1110144,SCH
6524031691000,0.648731,0.137116926913223,9.92515367859986,0.230295270026731,0.44684792,-0.19730948,-0.046120327,107.77178,-83.55058,-6.0985446,SCH
6524036668000,0.653708,0.140458486532602,9.92157343871404,0.2202705910689,0.4596761,-0.19730948,-0.04184427,107.79447,-83.5874,-6.0857267,SCH
6524041687000,0.658727,0.143828244967335,9.91796298583339,0.210161315664168,0.45723262,-0.20066923,-0.04917465,107.81887,-83.616684,-6.078695,SCH
6524046682000,0.663722,0.147181889793295,9.91436979752122,0.200100381086237,0.46670106,-0.21533,-0.059864793,107.845474,-83.64669,-6.0715394,SCH
6524051672000,0.668712,0.150532177617427,9.91078020599414,0.190049517513889,0.48502702,-0.22449298,-0.058643065,107.8704,-83.67688,-6.0632524,SCH
6524056686000,0.673726,0.153898579050332,9.9071733498986,0.17995031311474,0.5174029,-0.22082779,-0.06261369,107.89494,-83.70308,-6.0595384,SCH
6524061663000,0.678703,0.157240138669711,9.90359311001277,0.169925634156909,0.54092115,-0.22021692,-0.06841691,107.92185,-83.7282,-6.055949,SCH
6524066998000,0.684038,0.16082205961996,9.89975534031398,0.159179871199299,0.5674938,-0.22266038,-0.07880162,107.94751,-83.75184,-6.0548644,SCH
6524071695000,0.688735,0.163975627136984,9.8963765203936,0.149719168554145,0.6017023,-0.23609942,-0.07238753,107.974884,-83.77881,-6.050562,SCH
6524076755000,0.693795,0.167372912986705,9.89273657387516,0.139527310903628,0.6258314,-0.24770586,-0.08093964,108.00139,-83.79786,-6.0534387,SCH
6524081652000,0.698692,0.17066076057684,9.88921388255089,0.129663768035134,0.6582073,-0.25900686,-0.08979719,108.0303,-83.81902,-6.0544806,SCH
6524086639000,0.703679,0.174009034199875,9.88562644909487,0.119618947066136,0.68539083,-0.26175576,-0.10262536,108.05876,-83.83542,-6.0590205,SCH
6524091706000,0.708746,0.177411019852155,9.88198146707729,0.109412990007802,0.6918049,-0.2773328,-0.10170906,108.09264,-83.85151,-6.0618677,SCH
6524096736000,0.713776,0.180788163690909,9.87836310126944,0.0992815583907859,0.7110472,-0.28221974,-0.09712757,108.12276,-83.8646,-6.0671515,SCH
6524101686000,0.718726,0.184111595500418,9.87480228402313,0.0893112628631063,0.7305948,-0.28619036,-0.09407325,108.155525,-83.87541,-6.072301,SCH
6524106594000,0.723634,0.187406828494574,9.87127167977165,0.0794255637823281,0.74189585,-0.28955013,-0.087659165,108.18796,-83.88653,-6.0749803,SCH
6524111564000,0.728604,0.190743688311395,9.86769647538496,0.0694149842323143,0.75686204,-0.29810223,-0.08246681,108.221405,-83.896515,-6.076966,SCH
6524116576000,0.733616,0.194108746943569,9.86409105800345,0.059319808235399,0.7892379,-0.3036,-0.07452556,108.2534,-83.9073,-6.076278,SCH
6524121599000,0.738639,0.197481190979764,9.86047772769473,0.0492024760262,0.8240572,-0.29871312,-0.06719518,108.28327,-83.91711,-6.074261,SCH
6524126617000,0.743657,0.200850278014132,9.85686799417111,0.0390952148225844,0.8677341,-0.2929099,-0.06078109,108.31285,-83.92663,-6.0703044,SCH
6524131582000,0.748622,0.204183780829124,9.85329638656952,0.0290947062781542,0.904386,-0.2883284,-0.05955936,108.33976,-83.93381,-6.0659213,SCH
6524136598000,0.753638,0.207551525062761,9.84968809175993,0.0189914734767721,0.947452,-0.28160888,-0.0580322,108.36275,-96.06051,-6.0598674,SCH
6524141614000,0.758654,0.210919269296397,9.84607979695035,0.00888824067538996,0.9960158,-0.27030787,-0.06383542,108.381454,-96.06072,-6.0558743,SCH
6524146596000,0.763636,0.214264185917604,9.84249596027943,-0.00114650928802423,1.0348058,-0.26297748,-0.062308256,108.39771,-96.062965,-6.049643,SCH
6524151598000,0.768638,0.217622530546123,9.83889773646811,-0.0112215432737725,1.069625,-0.28038713,-0.065973446,108.41615,-96.07359,-6.046893,SCH
6524156587000,0.773627,0.220972146969889,9.83530886429805,-0.0212703926450036,1.1023064,-0.30298916,-0.071776666,108.43231,-96.09002,-6.0446644,SCH
6524161560000,0.7786,0.224311020987806,9.83173150184031,-0.0312870147983675,1.1276573,-0.33414328,-0.08093964,108.454124,-96.11402,-6.044848,SCH
6524166601000,0.783641,0.227695550230582,9.82810522310523,-0.0414406026276672,1.1633929,-0.39950588,-0.08093964,108.49044,-96.14346,-6.044562,SCH
6524171602000,0.788642,0.204543029834545,9.8170263285861,-0.0940098033736848,1.1768318,-0.47342056,-0.08399397,108.536125,-96.18074,-6.0481725,SCH
6524176639000,0.793679,0.13382285056518,9.79249073984482,-0.222941829127986,1.217149,-0.5714644,-0.08368854,108.60528,-96.224785,-6.0515203,SCH
6524182725000,0.799765,0.0483745656667564,9.76284539676769,-0.378725094710808,1.244027,-0.70402217,-0.07849618,108.68333,-96.27671,-6.0479007,SCH
6524186605000,0.803645,-0.00610117298028304,9.74394563811846,-0.47804140599266,1.269378,-0.85062987,-0.0852157,108.79049,-96.3409,-6.0492043,SCH
6524191632000,0.808672,-0.0766809508613829,9.71945876009534,-0.606717461872523,1.3206906,-0.9755518,-0.09407325,108.926025,-96.41445,-6.051313,SCH
6524196605000,0.813645,-0.146502561245849,9.69523491995033,-0.734011280430422,1.346347,-1.0412198,-0.10873401,109.08246,-96.49602,-6.058288,SCH
6524201668000,0.818708,-0.217587784124705,9.67057268334181,-0.863608827858261,1.3848315,-1.1496484,-0.111177474,109.28255,-96.58701,-6.0664744,SCH
6524206668000,0.823708,-0.287788478257487,9.64621732425775,-0.991593765077143,1.4065173,-1.251052,-0.12797627,109.494225,-96.6896,-6.0838223,SCH
6524211661000,0.828701,-0.357890891418484,9.6218960626764,-1.11939952338392,1.455081,-1.3356569,-0.1337795,109.72706,-96.79993,-6.0999656,SCH
6524216674000,0.833714,-0.428274107356012,9.59747737965872,-1.24771722143957,1.5100589,-1.4077389,-0.1386664,109.97957,-96.91935,-6.121633,SCH
6524221647000,0.838687,-0.498095717740478,9.57325353951371,-1.37501103999747,1.5662584,-1.452943,-0.13958271,110.24269,-97.04668,-6.144357,SCH
6524226686000,0.843726,-0.568843977287497,9.54870820862879,-1.50399425972666,1.6236799,-1.4706581,-0.14049901,110.51229,-97.183395,-6.16875,SCH
6524231701000,0.848741,-0.639255273502678,9.52427978346747,-1.63236315175719,1.704925,-1.4410311,-0.14874569,110.77469,-97.33404,-6.1950126,SCH
6524236677000,0.853717,-0.709119004303623,9.50004133010701,-1.75973376127742,1.7611245,-1.3677273,-0.15241088,111.02324,-97.48859,-6.2191577,SCH
6524241697000,0.858737,-0.779600501212937,9.47558854958661,-1.88823063824518,1.8081611,-1.2861768,-0.17165314,111.25401,-97.65977,-6.248876,SCH
6524246691000,0.863731,-0.849716954512761,9.45126241693345,-2.0160619935394,1.8527542,-1.1814134,-0.19181168,111.45085,-97.84039,-6.27746,SCH
6524252418000,0.869458,-0.93012482957245,9.42336578863856,-2.16265594062991,1.8933768,-1.0622946,-0.24037547,111.61332,-98.038376,-6.3169565,SCH
6524256678000,0.873718,-0.989935820973581,9.40261502269894,-2.27169910714039,1.9178114,-0.95722586,-0.2761111,111.74428,-98.241615,-6.35581,SCH
6524261678000,0.878718,-1.06013651510636,9.37825966361488,-2.39968404435927,1.9092593,-0.8900307,-0.3213151,111.84567,-98.45689,-6.4083643,SCH
6524266679000,0.883719,-1.13035124937797,9.353899433459,-2.5276945785656,1.8817704,-0.86406887,-0.36193767,111.92361,-98.677,-6.467171,SCH
6524271657000,0.888697,-1.20024306045657,9.3296512379549,-2.65511638206072,1.8133535,-0.9236283,-0.36957347,112.00263,-98.88656,-6.5287046,SCH
6524276748000,0.893788,-1.27172140722257,9.30485261133551,-2.78543064513698,1.7201965,-0.9789116,-0.29626966,112.07073,-99.07323,-6.5763197,SCH
6524281683000,0.898723,-1.34100949233163,9.28081387191954,-2.91175177817202,1.7415768,-0.926988,-0.17989981,112.12298,-99.25751,-6.610469,SCH
6524286674000,0.903714,-1.41108382521497,9.25650235248182,-3.03950634250391,1.8646661,-0.5876524,-0.062308256,112.108,-99.42543,-6.6143427,SCH
6524291704000,0.908744,-1.48170572351255,9.23200086124326,-3.1682591893461,2.1245892,-0.07574729,0.057421334,112.029854,-99.60096,-6.5762553,SCH
6524296682000,0.913722,-1.55159753459115,9.20775266573916,-3.29568099284122,2.4061983,0.17928895,0.11942416,111.92861,-99.79703,-6.519414,SCH
6524301717000,0.918757,-1.62228963358286,9.18322681914151,-3.42456182462063,2.568383,0.54336464,0.11026118,111.65136,-100.01922,-6.4303064,SCH
6524306706000,0.923746,-1.69233588618855,9.15892504184743,-3.55226519497763,2.5680776,0.6267477,0.09010262,111.38391,-100.263245,-6.3312907,SCH
6524311715000,0.928755,-1.76266294157077,9.13452584311702,-3.68048050508351,2.4627032,0.5513059,0.087659165,111.05996,-100.52453,-6.2266297,SCH
6524316709000,0.933749,-1.8327793948706,9.11019971046385,-3.80831186037772,2.3197608,0.36193767,0.09743301,110.74658,-100.78306,-6.1298985,SCH
6524322230000,0.93927,-1.91029500133202,9.08330652296323,-3.94963282805481,2.200642,0.18295415,0.09773844,110.453285,-101.02746,-6.0435095,SCH
6524326790000,0.94383,-1.97431803438111,9.06109443547856,-4.06635509079843,2.0928242,0.13041973,0.029626964,110.17673,-101.25088,-5.980077,SCH
6524331774000,0.948814,-2.04429408629267,9.03681701354357,-4.19393047621821,2.0091357,0.1908954,-0.041233405,109.91981,-101.45148,-5.9232726,SCH
6524336710000,0.95375,-2.11359621154056,9.01277340305578,-4.32027720624069,1.9306396,0.24984388,-0.06688975,109.67827,-101.62959,-5.877695,SCH
6524341752000,0.958792,-2.18438659150405,8.98821345895541,-4.44933721693221,1.8368717,0.27305678,-0.096516706,109.427605,-101.79314,-5.8538237,SCH
6524346723000,0.963763,-2.25418012161087,8.96399936095403,-4.57657984151522,1.6978999,0.3182608,-0.14996742,109.15346,-101.93192,-5.8415246,SCH
6524351709000,0.968749,-2.32418425380008,8.93971219687541,-4.70420642090989,1.5555683,0.38453966,-0.21288654,108.867,-102.05102,-5.839311,SCH
6524356705000,0.973745,-2.39432878737755,8.91537632207861,-4.832088970179,1.423316,0.42210788,-0.25473082,108.57698,-102.14204,-5.846335,SCH
6524361656000,0.978696,-2.46384151470784,8.89125964551357,-4.95881965501313,1.3371841,0.40653083,-0.2843578,108.28402,-102.21644,-5.867583,SCH
6524366712000,0.983752,-2.53482845661491,8.86663150640776,-5.08823802352887,1.2922854,0.38789943,-0.31429017,107.982956,-102.27509,-5.899254,SCH
6524371714000,0.988754,-2.58286381318079,8.83224646619542,-5.18601720320374,1.2974777,0.38606682,-0.31856623,107.685356,-102.32688,-5.931996,SCH
6524376806000,0.993846,-2.57222765091086,8.77036336871508,-5.20438875139665,1.3246613,0.3576616,-0.301462,107.40413,-102.37579,-5.9692035,SCH
6524382977000,1.000017,-2.55933767499418,8.69536717968305,-5.22665324941284,1.3738359,0.29932398,-0.29260445,106.797745,-102.94211,-6.13365,SCH
6524386707000,1.003747,-2.55154645636361,8.65003647394824,-5.24011080533577,1.4022411,0.23182335,-0.28710666,106.21055,-103.49706,-6.292375,SCH
6524391687000,1.008727,-2.54114423953245,8.58951451294037,-5.2580782660586,1.4135422,0.18845193,-0.2929099,105.64002,-104.04913,-6.4496784,SCH
6524396696000,1.013736,-2.53068144754304,8.52864011481017,-5.2761503565728,1.4187346,0.15668693,-0.26145032,105.09451,-104.589836,-6.594245,SCH
6524401705000,1.018745,-2.52021865555363,8.46776571667997,-5.29422244708699,1.4165965,0.06414085,-0.23701571,104.58364,-105.121994,-6.744991,SCH
6524406698000,1.023738,-2.50978928434118,8.40708576661726,-5.31223681081975,1.3842206,0.06627888,-0.23243423,104.06165,-105.63521,-6.8845453,SCH
6524411710000,1.02875,-2.49932022595609,8.3461749094744,-5.33031972510546,1.3500122,0.14446963,-0.26542094,103.548546,-106.13809,-7.0247107,SCH
6524416718000,1.033758,-2.48885952276524,8.28531266434842,-5.34838820769582,1.3179418,0.204029,-0.2678644,103.047646,-106.618324,-7.1523523,SCH
6524421710000,1.03875,-2.47843224035136,8.22464486728993,-5.36639896350473,1.3203852,0.17104226,-0.23609942,102.55616,-107.08876,-7.2770944,SCH
6524426752000,1.043792,-2.46790051800945,8.16336942002052,-5.38459011550564,1.3231341,0.105068825,-0.18142697,102.06422,-107.5394,-7.3909054,SCH
6524431778000,1.048818,-2.45740221644451,8.10228842081861,-5.40272354072512,1.3136657,0.043066,-0.13408493,101.5875,-107.975586,-7.4971027,SCH
6524436696000,1.053736,-2.4471295051241,8.04251994607228,-5.42046731016988,1.2925909,0.03940081,-0.09773844,101.12135,-108.395454,-7.5889864,SCH
6524441712000,1.058752,-2.43665209154476,7.98156047691255,-5.43856465615095,1.2748758,0.08552113,-0.07269296,100.66626,-108.80094,-7.6692605,SCH
6524446708000,1.063748,-2.42621645393664,7.92084406783719,-5.45658984365523,1.2635747,0.15241088,-0.054367006,100.21359,-109.19109,-7.73763,SCH
6524451705000,1.068745,-2.41577872752995,7.86011550575761,-5.47461863908334,1.2525792,0.22266038,-0.04520403,99.75349,-109.56736,-7.795415,SCH
6524456699000,1.073739,-2.40534726751895,7.79942340269068,-5.49263661073994,1.246776,0.27275133,-0.0580322,99.285164,-109.93542,-7.848451,SCH
6524461738000,1.078778,-2.39482181157272,7.73818441443393,-5.51081693896933,1.2492194,0.2919936,-0.061086524,98.81287,-110.29397,-7.8914394,SCH
6524466713000,1.083753,-2.38443003873437,7.67772321844716,-5.52876636007297,1.2699889,0.25686884,-0.07727446,98.3446,-110.65246,-7.940581,SCH
6524471712000,1.088752,-2.37398813473056,7.61697035035914,-5.54680237134876,1.2895365,0.183565,-0.09773844,97.885895,-111.00592,-7.9922357,SCH
6524476729000,1.093769,-2.36350863235266,7.55599872819519,-5.56490332525368,1.2895365,0.11301007,-0.11759156,97.43937,-111.35514,-8.049659,SCH
6524481758000,1.098798,-2.35300406439204,7.49488126998062,-5.58304757424467,1.289842,0.06505715,-0.14294247,97.008514,-111.70595,-8.116978,SCH
6524486714000,1.103754,-2.34265197872634,7.43465098107399,-5.60092844479535,1.260215,0.039095376,-0.14813483,96.59489,-112.0423,-8.18663,SCH
6524491712000,1.108752,-2.33221216352109,7.37391026599019,-5.6189608481473,1.2229522,0.011911872,-0.15760323,96.19539,-112.3734,-8.266502,SCH
6524496690000,1.11373,-2.32181412428705,7.31341261099077,-5.63692109302246,1.1960741,-0.0061086523,-0.16035213,95.804184,-112.69302,-8.345026,SCH
6524501706000,1.118746,-2.31133671070772,7.25245314183104,-5.65501843900354,1.178359,-0.042455133,-0.16126843,95.428024,-113.00019,-8.427579,SCH
6524506704000,1.123744,-2.30089689550247,7.19171242674724,-5.67305084235549,1.1569787,-0.0888809,-0.1518,95.0637,-113.292885,-8.508393,SCH
6524511777000,1.128817,-2.29030042040519,7.13006023634705,-5.69135383999544,1.1270463,-0.13164146,-0.12950343,94.712776,-113.57196,-8.586824,SCH
6524516712000,1.133752,-2.27999219950925,7.07008516052902,-5.70915894414548,1.1154399,-0.17012598,-0.102319926,94.37792,-113.843544,-8.663302,SCH
6524521654000,1.138694,-2.26966935702339,7.01002501368145,-5.7269893037624,1.1392636,-0.19028452,-0.096516706,94.05276,-114.11163,-8.739697,SCH
6524526720000,1.14376,-2.25908750351603,6.9484578943108,-5.74526704593547,1.1597277,-0.16157386,-0.08857546,93.73093,-114.367935,-8.80482,SCH
6524531720000,1.14876,-2.24864351071367,6.88769287321856,-5.7633066651351,1.1939361,-0.11881329,-0.09468412,93.41263,-114.63032,-8.870403,SCH
6524536667000,1.153707,-2.238310224235,6.8275719613499,-5.78115506437122,1.2318097,-0.03940081,-0.13133603,93.07714,-114.896774,-8.932409,SCH
6524541734000,1.158774,-2.22772628192908,6.76599268897503,-5.79943641446813,1.2571607,0.067500606,-0.1441642,92.72789,-115.16233,-8.979598,SCH
6524546652000,1.163692,-2.21745357060868,6.70622421422871,-5.81718018391289,1.2748758,0.16615535,-0.15027285,92.359474,-115.43423,-9.024228,SCH
6524551680000,1.16872,-2.20695109144661,6.64511890901836,-5.83532082498005,1.2858714,0.28588495,-0.16157386,91.95856,-115.70827,-9.05671,SCH
6524556665000,1.173705,-2.19653843062265,6.5845361829894,-5.85330632532208,1.2932017,0.36254853,-0.18325958,91.54486,-115.983185,-9.085123,SCH
6524561651000,1.178691,-2.18612368100013,6.52394130395622,-5.87129543358796,1.3271047,0.39584067,-0.22082779,91.11193,-116.266594,-9.110049,SCH
6524566677000,1.183717,-2.17562537943519,6.4628603047543,-5.88942885880743,1.3567317,0.38606682,-0.22724187,90.67575,-116.54567,-9.1270485,SCH
6524571656000,1.188696,-2.1652252514026,6.40235049675066,-5.90739271160643,1.3750577,0.3268129,-0.2434298,90.2426,-116.831276,-9.156592,SCH
6524577758000,1.194798,-2.12016803227377,6.39990640305937,-5.84390424494082,1.396438,0.25870144,-0.2666427,89.81704,-117.12244,-9.190087,SCH
6524582989000,1.200029,-2.07952097520046,6.40229737851279,-5.78412923444063,1.4040737,0.21746802,-0.28130344,89.403114,-117.41084,-9.227389,SCH
6524586666000,1.203706,-2.05094914785223,6.40397805462486,-5.74211189289805,1.4086553,0.1853976,-0.29565877,89.022156,-117.912506,-9.262446,SCH
6524591659000,1.208699,-2.01215145028637,6.40626024549446,-5.68505652539137,1.4132367,0.17592919,-0.30207285,88.64667,-118.408424,-9.29905,SCH
6524596672000,1.213712,-1.8827607585083,6.36146331791642,-5.79175553462307,1.4175128,0.18478674,-0.31215215,88.31025,-118.92519,-9.340576,SCH
6524601632000,1.218672,-1.72128979830034,6.29972445928814,-5.95797538985203,1.4165965,0.20189096,-0.32528573,87.97353,-119.43378,-9.382073,SCH
6524606656000,1.223696,-1.58283518009718,6.25479837781634,-6.07707364528957,1.4153748,0.24465153,-0.32436943,87.661026,-119.93335,-9.40789,SCH
6524611647000,1.228687,-1.45485607094407,6.21687870593019,-6.17661316138437,1.4181237,0.28252518,-0.31398472,87.34496,-120.42522,-9.430491,SCH
6524616670000,1.23371,-1.35902479558217,6.1542920272215,-6.22636251743987,1.416902,0.30451632,-0.30787608,87.023735,-120.95375,-9.417244,SCH
6524621663000,1.238703,-1.27722049253296,6.08211159726276,-6.25523458893026,1.4227052,0.33200526,-0.30940324,86.69196,-121.47511,-9.395972,SCH
6524626721000,1.243761,-1.16376352823973,6.10053333553284,-6.20735586454654,1.430341,0.34391713,-0.28893927,86.38473,-122.02982,-9.343083,SCH
6524631704000,1.248744,-1.04064861942846,6.15262071661044,-6.13159265737249,1.4327844,0.35185838,-0.27122417,86.0705,-122.574486,-9.287938,SCH
6524636667000,1.253707,-0.93940378121088,6.19062023556596,-6.1331589773618,1.4492778,0.355829,-0.24556783,85.79714,-123.15943,-9.221418,SCH
6524641673000,1.258713,-0.845923239450132,6.22333830365604,-6.16587738709174,1.484708,0.3726278,-0.2275473,85.518654,-123.737595,-9.150161,SCH
6524647288000,1.264328,-0.783409421781915,6.20770975497136,-6.27272529203151,1.5259414,0.39706242,-0.20158553,85.30379,-124.33696,-9.0633335,SCH
6524651675000,1.268715,-0.749028526117021,6.17762658457447,-6.38016546196809,1.5625933,0.4129449,-0.18234327,85.08631,-124.931015,-8.974362,SCH
6524656653000,1.273693,-0.740500428613569,6.17055026415929,-6.50905051954277,1.5882497,0.42394048,-0.17654006,84.914444,-125.5647,-8.878157,SCH
6524661684000,1.278724,-0.744941881489676,6.17499162428097,-6.64229433771202,1.616044,0.42210788,-0.17928895,84.740486,-126.19361,-8.7816515,SCH
6524666674000,1.283714,-0.769855881582348,6.21006775730047,-6.74187325842362,1.6169603,0.39950588,-0.18448131,84.60657,-126.87018,-8.691468,SCH
6524671668000,1.288708,-0.812638840751416,6.27186529329092,-6.81317810764338,1.6282613,0.3631594,-0.18997909,84.47178,-127.54088,-8.607485,SCH
6524676683000,1.293723,-0.838088716366484,6.38494985508027,-6.81552461800117,1.6371188,0.2843578,-0.20280726,84.39898,-128.26686,-8.5498705,SCH
6524681681000,1.298721,-0.847459281440877,6.54424960811472,-6.75461589609436,1.6358972,0.17715092,-0.21410827,84.334724,-128.97432,-8.507058,SCH
6524686671000,1.303711,-0.848271316930183,6.63324724582519,-6.71682175417481,1.629483,0.06841691,-0.20616703,84.343925,-129.71559,-8.505386,SCH
6524691665000,1.308705,-0.839774862995203,6.64599197108723,-6.70407702891277,1.6374242,0.021991149,-0.19975294,84.35302,-130.44011,-8.515269,SCH
6524696662000,1.313702,-0.822097837693419,6.64036285110378,-6.73187476934186,1.6249015,-0.05497787,-0.21380283,84.457535,-131.1598,-8.573809,SCH
6524701672000,1.318712,-0.772603492634619,6.57107058196823,-6.90015526346193,1.6206255,-0.08979719,-0.21471913,84.55682,-131.86038,-8.628417,SCH
6524706639000,1.323679,-0.719141840906717,6.48385525638776,-7.0563435886347,1.6215417,-0.080634214,-0.23671028,84.7113,-132.5871,-8.718576,SCH
6524711682000,1.328722,-0.653556785670114,6.34764025999164,-7.18751395196908,1.629483,-0.0070249503,-0.24312437,84.85113,-133.29031,-8.797716,SCH
6524717043000,1.334083,-0.630146186031292,6.23451414331694,-7.24582239459991,1.6093245,0.07971791,-0.25320363,85.00647,-134.03745,-8.879767,SCH
6524721662000,1.338702,-0.665740055493965,6.1751908623603,-7.19836401761287,1.6194037,0.14874569,-0.27885997,85.1346,-134.77206,-8.953583,SCH
6524726785000,1.343825,-0.715633664514145,6.11239375510455,-7.14309663763838,1.6010778,0.15302174,-0.2910773,85.28657,-135.54713,-9.024388,SCH
6524731679000,1.348719,-0.817628602133598,6.06804816025168,-7.07657796752768,1.5809193,0.1142318,-0.2864958,85.420845,-136.29977,-9.09115,SCH
6524736946000,1.353986,-0.921041959299484,6.02214279592723,-7.01589534311702,1.5519031,0.050701816,-0.29229903,85.58014,-137.05293,-9.177243,SCH
6524741686000,1.358726,-0.941584125739886,6.00160069383655,-7.08573885058376,1.5396858,-0.005497787,-0.27916542,85.73991,-137.77951,-9.263697,SCH
6524746611000,1.363651,-0.962928043402118,5.98025684303557,-7.15830831773011,1.5268577,-0.051923547,-0.26725355,85.91518,-138.48325,-9.370409,SCH
6524751676000,1.368716,-1.03797763368984,5.98378518807386,-7.40090439516699,1.5451837,-0.06780604,-0.26267207,86.085785,-139.16954,-9.478628,SCH
6524756665000,1.373705,-1.12475155080214,5.99342672882656,-7.68050912733327,1.5500705,-0.0067195175,-0.2519819,86.24411,-139.82576,-9.573668,SCH
6524761684000,1.378724,-1.13562062119165,6.05135221937695,-7.87720018378869,1.575116,0.08032878,-0.21960606,86.38919,-140.48181,-9.659102,SCH
6524766633000,1.383673,-1.13084235894747,6.11824779100716,-8.05399608639984,1.6053538,0.12767084,-0.20616703,86.51957,-141.12054,-9.738694,SCH
6524771666000,1.388706,-1.13424371407912,6.15005883231071,-7.92814580446235,1.6362026,0.11453723,-0.20647246,86.64768,-141.79318,-9.808931,SCH
6524776673000,1.393713,-1.1391968219812,6.17482468214028,-7.74488060520607,1.65911,0.051923547,-0.20189096,86.772545,-142.44942,-9.875252,SCH
6524782916000,1.399956,-1.1286449418524,6.1660455418524,-7.56355712778603,1.6783522,-0.01160644,-0.20769419,86.89986,-143.11597,-9.943948,SCH
6524787408000,1.404448,-1.11822835050066,6.15545524726998,-7.44187378027584,1.6927075,-0.04520403,-0.19914207,87.02992,-143.76456,-10.015146,SCH
6524791671000,1.408711,-1.06809259521066,6.10146273743624,-7.45730007358776,1.6960673,-0.06780604,-0.19700404,87.18146,-144.38107,-10.102669,SCH
6524796614000,1.413654,-1.00995958127716,6.038857770017,-7.47518704704326,1.6982054,-0.06352998,-0.19425514,87.33752,-144.968,-10.1900425,SCH
6524801673000,1.418713,-0.959997679513566,5.91773484339073,-7.49842820673445,1.7162259,-0.04520403,-0.1872302,87.489044,-145.541,-10.275624,SCH
6524806631000,1.423671,-0.913901189414951,5.78187148201931,-7.52268949864596,1.7208074,-0.019547688,-0.1853976,87.63089,-146.09271,-10.356299,SCH
6524811685000,1.428725,-0.866912149286189,5.64337744644627,-7.54742055336978,1.7217237,-0.00061086525,-0.17562376,87.79252,-146.66788,-10.42265,SCH
6524816654000,1.433694,-0.820713387829953,5.50721265365592,-7.5717356722702,1.7217237,-0.005497787,-0.17501289,87.94502,-147.22604,-10.488127,SCH
6524821665000,1.438705,-0.806591685721006,5.40570445670346,-7.64590449784693,1.7180585,-0.020158553,-0.16371189,88.10627,-147.77385,-10.548335,SCH
6524826713000,1.443753,-0.797844868069477,5.30948954930342,-7.72899949158676,1.706452,-0.050396383,-0.15577064,88.26349,-148.30191,-10.612471,SCH
6524831677000,1.448717,-0.824374192111648,5.2709208303194,-7.81916187741446,1.7095064,-0.06414085,-0.14049901,88.38765,-148.85646,-10.6605,SCH
6524836657000,1.453697,-0.86957607707042,5.26188041462421,-7.91408569942186,1.7223345,-0.06872234,-0.12095132,88.51175,-149.39262,-10.710514,SCH
6524841671000,1.458711,-0.912610978113288,5.24393705834753,-8.0516897598701,1.743104,-0.04184427,-0.10323623,88.6408,-149.95905,-10.748597,SCH
6524846676000,1.463716,-0.953438839293015,5.21841965843271,-8.22520781284071,1.7702875,-0.032070424,-0.09590584,88.76903,-150.51274,-10.7897005,SCH
6524851672000,1.468712,-0.954883771416972,5.20050272455857,-8.27311009004647,1.7843374,-0.0027488936,-0.08277224,88.897644,-151.07115,-10.814749,SCH
6524856714000,1.473754,-0.935989664961604,5.18633217677672,-8.25657790349719,1.7941113,-0.0021380284,-0.073303826,89.02392,-151.61813,-10.843577,SCH
6524861682000,1.478722,-0.917372861932991,5.1723696060944,-8.24028835514796,1.7996091,-0.0106901415,-0.063224554,89.151344,-152.1811,-10.864469,SCH
6524866672000,1.483712,-0.898673617345072,5.15834520438249,-8.22392667111763,1.8161024,-0.0076358155,-0.030848695,89.27954,-152.73012,-10.877969,SCH
6524871654000,1.488694,-0.827076817201908,5.08367069745628,-8.20418675993641,1.8228219,-0.03023783,-0.002443461,89.42579,-153.2747,-10.895776,SCH
6524876699000,1.493739,-0.71411743188441,4.96167445411952,-8.18159489797063,1.8307631,-0.048563786,0.01282817,89.57031,-153.80563,-10.909553,SCH
6524881683000,1.498723,-0.653351621512519,4.8490451482371,-8.17540207562596,1.8228219,-0.035124753,-0.019242255,89.70099,-154.32,-10.919955,SCH
6524886668000,1.503708,-0.65823055334696,4.74658757971385,-8.19003866734798,1.8194622,-0.044898596,-0.014660766,89.84504,-154.81822,-10.934502,SCH
6524891660000,1.5087,-0.698283444483258,4.57549872204423,-8.35236667899959,1.7754798,-0.067500606,-0.01282817,89.988235,-155.33118,-10.936041,SCH
6524896677000,1.513717,-0.777732513377429,4.32722021971889,-8.6800945820587,1.7626517,-0.09743301,-0.04062254,90.12119,-155.83688,-10.945863,SCH
6524901673000,1.518713,-0.830891953125282,4.13726114003907,-8.93488786214497,1.7363845,-0.12644911,-0.06963864,90.24976,-156.33554,-10.959508,SCH
6524906657000,1.523697,-0.861974479507088,3.99619429164955,-9.12855582106898,1.700038,-0.17654006,-0.09468412,90.3725,-156.81354,-10.989374,SCH
6524911679000,1.528719,-0.89329399144317,3.85405189345289,-9.32370038160597,1.6783522,-0.19730948,-0.12614368,90.45684,-157.34827,-11.024141,SCH
6524916672000,1.533712,-0.924432645982568,3.71273030958273,-9.51771806196463,1.6530013,-0.26633725,-0.14660765,90.54302,-157.85649,-11.085294,SCH
6524921654000,1.538694,-0.930870488263168,3.52370610148815,-9.71017676679068,1.6224581,-0.2751948,-0.13805555,90.61849,-158.3419,-11.134994,SCH
6524926713000,1.543753,-0.916640309781672,3.29127962346779,-9.90465603945565,1.6035212,-0.27763826,-0.13805555,90.687675,-158.81047,-11.202286,SCH
6524931700000,1.54874,-0.983068830320165,3.06959161104662,-10.0508502355364,1.5800029,-0.28069258,-0.14721853,90.73169,-159.3496,-11.260543,SCH
6524936674000,1.553714,-1.12576882059914,2.85554156043812,-10.1534155869687,1.5558738,-0.26267207,-0.1459968,90.77125,-159.86635,-11.311104,SCH
6524941662000,1.558702,-1.29706698767123,2.6628769369863,-10.2368186575342,1.5445728,-0.2415972,-0.18203785,90.77165,-160.43053,-11.352376,SCH
6524946681000,1.563721,-1.51822177263411,2.50706335996026,-10.2870816096413,1.5302174,-0.23640485,-0.18448131,90.776695,-160.96834,-11.38859,SCH
6524951674000,1.568714,-1.70251802323377,2.38316442989661,-10.2870114253303,1.5079209,-0.21838433,-0.17501289,90.75631,-161.54071,-11.435298,SCH
6524956655000,1.573695,-1.84408079932989,2.29640018776565,-10.2276461640819,1.486846,-0.19822577,-0.1908954,90.72322,-162.09415,-11.480988,SCH
6524961629000,1.578669,-1.96420643024629,2.20953481717891,-10.1827358261755,1.4810427,-0.20463985,-0.20616703,90.69458,-162.6709,-11.542595,SCH
6524966668000,1.583708,-2.04769700893548,2.12113303401181,-10.1630911108284,1.4639386,-0.20769419,-0.19639318,90.66224,-163.22133,-11.595263,SCH
6524971910000,1.58895,-2.06954870090341,2.06218126435024,-10.1343244826268,1.4410311,-0.18417588,-0.1957823,90.62817,-163.77545,-11.6641655,SCH
6524976734000,1.593774,-2.00992582327013,2.04842216084583,-10.097633492058,1.4159856,-0.1740966,-0.21227567,90.58916,-164.30872,-11.735479,SCH
6524982905000,1.599945,-1.94561454000815,1.95823684585167,-10.1044815296251,1.4031575,-0.15027285,-0.20738874,90.559654,-164.85013,-11.797759,SCH
6524986669000,1.603709,-1.91329846799511,1.861288660489,-10.1397353622249,1.3845261,-0.14110987,-0.19211712,90.52493,-165.36797,-11.859467,SCH
6524991918000,1.608958,-1.86823282984515,1.72609178881826,-10.1888977871231,1.3799446,-0.10170906,-0.20311269,90.49307,-165.88669,-11.906442,SCH
6524996686000,1.613726,-1.91923188030653,1.61561108200714,-10.2226568981734,1.3680327,-0.10048734,-0.2144137,90.46389,-166.38257,-11.958437,SCH
6525001894000,1.618934,-1.97022120301041,1.50258322846291,-10.2557846233705,1.3521502,-0.093767814,-0.22540927,90.42509,-166.86253,-11.997231,SCH
6525006685000,1.623725,-1.9357975108084,1.48967437477727,-10.2428757022883,1.3469579,-0.112704635,-0.20341812,90.36861,-167.35568,-12.0315075,SCH
6525011627000,1.628667,-1.90028887234831,1.47635866721842,-10.2295599252087,1.3338243,-0.098043874,-0.2125811,90.320816,-167.87819,-12.0717,SCH
6525016676000,1.633716,-1.86401143091063,1.46275465923286,-10.2159558461971,1.3054191,-0.08674286,-0.19853121,90.28397,-168.37724,-12.113556,SCH
6525021665000,1.638705,-1.82816509394636,1.44931231503798,-10.2025134318203,1.2760975,-0.09162979,-0.18906279,90.24004,-168.85886,-12.155203,SCH
6525026817000,1.643857,-1.73717923459407,1.42549431910662,-10.2693510545593,1.2565498,-0.100792766,-0.18173242,90.19609,-169.32085,-12.192848,SCH
6525031613000,1.648653,-1.63734143270297,1.40053479044669,-10.3542133060537,1.2562444,-0.10934488,-0.18020524,90.150566,-169.76682,-12.230151,SCH
6525036672000,1.653712,-1.53516170543061,1.41033056394222,-10.4226888979704,1.2263119,-0.102319926,-0.18417588,90.1258,-170.21268,-12.257504,SCH
6525042061000,1.659101,-1.42663942462973,1.42448572973121,-10.4934642342293,1.2110404,-0.093462385,-0.1695151,90.104195,-170.64833,-12.284655,SCH
6525046677000,1.663717,-1.43446928620093,1.38883176534011,-10.4333433393533,1.2021828,-0.09040806,-0.14263703,90.09348,-171.08397,-12.307058,SCH
6525051609000,1.668649,-1.47022465944631,1.33775268356224,-10.3362932919866,1.2082914,-0.09193522,-0.13561209,90.078224,-171.50716,-12.327849,SCH
6525056644000,1.673684,-1.42481286468843,1.23531338694362,-10.1654158437191,1.2089024,-0.12950343,-0.13622294,90.07985,-171.92433,-12.346573,SCH
6525061618000,1.678658,-1.36827280154303,1.12694483418398,-9.98637201523244,1.208597,-0.16890424,-0.12705997,90.08358,-172.3294,-12.365435,SCH
6525066679000,1.683719,-1.31483619813038,0.959309172905332,-9.81647331199921,1.205848,-0.20219639,-0.12675454,90.098656,-172.74315,-12.395934,SCH
6525071637000,1.688677,-1.26316936518944,0.785520752665941,-9.65207899960431,1.208597,-0.23609942,-0.10903945,90.119514,-173.14441,-12.4358425,SCH
6525076791000,1.693831,-1.25095058391706,0.579622898815125,-9.51635751751176,1.1863003,-0.27091873,-0.09101892,90.14453,-173.55281,-12.487449,SCH
6525081707000,1.698747,-1.24684886333856,0.378638461979439,-9.39330590015682,1.1997393,-0.2864958,-0.07727446,90.16983,-173.95906,-12.541134,SCH
6525086648000,1.703688,-1.26596148050976,0.187665503087084,-9.22201573874785,1.1863003,-0.29138273,-0.07544186,90.17305,-174.36618,-12.596381,SCH
6525091734000,1.708774,-1.30537296498432,0.00046106551815514,-9.00525244553454,1.1850786,-0.2761111,-0.06963864,90.17709,-174.76787,-12.647839,SCH
6525096750000,1.71379,-1.33914016111575,-0.216940892760134,-8.84584389448391,1.1713341,-0.2864958,-0.06047566,90.18318,-175.21,-12.715523,SCH
6525101684000,1.718724,-1.36875895486837,-0.453891833500209,-8.72736861638111,1.1691961,-0.31429017,-0.042760566,90.18872,-175.64201,-12.781536,SCH
6525106660000,1.7237,-1.41215805431766,-0.61754160961835,-8.70421747532768,1.1688906,-0.3481932,-0.024129177,90.17309,-176.08545,-12.857549,SCH
6525112137000,1.729177,-1.46776464812066,-0.754030481851388,-8.73454842145335,1.1597277,-0.36682457,0.004581489,90.16092,-176.5126,-12.934127,SCH
6525116645000,1.733685,-1.63335670829858,-0.837841798348624,-8.87538962760634,1.1588113,-0.35918877,0.025350908,90.147095,-176.98857,-13.019487,SCH
6525121639000,1.738679,-1.89263340095913,-0.912633133577982,-9.10474917806506,1.1688906,-0.27580565,0.035124753,90.13208,-177.45193,-13.085208,SCH
6525126638000,1.743678,-2.2025205019305,-0.820715547623998,-9.15315399435699,1.171945,-0.14294247,-0.0033597588,90.0986,-177.93268,-13.142925,SCH
6525131668000,1.748708,-2.54111718532819,-0.639494796262746,-9.10546435570735,1.1508701,-0.11759156,-0.036957346,90.06489,-178.39609,-13.204941,SCH
6525136638000,1.753678,-2.37935136542011,-0.62177521729966,-9.07659736493443,1.1154399,-0.183565,-0.04520403,90.01643,-178.85597,-13.274568,SCH
6525141684000,1.758724,-1.92872886119475,-0.696878959834871,-9.05782153958232,1.0931433,-0.37659842,-0.036957346,89.959854,-179.30223,-13.372044,SCH
6525146632000,1.763672,-1.52541305396567,-0.716680089722758,-9.22859759744084,1.0403035,-0.61941737,-0.015882496,89.95293,-179.69684,-13.544515,SCH
6525151641000,1.768681,-1.14543159584645,-0.697193874144409,-9.5403774536407,0.94989544,-0.72356987,0.0009162979,89.94215,179.93636,-13.727103,SCH
6525156575000,1.773615,-1.20892289919984,-0.598677825769154,-10.1172593118624,0.8512407,-0.6533204,-0.002443461,89.91953,179.56631,-13.873032,SCH
6525161603000,1.778643,-1.57013652132426,-0.44456000025205,-10.8878483388678,0.77640975,-0.5009095,0.004581489,89.89996,179.22617,-14.018533,SCH
6525166591000,1.783631,-1.94681955246797,-0.3773997964783,-11.6093771924719,0.75747293,-0.3371976,0.029626964,89.873856,178.9067,-14.086686,SCH
6525171580000,1.78862,-2.33591998159698,-0.367909548151753,-12.3021659148873,0.7623598,-0.2275473,0.03604105,89.84261,178.6089,-14.12436,SCH
6525176615000,1.793655,-2.64723180212007,-0.561761235745988,-12.7523323538736,0.7452556,-0.18325958,0.028710667,89.871284,178.34068,-14.160378,SCH
6525182586000,1.799626,-2.9474799937983,-0.963980513845849,-13.0752407685754,0.6759224,-0.172264,0.0290161,89.903404,178.09616,-14.174504,SCH
6525186590000,1.80363,-2.99376115707216,-1.28962519722855,-13.1874612818965,0.5888741,-0.16371189,0.02443461,89.95273,177.86877,-14.204943,SCH
6525191629000,1.808669,-2.96987840185094,-1.72906819255667,-13.2734394999505,0.5458081,-0.16615535,0.025350908,90.00281,177.65764,-14.234727,SCH
6525196594000,1.813634,-2.78507246054739,-2.16555517537622,-13.1398926293232,0.49938235,-0.19883664,0.013744468,90.018166,177.41597,-14.295919,SCH
6525201670000,1.81871,-2.45993806515885,-2.61475405989615,-12.8190360917891,0.45051312,-0.27091873,0.0009162979,90.03225,177.19614,-14.367349,SCH
6525206655000,1.823695,-2.19481068799253,-2.92065310152426,-12.5498800567192,0.41447207,-0.32498032,-0.009468411,89.99297,176.91261,-14.432837,SCH
6525211685000,1.828725,-2.06494186696392,-2.88568839486727,-12.3950364824762,0.3811799,-0.37323865,-0.0067195175,89.952866,176.65228,-14.51506,SCH
6525216611000,1.833651,-1.99490289820653,-2.83533149639419,-12.2497303001227,0.3359759,-0.38637227,0.00061086525,89.84717,176.31772,-14.570339,SCH
6525221655000,1.838695,-2.0313804358316,-2.75325694151406,-12.1129392959694,0.27763826,-0.35185838,0.0027488936,89.74111,176.00696,-14.623939,SCH
6525226720000,1.84376,-2.08556303399514,-2.6271222106564,-11.996040727107,0.23426682,-0.3390302,0.018325957,89.65189,175.71332,-14.684985,SCH
6525231770000,1.84881,-2.19334088903971,-2.36747552963938,-11.9421519786264,0.18875736,-0.34574974,0.022602014,89.56019,175.44487,-14.740097,SCH
6525236638000,1.853678,-2.27927251934547,-2.11293774622386,-11.8776551498838,0.12614368,-0.34238997,0.029626964,89.490654,175.21162,-14.797382,SCH
6525241683000,1.858723,-2.31669710895624,-1.8369322343629,-11.7747377360573,0.04734206,-0.3381139,0.037873644,89.42222,175.00299,-14.854718,SCH
6525246651000,1.863691,-2.35316149606047,-1.59196093421896,-11.6633397906551,-0.0070249503,-0.31887165,0.058948494,89.40479,174.84665,-14.924404,SCH
6525251676000,1.868716,-2.3884328526798,-1.45528420288594,-11.5090274040312,-0.044898596,-0.29077184,0.07574729,89.388245,174.71246,-14.988146,SCH
6525256955000,1.873995,-2.43374531784148,-1.31749783367205,-11.3405681267515,-0.06963864,-0.25350907,0.098043874,89.42578,174.6333,-15.053906,SCH
6525261728000,1.878768,-2.57553512212001,-1.26371548179484,-11.1107708190181,-0.083383106,-0.21074851,0.12339478,89.46922,174.56578,-15.108403,SCH
6525266661000,1.883701,-2.72970487471319,-1.22417596708413,-10.8769572533461,-0.064446285,-0.15668693,0.13500121,89.53401,174.52072,-15.156728,SCH
6525271663000,1.888703,-2.93120967958891,-1.27913183165392,-10.6617134464627,-0.040317107,-0.09682214,0.16554448,89.61226,174.4831,-15.190717,SCH
6525276763000,1.893803,-3.13108786750953,-1.33796284557033,-10.4472082509993,-0.00580322,-0.05589417,0.18600847,89.711266,174.43663,-15.244753,SCH
6525281692000,1.898732,-3.25395802716371,-1.43011539657897,-10.3023968244864,0.012217305,-0.025961773,0.19303341,89.815155,174.3915,-15.283711,SCH
6525286612000,1.903652,-3.37660383473087,-1.52209968364786,-10.1578498132379,0.03359759,0.015271631,0.18478674,89.91526,174.32571,-15.337953,SCH
6525291653000,1.908693,-3.50112636075148,-1.44908650183575,-10.0586356949007,0.048258353,0.07452556,0.19364429,90.02198,174.26123,-15.377389,SCH
6525297012000,1.914052,-3.62203764075976,-1.350885711348,-9.94840725109022,0.0421497,0.15699236,0.20250183,90.12639,174.1987,-15.396851,SCH
6525301672000,1.918712,-3.63933694805698,-1.2730387833511,-9.76676434383177,0.062002823,0.24312437,0.20922135,90.218346,174.1107,-15.414701,SCH
6525306999000,1.924039,-3.65752163644956,-1.18424984152455,-9.55965827861105,0.058948494,0.30207285,0.20861048,90.33987,174.03456,-15.434579,SCH
6525311702000,1.928742,-3.63901344232587,-1.11021696839943,-9.38845728970619,0.043676864,0.3277292,0.19486602,90.459,173.95905,-15.438995,SCH
6525316891000,1.933931,-3.61641778481013,-1.03133720056259,-9.20467161744022,0.02076942,0.3371976,0.17440203,90.58399,173.8996,-15.439111,SCH
6525321659000,1.938699,-3.56932121097046,-0.992803690951711,-9.09763415283638,0.009162978,0.31948254,0.15393804,90.70273,173.84282,-15.4395685,SCH
6525326740000,1.94378,-3.51913293670886,-0.951740611603376,-8.98357010970464,-0.004886922,0.2678644,0.13194689,90.82877,173.79675,-15.452446,SCH
6525332461000,1.949501,-3.36067804260144,-0.886499861680057,-8.90159681877352,-0.022907447,0.2556471,0.109650314,90.9472,173.75552,-15.458592,SCH
6525336626000,1.953666,-3.23898358755212,-0.837822075424591,-8.84480617756534,-0.02321288,0.22724187,0.09193522,91.05605,173.71391,-15.483092,SCH
6525341661000,1.958701,-3.05556564318588,-0.789126214302718,-8.82617594207499,-0.023518313,0.19272798,0.087659165,91.16032,173.68513,-15.510094,SCH
6525346616000,1.963656,-2.87200387895259,-0.742059071325134,-8.81205551904384,-0.0076358155,0.19853121,0.07727446,91.25611,173.6516,-15.532298,SCH
6525351674000,1.968714,-2.66869883531496,-0.720187171181102,-8.76759467795276,0.015577064,0.19150625,0.07422013,91.35582,173.62527,-15.554776,SCH
6525356634000,1.973674,-2.46766124791339,-0.701486018425197,-8.72084179606299,0.020463986,0.16798794,0.06414085,91.4483,173.59972,-15.579234,SCH
6525361675000,1.978715,-2.30484176646972,-0.661676722097489,-8.74816550664697,0.040317107,0.1731803,0.06536258,91.548386,173.57266,-15.578965,SCH
6525366754000,1.983794,-2.14677783485967,-0.618568360744461,-8.78648432348597,0.052534413,0.160963,0.063224554,91.6416,173.54683,-15.589719,SCH
6525371671000,1.988711,-1.96030258367584,-0.537934139967041,-8.83491897906165,0.070554934,0.16187929,0.064446285,91.74504,173.51172,-15.573439,SCH
6525376651000,1.993691,-1.76612989271035,-0.450094132871268,-8.88577329468786,0.082161374,0.15607607,0.06811147,91.84642,173.47697,-15.563011,SCH
6525382942000,1.999982,-1.57216167686068,-0.370290890744271,-8.92718578908944,0.1001819,0.18051068,0.05681047,91.94989,173.44374,-15.526607,SCH
6525386632000,2.003672,-1.46466294455486,-0.327291397821943,-8.94868559541675,0.1255328,0.17867808,0.04795292,92.05267,173.40778,-15.500412,SCH
6525391655000,2.008695,-1.37866374158642,-0.269748781048347,-8.96974252169165,0.1423316,0.19120082,0.040011674,92.16788,173.38477,-15.444126,SCH
6525396647000,2.013687,-1.30747236027003,-0.212795636348655,-8.98872679092624,0.16584991,0.1881465,0.02687807,92.27709,173.35393,-15.393961,SCH
6525402299000,2.019339,-1.27525662324657,-0.236337629139678,-9.01903958811842,0.1908954,0.1572978,0.015271631,92.39128,173.32947,-15.334174,SCH
6525406644000,2.023684,-1.25872123495927,-0.269408345283131,-9.04384269213193,0.204029,0.13775012,0.01038471,92.502785,173.3035,-15.273969,SCH
6525411652000,2.028692,-1.26192051687929,-0.288765633002944,-9.13102913935231,0.20586158,0.1001819,0.0033597588,92.62193,173.2805,-15.221529,SCH
6525416712000,2.033752,-1.27143152924436,-0.303032161481845,-9.23565047399411,0.2134974,0.076358154,0.0009162979,92.73965,173.2546,-15.172522,SCH
6525421695000,2.038735,-1.28792917556869,-0.310011279615953,-9.34250179379616,0.2180789,0.03268129,-0.0012217305,92.84521,173.22632,-15.137029,SCH
6525426765000,2.043805,-1.30705453361891,-0.314792606646972,-9.45247261506647,0.22571471,-0.005192355,0.0036651916,92.950424,173.19772,-15.108087,SCH
6525431703000,2.048743,-1.37471183073215,-0.368275685613137,-9.58203824344682,0.24831672,-0.06169739,0.013439035,93.05297,173.16583,-15.095818,SCH
6525436708000,2.053748,-1.46136181687255,-0.440484062689565,-9.72164089836296,0.26267207,-0.05467244,0.008552114,93.15254,173.13556,-15.0764065,SCH
6525441698000,2.058738,-1.51020167392105,-0.530627547928591,-9.78778715294009,0.27183503,-0.024129177,0.013439035,93.25682,173.10565,-15.06591,SCH
6525446707000,2.063747,-1.54551611493512,-0.627742212318947,-9.82751575503819,0.25686884,-0.009773844,0.02076942,93.35898,173.08052,-15.0579815,SCH
6525451701000,2.068741,-1.578229415988,-0.71340130794042,-9.86216697588941,0.25411993,0.0009162979,0.029626964,93.466034,173.03448,-15.042792,SCH
6525456716000,2.073756,-1.60910874646378,-0.790599666373768,-9.89304641384484,0.24648413,0.009468411,0.028710667,93.571526,172.9963,-15.024453,SCH
6525461689000,2.078729,-1.63298562411489,-0.843039198132254,-9.92175847703111,0.22968534,-0.01740966,0.036957346,93.66692,172.94798,-15.022031,SCH
6525466730000,2.08377,-1.65417407351019,-0.885416082173023,-9.95000980844631,0.21319197,-0.038789943,0.04428773,93.760994,172.90419,-15.015882,SCH
6525472085000,2.089125,-1.67668233506779,-0.930432589619624,-9.98002089349459,0.2012801,-0.025045475,0.03390302,93.84132,172.85384,-15.009201,SCH
6525476722000,2.093762,-1.69617268219058,-0.969413270297474,-10.0060080832927,0.204029,-0.029321533,0.03848451,93.92546,172.80807,-15.014302,SCH
6525481677000,2.098717,-1.70206015016735,-0.996856899330606,-10.0068941188639,0.20097467,-0.028405234,0.03481932,94.008194,172.76553,-15.016495,SCH
6525486675000,2.103715,-1.69761009007066,-1.01465713971737,-9.98909373907587,0.19883664,-0.061086524,0.030848695,94.08954,172.72456,-15.029335,SCH
6525491660000,2.1087,-1.69023014126184,-1.0573809817174,-9.96721835365854,0.19028452,-0.06780604,0.024740042,94.15728,172.67447,-15.036889,SCH
6525496684000,2.113724,-1.67891530538198,-1.13335195993415,-9.93973952439024,0.18112154,-0.0720821,-0.00030543262,94.21599,172.62572,-15.051578,SCH
6525501672000,2.118712,-1.66768154714775,-1.20877856012229,-9.91245759756098,0.1740966,-0.081855945,-0.016798794,94.27462,172.57405,-15.065553,SCH
6525506668000,2.123708,-1.65642977165894,-1.28432613320567,-9.88513191463415,0.15210545,-0.09682214,-0.04062254,94.32237,172.5288,-15.080499,SCH
6525511648000,2.128688,-1.6452140306793,-1.35963176049856,-9.85789374390244,0.115453534,-0.12797627,-0.06078109,94.36441,172.49055,-15.101773,SCH
6525516679000,2.133719,-1.63388342970167,-1.43570858999866,-9.83037662804878,0.08307768,-0.183565,-0.08307768,94.39646,172.45699,-15.132574,SCH
6525521685000,2.138725,-1.61371709430517,-1.48438820379655,-9.8233969030228,0.050396383,-0.18784106,-0.09590584,94.41864,172.43845,-15.154897,SCH
6525526746000,2.143786,-1.58371512290313,-1.50438951806458,-9.83839767987207,0.028710667,-0.20005837,-0.1282817,94.4256,172.42342,-15.192278,SCH
6525531770000,2.14881,-1.54384973973174,-1.4997621338301,-9.8824022290611,0.019242255,-0.22418754,-0.13836098,94.39847,172.37431,-15.232005,SCH
6525536677000,2.153717,-1.49715981755589,-1.47641719711873,-9.94776819811227,0.0033597588,-0.25717425,-0.14385876,94.36225,172.33183,-15.275358,SCH
6525541621000,2.158661,-1.49074492761017,-1.44251328553666,-10.0222349887091,0.0030543262,-0.29779682,-0.1432479,94.32113,172.28523,-15.322765,SCH
6525546652000,2.163692,-1.52157937374291,-1.39846420819163,-10.1059283736515,0.0143553335,-0.34574974,-0.14294247,94.27672,172.24008,-15.379819,SCH
6525551671000,2.168711,-1.56812562862338,-1.35197696263772,-10.1399842239812,0.022907447,-0.32620203,-0.12492194,94.24447,172.20369,-15.421255,SCH
6525556662000,2.173702,-1.64481480735908,-1.3008507900952,-10.0786326674511,0.028099801,-0.29718593,-0.118202426,94.20748,172.16489,-15.471096,SCH
6525561637000,2.178677,-1.74579228446077,-1.27586792893313,-10.024543485891,0.016798794,-0.28924468,-0.09682214,94.20597,172.1315,-15.522036,SCH
6525566677000,2.183717,-1.8763952052184,-1.28053226677619,-9.97789962040974,0.013133603,-0.27366763,-0.089186326,94.20373,172.09515,-15.560775,SCH
6525571644000,2.188684,-2.01087008816449,-1.30045247432297,-9.9140744558676,0.004276057,-0.26847526,-0.07788532,94.2151,172.07278,-15.609591,SCH
6525576698000,2.193738,-2.15651055223671,-1.34414468451354,-9.82183566088265,-0.003970624,-0.25259277,-0.0729984,94.227615,172.05219,-15.649402,SCH
6525582816000,2.199856,-2.32149700666383,-1.38506875219574,-9.72678207889362,-0.008552114,-0.25809056,-0.048258353,94.250336,172.03154,-15.712955,SCH
6525586676000,2.203716,-2.41902554062128,-1.40394526913191,-9.67644472229787,-0.0125227375,-0.26542094,-0.044593163,94.26839,172.01248,-15.769864,SCH
6525591773000,2.208813,-2.54993716436806,-1.42613872813834,-9.60866948398805,-0.015271631,-0.2843578,-0.03573562,94.28892,171.98508,-15.855328,SCH
6525596680000,2.21372,-2.70042843252562,-1.41610588264304,-9.52840745335184,-0.017715093,-0.301462,-0.028405234,94.30912,171.95973,-15.939564,SCH
6525601668000,2.218708,-2.83968222308115,-1.40859741766536,-9.44574698371604,-0.02321288,-0.31887165,-0.028710667,94.32034,171.92975,-16.043777,SCH
6525606645000,2.223685,-2.91816979992681,-1.41295792713384,-9.35853861558869,-0.023518313,-0.32406402,-0.029626964,94.33253,171.90038,-16.146023,SCH
6525612033000,2.229073,-3.00050584534453,-1.41959150223506,-9.26849566157872,-0.0143553335,-0.3100141,-0.023518313,94.34439,171.8708,-16.261316,SCH
6525616709000,2.233749,-3.03956487303751,-1.44888568378761,-9.24408380113389,-0.0015271631,-0.29016098,-0.013133603,94.35648,171.84125,-16.37242,SCH
6525621725000,2.238765,-3.07665342849334,-1.47316258680183,-9.22746177002584,-0.00030543262,-0.26511553,-0.0067195175,94.36689,171.80795,-16.481232,SCH
6525626707000,2.243747,-3.09087876649771,-1.46367906114093,-9.25591195090439,0.0009162979,-0.24556783,-0.0027488936,94.379425,171.77274,-16.582537,SCH
6525631691000,2.248731,-3.10398633033791,-1.46704985448822,-9.28799780945354,0.009773844,-0.21533,0.018936822,94.394196,171.73227,-16.676008,SCH
6525636712000,2.253752,-3.11108166939649,-1.54036840748611,-9.34003064163101,0.01038471,-0.18081611,0.026267206,94.40624,171.69395,-16.759033,SCH
6525641660000,2.2587,-3.11807384977129,-1.61262098670011,-9.39130697176725,0.02076942,-0.14996742,0.040927973,94.42986,171.65741,-16.840332,SCH
6525646718000,2.263758,-3.12522147473808,-1.68647982778024,-9.44372323648615,0.041233405,-0.11728613,0.04917465,94.45466,171.61914,-16.908678,SCH
6525651660000,2.2687,-3.1361368684434,-1.75481609012264,-9.49815095396226,0.028405234,-0.09865474,0.058337633,94.484055,171.58966,-16.970602,SCH
6525657276000,2.274316,-3.19702358014151,-1.7852595254434,-9.59962889509434,0.04062254,-0.10476339,0.064751714,94.51465,171.54956,-17.02857,SCH
6525662058000,2.279098,-3.24739999405111,-1.80893825518433,-9.68021116788856,0.040927973,-0.041233405,0.07574729,94.52842,171.49844,-17.067003,SCH
6525666709000,2.283749,-3.26606011001257,-1.78561306152074,-9.63822600439883,0.050701816,0.006414085,0.09468412,94.54493,171.44437,-17.110304,SCH
6525671793000,2.288833,-3.28122902000376,-1.76140928324568,-9.58547579573629,0.056505036,0.047036625,0.10170906,94.560844,171.39053,-17.139065,SCH
6525676682000,2.293722,-3.23725745134298,-1.75261496033058,-9.45795797572314,0.06566802,0.06627888,0.11301007,94.584366,171.337,-17.160479,SCH
6525681656000,2.298696,-3.19252139437453,-1.74366773959429,-9.32822313490796,0.07880162,0.0571159,0.111177474,94.616745,171.28053,-17.18848,SCH
6525686670000,2.30371,-3.26348981860319,-1.66391491611787,-9.38334503948196,0.11575896,0.058948494,0.122783914,94.65716,171.21925,-17.208334,SCH
6525692030000,2.30907,-3.34272781023927,-1.57384144200329,-9.45062052378185,0.16157386,0.099265605,0.15424347,94.70363,171.15562,-17.219967,SCH
6525696678000,2.313718,-3.34703982868352,-1.50916112031386,-9.43337208979948,0.18845193,0.15882497,0.17898351,94.75434,171.08507,-17.229725,SCH
6525701995000,2.319035,-3.35135919451695,-1.43599769633837,-9.41295439085532,0.22143865,0.21655174,0.19517145,94.826004,171.02254,-17.23772,SCH
6525706654000,2.323694,-3.32622434662473,-1.4108629359309,-9.36268478255563,0.23762658,0.28221974,0.20219639,94.90442,170.96117,-17.227108,SCH
6525711622000,2.328662,-3.29942247404939,-1.38406115664257,-9.30908113069196,0.2574797,0.3472769,0.21288654,94.97487,170.91925,-17.170647,SCH
6525716679000,2.333719,-3.2451863590249,-1.4323981503112,-9.3113880280083,0.2611449,0.38698313,0.22571471,95.0489,170.87999,-17.105213,SCH
6525721642000,2.338682,-3.18602086063278,-1.49649421415975,-9.32617972437759,0.2782491,0.40408736,0.23090707,95.12474,170.8339,-17.030474,SCH
6525727413000,2.344453,-3.05789751782459,-1.59982717459996,-9.35314380757545,0.2706133,0.38789943,0.25289822,95.213455,170.8009,-16.961994,SIT
6525731613000,2.348653,-2.96013143720883,-1.67722533947742,-9.37351172331375,0.2666427,0.321926,0.25411993,95.2946,170.76292,-16.904758,SIT
6525736673000,2.353713,-2.86715912637687,-1.67683408025177,-9.40174584992132,0.25595254,0.2602286,0.2501493,95.36696,170.72409,-16.848455,SIT
6525741642000,2.358682,-2.77823733689024,-1.66747390731707,-9.42982646646341,0.23854288,0.1777618,0.23915374,95.43206,170.68962,-16.818283,SIT
6525746681000,2.363721,-2.81000504477316,-1.58174848716371,-9.59392488980443,0.21013765,0.16218472,0.23671028,95.48515,170.64824,-16.775766,SIT
6525751611000,2.368651,-2.85687665392634,-1.48800546462821,-9.77203625086866,0.19120082,0.20555615,0.25411993,95.5388,170.61159,-16.741161,SIT
6525756724000,2.373764,-2.83975345049949,-1.41950074374008,-9.83264098058071,0.16401732,0.26145032,0.27122417,95.59431,170.58847,-16.699005,SIT
6525761660000,2.3787,-2.8132734303333,-1.35771424507516,-9.87236124124732,0.15485434,0.28527406,0.2666427,95.64827,170.56651,-16.654745,SIT
6525766709000,2.383749,-2.77808271118785,-1.32679218737174,-9.88675491160221,0.13958271,0.28588495,0.26725355,95.73592,170.57498,-16.608805,SIT
6525771691000,2.388731,-2.74042560359116,-1.30796360899763,-9.89146166298343,0.1282817,0.2947425,0.2648101,95.82181,170.58484,-16.555141,SIT
6525776732000,2.393772,-2.70366267756939,-1.29901545452363,-9.89798657194299,0.11911872,0.29352075,0.26847526,95.9198,170.61194,-16.50196,SIT
6525783077000,2.400117,-2.65807768432108,-1.29293739195799,-9.90710376099025,0.118202426,0.30390546,0.25411993,96.01157,170.63823,-16.443768,SIT
6525786696000,2.403736,-2.63207735483871,-1.28947064516129,-9.91230393548387,0.10445796,0.30787608,0.24037547,96.11318,170.67096,-16.390978,SIT
6525791709000,2.408749,-2.5960619771943,-1.28466854466617,-9.91950716144036,0.09254608,0.31306845,0.22052236,96.208115,170.70184,-16.335596,SIT
6525796671000,2.413711,-2.53282017644754,-1.26344787660429,-9.86865417644754,0.080634214,0.28771752,0.20250183,96.29706,170.73549,-16.28883,SIT
6525801698000,2.418738,-2.45735410580974,-1.23514818630352,-9.79318810580974,0.060170226,0.24495697,0.18661933,96.37913,170.77313,-16.246374,SIT
6525806693000,2.423733,-2.35353769168477,-1.14685999168477,-9.75570766719336,0.040011674,0.19975294,0.15821409,96.46126,170.80711,-16.202868,SIT
6525811715000,2.428755,-2.2347969999605,-1.0281192999605,-9.73670927157812,0.01038471,0.13225232,0.129198,96.53437,170.8478,-16.178255,SIT
6525816695000,2.433735,-2.09755093586661,-0.917743265025204,-9.75392031795269,-0.026267206,0.065973446,0.10781772,96.60708,170.89134,-16.154367,SIT
6525821705000,2.438745,-1.94871862886778,-0.810770051958123,-9.79112816401706,-0.03940081,0.01282817,0.09040806,96.66912,170.9341,-16.14528,SIT
6525826789000,2.443829,-1.8119318,-0.76039842,-9.8267614,-0.05467244,-0.041233405,0.08155051,96.745674,171.0021,-16.138557,SIT
6525831715000,2.448755,-1.6890300743487,-0.750944448697395,-9.85985049699399,-0.06719518,-0.07422013,0.0693332,96.81417,171.07019,-16.139906,SIT
6525836692000,2.453732,-1.62245154913043,-0.802659572699275,-9.83320167817029,-0.08093964,-0.101098195,0.07391469,96.90176,171.162,-16.138048,SIT
6525841699000,2.458739,-1.5963912026087,-0.898214267318841,-9.76370733007246,-0.089491755,-0.12797627,0.06719518,96.98068,171.2523,-16.14411,SIT
6525846708000,2.463748,-1.60431030406596,-0.937256908961491,-9.71117546743138,-0.095294975,-0.13713925,0.065973446,97.06796,171.34386,-16.129951,SIT
6525851695000,2.468735,-1.66789838471938,-0.883451602089308,-9.68671853297829,-0.08674286,-0.13194689,0.06505715,97.15262,171.43175,-16.118935,SIT
6525856698000,2.473738,-1.75248892664686,-0.814913556633542,-9.66425899416043,-0.0870483,-0.105374254,0.06719518,97.22001,171.50232,-16.103539,SIT
6525861708000,2.478748,-1.86554452197521,-0.726435293648192,-9.64459727200082,-0.07452556,-0.08460484,0.06811147,97.286606,171.56577,-16.088108,SIT
6525866652000,2.483692,-1.97794750607735,-0.643254545053407,-9.62203505046041,-0.057726767,-0.070249505,0.06688975,97.365036,171.63058,-16.065945,SIT
6525871661000,2.488701,-2.09279335994475,-0.56374586705709,-9.59553209014733,-0.055588737,-0.06047566,0.06994407,97.4454,171.69548,-16.039885,SIT
6525876671000,2.493711,-2.19422439298128,-0.495397210087374,-9.57951228410946,-0.035124753,-0.06688975,0.0580322,97.535194,171.75879,-16.018192,SIT
6525881687000,2.498727,-2.26340902384061,-0.453886383410466,-9.5887371006241,-0.028405234,-0.07971791,0.044593163,97.62495,171.82452,-15.996135,SIT
6525886650000,2.50369,-2.32449375205057,-0.42433948358053,-9.59892093927932,-0.011301007,-0.08582657,0.03970624,97.724144,171.8944,-15.987452,SIT
6525891659000,2.508699,-2.35791927873781,-0.438664660155286,-9.61324590145331,-0.00030543262,-0.076358154,0.03268129,97.818085,171.9618,-15.977232,SIT
6525896646000,2.513686,-2.38143271904762,-0.464703157142857,-9.62286685714286,0.027183503,-0.07849618,0.036651913,97.91825,172.02698,-15.978968,SIT
6525901686000,2.518726,-2.36509861143341,-0.539373070645395,-9.61353317186367,0.032375857,-0.070249505,0.0290161,98.01289,172.09277,-15.974048,SIT
6525906682000,2.523722,-2.34890710317138,-0.613391103950689,-9.60428097113851,0.027488936,-0.054061573,0.03268129,98.10391,172.15416,-15.965935,SIT
6525911703000,2.528743,-2.33263457255016,-0.68777952373169,-9.59498247237129,0.02565634,-0.036957346,0.03940081,98.19308,172.21211,-15.95497,SIT
6525916706000,2.533746,-2.31622748686779,-0.760986457763975,-9.58298495829636,0.018936822,-0.00580322,0.04520403,98.286415,172.26996,-15.934915,SIT
6525921671000,2.538711,-2.29747615575274,-0.821928491925466,-9.53610650813369,0.013744468,0.010079277,0.049480084,98.38036,172.32758,-15.914796,SIT
6525926843000,2.543883,-2.27826477125175,-0.886819169974047,-9.48587827290877,0.02565634,0.028099801,0.05131268,98.45241,172.35374,-15.88102,SIT
6525931696000,2.548736,-2.26434696019165,-0.96568686286684,-9.42092858484727,0.013439035,0.035124753,0.058948494,98.526886,172.38864,-15.847142,SIT
6525936872000,2.553912,-2.24991926333063,-1.04922986498061,-9.35244375899378,0.024129177,0.042455133,0.06658431,98.59115,172.40211,-15.809028,SIT
6525941659000,2.558699,-2.24165235473808,-1.11949863117843,-9.29870816256424,0.032986723,0.04795292,0.07819075,98.65838,172.42049,-15.771009,SIT
6525946634000,2.563674,-2.23306077958705,-1.19252706481832,-9.24286220638355,0.036957346,0.045814894,0.09590584,98.7091,172.42577,-15.732528,SIT
6525951674000,2.568714,-2.21177054157868,-1.25770393288084,-9.22419106254399,0.04062254,0.030543262,0.112704635,98.76211,172.42998,-15.697911,SIT
6525956625000,2.573665,-2.18793206153846,-1.31968403076923,-9.21465596923077,0.0290161,0.02321288,0.12705997,98.81922,172.43896,-15.66343,SIT
6525961653000,2.578693,-2.16317758567246,-1.33795433810918,-9.22983334527295,0.027794369,0.028405234,0.13500121,98.86441,172.42963,-15.632469,SIT
6525966645000,2.583685,-2.13847943571552,-1.34618705476149,-9.25041513690374,0.029321533,0.032375857,0.14355333,98.913055,172.42458,-15.605351,SIT
6525971699000,2.588739,-2.12130388611544,-1.35507711388456,-9.27501411515211,0.013439035,0.029932396,0.14782938,98.952484,172.41461,-15.577794,SIT
6525976664000,2.593704,-2.11203149687988,-1.36434950312012,-9.30283162173362,-0.009162978,0.044593163,0.15851954,98.996605,172.40807,-15.54577,SIT
6525981922000,2.598962,-2.10177267919377,-1.34642120285806,-9.33104580201557,-0.0061086523,0.064751714,0.18020524,99.047295,172.39862,-15.513788,SIT
6525986704000,2.603744,-2.0920048946998,-1.30246607064093,-9.35546526325051,-0.010079277,0.076052725,0.18020524,99.094406,172.3971,-15.480678,SIT
6525991725000,2.608765,-2.07927770371486,-1.25507123830321,-9.37458376681727,-0.03848451,0.086437434,0.17806722,99.14682,172.40271,-15.442173,SIT
6525996662000,2.613702,-2.06503644144578,-1.20760074409639,-9.38882497951807,-0.030848695,0.10934488,0.183565,99.20186,172.40067,-15.398409,SIT
6526001674000,2.618714,-2.06178373668382,-1.15982070423427,-9.42116616956866,-0.020463986,0.13805555,0.17287487,99.25762,172.41469,-15.351424,SIT
6526006720000,2.62376,-2.06656455710328,-1.11201245011872,-9.46658391363277,-0.0021380284,0.160963,0.16432275,99.31571,172.42516,-15.301231,SIT
6526011678000,2.628718,-2.07126200213692,-1.06503795073209,-9.51120959240206,0.0030543262,0.16829337,0.15882497,99.37968,172.44493,-15.246373,SIT
6526016807000,2.633847,-2.07612146070439,-1.01644331431539,-9.55737439805105,0.022296581,0.17837265,0.15057829,99.440704,172.45512,-15.185633,SIT
6526021711000,2.638751,-2.06852875398717,-0.98153051840055,-9.60090261503208,0.04062254,0.1704314,0.14263703,99.50238,172.46135,-15.127813,SIT
6526026752000,2.643792,-2.05082879109074,-0.954980550953254,-9.64515252227314,0.05100725,0.17715092,0.1386664,99.5631,172.46461,-15.064784,SIT
6526031802000,2.648842,-2.0338815426102,-0.942512565330596,-9.69848069878998,0.06505715,0.18051068,0.12186762,99.63378,172.47993,-15.003663,SIT
6526036715000,2.653755,-2.01863170950735,-0.95267914727204,-9.764563096586,0.06780604,0.18997909,0.11453723,99.70579,172.49615,-14.940953,SIT
6526041699000,2.658739,-2.00139330273267,-0.986889017217822,-9.77029893584158,0.07513642,0.19792034,0.102319926,99.77679,172.51234,-14.875197,SIT
6526046707000,2.663747,-1.982399,-1.043871975,-9.718065,0.07391469,0.19211712,0.09101892,99.84493,172.5299,-14.812457,SIT
6526052342000,2.669382,-1.9407149245198,-1.10762851593493,-9.66545919208154,0.08032878,0.19547687,0.08582657,99.91583,172.53987,-14.741764,SIT
6526056694000,2.673734,-1.89578538661309,-1.15664255341043,-9.62869835476284,0.096516706,0.20189096,0.08002335,99.982346,172.54697,-14.6735525,SIT
6526061644000,2.678684,-1.8613052117338,-1.21426983730298,-9.58907818388792,0.09101892,0.20311269,0.083383106,100.03936,172.54779,-14.608088,SIT
6526066718000,2.683758,-1.8471217081728,-1.27573173543491,-9.55125570519556,0.08827003,0.1957823,0.07452556,100.090385,172.54283,-14.544625,SIT
6526071657000,2.688697,-1.82004565192965,-1.32324333712563,-9.5177022238191,0.092240654,0.19456059,0.06811147,100.13824,172.52435,-14.47488,SIT
6526076725000,2.693765,-1.77126648300503,-1.3525108079196,-9.48843465115578,0.09712757,0.17379116,0.06780604,100.18367,172.50723,-14.414831,SIT
6526081604000,2.698644,-1.73011373481056,-1.37132124726481,-9.46778638223365,0.08552113,0.15027285,0.06994407,100.21696,172.48264,-14.357927,SIT
6526086702000,2.703742,-1.69630646556534,-1.37615080672668,-9.45812746503116,0.087659165,0.12034045,0.064446285,100.2464,172.45357,-14.310322,SIT
6526091631000,2.708671,-1.65852711409278,-1.35990462550401,-9.46798162458407,0.08307768,0.09560041,0.057421334,100.26654,172.4261,-14.258829,SIT
6526096707000,2.713747,-1.61095235625367,-1.30757244652574,-9.51079876257585,0.082161374,0.06872234,0.053145275,100.284294,172.39793,-14.217987,SIT
6526101610000,2.71865,-1.58166337673972,-1.26775419304114,-9.54893184381007,0.077579886,0.04520403,0.036957346,100.29502,172.37093,-14.180672,SIT
6526106719000,2.723759,-1.5863661709727,-1.24894301610919,-9.58185110880431,0.07849618,0.040317107,0.024129177,100.30487,172.34355,-14.146832,SIT
6526111640000,2.72868,-1.59149321552783,-1.23308367929623,-9.60960476050297,0.05955936,0.0290161,0.015882496,100.32014,172.3337,-14.115422,SIT
6526116708000,2.733748,-1.59858969994151,-1.22362170007798,-9.62616332293596,0.044898596,0.03359759,0.0036651916,100.33074,172.32187,-14.081292,SIT
6526122324000,2.739364,-1.60645352323813,-1.21313660234916,-9.64451235344576,0.03573562,0.022602014,-0.008857546,100.35365,172.30827,-14.048496,SIT
6526126683000,2.743723,-1.61255722796569,-1.20499832937908,-9.65875441612243,0.032986723,0.014049901,-0.015882496,100.374626,172.29718,-14.01458,SIT
6526131684000,2.748724,-1.62651640546156,-1.18906479453844,-9.67403613921045,0.0143553335,-0.029626964,-0.02107485,100.3904,172.29283,-13.99432,SIT
6526136692000,2.753732,-1.67871461058672,-1.13686658941328,-9.68352691115069,0.022602014,-0.06780604,-0.01863139,100.406044,172.2823,-13.975787,SIT
6526141678000,2.758718,-1.72723481964109,-1.08664157350528,-9.68945587672468,0.023823744,-0.07819075,-0.03970624,100.41806,172.27898,-13.957654,SIT
6526146699000,2.763739,-1.75325260112724,-1.04761492391559,-9.67211035702047,0.029321533,-0.09743301,-0.03756821,100.43546,172.27425,-13.954008,SIT
6526151644000,2.768684,-1.77887656636306,-1.00917899835873,-9.65502738650915,0.034513887,-0.11484267,-0.032986723,100.45423,172.27728,-13.956873,SIT
6526156600000,2.77364,-1.84755992063231,-1.03070306056854,-9.68770055005314,0.039095376,-0.12767084,-0.03359759,100.47131,172.27884,-13.9634905,SIT
6526161603000,2.778643,-1.92138934049947,-1.05870733977683,-9.72588816726886,0.036651913,-0.118202426,-0.0421497,100.487366,172.28078,-13.968136,SIT
6526166606000,2.783646,-1.99521876036663,-1.08671161898512,-9.76407578448459,0.029321533,-0.10720685,-0.044593163,100.51815,172.28517,-13.98001,SIT
6526171594000,2.788634,-2.0646593089539,-1.10695747198582,-9.79199170434397,0.029321533,-0.093767814,-0.04917465,100.5459,172.28763,-13.987484,SIT
6526176635000,2.793675,-2.10745784585106,-1.0769985587234,-9.75347319095745,0.033292156,-0.071776666,-0.062002823,100.570915,172.2904,-13.988519,SIT
6526182589000,2.799629,-2.15694778095238,-1.04026169275794,-9.71015996230159,0.034208454,-0.056505036,-0.06811147,100.5842,172.28786,-14.001152,SIT
6526186604000,2.803644,-2.17983519285714,-1.00211594650298,-9.7025310639881,0.014049901,-0.062308256,-0.062002823,100.5971,172.29022,-14.013104,SIT
6526191582000,2.808622,-2.20821216333333,-0.954820921631944,-9.69307237013889,0.017715093,-0.06811147,-0.06780604,100.61156,172.28815,-14.030607,SIT
6526196599000,2.813639,-2.24064425353386,-0.935931627056915,-9.69578606871129,0.0125227375,-0.079107046,-0.07727446,100.62596,172.29425,-14.050647,SIT
6526201651000,2.818691,-2.27393570691045,-0.921663861324093,-9.7005415933353,0.0143553335,-0.1001819,-0.06414085,100.64435,172.29854,-14.075155,SIT
6526206662000,2.823702,-2.31488577161405,-0.954979159648864,-9.65383099586899,0.004581489,-0.09896017,-0.058643065,100.664536,172.3141,-14.097819,SIT
6526211629000,2.828669,-2.35699383532999,-0.997087150083604,-9.59768733431691,0.010995574,-0.09193522,-0.058643065,100.68597,172.32494,-14.124041,SIT
6526216712000,2.833752,-2.39304691086037,-1.0685944802438,-9.55486888363893,-0.0009162979,-0.10140363,-0.054367006,100.71494,172.34344,-14.156331,SIT
6526221687000,2.838727,-2.42664675571227,-1.14539417574048,-9.51646876022567,-0.01038471,-0.111177474,-0.044593163,100.745285,172.35966,-14.185907,SIT
6526226736000,2.843776,-2.48458777861931,-1.16279970494247,-9.46970836888444,-0.020463986,-0.086132,-0.052534413,100.76307,172.36862,-14.213154,SIT
6526231638000,2.848678,-2.54564737507754,-1.1674966497949,-9.4227394108054,-0.03268129,-0.076052725,-0.040317107,100.7882,172.38274,-14.247239,SIT
6526236678000,2.853718,-2.57609992799189,-1.16455195047812,-9.41781958939438,-0.04153884,-0.069027774,-0.03970624,100.80011,172.37933,-14.281645,SIT
6526241636000,2.858676,-2.59903143225152,-1.15996562089249,-9.4224059668695,-0.037873644,-0.07971791,-0.03573562,100.81587,172.37706,-14.31763,SIT
6526246721000,2.863761,-2.60116045689796,-1.16252468206122,-9.53550929306122,-0.034513887,-0.109650314,-0.032375857,100.82729,172.37465,-14.363852,SIT
6526251608000,2.868648,-2.59638476081633,-1.1673004280102,-9.6787801755102,-0.014049901,-0.099265605,-0.02565634,100.84167,172.36707,-14.400549,SIT
6526256851000,2.873891,-2.58502058722467,-1.17866450528634,-9.72803867547724,-0.01160644,-0.07452556,-0.0125227375,100.86373,172.36029,-14.43911,SIT
6526261689000,2.878729,-2.57301409792692,-1.19067086921482,-9.7480492820247,0.0012217305,-0.033292156,-0.00030543262,100.888,172.34583,-14.46884,SIT
6526266662000,2.883702,-2.56422912239083,-1.20887541099412,-9.75641104862186,0.013744468,-0.02107485,0.009162978,100.91788,172.33502,-14.494473,SIT
6526271737000,2.888777,-2.55921190834108,-1.23396174319191,-9.7513936774027,0.010079277,0.0033597588,0.010079277,100.95037,172.32597,-14.504435,SIT
6526276666000,2.893706,-2.53687861356955,-1.2399527218242,-9.74415697946072,0.02107485,0.043676864,0.007330383,100.98401,172.30942,-14.506965,SIT
6526281658000,2.898698,-2.49964912017911,-1.23064533632824,-9.73484988552516,0.016493361,0.06719518,0.013439035,101.02021,172.29955,-14.507407,SIT
6526286677000,2.903717,-2.47567548571934,-1.2258313,-9.72649779963616,0.01160644,0.09896017,0.015577064,101.05215,172.28271,-14.493793,SIT
6526291665000,2.908705,-2.46601977737632,-1.2258313,-9.7192558860478,0.024740042,0.10048734,0.018325957,101.085236,172.26347,-14.482678,SIT
6526296678000,2.913718,-2.45631567434433,-1.2258313,-9.71197767577947,0.032070424,0.09407325,0.016798794,101.11731,172.25264,-14.465267,SIT
6526301708000,2.918748,-2.44657866292385,-1.2258313,-9.70467478376876,0.03481932,0.10781772,0.031154128,101.15522,172.24149,-14.44305,SIT
6526306664000,2.923704,-2.46669307981472,-1.25043870550951,-9.72837316918576,0.047036625,0.09437868,0.014966198,101.18563,172.22232,-14.432619,SIT
6526311717000,2.928757,-2.51388134934178,-1.29762702431009,-9.78028036421258,0.061391957,0.09712757,0.0018325958,101.22177,172.2039,-14.414888,SIT
6526316706000,2.933746,-2.52153560279397,-1.30528127845226,-9.83695518371859,0.06780604,0.12186762,-0.026267206,101.248604,172.18272,-14.392296,SIT
6526321747000,2.938787,-2.48757213127638,-1.27131775627136,-9.90003050623115,0.083383106,0.16798794,-0.02321288,101.2812,172.1573,-14.364073,SIT
6526326652000,2.943692,-2.45474145948036,-1.30508209811583,-10.0069294652916,0.110872045,0.1826487,-0.021685716,101.29785,172.11766,-14.339454,SIT
6526331658000,2.948698,-2.42146203415311,-1.40967478337961,-10.1638182201507,0.1001819,0.2125811,-0.04153884,101.3113,172.08429,-14.297818,SIT
6526336671000,2.953711,-2.33120814876549,-1.42126931321362,-10.1592188723529,0.094989546,0.2996294,-0.032986723,101.343704,172.05316,-14.232744,SIT
6526341686000,2.958726,-2.17653717004001,-1.32752933648873,-9.9717390167854,0.1020145,0.31948254,-0.009773844,101.37265,172.02245,-14.179736,SIT
6526346630000,2.96367,-2.06350855698529,-1.3100684283701,-9.79832925367647,0.09560041,0.2959642,-0.01863139,101.38916,171.98003,-14.106337,SIT
6526351676000,2.968716,-2.00428722746849,-1.39890033430497,-9.63758606144958,0.06719518,0.26542094,-0.027183503,101.412766,171.9452,-14.033157,SIT
6526356691000,2.973731,-1.94731489921243,-1.48188786672267,-9.49172137929224,0.029932396,0.24495697,-0.023518313,101.44902,171.92896,-13.954538,SIT
6526361672000,2.978712,-1.90223258635934,-1.53197931963667,-9.43161148934159,0.008857546,0.20891592,-0.023518313,101.47936,171.91628,-13.891026,SIT
6526366654000,2.983694,-1.87270568150875,-1.59150979327852,-9.36644880036332,0.003970624,0.1957823,-0.022907447,101.492645,171.88918,-13.828217,SIT
6526371738000,2.988778,-1.89598159358447,-1.68461329575485,-9.28265540022947,-0.004581489,0.16829337,-0.018325957,101.50481,171.87012,-13.781741,SIT
6526377524000,2.994564,-1.91317507765092,-1.75921731368091,-9.22017571579773,-0.017104227,0.10934488,-0.0076358155,101.509285,171.84555,-13.747435,SIT
6526382167000,2.999207,-1.90663863549588,-1.7505020878087,-9.24196378047824,-0.02565634,0.073303826,-0.0076358155,101.51272133022,171.833646572527,-13.7343759247253,SIT
6526386624000,3.003664,-1.90036404521266,-1.74213599655037,-9.26287900862407,-0.019547688,0.054061573,0.010079277,101.51602,171.82222,-13.72184,SIT
6526391715000,3.008755,-1.89319690607605,-1.73257984429635,-9.28676938925911,-0.024129177,0.04642576,0.018020526,101.50149,171.7868,-13.703838,SIT
6526396762000,3.013802,-1.88445042973348,-1.72128131802239,-9.31592427216883,-0.01740966,0.03268129,0.029932396,101.49052,171.75122,-13.704358,SIT
6526401701000,3.018741,-1.85633204162291,-1.68847653189339,-9.40965272188646,-0.0125227375,0.03268129,0.03268129,101.47931,171.7181,-13.703213,SIT
6526406837000,3.023877,-1.82883181179715,-1.65543444542243,-9.50509817540888,0.0027488936,0.035124753,0.047036625,101.475815,171.68945,-13.704016,SIT
6526411663000,3.028703,-1.82435899298364,-1.63754314681603,-9.56995400150005,0.016187929,0.059253927,0.053145275,101.47156,171.66022,-13.698434,SIT
6526416994000,3.034034,-1.81941813158812,-1.61777967543792,-9.64159644014323,0.023823744,0.098043874,0.050396383,101.4778,171.63817,-13.682325,SIT
6526421726000,3.038766,-1.81503243357205,-1.60023686047614,-9.70518901558115,0.03970624,0.11759156,0.05100725,101.486755,171.61148,-13.665592,SIT
6526426739000,3.043779,-1.81038629998064,-1.58165230185329,-9.77255790414207,0.03573562,0.12644911,0.046120327,101.4943,171.58844,-13.641269,SIT
6526431689000,3.048729,-1.85848239566316,-1.5493311496664,-9.76470176496159,0.03756821,0.1142318,0.040927973,101.50164,171.56033,-13.618275,SIT
6526436638000,3.053678,-1.91118679417711,-1.51579196878285,-9.75032755155681,0.028405234,0.08155051,0.035430185,101.50671,171.5369,-13.599269,SIT
6526441665000,3.058705,-1.94632804102053,-1.46447348934622,-9.69610360683676,0.00030543262,0.048258353,0.028405234,101.51952,171.52615,-13.569786,SIT
6526447477000,3.064517,-1.98277847024849,-1.40437527172599,-9.62971434116857,-0.014049901,0.004581489,0.020158553,101.528275,171.51431,-13.55317,SIT
6526451669000,3.068709,-1.98663013921136,-1.3697102912789,-9.58349415273914,-0.025961773,-0.03634648,0.022602014,101.53668,171.51622,-13.548651,SIT
6526456628000,3.073668,-1.99118653863571,-1.32870274403723,-9.52881716933704,-0.03481932,-0.064446285,0.022602014,101.545944,171.52759,-13.557004,SIT
6526461718000,3.078758,-1.97605304106494,-1.31761871026623,-9.53526867580312,-0.035430185,-0.0711658,0.021685716,101.55472,171.53978,-13.570447,SIT
6526466728000,3.083768,-1.95719862786128,-1.31290510696532,-9.55412299056882,-0.039095376,-0.069027774,0.021685716,101.562836,171.55498,-13.588617,SIT
6526471700000,3.08874,-1.93255581462793,-1.3049850171236,-9.56469072984789,-0.0421497,-0.06872234,0.023518313,101.5728,171.57509,-13.602358,SIT
6526476732000,3.093772,-1.90621978686583,-1.29620635648055,-9.57346957382275,-0.025961773,-0.05681047,0.02321288,101.58273,171.59023,-13.611588,SIT
6526481711000,3.098751,-1.89323969547155,-1.29583700452845,-9.57977506651168,-0.010995574,-0.029626964,0.022296581,101.59546,171.6077,-13.613387,SIT
6526486669000,3.103709,-1.88844016303447,-1.30063653696553,-9.58457469918124,-0.008552114,-0.030848695,0.0143553335,101.60526,171.62326,-13.619209,SIT
6526491667000,3.108707,-1.88360190907713,-1.30547479092287,-9.58941305417972,-0.008857546,-0.020158553,0.01863139,101.622406,171.63817,-13.611034,SIT
6526496689000,3.113729,-1.87874042220762,-1.31033627779238,-9.59427464257556,-0.014660766,-0.0036651916,0.009162978,101.63337,171.65219,-13.600684,SIT
6526501675000,3.118715,-1.86917144009946,-1.31044606801989,-9.60699662508881,-0.021380283,0.004276057,0.0076358155,101.65128,171.66336,-13.584798,SIT
6526506692000,3.123732,-1.85698053235563,-1.30800788647113,-9.62406374317467,-0.016798794,0.00580322,-0.0033597588,101.663994,171.6716,-13.565754,SIT
6526511681000,3.128721,-1.84485766236679,-1.30558331247336,-9.64103560925606,-0.02687807,0.021685716,-0.015271631,101.675964,171.68419,-13.539699,SIT
6526516906000,3.133946,-1.83216133130011,-1.30304404626002,-9.65881031366081,-0.034208454,0.024740042,-0.019547688,101.686424,171.6944,-13.517329,SIT
6526521713000,3.138753,-1.82594597678403,-1.29922167678403,-9.66944638109584,-0.03604105,0.022602014,-0.024740042,101.69363,171.70485,-13.492164,SIT
6526526730000,3.14377,-1.82142264731689,-1.29469834731689,-9.67849322895876,-0.03634648,0.026267206,-0.023823744,101.701775,171.7168,-13.465356,SIT
6526531718000,3.148758,-1.81374081111111,-1.28994269444444,-9.70556183333333,-0.028710667,0.042455133,-0.03359759,101.71285,171.72444,-13.43155,SIT
6526536692000,3.153732,-1.80390293353986,-1.28502365293267,-9.74491313816605,-0.04062254,0.038179077,-0.039095376,101.72465,171.73784,-13.403609,SIT
6526541708000,3.158748,-1.79426874045786,-1.29563398352082,-9.76493708841524,-0.039095376,0.027488936,-0.043676864,101.73541,171.74586,-13.37275,SIT
6526546701000,3.163741,-1.7848318029406,-1.31450795709493,-9.77437422301164,-0.037873644,0.018936822,-0.042760566,101.74609,171.75713,-13.343486,SIT
6526551711000,3.168751,-1.77683653551097,-1.33346484851749,-9.77198729897213,-0.029321533,0.013744468,-0.048563786,101.75755,171.76413,-13.30984,SIT
6526556705000,3.173745,-1.76974619567108,-1.35237233093497,-9.76253359478158,-0.025045475,0.005497787,-0.046120327,101.77112,171.7725,-13.28089,SIT
6526561682000,3.178722,-1.76267999194999,-1.37121545067701,-9.75311207180273,-0.03176499,0.00061086525,-0.046731193,101.78257,171.77591,-13.251246,SIT
6526566678000,3.183718,-1.75558681256671,-1.39013050517395,-9.74365458158727,-0.031154128,-0.002443461,-0.043982297,101.79533,171.77663,-13.224578,SIT
6526571693000,3.188733,-1.75491075190846,-1.40292405300145,-9.72312683827171,-0.03268129,-0.006414085,-0.04520403,101.80846,171.7791,-13.203146,SIT
6526576713000,3.193753,-1.75901591252668,-1.41113445996926,-9.69439054248143,-0.03726278,-0.012217305,-0.03756821,101.82464,171.78314,-13.184243,SIT
6526582922000,3.199962,-1.77045464183729,-1.43193136347164,-9.67673619695597,-0.03848451,-0.024129177,-0.03268129,101.83198,171.78162,-13.172742,SIT
6526586714000,3.203754,-1.78361475069759,-1.45496145950353,-9.6833163716253,-0.040011674,-0.02687807,-0.032375857,101.84029,171.78175,-13.160762,SIT
6526591963000,3.209003,-1.80291358670818,-1.48646657225682,-9.69131667693794,-0.035430185,-0.01863139,-0.02321288,101.849945,171.77887,-13.151326,SIT
6526596681000,3.213721,-1.83202031361391,-1.5107221780116,-9.68646545447713,-0.043982297,-0.02321288,-0.019547688,101.85732,171.77985,-13.146193,SIT
6526601684000,3.218724,-1.86017216681671,-1.53153177772776,-9.68063752382816,-0.04153884,-0.024129177,-0.014049901,101.86305,171.77162,-13.140443,SIT
6526606654000,3.223694,-1.87414516691457,-1.52687411102848,-9.67132199589001,-0.04550946,-0.034208454,-0.011911872,101.86818,171.76779,-13.138658,SIT
6526611688000,3.228728,-1.88971642433567,-1.52439521460535,-9.66327850780401,-0.05467244,-0.038179077,0.003970624,101.87188,171.76122,-13.131953,SIT
6526616679000,3.233719,-1.91568582055715,-1.53856035102242,-9.66563940906846,-0.040927973,-0.027794369,0.003970624,101.87172,171.74869,-13.123585,SIT
6526621703000,3.238743,-1.94182692386644,-1.55281914592512,-9.66801592037933,-0.04734206,-0.01863139,0.014966198,101.87913,171.74667,-13.119561,SIT
6526626688000,3.243728,-1.96776510061741,-1.56696725352662,-9.67037398345352,-0.042760566,-0.01160644,0.01160644,101.882614,171.73709,-13.1126795,SIT
6526631717000,3.248757,-1.99555841299373,-1.58053136055119,-9.66469325291016,-0.026267206,-0.004886922,0.01863139,101.8923,171.72826,-13.106049,SIT
6526636672000,3.253712,-2.04277077305741,-1.58525258669784,-9.5608260804895,-0.035124753,-0.0106901415,0.035124753,101.90342,171.72585,-13.101387,SIT
6526641757000,3.258797,-2.08741497435053,-1.58843380942677,-9.46122695900791,-0.03848451,-0.009773844,0.03604105,101.9069,171.71169,-13.098484,SIT
6526646681000,3.263721,-2.08297628312312,-1.57067920673475,-9.45234971559676,-0.022296581,-0.0061086523,0.04337143,101.91672,171.69644,-13.097371,SIT
6526651884000,3.268924,-2.07828609009789,-1.55191860604292,-9.44296947646837,-0.029321533,-0.009162978,0.042760566,101.91904,171.68413,-13.105417,SIT
6526656656000,3.273696,-2.07398441777108,-1.53471207394578,-9.43436626656626,-0.022296581,-0.005497787,0.0421497,101.92375,171.66441,-13.110611,SIT
6526661630000,3.27867,-2.0695006545369,-1.51677718487387,-9.42539888055346,-0.020463986,-0.002443461,0.048563786,101.93107,171.64824,-13.116777,SIT
6526666679000,3.283719,-2.06087566166733,-1.51120676541683,-9.43707852263662,-0.016798794,0.0018325958,0.054061573,101.937965,171.63005,-13.121304,SIT
6526671657000,3.288697,-2.05136762209813,-1.50882975552453,-9.45371769116474,-0.018936822,0.0027488936,0.05589417,101.9454,171.6137,-13.125857,SIT
6526676751000,3.293791,-2.04163802114081,-1.5063973552852,-9.47074459443558,-0.027488936,0.012217305,0.05375614,101.95511,171.60652,-13.12199,SIT
6526681613000,3.298653,-2.03235154295971,-1.50407573573993,-9.48699602822098,-0.017715093,0.01863139,0.04917465,101.96435,171.59512,-13.118719,SIT
6526686710000,3.30375,-2.04684462180948,-1.4980380722068,-9.51085797367161,-0.01863139,0.027488936,0.06047566,101.97624,171.5922,-13.115578,SIT
6526691639000,3.308679,-2.06718150120632,-1.49125912813787,-9.53571414911441,-0.024129177,0.020158553,0.060170226,101.98286,171.587,-13.114594,SIT
6526696692000,3.313732,-2.08803000021063,-1.4843096445955,-9.56119563714696,-0.021991149,0.02107485,0.06169739,101.99605,171.5831,-13.106523,SIT
6526702164000,3.319204,-2.11060727837243,-1.47678390267113,-9.58879007659167,-0.023518313,0.0290161,0.06658431,102.00995,171.58212,-13.0988,SIT
6526706677000,3.323717,-2.1134251737124,-1.4687297474248,-9.59291171003296,-0.02076942,0.03481932,0.06291912,102.01823,171.581,-13.090119,SIT
6526711787000,3.328827,-2.10838423345694,-1.45864786691389,-9.5878706645035,-0.022296581,0.035430185,0.06383542,102.02924,171.58221,-13.081308,SIT
6526716713000,3.333753,-2.09382774663207,-1.44913970743439,-9.59618620237501,-0.01740966,0.03726278,0.063224554,102.041466,171.58417,-13.073548,SIT
6526721706000,3.338746,-2.0747409440974,-1.43959635599242,-9.6105010302365,-0.015271631,0.02321288,0.06261369,102.05313,171.58739,-13.070338,SIT
6526726808000,3.343848,-2.06186622765829,-1.45669291702513,-9.62183811276382,-0.013439035,0.020158553,0.060170226,102.06259,171.59271,-13.06196,SIT
6526731823000,3.348863,-2.05221242826131,-1.48565431521608,-9.63149211376884,-0.020158553,0.009468411,0.061391957,102.07187,171.59998,-13.059971,SIT
6526736730000,3.35377,-2.04289021767607,-1.48743541767607,-9.62772148096272,-0.013439035,0.01160644,0.05681047,102.07919,171.6058,-13.051207,SIT
6526741675000,3.358715,-2.03354768936674,-1.47809288936674,-9.61837875754587,-0.026572637,0.011911872,0.061391957,102.08895,171.61954,-13.046529,SIT
6526746691000,3.363731,-2.01747237412531,-1.46842288706265,-9.61831672335232,-0.018325957,0.0143553335,0.051618114,102.08956,171.61945,-13.03902,SIT
6526751672000,3.368712,-1.99806552270138,-1.45871946135069,-9.62316853753051,-0.029626964,0.007941248,0.049480084,102.09337,171.6291,-13.034607,SIT
6526756666000,3.373706,-1.99674197360023,-1.45408589205589,-9.61992489275699,-0.023823744,0.014966198,0.049480084,102.09857,171.63188,-13.025765,SIT
6526761700000,3.37874,-2.00373495462721,-1.45175492272024,-9.61293200909003,-0.024740042,0.016493361,0.044593163,102.101204,171.63904,-13.020105,SIT
6526766707000,3.383747,-2.01069042860458,-1.44943645560391,-9.60597663195049,-0.03023783,0.004886922,0.04520403,102.10921,171.6476,-13.017294,SIT
6526772347000,3.389387,-2.01852523452277,-1.44682488090127,-9.59814193511266,-0.025350908,0.0033597588,0.036651913,102.113594,171.65247,-13.010746,SIT
6526776765000,3.393805,-2.02329221748364,-1.43575377605954,-9.59854680146013,-0.028405234,0.0030543262,0.03359759,102.12213,171.65913,-13.006685,SIT
6526783144000,3.400184,-2.0290844244809,-1.41258482710723,-9.60433852460415,-0.023518313,-0.0036651916,0.029626964,102.12751,171.66154,-13.004532,SIT
6526786691000,3.403731,-2.02701073483353,-1.41215354300107,-9.6066277778346,-0.01282817,-0.0070249503,0.029932396,102.13271,171.6646,-13.006168,SIT
6526791684000,3.408724,-2.01967421935253,-1.42193561471385,-9.60907333406638,-0.017715093,-0.013744468,0.03145956,102.13663,171.67033,-13.010393,SIT
6526796682000,3.413722,-2.01233035707053,-1.43172748221245,-9.61152133928297,-0.024129177,-0.01038471,0.01985312,102.14522,171.67169,-13.009502,SIT
6526801711000,3.418751,-2.00494094462231,-1.44158008358308,-9.61398452820539,-0.019547688,-0.022602014,0.0125227375,102.15436,171.67177,-13.015016,SIT
6526806683000,3.423723,-1.99524067199011,-1.4460979,-9.62521316390606,-0.022296581,-0.012217305,0.010995574,102.16284,171.6753,-13.01283,SIT
6526811695000,3.428735,-1.98337443673671,-1.4460979,-9.64419928899876,-0.029626964,-0.015271631,0.008246681,102.16761,171.67825,-13.01735,SIT
6526816693000,3.433733,-1.97154134739184,-1.4460979,-9.6631323802225,-0.03145956,-0.013744468,0.004276057,102.16985,171.67725,-13.01601,SIT
6526821740000,3.43878,-1.95959224736712,-1.4460979,-9.68225108998764,-0.038789943,-0.015271631,0.0021380284,102.1715,171.67975,-13.0163,SIT
6526826709000,3.443749,-1.94906785697873,-1.44379752848936,-9.68827837067329,-0.033292156,-0.00580322,0.00061086525,102.176445,171.67842,-13.019782,SIT
6526831728000,3.448768,-1.93970785323986,-1.43911752661993,-9.68125822126479,-0.036957346,-0.002443461,-0.006414085,102.17876,171.68115,-13.02481,SIT
6526836676000,3.453716,-1.93048025840027,-1.43450372920014,-9.67433738060464,-0.043676864,-0.009773844,-0.010995574,102.18291,171.68462,-13.026502,SIT
6526842012000,3.459052,-1.92052907689986,-1.42952813844993,-9.66687383861545,-0.044593163,-0.013439035,-0.020158553,102.18397,171.68668,-13.025676,SIT
6526846656000,3.463696,-1.90816557481697,-1.42874323281516,-9.66119901083141,-0.04550946,-0.0015271631,-0.020158553,102.19469,171.68684,-13.027693,SIT
6526851699000,3.468739,-1.88879101720991,-1.43358680899609,-9.65635528292047,-0.048563786,-0.0009162979,-0.02321288,102.20108,171.68713,-13.033132,SIT
6526856644000,3.473684,-1.87525102663247,-1.43471793604622,-9.64981487209244,-0.048258353,-0.00580322,-0.032986723,102.203674,171.69095,-13.037275,SIT
6526861739000,3.478779,-1.8703903605967,-1.42985729538776,-9.64009359077551,-0.05222898,0.0036651916,-0.038789943,102.207184,171.69675,-13.037019,SIT
6526866601000,3.483641,-1.8657519782089,-1.42521893721672,-9.63081687443343,-0.04917465,0.005497787,-0.03604105,102.20943,171.69952,-13.038203,SIT
6526871707000,3.488747,-1.86088081809533,-1.42034780253524,-9.62107460507048,-0.042760566,-0.0076358155,-0.03481932,102.20936,171.70186,-13.040585,SIT
6526876733000,3.493773,-1.85701247964119,-1.41914353144501,-9.61244997601404,-0.042760566,-0.010995574,-0.030543262,102.21268,171.70518,-13.041939,SIT
6526881779000,3.498819,-1.85465656443058,-1.42385533726599,-9.60538232878315,-0.04734206,-0.01160644,-0.03145956,102.21436,171.70769,-13.045831,SIT
6526886605000,3.503645,-1.85240336450858,-1.42836171358229,-9.59862282312793,-0.03604105,-0.0070249503,-0.03023783,102.21909,171.70735,-13.048588,SIT
6526891709000,3.508749,-1.85002036981279,-1.43312767809087,-9.59147393857254,-0.04337143,-0.016798794,-0.027183503,102.22339,171.71344,-13.055375,SIT
6526896631000,3.513671,-1.85325273832168,-1.43528875328671,-9.58761628531468,-0.034513887,-0.01740966,-0.03604105,102.230705,171.70956,-13.065314,SIT
6526901696000,3.518736,-1.87263595190809,-1.43044300048951,-9.59246218991009,-0.03176499,-0.026572637,-0.03023783,102.24222,171.71062,-13.080625,SIT
6526906649000,3.523689,-1.88783831257843,-1.4269443,-9.595961,-0.03604105,-0.015577064,-0.020463986,102.251305,171.70892,-13.0896435,SIT
6526911777000,3.528817,-1.89261579074371,-1.4269443,-9.595961,-0.042455133,-0.014660766,-0.02076942,102.25815,171.7069,-13.103317,SIT
6526916655000,3.533695,-1.89716035753198,-1.4269443,-9.595961,-0.035124753,-0.014049901,-0.025961773,102.26831,171.70334,-13.11829,SIT
6526921719000,3.538759,-1.90187821038475,-1.4269443,-9.595961,-0.035430185,-0.014049901,-0.022907447,102.28057,171.70425,-13.1328745,SIT
6526926722000,3.543762,-1.90915909233892,-1.42394474733917,-9.59446119430615,-0.04062254,-0.018325957,-0.02443461,102.289665,171.70395,-13.147484,SIT
6526931799000,3.548839,-1.93031007703611,-1.40514384751317,-9.58506056034608,-0.035430185,-0.02107485,-0.017715093,102.30193,171.70168,-13.161555,SIT
6526936871000,3.553911,-1.95144023153367,-1.38636146344434,-9.57566918444584,-0.030848695,-0.01282817,-0.017104227,102.31183,171.70045,-13.173808,SIT
6526941726000,3.558766,-1.97166635536759,-1.3683826632365,-9.5666796083426,-0.038789943,-0.01282817,-0.005192355,102.32627,171.70255,-13.18929,SIT
6526946979000,3.564019,-1.99290496591376,-1.34971035605749,-9.55920160985626,-0.032986723,-0.0030543262,-0.0036651916,102.33847,171.69902,-13.198701,SIT
6526951704000,3.568744,-2.00451953983573,-1.34196730677618,-9.57855923305955,-0.03359759,-0.007330383,-0.0009162979,102.35364,171.70042,-13.2120905,SIT
6526956681000,3.573721,-2.01675355770021,-1.33381129486653,-9.59894926283368,-0.03634648,-0.0012217305,0.006414085,102.372665,171.70854,-13.223965,SIT
6526961723000,3.578763,-2.02390716663422,-1.33437716663422,-9.605537,-0.037873644,-0.00061086525,0.004886922,102.389244,171.71599,-13.237734,SIT
6526966694000,3.583734,-2.02854083149698,-1.33901083149698,-9.605537,-0.018325957,0.0015271631,0.013439035,102.410995,171.71938,-13.249524,SIT
6526971732000,3.588772,-2.03323694969827,-1.34370694969827,-9.605537,-0.028099801,0.00061086525,0.018936822,102.43279,171.73312,-13.262046,SIT
6526976782000,3.593822,-2.03794425357212,-1.34841425357212,-9.605537,-0.020158553,0.0061086523,0.018936822,102.45554,171.7367,-13.2717495,SIT
6526982955000,3.599995,-2.04827218532423,-1.33771122201365,-9.58871231719283,-0.008246681,0.009773844,0.019547688,102.479645,171.74223,-13.281958,SIT
6526986709000,3.603749,-2.05594097952218,-1.32620803071672,-9.57337480887372,-0.019242255,0.013439035,0.022602014,102.50439,171.7521,-13.29025,SIT
6526991748000,3.608788,-2.05228030771679,-1.33506558456643,-9.56386338355211,-0.011911872,0.01985312,0.028710667,102.52457,171.75383,-13.294591,SIT
6526996693000,3.613733,-2.04286159729515,-1.35390300540971,-9.55915392999204,-0.0067195175,0.014966198,0.03481932,102.5451,171.7594,-13.3009405,SIT
6527001694000,3.618734,-2.05889122104245,-1.36942227740064,-9.57985637975051,-0.007330383,0.025045475,0.037873644,102.56848,171.7666,-13.302491,SIT
6527006689000,3.623729,-2.08664653435838,-1.38329988575573,-9.61223765912388,-0.007330383,0.017715093,0.037873644,102.591484,171.77242,-13.310171,SIT
6527011755000,3.628795,-2.08514158720178,-1.37950263809139,-9.63991493651436,-0.004581489,0.022907447,0.041233405,102.61189,171.77383,-13.302142,SIT
6527016711000,3.633751,-2.0659491615649,-1.36510839401537,-9.66390534330772,-0.019242255,0.027488936,0.044898596,102.63178,171.78023,-13.296435,SIT
6527021735000,3.638775,-2.05751229487055,-1.36140770512945,-9.672575,-0.013744468,0.030848695,0.04520403,102.64759,171.77902,-13.2890625,SIT
6527027455000,3.644495,-2.05485645777174,-1.36406354222826,-9.672575,-0.020158553,0.036957346,0.04734206,102.6651,171.7856,-13.280017,SIT
6527031691000,3.648731,-2.05288965253563,-1.36603034746437,-9.672575,-0.018020526,0.03176499,0.045814894,102.68444,171.79149,-13.270431,SIT
6527036711000,3.653751,-2.0505588304664,-1.3683611695336,-9.672575,-0.008552114,0.028710667,0.04795292,102.70562,171.79747,-13.259084,SIT
6527041693000,3.658733,-2.03943680679829,-1.37198332219621,-9.66507525951557,-0.020158553,0.02565634,0.052534413,102.72662,171.80875,-13.2495165,SIT
6527046683000,3.663723,-2.0199830180745,-1.37684671859353,-9.65048512110727,-0.018936822,0.02443461,0.047036625,102.74501,171.81332,-13.2401905,SIT
6527051709000,3.668749,-2.0186177871334,-1.38405235808893,-9.63136435477767,-0.010995574,0.023518313,0.04428773,102.76471,171.81769,-13.22781,SIT
6527056702000,3.673742,-2.03218929964049,-1.39310003309366,-9.60874516726585,-0.011911872,0.019547688,0.043676864,102.78303,171.82397,-13.216826,SIT
6527061738000,3.678778,-2.03385497553101,-1.39621211274426,-9.60396739082413,-0.012217305,0.013133603,0.03848451,102.79826,171.82645,-13.205217,SIT
6527066707000,3.683747,-2.02037802305296,-1.39171984215992,-9.62193656697819,-0.011301007,0.009162978,0.040927973,102.815285,171.82936,-13.194651,SIT
6527071653000,3.688693,-2.00804263789739,-1.39635390525653,-9.63118117343406,-0.009162978,0.013133603,0.03848451,102.81962,171.83318,-13.183732,SIT
6527076747000,3.693787,-1.99780568076802,-1.42194629807995,-9.6209440025181,-0.011911872,0.010995574,0.03634648,102.824265,171.8382,-13.176011,SIT
6527081607000,3.698647,-1.9827720366562,-1.43836177188972,-9.61695479111068,-0.014049901,0.016493361,0.03145956,102.82952,171.8436,-13.162951,SIT
6527086711000,3.703751,-1.9587924510989,-1.44315773907967,-9.62175080837912,-0.01282817,0.018325957,0.025350908,102.83353,171.84848,-13.1516905,SIT
6527091626000,3.708666,-1.9358781040146,-1.44938335437956,-9.62633377007299,-0.02443461,0.018325957,0.03268129,102.82936,171.85918,-13.141471,SIT
6527097410000,3.71445,-1.90927787020745,-1.46002337013062,-9.63165391682674,-0.013744468,0.035430185,0.025045475,102.82003,171.86168,-13.125342,SIT
6527101611000,3.718651,-1.89229227545126,-1.46786168303249,-9.63035249368231,-0.02565634,0.034208454,0.019547688,102.81746,171.87088,-13.113548,SIT
6527106710000,3.72375,-1.87760151034898,-1.47765552643402,-9.61566142178099,-0.03359759,0.03023783,0.023823744,102.8162,171.87602,-13.09829,SIT
6527111740000,3.72878,-1.87392262189612,-1.484405,-9.60768548300696,-0.0421497,0.019242255,0.018020526,102.80957,171.88222,-13.082672,SIT
6527116656000,3.733696,-1.89482315121097,-1.484405,-9.61465246352291,-0.033292156,0.01038471,0.009468411,102.80345,171.88565,-13.068142,SIT
6527121753000,3.738793,-1.91649320774429,-1.484405,-9.62187595817097,-0.03390302,0.011301007,0.007941248,102.79307,171.89453,-13.054381,SIT
6527126687000,3.743727,-1.93747026462783,-1.484405,-9.62886844837962,-0.038179077,0.0067195175,0.008246681,102.780396,171.90123,-13.044735,SIT
6527131687000,3.748727,-1.95209357000967,-1.48387999000322,-9.634268,-0.041233405,0.0015271631,0.004886922,102.76646,171.90714,-13.035114,SIT
6527136673000,3.753713,-1.94549432670567,-1.48168024223522,-9.634268,-0.043982297,0.003970624,0.008857546,102.755135,171.91432,-13.025208,SIT
6527141657000,3.758697,-1.9388977305109,-1.47948137683697,-9.634268,-0.044898596,0.0027488936,0.004276057,102.74149,171.91875,-13.020033,SIT
6527146699000,3.763739,-1.93222436814852,-1.47725692271617,-9.634268,-0.030543262,-0.00061086525,0.0021380284,102.72995,171.91983,-13.015188,SIT
6527151612000,3.768652,-1.92572174433132,-1.47508938144377,-9.634268,-0.0290161,-0.006414085,-0.0030543262,102.716255,171.92397,-13.011213,SIT
6527156612000,3.773652,-1.9427916719391,-1.47929156798477,-9.6275728082047,-0.03481932,-0.0030543262,-0.005497787,102.70319,171.92604,-13.005735,SIT
6527161622000,3.778662,-1.96308339027278,-1.4843644975682,-9.61996325491647,-0.029626964,0.0027488936,-0.0076358155,102.688774,171.92415,-13.001076,SIT
6527166615000,3.783655,-1.9833062544724,-1.4894202136181,-9.61237952246775,-0.034513887,-0.0009162979,-0.002443461,102.6748,171.92969,-12.998558,SIT
6527171595000,3.788635,-2.0008310894049,-1.49369319576196,-9.60524840480269,-0.035124753,-0.004581489,0.0030543262,102.66079,171.93224,-12.994465,SIT
6527176642000,3.793682,-1.99316484946073,-1.49062669978429,-9.60218200488517,-0.034513887,-0.0012217305,-0.00030543262,102.6461,171.93533,-12.989361,SIT
6527182437000,3.799477,-1.98436242020048,-1.48710572808019,-9.59866114347799,-0.024740042,-0.007330383,-0.0009162979,102.63305,171.93022,-12.986363,SIT
6527186602000,3.803642,-1.97803591150869,-1.48457512460348,-9.5961306192742,-0.03359759,-0.0012217305,-0.0009162979,102.62691991368,171.929004904939,-12.9836702219187,SIT
6527191589000,3.808629,-1.97046080974496,-1.48154508389798,-9.59310067348687,-0.025350908,-0.006414085,-0.0018325958,102.61958,171.92755,-12.980446,SIT
6527196653000,3.813693,-1.96276874731633,-1.47846825892653,-9.59002394489912,-0.034208454,0.008246681,0.004581489,102.60856,171.92493,-12.97276,SIT
6527201596000,3.818636,-1.95526048021825,-1.4754649520873,-9.58702073214059,-0.043066,0.008857546,0.0018325958,102.59228,171.92427,-12.972303,SIT
6527206651000,3.823691,-1.95723001416241,-1.47126678583759,-9.57926102292343,-0.03940081,0.011911872,0.005497787,102.58452,171.92157,-12.970644,SIT
6527211601000,3.828641,-1.96162956497448,-1.46686723502552,-9.5704617375406,-0.03359759,0.015882496,0.012217305,102.57704,171.92065,-12.968571,SIT
6527216681000,3.833721,-1.96637765262947,-1.46681752631473,-9.57506063157367,-0.043066,0.0018325958,0.004276057,102.56766,171.92384,-12.967919,SIT
6527221741000,3.838781,-1.97123638908106,-1.46924689454053,-9.58720747270266,-0.030848695,0.0015271631,0.014049901,102.56624,171.9209,-12.963373,SIT
6527226695000,3.843735,-1.97599334172557,-1.47162537086279,-9.59909985431393,-0.040317107,0.0061086523,0.01038471,102.55718,171.92827,-12.966921,SIT
6527231683000,3.848723,-1.98078294200632,-1.47402017100316,-9.61107385501579,-0.03604105,0.007941248,0.0076358155,102.55118,171.92894,-12.971524,SIT
6527236680000,3.85372,-1.98343756524101,-1.47067393903596,-9.6182297607906,-0.034208454,0.008552114,0.004581489,102.54425,171.93245,-12.974822,SIT
6527241673000,3.858713,-1.98500230762132,-1.46441496951471,-9.62292408596485,-0.025350908,0.012217305,0.01740966,102.54147,171.9335,-12.977113,SIT
6527246679000,3.863719,-1.98657112403547,-1.45813970385811,-9.62763063349586,-0.03268129,0.007941248,0.019242255,102.538185,171.93307,-12.976483,SIT
6527251682000,3.868722,-1.98813900028797,-1.45186819884813,-9.632334360483,-0.038179077,0.0125227375,0.020158553,102.538864,171.93056,-12.972819,SIT
6527256708000,3.873748,-1.98971408444648,-1.44556786221408,-9.63705971163978,-0.030543262,0.016798794,0.026267206,102.54137,171.92693,-12.97072,SIT
6527261704000,3.878744,-1.99127976698845,-1.43930513204621,-9.6417568573579,-0.030543262,0.014660766,0.02076942,102.54066,171.92627,-12.968714,SIT
6527266710000,3.88375,-1.98930518940623,-1.43117980669871,-9.63850366726745,-0.03176499,0.0106901415,0.022602014,102.537445,171.928,-12.962646,SIT
6527271750000,3.88879,-1.98447219931911,-1.42151387699009,-9.6288374852308,-0.03023783,0.017715093,0.030848695,102.53496,171.92894,-12.95429,SIT
6527276727000,3.893767,-1.98497655923128,-1.42767771001052,-9.62211338693948,-0.0290161,0.025045475,0.033292156,102.53295,171.93312,-12.9419365,SIT
6527281706000,3.898746,-1.98953558850751,-1.44591377951047,-9.61755426245339,-0.03573562,0.017104227,0.027488936,102.53064,171.93896,-12.932274,SIT
6527286708000,3.903748,-1.99416614856136,-1.44472283432179,-9.61949478860834,-0.03726278,0.02076942,0.030543262,102.53377,171.94508,-12.9177475,SIT
6527291696000,3.908736,-1.99884114155412,-1.42134782054218,-9.62884496985712,-0.025961773,0.025045475,0.028405234,102.53345,171.94861,-12.90518,SIT
6527296678000,3.913718,-1.99318804049336,-1.40988168354761,-9.64263251583569,-0.031154128,0.011301007,0.031154128,102.53361,171.95413,-12.902895,SIT
6527301709000,3.918749,-1.97304342638236,-1.4149179422494,-9.66277702477266,-0.02443461,0.011301007,0.025350908,102.53144,171.95245,-12.8952675,SIT
6527306664000,3.923704,-1.96015499670612,-1.41350448781523,-9.65944075373134,-0.014660766,0.017104227,0.029321533,102.536285,171.95645,-12.89043,SIT
6527311723000,3.928763,-1.95392120473495,-1.4057122315781,-9.63294707276119,-0.026267206,0.012217305,0.029321533,102.537834,171.96379,-12.888279,SIT
6527316608000,3.933648,-1.94790181873392,-1.39818798336336,-9.60736461940299,-0.030543262,0.008857546,0.027794369,102.537254,171.96957,-12.884551,SIT
6527321741000,3.938781,-1.94157684261451,-1.39028174670291,-9.58048340485075,-0.018020526,-0.0009162979,0.03268129,102.53812,171.97409,-12.884328,SIT
6527326679000,3.943719,-1.93549214904786,-1.38267586386065,-9.55462339365672,-0.016493361,0.005192355,0.028710667,102.53699,171.98195,-12.881268,SIT
6527331719000,3.948759,-1.92928176922285,-1.37491287286734,-9.52822921455224,-0.021991149,0.01038471,0.024129177,102.53665,171.9884,-12.881281,SIT
6527336645000,3.953685,-1.92526240976223,-1.3711044521965,-9.51139004881114,-0.01985312,0.00030543262,0.025961773,102.53668,171.99228,-12.883928,SIT
6527341697000,3.958737,-1.92643150877634,-1.37694995947468,-9.51723554388169,-0.022907447,-0.0143553335,0.025961773,102.53493,171.99855,-12.886136,SIT
6527346670000,3.96371,-1.92758232615504,-1.38270405838488,-9.52298963077518,-0.0143553335,0.0021380284,0.02076942,102.53938,172.00134,-12.88759,SIT
6527352361000,3.969401,-1.92889929814421,-1.38928893208245,-9.52957449072105,-0.008552114,0.002443461,0.018325957,102.54329,172.00577,-12.897507,SIT
6527356695000,3.973735,-1.92990224254784,-1.39430366457326,-9.53458921273922,-0.01740966,-0.004276057,0.016798794,102.54379,172.01186,-12.899519,SIT
6527361687000,3.978727,-1.93105745677557,-1.4000797477745,-9.54036528387783,-0.00061086525,0.008857546,0.016798794,102.54485,172.00903,-12.89575,SIT
6527366718000,3.983758,-1.93222169611444,-1.40590095662575,-9.5461864805722,-0.0076358155,0.014966198,0.013744468,102.544044,172.01492,-12.8956,SIT
6527371781000,3.988821,-1.93339334067272,-1.41175919165136,-9.55204470336362,-0.0061086523,0.0143553335,0.016493361,102.54517,172.01411,-12.893901,SIT
6527376994000,3.994034,-1.93597272875858,-1.41882522495321,-9.56020404054897,-0.010995574,0.0143553335,0.01282817,102.543912951233,172.014339833543,-12.8893765625337,SIT
6527382895000,3.999935,-1.95947561784155,-1.44232805268247,-9.60133434185902,-0.010079277,0.010079277,0.01160644,102.54249,172.0146,-12.884255,SIT
6527386655000,4.003695,-1.97204917627788,-1.45644762372212,-9.6250775199329,-0.0125227375,0.010079277,0.012217305,102.54237,172.0148,-12.874221,SIT
6527391708000,4.008748,-1.96249883674758,-1.46599796325242,-9.62985278942175,-0.014966198,0.015577064,0.013439035,102.5381,172.0123,-12.8640995,SIT
6527396758000,4.013798,-1.95418300371353,-1.47465673209549,-9.63512533952255,-0.016493361,0.015577064,0.009773844,102.53512,172.00539,-12.862052,SIT
6527401707000,4.018747,-1.96091788196286,-1.47241177267904,-9.64635013660478,-0.022907447,0.005497787,0.013439035,102.53442,172.00124,-12.861718,SIT
6527406732000,4.023772,-1.96775618529746,-1.47013233823418,-9.6577473088291,-0.03145956,0.0067195175,0.011911872,102.53549,171.99496,-12.863674,SIT
6527411707000,4.028747,-1.97452644581281,-1.46787558472906,-9.66903107635468,-0.019547688,0.009468411,0.011911872,102.53762,171.98529,-12.868015,SIT
6527416672000,4.033712,-1.9812830977643,-1.4656233674119,-9.68029216294051,-0.017104227,0.018936822,0.0067195175,102.54216,171.97615,-12.864859,SIT
6527422412000,4.039452,-1.98701794480933,-1.46987034480933,-9.69600864150573,-0.027183503,0.01863139,0.008857546,102.54836,171.96803,-12.863966,SIT
6527426656000,4.043696,-1.99100225411234,-1.47385465411234,-9.70796140299971,-0.032375857,0.017715093,0.008552114,102.55259,171.95776,-12.860317,SIT
6527431726000,4.048766,-1.99006555545774,-1.47291795545774,-9.69177955457738,-0.027183503,0.017715093,0.00580322,102.557625,171.94899,-12.857385,SIT
6527436611000,4.053651,-1.98775175813838,-1.47060415813838,-9.66864158138385,-0.014966198,0.019242255,0.0067195175,102.56353,171.94016,-12.854436,SIT
6527441683000,4.058723,-1.98534938761561,-1.46820178761561,-9.64461787615609,-0.03023783,0.021685716,0.00580322,102.56764,171.937,-12.851255,SIT
