timestamp,rel_time,acc_x,acc_y,acc_z,gyro_x,gyro_y,gyro_z,azimuth,pitch,roll,label
13961384297000,0,-0.871144600540054,9.77812687848785,-0.834302798379838,-0.032986723,-0.00030543262,0.005497787,310.04016,-82.86005,-7.120256,STD
13961389203000,0.004906,-0.866445750122012,9.78094617254725,-0.849574064078408,-0.033292156,-0.002443461,-0.0033597588,310.0509,-82.87651,-7.107745,STD
13961394248000,0.009951,-0.86161376880138,9.78384534468947,-0.865278005262526,-0.02565634,-0.002443461,0.004276057,310.06573,-82.89195,-7.0962815,STD
13961399235000,0.014938,-0.85683733850485,9.78671118640864,-0.88080140559656,-0.021991149,0.0018325958,0.0018325958,310.08014,-82.90075,-7.0907655,STD
13961404203000,0.019906,-0.852079105957596,9.78956610954095,-0.896265663238324,-0.018936822,0.0018325958,-0.006414085,310.096,-82.90895,-7.085323,STD
13961409249000,0.024952,-0.847246166860686,9.79246585634563,-0.911972717195719,-0.015577064,0.0027488936,-0.0012217305,310.11053,-82.91919,-7.0772943,STD
13961414227000,0.02993,-0.842478356550655,9.79532652610261,-0.927468102570257,-0.012217305,0.0027488936,0.0018325958,310.117812805503,-82.9232137875289,-7.07406447323024,STD
13961419208000,0.034911,-0.837707672911791,9.79818891984698,-0.942972826264626,-0.023823744,0.004276057,0.008246681,310.1251,-82.92724,-7.0708327,STD
13961424197000,0.0399,-0.832929327062706,9.80105591089109,-0.958502452145214,-0.026572637,0.010995574,0.01282817,310.1381,-82.93445,-7.0647545,STD
13961429225000,0.044928,-0.828113627938794,9.80394531377138,-0.974153476183618,-0.021991149,0.013133603,0.005192355,310.15213,-82.93985,-7.0599775,STD
13961434334000,0.050037,-0.823220348936394,9.80688126431143,-0.990056634857486,-0.011911872,0.015882496,0.009468411,310.16425,-97.050995,-7.0509872,STD
13961439228000,0.054931,-0.818532991833683,9.80969366242124,-1.00529054727673,-0.0290161,0.007941248,0.009773844,310.179,-97.04598,-7.045751,STD
13961444230000,0.059933,-0.813742194892989,9.81256812407741,-1.02086063920992,-0.022296581,0.0125227375,0.009162978,310.18958,-97.04094,-7.040007,STD
13961449214000,0.064917,-0.808968637925293,9.81543224180918,-1.03637470122412,-0.025045475,0.008552114,0.018936822,310.20502,-97.03352,-7.0316377,STD
13961454208000,0.069911,-0.80418550319482,9.81830210616562,-1.0519198909711,-0.02107485,0.020158553,0.0143553335,310.21475,-97.031204,-7.02794,STD
13961459218000,0.074921,-0.799387044043904,9.82118116512151,-1.06751488509051,-0.025961773,0.009468411,0.0125227375,310.23218,-97.02598,-7.021158,STD
13961464226000,0.079929,-0.794590500445545,9.82405907475247,-1.08310365366337,-0.028710667,0.008246681,0.016187929,310.2437,-97.02124,-7.014496,STD
13961469218000,0.084921,-0.789809281267627,9.82692778978398,-1.09864261786379,-0.03390302,0.012217305,0.015882496,310.2569,-97.018684,-7.009876,STD
13961474198000,0.089901,-0.78503955540504,9.82978960886589,-1.11414422878488,-0.03176499,0.006414085,0.022907447,310.27332,-97.01367,-7.0025215,STD
13961479225000,0.094928,-0.780224814057406,9.83267843708371,-1.12979214005001,-0.03268129,0.013744468,0.018936822,310.28485,-97.01232,-6.99873,STD
13961484215000,0.099918,-0.775445510432043,9.83554600279028,-1.14532487870387,-0.03726278,0.0076358155,0.008246681,310.3019,-97.011444,-6.9953094,STD
13961489196000,0.104899,-0.770674826793179,9.83840839653465,-1.16082960239824,-0.030848695,-0.004886922,0.004581489,310.3188,-97.01041,-6.9913683,STD
13961494223000,0.109926,-0.765860085445545,9.84129722475248,-1.17647751366337,-0.027488936,0.00061086525,0.008857546,310.33224,-97.01041,-6.988428,STD
13961499215000,0.114918,-0.761078866267627,9.84416593978398,-1.19201647786379,-0.027183503,-0.0027488936,0.013133603,310.35178,-97.011894,-6.986831,STD
13961504289000,0.119992,-0.756219109434944,9.84708177713771,-1.20781068947295,-0.029932396,-0.0021380284,0.007941248,310.36856,-97.01526,-6.9869466,STD
13961509225000,0.124928,-0.751491525728573,9.84991831107111,-1.22317533836984,-0.017104227,-0.004581489,0.004581489,310.38715,-97.017715,-6.985623,STD
13961514221000,0.129924,-0.746706475445545,9.85278932475248,-1.23872675366337,-0.019242255,-0.011911872,0.0076358155,310.40692,-97.01969,-6.9841843,STD
13961519211000,0.134914,-0.741927171820182,9.85565689045905,-1.25425949231723,-0.015271631,-0.006414085,0.007941248,310.42365,-97.02427,-6.9846706,STD
13961524196000,0.139899,-0.737152657076208,9.85852158285329,-1.26977666710471,-0.024740042,-0.005192355,-0.0009162979,310.4436,-97.03045,-6.9871774,STD
13961529255000,0.144958,-0.732307266887689,9.86142880027003,-1.28552418711471,-0.02321288,-0.00030543262,0.003970624,310.4609,-97.0334,-6.98584,STD
13961534248000,0.149951,-0.727525089933493,9.864298089964,-1.30106626408841,-0.029932396,-0.008552114,0.0036651916,310.48154,-97.03997,-6.9886856,STD
13961539268000,0.154971,-0.722717053019802,9.86718289554456,-1.31669238594059,-0.02107485,-0.0021380284,0.012217305,310.49652,-97.043434,-6.9876604,STD
13961544263000,0.159966,-0.717932960513051,9.87005333456346,-1.33224068846085,-0.019547688,-0.005497787,0.0106901415,310.51657,-97.04957,-6.9898243,STD
13961549252000,0.164955,-0.713154614663966,9.87292032560756,-1.34777031434143,-0.01863139,0.0015271631,0.00580322,310.5317,-97.05478,-6.990621,STD
13961554259000,0.169962,-0.708359028841884,9.87579766057606,-1.36335597014101,-0.025045475,0.005192355,0.0076358155,310.54874,-97.058525,-6.9901524,STD
13961559281000,0.174984,-0.703549076375638,9.87868361548155,-1.37898831753975,-0.02321288,0.0009162979,0.015577064,310.566,-97.06246,-6.989466,STD
13961564252000,0.179955,-0.69878797049955,9.88154026260126,-1.39446191350135,-0.03145956,-0.002443461,0.008246681,310.58185,-97.06969,-6.9927225,STD
13961569205000,0.184908,-0.69404410459646,9.88438656579658,-1.40987947954395,-0.014049901,0.005192355,0.013439035,310.59576,-97.0725,-6.990274,STD
13961574229000,0.189932,-0.689232236577658,9.887273670027,-1.42551805248925,-0.024740042,0.014966198,0.02107485,310.60992,-97.07527,-6.9893384,STD
13961579258000,0.194961,-0.684415579677468,9.89016364756976,-1.44117218930093,-0.01863139,0.016187929,0.021380283,310.62427,-97.08033,-6.98918,STD
13961584290000,0.199993,-0.680453178329893,9.89307308735613,-1.45581742230008,-0.020463986,0.014966198,0.020158553,310.63654,-97.08303,-6.987421,STD
13961589290000,0.204993,-0.687153960231947,9.89618417792082,-1.457731930344,-0.02443461,0.020158553,0.03268129,310.64667,-97.08213,-6.9817786,STD
13961594265000,0.209968,-0.69382123822449,9.8992797130327,-1.4596368658477,-0.029932396,0.022907447,0.028099801,310.6597,-97.092125,-6.979196,STD
13961599253000,0.214956,-0.700505938249979,9.90238333698005,-1.46154677907231,-0.02076942,0.015577064,0.034513887,310.67447,-97.09701,-6.9704804,STD
13961604237000,0.21994,-0.707185277649946,9.90548447205494,-1.46345516069049,-0.014966198,0.01282817,0.043066,310.68738,-97.10299,-6.9629383,STD
13961609287000,0.22499,-0.71395306737102,9.90862667352528,-1.46538881381485,-0.013439035,0.00030543262,0.046731193,310.70538,-97.10969,-6.9556584,STD
13961614251000,0.229954,-0.720605603643379,9.91171536423792,-1.46728953740086,-0.010079277,0.00061086525,0.049480084,310.72073,-97.11561,-6.9467473,STD
13961619919000,0.235622,-0.728201610007547,9.91524209650206,-1.46945982371944,-0.0061086523,-0.010995574,0.06047566,310.7433,-97.11923,-6.9352365,STD
13961624247000,0.23995,-0.734001806821964,9.91793505649486,-1.47111702188226,-0.013439035,-0.032070424,0.070554934,310.7686,-97.12268,-6.923925,STD
13961629251000,0.244954,-0.740707949349539,9.92104863593201,-1.47303306153262,-0.021380283,-0.05009095,0.07941248,310.79642,-97.124535,-6.9106274,STD
13961634242000,0.249945,-0.747396669844169,9.92415412653369,-1.47494412346206,-0.030543262,-0.053145275,0.08735373,310.82593,-97.1242,-6.8955765,STD
13961639257000,0.25496,-0.754117554091929,9.92727455037009,-1.47686437503011,-0.043982297,-0.05955936,0.09590584,310.8614,-97.12133,-6.8788815,STD
13961644228000,0.259931,-0.760779471458951,9.93036759660951,-1.47876777892738,-0.05497787,-0.076358154,0.10048734,310.90045,-97.11782,-6.8620815,STD
13961649254000,0.264957,-0.767515097426895,9.93349486484514,-1.48069224241313,-0.07513642,-0.08857546,0.11301007,310.93976,-97.10899,-6.841523,STD
13961654239000,0.269942,-0.774195776983242,9.93659662213815,-1.48260100693292,-0.07880162,-0.098043874,0.116980694,310.98254,-97.10264,-6.8231845,STD
13961659274000,0.274977,-0.78094346435861,9.9397294903368,-1.48452891653314,-0.079107046,-0.09865474,0.13347405,311.02588,-97.08909,-6.79872,STD
13961664228000,0.279931,-0.787582599067165,9.9428119588683,-1.48642581110306,-0.087659165,-0.106595986,0.13897185,311.07324,-97.07751,-6.777446,STD
13961669217000,0.28492,-0.794268639249034,9.94591620503376,-1.48833610722928,-0.10445796,-0.1160644,0.14110987,311.12067,-97.06269,-6.7535496,STD
13961674202000,0.289905,-0.800949318805382,9.94901796232677,-1.49024487174907,-0.10262536,-0.118202426,0.14996742,311.16754,-97.04647,-6.7272887,STD
13961679323000,0.295026,-0.807812259629465,9.95220434128313,-1.49220571088766,-0.10873401,-0.1328632,0.15790866,311.21994,-97.0289,-6.7019935,STD
13961684212000,0.299915,-0.814364284173293,9.95524636563729,-1.494077716853,-0.118507855,-0.13103059,0.16035213,311.26733,-97.011345,-6.6767063,STD
13961689895000,0.305598,-0.821980392883167,9.95878243117313,-1.49625374669572,-0.11056661,-0.14508049,0.15607607,311.32254,-96.99562,-6.6525626,STD
13961694229000,0.309932,-0.827788630635867,9.96147912447461,-1.49791324226819,-0.124311075,-0.1518,0.15882497,311.37427,-96.97566,-6.626728,STD
13961699222000,0.314925,-0.834480031443258,9.96458585951252,-1.49982507000085,-0.12370021,-0.13805555,0.1563815,311.42303,-96.96132,-6.604607,STD
13961704214000,0.319917,-0.841170092094268,9.96769197233231,-1.5017365148319,-0.13561209,-0.13775012,0.15943582,311.47665,-96.94341,-6.581379,STD
13961709227000,0.32493,-0.847888296029267,9.97081115173248,-1.50365600059673,-0.13072516,-0.14019357,0.14996742,311.52597,-96.932106,-6.5632715,STD
13961714223000,0.329926,-0.854583717305799,9.97391975342473,-1.50556897703422,-0.13194689,-0.12461651,0.15241088,311.56918,-96.91603,-6.541598,STD
13961719208000,0.334911,-0.861264396862146,9.97702151071773,-1.50747774155401,-0.13622294,-0.12980886,0.14935656,311.618,-96.905,-6.525279,STD
13961724199000,0.339902,-0.867953117356776,9.98012700131941,-1.50938880348345,-0.12492194,-0.12583824,0.14477506,311.65887,-96.89583,-6.5091863,STD
13961729224000,0.344927,-0.87468740316834,9.98325364733694,-1.51131288406759,-0.13164146,-0.13469578,0.14080444,311.7041,-96.88594,-6.494702,STD
13961734212000,0.349915,-0.881372103193829,9.98635727128428,-1.51322279729221,-0.13255776,-0.14874569,0.14508049,311.7489,-96.87732,-6.4798245,STD
13961739202000,0.354905,-0.888059483532078,9.98946213966785,-1.51513347632004,-0.14294247,-0.16523905,0.1423316,311.79602,-96.870705,-6.4688053,STD
13961744269000,0.359972,-0.894850055911619,9.99261491884611,-1.51707363877175,-0.1337795,-0.18906279,0.1441642,311.84854,-96.86415,-6.4561253,STD
13961749295000,0.364998,-0.901585681879564,9.99574218708175,-1.5189981022575,-0.13133603,-0.19730948,0.14752395,311.9003,-96.8569,-6.4443817,STD
13961754212000,0.369915,-0.908175230802043,9.99880163354307,-1.52088082946789,-0.12980886,-0.19975294,0.1518,311.9562,-96.850395,-6.432677,STD
13961759724000,0.375427,-0.915562172770867,10.0022312997816,-1.5229913831355,-0.13500121,-0.2134974,0.15760323,312.01672,-96.84285,-6.4204516,STD
13961764227000,0.37993,-0.921596896951856,10.0050331479442,-1.52471558907986,-0.14905111,-0.21960606,0.15851954,312.07465,-96.83545,-6.4090047,STD
13961769208000,0.384911,-0.928272215882682,10.0081324163647,-1.52662282199321,-0.15271631,-0.23335053,0.16676621,312.1377,-96.82579,-6.394748,STD
13961774201000,0.389904,-0.934963616690073,10.0112391514026,-1.52853464972587,-0.15974127,-0.23701571,0.17348573,312.1984,-96.81532,-6.38128,STD
13961779225000,0.394928,-0.941696562345256,10.014365175202,-1.5304583474084,-0.16768251,-0.25167647,0.1908954,312.2652,-96.80015,-6.3634253,STD
13961784377000,0.40008,-0.948192257628742,10.016208383903,-1.53105129375149,-0.17165314,-0.26419923,0.20311269,312.33112,-96.785126,-6.345895,STD
13961789211000,0.404914,-0.949344178052841,10.0014638226819,-1.51492441503105,-0.16615535,-0.2761111,0.21288654,312.39987,-96.767265,-6.3251414,STD
13961794243000,0.409946,-0.950543280985001,9.98611532618541,-1.49813698149335,-0.16371189,-0.2779437,0.2144137,312.47504,-96.7695,-6.32298,STD
13961799204000,0.414907,-0.951725464936997,9.97098339233816,-1.48158641357194,-0.16157386,-0.27122417,0.22204952,312.54993,-96.76875,-6.317003,STD
13961804204000,0.419907,-0.952916942413309,9.95573250154272,-1.46490573636834,-0.17012598,-0.2648101,0.22082779,312.62393,-96.769844,-6.313832,STD
13961809204000,0.424907,-0.954108419889621,9.94048161074727,-1.44822505916474,-0.17684549,-0.2443461,0.21380283,312.6906,-96.77158,-6.3106,STD
13961814217000,0.42992,-0.955302995207371,9.92519106763576,-1.43150101220041,-0.17073683,-0.24923302,0.2125811,312.76154,-96.77323,-6.306935,STD
13961819244000,0.434947,-0.956500906662055,9.90985782203002,-1.41473025933992,-0.19028452,-0.2443461,0.21655174,312.82257,-96.77253,-6.3039184,STD
13961824246000,0.439949,-0.957692860729357,9.89460083087826,-1.39804290986544,-0.19975294,-0.2602286,0.20189096,312.88962,-96.77933,-6.3074,STD
13961829416000,0.445119,-0.958924848439864,9.87883140979577,-1.38079508963691,-0.20066923,-0.2773328,0.19028452,312.95456,-96.78362,-6.309284,STD
13961834247000,0.44995,-0.960076053977476,9.86409599910921,-1.3646782193228,-0.1994475,-0.2910773,0.18753563,313.02182,-96.789116,-6.313302,STD
13961839232000,0.454935,-0.961263957021359,9.84889086098615,-1.34804758415081,-0.20677789,-0.28893927,0.16646078,313.0878,-96.801956,-6.3261285,STD
13961844269000,0.459972,-0.962464251430996,9.83352711359881,-1.3312434699359,-0.20861048,-0.29138273,0.1591304,313.1579,-96.812935,-6.3362503,STD
13961849248000,0.464951,-0.963650724701907,9.81834027654471,-1.31463285157656,-0.20830505,-0.2947425,0.1518,313.22614,-96.82915,-6.3523817,STD
13961854256000,0.469959,-0.964844108542181,9.80306498432399,-1.29792548528943,-0.20463985,-0.30940324,0.14080444,313.297,-96.84857,-6.3717694,STD
13961859252000,0.474955,-0.966034632836512,9.78782629424118,-1.2812581526276,-0.2003638,-0.310625,0.14355333,313.36383,-96.86643,-6.3890595,STD
13961864238000,0.479941,-0.96722277417589,9.77261810593996,-1.26462418132017,-0.20555615,-0.3136793,0.14019357,313.43396,-96.888245,-6.4112506,STD
13961869207000,0.48491,-0.968406864491848,9.75746177066745,-1.24804692431523,-0.19792034,-0.29993483,0.1423316,313.49857,-96.909645,-6.4307265,STD
13961874241000,0.489944,-0.969606444014999,9.7421071738146,-1.23125281850665,-0.21838433,-0.29046643,0.13988814,313.56393,-96.92967,-6.452372,STD
13961879253000,0.494956,-0.970800781037254,9.72681968088124,-1.21453210767776,-0.23335053,-0.2773328,0.14263703,313.62332,-96.949066,-6.471518,STD
13961884241000,0.499944,-0.971989398967623,9.7116053922237,-1.19789146409945,-0.23579398,-0.25870144,0.14202617,313.67728,-96.969124,-6.4918833,STD
13961889265000,0.504968,-0.973186595535821,9.69628129715244,-1.18113071964527,-0.24617869,-0.23609942,0.13988814,313.72534,-96.9864,-6.5113964,STD
13961894275000,0.509978,-0.974380455967085,9.6809999045754,-1.16441668108727,-0.24740042,-0.22388211,0.13897185,313.7702,-97.004105,-6.530327,STD
13961899252000,0.514955,-0.975566452647006,9.66581916787762,-1.14781273499881,-0.25137106,-0.21960606,0.15271631,313.81024,-97.01694,-6.545121,STD
13961904234000,0.519937,-0.976753640804403,9.65062318028904,-1.13119210823314,-0.24617869,-0.20891592,0.15882497,313.84415,-97.03268,-6.561743,STD
13961909254000,0.524957,-0.97794988419062,9.63531128593041,-1.11444470832073,-0.22693644,-0.20555615,0.16707164,313.87854,-97.045105,-6.5735865,STD
13961914246000,0.529949,-0.97913945530297,9.62008479656024,-1.09779072020065,-0.2312125,-0.19822577,0.18509217,313.90833,-97.05131,-6.5804796,STD
13961919241000,0.534944,-0.980329741301806,9.60484915665559,-1.08112672367426,-0.23793201,-0.18997909,0.19058995,313.93634,-97.06034,-6.588444,STD
13961924243000,0.539946,-0.981521695369108,9.58959216550382,-1.06443937419978,-0.22082779,-0.16737708,0.19394971,313.95782,-97.0672,-6.591616,STD
13961929254000,0.544957,-0.982715794095868,9.57430772274863,-1.04772199950633,-0.20861048,-0.14966199,0.19975294,313.97797,-97.07085,-6.59252,STD
13961934245000,0.549948,-0.983905126912722,9.55908428355661,-1.0310713475217,-0.2125811,-0.14263703,0.19394971,313.9943,-97.07684,-6.5957084,STD
13961939196000,0.554899,-0.985084927909766,9.54398285149096,-1.01455414095469,-0.20341812,-0.14782938,0.18448131,314.00894,-97.08493,-6.5983334,STD
13961945186000,0.560889,-0.986512317926387,9.52571228431802,-0.994570689664782,-0.21594086,-0.16218472,0.17745635,314.02402,-97.09121,-6.601986,STD
13961949259000,0.564962,-0.987482895478591,9.51328890867605,-0.980982610014731,-0.22052236,-0.17592919,0.16584991,314.04013,-97.10292,-6.6096992,STD
13961954199000,0.569902,-0.988660075225187,9.49822102857015,-0.964502100937575,-0.21319197,-0.17745635,0.14477506,314.0564,-97.11885,-6.622072,STD
13961959227000,0.57493,-0.989858224975366,9.48288473278625,-0.947728011941635,-0.20647246,-0.18203785,0.13164146,314.07724,-97.135056,-6.6355433,STD
13961964216000,0.579919,-0.99104708120123,9.46766739395055,-0.931084032227884,-0.2144137,-0.19975294,0.116980694,314.10175,-97.15619,-6.655341,STD
13961969184000,0.584887,-0.992230933221694,9.4525141088562,-0.914510111358388,-0.20616703,-0.2125811,0.103847094,314.1258,-97.182396,-6.6780295,STD
13961974203000,0.589906,-0.993426938312415,9.43720526467573,-0.897766047581416,-0.21013765,-0.21502456,0.09132435,314.1515,-97.209755,-6.704309,STD
13961979193000,0.594896,-0.994616032833775,9.42198487566188,-0.881118731732224,-0.20769419,-0.2125811,0.07941248,314.17896,-97.241455,-6.733682,STD
13961984184000,0.599887,-0.995805365650629,9.40676143646986,-0.864468079747591,-0.19425514,-0.21319197,0.0729984,314.20755,-97.27515,-6.7644467,STD
13961989205000,0.604908,-0.958300675260116,9.41937697803468,-0.840815946630058,-0.19700404,-0.21197024,0.06658431,314.2345,-97.30987,-6.7977843,STD
13961994256000,0.609959,-0.913563149487811,9.43712608286504,-0.815772657283036,-0.19517145,-0.23060162,0.053450707,314.2669,-97.34923,-6.834372,STD
13961999220000,0.614923,-0.869596196818296,9.45456947157577,-0.79116072136567,-0.19181168,-0.23762658,0.054367006,314.29056,-97.36378,-6.8617163,STD
13962004208000,0.619911,-0.825416672258356,9.47209719576778,-0.766429791398743,-0.19272798,-0.24831672,0.056199603,314.31998,-97.38118,-6.891986,STD
13962009223000,0.624926,-0.780998004321689,9.48971979737622,-0.741564993126062,-0.19914207,-0.26328292,0.064446285,314.35223,-97.39624,-6.919475,STD
13962014948000,0.630651,-0.73029075129329,9.5098373236391,-0.713179954220558,-0.21044308,-0.2846632,0.07788532,314.38898,-97.40872,-6.9444036,STD
13962019218000,0.634921,-0.69247066912189,9.52484201134959,-0.692008929569641,-0.2144137,-0.29352075,0.081855945,314.42572,-97.4216,-6.9690413,STD
13962024201000,0.639904,-0.648335430372455,9.54235216564966,-0.667302790029706,-0.21746802,-0.30695978,0.10293079,314.46948,-97.42537,-6.984733,STD
13962029226000,0.644929,-0.603828190814778,9.56000990704197,-0.642388410903041,-0.20922135,-0.31490102,0.12492194,314.5134,-97.428696,-6.9985995,STD
13962034213000,0.649916,-0.559657523416939,9.57753411725559,-0.617662439021513,-0.1872302,-0.310625,0.14049901,314.55682,-97.429405,-7.0080137,STD
13962039209000,0.654912,-0.515407141560191,9.59508995327469,-0.5928918443714,-0.17928895,-0.30940324,0.16523905,314.60278,-97.42159,-7.0086074,STD
13962044254000,0.659957,-0.470722758760493,9.61281797423473,-0.567878303536768,-0.1685988,-0.301462,0.17379116,314.64456,-97.41678,-7.0093646,STD
13962049281000,0.664984,-0.426197804878613,9.63048274358382,-0.542954008239306,-0.16035213,-0.28619036,0.1740966,314.6831,-97.40864,-7.0056477,STD
13962054216000,0.669919,-0.382487709910028,9.64782422692134,-0.518485856798492,-0.15088372,-0.27672195,0.1777618,314.7203,-97.39901,-6.9989033,STD
13962059226000,0.674929,-0.338113327783865,9.66542925863785,-0.493645848952802,-0.15577064,-0.2751948,0.16920967,314.75446,-97.39261,-6.9958673,STD
13962064228000,0.679931,-0.293809802954511,9.68300617852727,-0.468845505790299,-0.15454891,-0.26206118,0.1518,314.78177,-97.38959,-6.994478,STD
13962069217000,0.68492,-0.24962142123247,9.70053741669766,-0.444109617737974,-0.15577064,-0.2611449,0.13347405,314.81143,-97.3889,-6.9962406,STD
13962074205000,0.689908,-0.205441896672531,9.71806514088967,-0.419378687771048,-0.160963,-0.26511553,0.10629055,314.8379,-97.395355,-7.0055537,STD
13962079226000,0.694929,-0.160970085763257,9.73570882636843,-0.394484140985976,-0.16218472,-0.2648101,0.08246681,314.86224,-97.40624,-7.0190587,STD
13962084583000,0.700286,-0.113522268388037,9.75453320858507,-0.367923677507062,-0.1591304,-0.26236662,0.06688975,314.8864,-97.4221,-7.037731,STD
13962089201000,0.704904,-0.0726198938054787,9.77076076077406,-0.345027239137522,-0.16035213,-0.24984388,0.053450707,314.90698,-97.44308,-7.062022,STD
13962094210000,0.709913,-0.0282543688414175,9.78836227851219,-0.32019218937723,-0.14355333,-0.24678956,0.030543262,314.929,-97.47238,-7.09298,STD
13962099203000,0.714906,0.0159694415290274,9.80590757259613,-0.295436468983312,-0.1328632,-0.23243423,0.030848695,314.94397,-97.49783,-7.1201434,STD
13962104241000,0.719944,0.0605918241940187,9.82361099570746,-0.270457634746469,-0.1414153,-0.21319197,0.022602014,314.95624,-97.53092,-7.155362,STD
13962109229000,0.724932,0.104771348753958,9.84113871989947,-0.245726704779543,-0.14935656,-0.20341812,0.023823744,314.96716,-97.561615,-7.186884,STD
13962114232000,0.729935,0.149083730745413,9.85871915376728,-0.220921403531641,-0.14660765,-0.18325958,0.027183503,314.9696,-97.59334,-7.2188835,STD
13962119226000,0.734929,0.193316398277959,9.8762679618296,-0.196160725052325,-0.16554448,-0.1777618,0.04062254,314.97366,-97.61854,-7.246776,STD
13962124272000,0.739975,0.238009638239759,9.89399949676803,-0.171142226132295,-0.18051068,-0.17134771,0.058948494,314.972,-97.64127,-7.271169,STD
13962129366000,0.745069,0.283128021982408,9.91189970266901,-0.145885739113144,-0.19211712,-0.14385876,0.080634214,314.963,-97.65739,-7.2896457,STD
13962134236000,0.749939,0.326262401414426,9.92901277741141,-0.121739863223222,-0.2125811,-0.12858713,0.11942416,314.9563,-97.66123,-7.297407,STD
13962139252000,0.754955,0.370689926513194,9.94663889299824,-0.096870106865142,-0.22357668,-0.12644911,0.15424347,314.94583,-97.65968,-7.29943,STD
13962144258000,0.759961,0.415028879990952,9.9642298688012,-0.0720499313610455,-0.24923302,-0.12186762,0.18234327,314.93085,-97.64625,-7.2918553,STD
13962149224000,0.764927,0.459013546984669,9.98168028546871,-0.0474280792728827,-0.25961772,-0.111177474,0.22113322,314.9141,-97.620964,-7.2712455,STD
13962154294000,0.769997,0.503919358836894,9.99949615588842,-0.0222905863032923,-0.2855795,-0.115453534,0.26297748,314.899219443891,-97.5691412633048,-7.22756904669125,STD
13962169292000,0.784995,0.636759076028148,10.0521988037296,0.0520707785010304,-0.32650748,-0.12614368,0.3555236,314.8552,-97.41584,-7.098366,STD
13962174132000,0.789835,0.679627740597135,10.0692064591204,0.0760679118290022,-0.33505958,-0.13225232,0.3707952,314.8409,-97.347244,-7.038432,STD
13962179138000,0.794841,0.723966694074893,10.0867974349233,0.100888087333099,-0.34238997,-0.1301143,0.38698313,314.8271,-97.27167,-6.9726267,STD
13962184274000,0.799977,0.765271460350998,10.1027648643665,0.125122089823705,-0.32620203,-0.14508049,0.3912592,314.81943,-97.19827,-6.9077225,STD
13962189127000,0.80483,0.753942953889478,10.0928235375497,0.133213881119004,-0.33414328,-0.1600467,0.39461896,314.81076,-97.1201,-6.840118,STD
13962194152000,0.809855,0.742212942562641,10.0825298702811,0.141592461638039,-0.34269542,-0.18051068,0.38698313,314.75543,-96.86683,-6.6202965,STD
13962199131000,0.814834,0.73059031044397,10.0723304335985,0.149894342713516,-0.34574974,-0.21960606,0.37140608,314.708,-96.62204,-6.4076366,STD
13962204205000,0.819908,0.718745916917131,10.061936390271,0.158354624813732,-0.3390302,-0.24007004,0.34666604,314.6593,-96.38932,-6.2051263,STD
13962209243000,0.824946,0.706985559292334,10.0516160926194,0.166754881262467,-0.33475417,-0.2733622,0.31764993,314.6236,-96.16903,-6.01382,STD
13962214221000,0.829924,0.695365261504276,10.0414187044278,0.175055094958737,-0.3475823,-0.3005457,0.2843578,314.59012,-95.96331,-5.835666,STD
13962219212000,0.834915,0.683714617418257,10.0311946858531,0.183376984584708,-0.33933565,-0.32559118,0.23243423,314.5636,-95.77929,-5.675712,STD
13962224232000,0.839935,0.671996277744482,10.0209112610396,0.191747228207703,-0.31398472,-0.35063666,0.19822577,314.54306,-95.60634,-5.52431,STD
13962229222000,0.844925,0.660347967989076,10.0106892909559,0.200067450454466,-0.28985557,-0.35827246,0.16737708,314.52283,-95.453415,-5.3903,STD
13962234214000,0.849917,0.648694989572445,10.0004632238903,0.208391007459645,-0.2883284,-0.3735441,0.13744467,314.5103,-95.31568,-5.269064,STD
13962239197000,0.8549,0.637063020131326,9.99025559324369,0.216699558051953,-0.28160888,-0.37384954,0.10720685,314.49414,-95.19309,-5.1595335,STD
13962244231000,0.859934,0.625311999828978,9.97994348955613,0.225093144983858,-0.24923302,-0.36774087,0.093767814,314.4791,-95.07971,-5.056292,STD
13962249217000,0.86492,0.613673027396021,9.9697297134365,0.23340669771379,-0.24953845,-0.35216382,0.08093964,314.4601,-94.978264,-4.963677,STD
13962254210000,0.869913,0.602017714648779,9.95950159787989,0.241731922098176,-0.23365596,-0.33964106,0.08246681,314.4392,-94.88151,-4.8728137,STD
13962259239000,0.874942,0.590278365999493,9.94919973664732,0.250117172134042,-0.226631,-0.33169982,0.081855945,314.4142,-94.79229,-4.7880344,STD
13962264220000,0.879923,0.578651065219597,9.93899620298268,0.258422387967935,-0.21410827,-0.3200934,0.09468412,314.38382,-94.7023,-4.7007365,STD
13962269209000,0.884912,0.567005089794804,9.92877628139006,0.26674094283549,-0.20341812,-0.2919936,0.11056661,314.34576,-94.61468,-4.6144557,STD
13962274200000,0.889903,0.555354445708785,9.91855226281544,0.27506283246146,-0.21013765,-0.26511553,0.12156218,314.30414,-85.472206,-4.527694,STD
13962279219000,0.894922,0.543638440365623,9.90827088649286,0.283431408705249,-0.19425514,-0.24404067,0.13225232,314.25577,-85.56068,-4.4383264,STD
13962284212000,0.899915,0.53198312761838,9.89804277093624,0.291756633089635,-0.19364429,-0.22174409,0.1563815,314.19904,-85.65317,-4.343814,STD
13962289198000,0.904901,0.520344155185423,9.88782899481662,0.300070185819567,-0.20738874,-0.2125811,0.16676621,314.13995,-85.74187,-4.2520385,STD
13962294372000,0.910075,0.508266328597353,9.87723010238923,0.308697205840559,-0.21319197,-0.18875736,0.19761491,314.07025,-85.840416,-4.1495156,STD
13962299215000,0.914918,0.496961165441956,9.86730926048242,0.31677232334378,-0.21746802,-0.18081611,0.20708331,314.0025,-85.93252,-4.052123,STD
13962304203000,0.919906,0.485317524347774,9.8570913873808,0.325089210832127,-0.2312125,-0.16584991,0.22327125,313.926,-86.03157,-3.9461722,STD
13962309238000,0.924941,0.473564169714814,9.84677723520224,0.333484465143239,-0.2302962,-0.17134771,0.2321288,313.85324,-86.128075,-3.84175,STD
13962314220000,0.929923,0.461934534604307,9.83657165304661,0.34179134835634,-0.24129178,-0.15485434,0.24678956,313.77002,-86.22629,-3.7333074,STD
13962319216000,0.934919,0.450272218865227,9.82633739201699,0.35012157487835,-0.2312125,-0.15027285,0.25900686,313.692,-86.32348,-3.6252272,STD
13962324198000,0.939901,0.43864258375472,9.81613180986136,0.35842845809145,-0.22510384,-0.14996742,0.25381452,313.6107,-86.415405,-3.5202262,STD
13962329221000,0.944924,0.426917241089107,9.80584223957478,0.36680370385207,-0.2321288,-0.13958271,0.24801129,313.52542,-86.506424,-3.4142566,STD
13962334210000,0.949913,0.415271265664314,9.79562231798216,0.375122258719625,-0.21960606,-0.11728613,0.23793201,313.43707,-86.59251,-3.313269,STD
13962339815000,0.955518,0.40218734258234,9.78414052593433,0.384467919179165,-0.20677789,-0.09407325,0.21777347,313.34592,-86.670135,-3.218963,STD
13962344286000,0.959989,0.39175055041472,9.77498172267904,0.391922771617096,-0.19425514,-0.08368854,0.1777618,313.2528,-86.736984,-3.135187,STD
13962349203000,0.964906,0.380272646794013,9.76490929243833,0.400121275181692,-0.1695151,-0.077579886,0.14477506,313.15512,-86.799324,-3.0569127,STD
13962354211000,0.969914,0.368582319087585,9.75465044951673,0.408471510254195,-0.16920967,-0.06994407,0.103847094,313.0552,-86.84516,-2.9937053,STD
13962359239000,0.974942,0.356845304768912,9.74435063677516,0.416855092910853,-0.17623462,-0.084910266,0.070554934,312.96127,-86.88366,-2.938657,STD
13962364223000,0.979926,0.34521100099718,9.73414095763753,0.425165310882369,-0.17379116,-0.109650314,0.03481932,312.86942,-86.909996,-2.8966038,STD
13962369211000,0.984914,0.333567359902998,9.72392308453591,0.433482198370716,-0.16462818,-0.1432479,-0.0009162979,312.7857,-86.92645,-2.864273,STD
13962374198000,0.989901,0.321926053139429,9.71370725992528,0.441797418479856,-0.1469131,-0.17898351,-0.02687807,312.71097,-86.93661,-2.8392901,STD
13962379205000,0.994908,0.310238059763614,9.70345046549468,0.450145986173151,-0.122783914,-0.19792034,-0.046120327,312.64215,-86.940636,-2.822356,STD
13962384162000,0.999865,0.298666782918414,9.69329609561402,0.458411184906057,-0.118507855,-0.2171626,-0.0693332,312.5847,-86.936646,-2.8135087,STD
13962389206000,1.004909,0.31060759552142,9.69685085310542,0.462350095968023,-0.09590584,-0.22143865,-0.08277224,312.5292,-86.93525,-2.806992,STD
13962394309000,1.010012,0.32697747513951,9.70295901304863,0.465526341944846,-0.09468412,-0.2134974,-0.098043874,312.47662,-86.925835,-2.8071063,STD
13962399249000,1.014952,0.342824468146245,9.70887206617805,0.46860113228886,-0.06841691,-0.19181168,-0.09743301,312.43607,-86.90306,-2.8209982,STD
13962404207000,1.01991,0.358729203232761,9.71480666484519,0.471687126322386,-0.05955936,-0.17012598,-0.10629055,312.39392,-86.87307,-2.8409605,STD
13962409737000,1.02544,0.376468853299004,9.72142593282205,0.475129148711535,-0.048258353,-0.14263703,-0.118202426,312.34457,-86.84689,-2.8607771,STD
13962414219000,1.029922,0.390846631164628,9.72679077171397,0.477918867400173,-0.03970624,-0.12064589,-0.11759156,312.2914,-86.823456,-2.8785694,STD
13962419213000,1.034916,0.406866850410707,9.73276846145655,0.481027268812725,-0.034513887,-0.11484267,-0.11636983,312.23605,-86.799164,-2.8984792,STD
13962424199000,1.039902,0.422861406510216,9.73873657540458,0.484130690807715,-0.015577064,-0.11026118,-0.10354166,312.17578,-86.78181,-2.9138412,STD
13962429224000,1.044927,0.438981070449253,9.74475137135101,0.487258387463316,-0.015577064,-0.111177474,-0.08857546,312.11652,-86.76463,-2.9271126,STD
13962434218000,1.049921,0.455001289695332,9.75072906109359,0.490366788875868,-0.016187929,-0.12339478,-0.07788532,312.06024,-86.75267,-2.9369185,STD
13962439199000,1.054902,0.470979806328236,9.75669119017003,0.493467098734883,-0.009162978,-0.1441642,-0.064446285,312.00763,-86.746826,-2.940788,STD
13962444227000,1.05993,0.487109093947236,9.76270957703941,0.496596662672069,-0.011301007,-0.16462818,-0.051618114,311.9593,-86.742874,-2.9410388,STD
13962449203000,1.064906,0.503071571113533,9.76866572124427,0.499693860395109,-0.01282817,-0.18142697,-0.046120327,311.91666,-86.741714,-2.938977,STD
13962454207000,1.06991,0.519123869292824,9.77465538073002,0.502808486079612,-0.0015271631,-0.19883664,-0.03940081,311.88058,-86.74566,-2.9324663,STD
13962459207000,1.07491,0.535163335898831,9.78064025231851,0.505920622055334,0.00061086525,-0.20708331,-0.021685716,311.8471,-86.75262,-2.9209912,STD
13962464221000,1.079924,0.551247713011334,9.78664188154744,0.509041472011789,0.009162978,-0.20891592,-0.030543262,311.81735,-86.75662,-2.915069,STD
13962469218000,1.084921,0.567277555937377,9.79262316221297,0.512151740705926,0.01160644,-0.22082779,-0.021380283,311.79294,-86.76913,-2.8988965,STD
13962474202000,1.089905,0.583265696250244,9.79858888221237,0.515253917846526,0.01038471,-0.21960606,-0.02687807,311.76584,-86.77601,-2.8896022,STD
13962479294000,1.094997,0.599600289041801,9.80468387543808,0.518423317124202,0.027183503,-0.20463985,-0.031154128,311.7384,-86.7879,-2.877515,STD
13962484213000,1.099916,0.61537991628879,9.81057179210683,0.521485036497118,0.022602014,-0.19272798,-0.03573562,311.71182,-86.795235,-2.867187,STD
13962489192000,1.104895,0.631352017135051,9.81653152723464,0.524584101501742,0.014049901,-0.18967366,-0.033292156,311.68387,-86.80467,-2.8561878,STD
13962494247000,1.10995,0.647567917873723,9.8225822324106,0.527730470973198,0.018020526,-0.18417588,-0.053145275,311.6525,-86.80809,-2.852986,STD
13962499214000,1.114917,0.66350152400013,9.8285276038466,0.530822066851481,0.018325957,-0.18081611,-0.06811147,311.62122,-86.8117,-2.8476965,SCH
13962504218000,1.119921,0.679553822179421,9.83451726333235,0.533936692535984,0.030848695,-0.18784106,-0.084910266,311.59204,-86.81187,-2.8484182,SCH
13962509263000,1.124966,0.695737643984882,9.84055599876513,0.537076837735488,0.04062254,-0.1704314,-0.1001819,311.5555,-86.808426,-2.8528984,SCH
13962514222000,1.129925,0.711645586964719,9.84649179440659,0.540163454196209,0.056199603,-0.15485434,-0.11453723,311.52222,-86.803474,-2.8614647,SCH
13962519212000,1.134915,0.727652974637513,9.85246469625189,0.543269365899981,0.0571159,-0.13713925,-0.11881329,311.48398,-86.79686,-2.8711274,SCH
13962524194000,1.139897,0.743634699163738,9.85842802230266,0.54637029818619,0.06078109,-0.12797627,-0.11942416,311.44464,-86.79012,-2.883258,SCH
13962529224000,1.144927,0.75977040256938,9.86444880312067,0.549501106977767,0.06688975,-0.11484267,-0.119729586,311.4,-86.78312,-2.8959785,SCH
13962534210000,1.149913,0.77576495866889,9.87041691706871,0.552604528972758,0.058643065,-0.11056661,-0.11942416,311.35617,-86.7751,-2.908008,SCH
13962539195000,1.154898,0.791756306875078,9.87638383404243,0.555707328540553,0.06414085,-0.093767814,-0.12003502,311.30597,-86.76951,-2.919877,SCH
13962544247000,1.15995,0.807962583933787,9.88243094829543,0.558851830730423,0.06872234,-0.0983493,-0.112399206,311.2616,-86.76533,-2.9285007,SCH
13962549354000,1.165057,0.824345295125162,9.88854389613591,0.562030566416026,0.06872234,-0.09407325,-0.11301007,311.21097,-86.75928,-2.9391484,SCH
13962554209000,1.169912,0.839919617199594,9.89435520644832,0.565052450448453,0.07666359,-0.09010262,-0.10567969,311.1626,-86.75899,-2.9447236,SCH
13962559264000,1.174967,0.856135517938266,9.90040591162428,0.568198819919909,0.054367006,-0.08307768,-0.101098195,311.11316,-86.75444,-2.950733,SCH
13962564223000,1.179926,0.872043460918104,9.90634170726574,0.57128543638063,0.054367006,-0.08124508,-0.09132435,311.06494,-86.75689,-2.952672,SCH
13962569212000,1.184915,0.888047640697577,9.91231341213672,0.574390725657206,0.06994407,-0.0729984,-0.07971791,311.0138,-86.76041,-2.9523897,SCH
13962574205000,1.189908,0.904064652050335,9.91828990490498,0.577498504642563,0.0580322,-0.069027774,-0.06841691,310.9642,-86.76329,-2.9490085,SCH
13962579220000,1.194923,0.920152237056159,9.92429273110823,0.580619977026212,0.06780604,-0.08857546,-0.05467244,310.91983,-86.77418,-2.9412577,SCH
13962584146000,1.199849,0.935954319556397,9.93018902659721,0.583686053389494,0.077579886,-0.08979719,-0.044593163,310.86996,-86.785576,-2.9313107,SCH
13962589195000,1.204898,0.916740249989137,9.93298152905839,0.565045433612011,0.07849618,-0.09254608,-0.041233405,310.82684,-86.79865,-2.9192328,SCH
13962594236000,1.209939,0.890880287932447,9.93515665949948,0.542327335189159,0.07544186,-0.11209377,-0.03268129,310.78952,-86.816025,-2.9027858,SCH
13962599228000,1.214931,0.86527169229924,9.93731064703409,0.519830063352841,0.0729984,-0.11728613,-0.025350908,310.746,-86.87389,-2.8302867,SCH
13962604204000,1.219907,0.83974517549819,9.93945773076249,0.497404898157024,0.089491755,-0.12492194,-0.023518313,310.70892,-86.932144,-2.758606,SCH
13962609256000,1.224959,0.813828784244392,9.94163760757035,0.474637226418827,0.099265605,-0.12980886,-0.010995574,310.67252,-86.99154,-2.6835976,SCH
13962614222000,1.229925,0.788353566713441,9.94378037641988,0.452257127873324,0.105068825,-0.118202426,-0.0036651916,310.6337,-87.04926,-2.6114674,SCH
13962619208000,1.234911,0.762775750642293,9.94593177502716,0.429786896027194,0.103847094,-0.11759156,0.00061086525,310.59946,-87.10728,-2.538433,SCH
13962624194000,1.239897,0.737197934571145,9.94808317363444,0.407316664181064,0.095294975,-0.10720685,0.013744468,310.55914,-87.166725,-2.4627154,SCH
13962629226000,1.244929,0.711384141857544,9.95025442068455,0.384639125743493,0.09743301,-0.08827003,0.0125227375,310.51645,-87.22261,-2.3917284,SCH
13962634211000,1.249914,0.685811455713406,9.95240538780394,0.362173400562395,0.09468412,-0.06872234,0.019242255,310.47064,-87.27929,-2.3166015,SCH
13962639196000,1.254899,0.660238769569268,9.95455635492333,0.339707675381296,0.08460484,-0.05375614,0.02443461,310.42105,-87.33198,-2.2440825,SCH
13962644293000,1.259996,0.634091531600026,9.95675564868613,0.31673720371669,0.077579886,-0.046120327,0.026267206,310.36835,-87.382965,-2.1723704,SCH
13962649282000,1.264985,0.608498325747849,9.95890834175707,0.294253451875466,0.071776666,-0.019242255,0.035124753,310.30618,-87.43286,-2.0990434,SCH
13962654209000,1.269912,0.583223175370282,9.96103428257899,0.272049113266184,0.06566802,-0.013133603,0.03573562,310.24835,-87.47743,-2.0290365,SCH
13962659261000,1.274964,0.557306784116484,9.96321415938684,0.249281441527987,0.05467244,0.0125227375,0.04337143,310.17767,-87.521065,-1.9563959,SCH
13962664928000,1.280631,0.528235487751623,9.96565940124554,0.223742170795532,0.05100725,0.024129177,0.040317107,310.11005,-87.55985,-1.8880917,SCH
13962669219000,1.284922,0.506222970952326,9.96751091577098,0.204404071146166,0.029321533,0.03573562,0.040927973,310.03564,-87.59299,-1.8182094,SCH
13962674201000,1.289904,0.480665674589218,9.96966058842671,0.181951865960161,0.012217305,0.04184427,0.043982297,309.96033,-87.62313,-1.7499292,SCH
13962679225000,1.294928,0.454892921291695,9.97182838357371,0.159310380842841,0.007330383,0.05222898,0.027794369,309.8814,-87.644684,-1.6884229,SCH
13962684213000,1.299916,0.429304845366528,9.97398064515677,0.136831135666648,-0.017104227,0.04734206,0.026267206,309.80573,-87.659615,-1.623039,SCH
13962689215000,1.304918,0.403644950463222,9.97613894757025,0.114288797180017,-0.027488936,0.047036625,0.025045475,309.7268,-87.67038,-1.5634007,SCH
13962694312000,1.310015,0.37749771249398,9.97833824133305,0.0913183255154116,-0.03359759,0.04337143,0.029321533,309.65094,-87.67501,-1.5035774,SCH
13962699227000,1.31493,0.352284121240532,9.98045900430031,0.0691680668865048,-0.03970624,0.028710667,0.023518313,309.5792,-87.67271,-1.4478688,SCH
13962704204000,1.319907,0.326752474512473,9.9826065195166,0.0467383950256567,-0.0421497,0.007941248,0.02321288,309.51086,-87.669106,-1.3902508,SCH
13962709254000,1.324957,0.300846343112694,9.98478553334869,0.0239797366175226,-0.048563786,0.0036651916,0.01985312,309.4427,-87.65933,-1.3361266,SCH
13962714221000,1.329924,0.275365995654734,9.9869287336861,0.00159513140698764,-0.04550946,-0.007941248,0.021380283,309.383,-87.64978,-1.2813803,SCH
13962719221000,1.334924,0.249716360605448,9.98908617312381,-0.0209381937495807,-0.04642576,-0.008552114,0.044593163,309.32172,-87.63846,-1.2223601,SCH
13962724197000,1.3399,0.224189843804398,9.99123325685221,-0.0433633589453976,-0.03970624,-0.0076358155,0.05681047,309.2638,-87.62627,-1.1668631,SCH
13962729220000,1.344923,0.198422220433886,9.99340062051133,-0.0660003373976861,-0.037873644,-0.009773844,0.06566802,309.20706,-87.6133,-1.1067524,SCH
13962734545000,1.350248,0.171105359106396,9.99569829351249,-0.0899983286894314,-0.028405234,-0.005497787,0.07971791,309.14844,-87.60395,-1.0429215,SCH
13962739228000,1.354931,0.147081910919235,9.99771895128984,-0.111103041031073,-0.033292156,0.008552114,0.09407325,309.0879,-87.59007,-0.97779745,SCH
13962744265000,1.359968,0.121242468570585,9.99989235577939,-0.1338031127938,-0.02076942,0.032986723,0.1142318,309.0233,-87.58294,-0.90848386,SCH
13962749222000,1.364925,0.0958134203827226,10.0020312412379,-0.156142651354022,-0.022296581,0.032375857,0.13408493,308.9621,-87.56957,-0.83641016,SCH
13962754206000,1.369909,0.0702458641655945,10.0041817768694,-0.17860386987009,-0.023823744,0.042760566,0.14996742,308.89114,-87.55813,-0.7616004,SCH
13962759293000,1.374996,0.0441499254664511,10.0063767557534,-0.201529274884382,-0.03359759,0.04642576,0.160963,308.82263,-87.5422,-0.68404424,SCH
13962764223000,1.379926,0.0188593853078552,10.0085039910389,-0.223747133488759,-0.043982297,0.03573562,0.17867808,308.75555,-87.52407,-0.60167044,SCH
13962769211000,1.384914,-0.00672869061731242,10.010656252622,-0.246226378664951,-0.050396383,0.026572637,0.1908954,308.6874,-87.50134,-0.51951295,SCH
13962774197000,1.3899,-0.0323065066884602,10.0128076512293,-0.268696610511081,-0.052534413,0.017715093,0.20922135,308.62238,-87.474945,-0.43225595,SCH
13962779282000,1.394985,-0.0583921855335839,10.0150017671374,-0.291613002195311,-0.056199603,0.026267206,0.22388211,308.55524,-87.44337,-0.34456804,SCH
13962784148000,1.399851,-0.083354410363549,10.0171013871982,-0.313542434237684,-0.05589417,0.019242255,0.2275473,308.49527,-87.40936,-0.25651374,SCH
13962789200000,1.404903,-0.182276121237688,9.99331871780338,-0.35606997606207,-0.05009095,0.035430185,0.2443461,308.42612,-87.37345,-0.16300438,SCH
13962794278000,1.409981,-0.290726649213901,9.96620601031407,-0.401257692906523,-0.0571159,0.05955936,0.24831672,308.3571,-87.330765,-0.07421344,SCH
13962799240000,1.414943,-0.374497944035938,9.95300082373075,-0.394607591243582,-0.06536258,0.07238753,0.24801129,308.36096,-87.367516,-0.053386465,SCH
13962804261000,1.419964,-0.452216861161818,9.94385723806807,-0.37174909491158,-0.058643065,0.095294975,0.24801129,308.35522,-87.40527,-0.03260903,SCH
13962809209000,1.424912,-0.529848169391564,9.94710110724967,-0.306534849869032,-0.062002823,0.11056661,0.24281894,308.37793,-87.44354,-0.015596737,SCH
13962814203000,1.429906,-0.608761753667114,9.95696550613592,-0.217757046958853,-0.077579886,0.124005646,0.22693644,308.39462,-87.47904,-0.0028208678,SCH
13962819209000,1.434912,-0.622199884043195,10.0092257469598,-0.138899564527386,-0.07788532,0.13194689,0.23182335,308.42877,-87.51334,0.01771751,SCH
13962824208000,1.439911,-0.608227394539352,10.0790882187956,-0.0643795444770892,-0.10598512,0.12858713,0.2302962,308.46222,-87.53454,0.031010766,SCH
13962829221000,1.444924,-0.597309002962963,10.094486212963,-0.0986056392407407,-0.118507855,0.113926366,0.23823744,308.51547,-87.54209,0.05217241,SCH
13962834212000,1.449915,-0.588088746635802,10.0806557803337,-0.190808266536555,-0.1337795,0.13316862,0.2443461,308.55914,-87.54104,0.070993006,SCH
13962839192000,1.454895,-0.592352011445568,10.1074675573567,-0.30334435701864,-0.14752395,0.14813483,0.25167647,308.62097,-87.51807,0.10631364,SCH
13962844306000,1.460009,-0.606919457965497,10.1657372927325,-0.434451472035495,-0.16462818,0.18509217,0.25686884,308.66965,-87.49044,0.14077547,SCH
13962849202000,1.464905,-0.571599642723408,10.2336205930828,-0.519404149979712,-0.17073683,0.21471913,0.2660318,308.74222,-87.47162,0.19122003,SCH
13962854214000,1.469917,-0.497405526510482,10.3124524628538,-0.57504974077094,-0.18081611,0.23579398,0.28496864,308.80493,-87.44661,0.24358232,SCH
13962859210000,1.474913,-0.421535348258747,10.3885607005696,-0.577904584768104,-0.2012801,0.23426682,0.3145956,308.89426,-87.43124,0.3078927,SCH
13962864221000,1.479924,-0.343440342578429,10.4623167673809,-0.525841246137781,-0.204029,0.23762658,0.35063666,308.97406,-87.41638,0.37662444,SCH
13962869208000,1.484911,-0.278979590857741,10.5139465371339,-0.48425484542887,-0.22174409,0.22235495,0.38759398,309.07648,-87.387985,0.47324017,SCH
13962874390000,1.490093,-0.247832930514644,10.5087553222803,-0.468681515257322,-0.24465153,0.20830505,0.43493605,309.17462,-87.35256,0.5794302,SCH
13962879158000,1.494861,-0.241954489414758,10.4901855979644,-0.466607372798982,-0.26419923,0.19914207,0.46700647,309.28278,-87.28646,0.7100043,SCH
13962884213000,1.499916,-0.27644562135369,10.4458399994911,-0.486316583699746,-0.2724459,0.19364429,0.4810564,309.3904,-87.212395,0.8442864,SCH
13962889198000,1.504901,-0.364975154631532,10.3753046315319,-0.492886888302814,-0.29657507,0.20433442,0.5122105,309.51312,-87.10644,1.0055665,SCH
13962894282000,1.509985,-0.538940270443948,10.2622268439482,-0.479839500529701,-0.321926,0.20861048,0.5348125,309.63535,-86.99526,1.1630441,SCH
13962899272000,1.514975,-0.712865123877725,10.1474408597691,-0.428346112571612,-0.32284227,0.21655174,0.5503896,309.7787,-86.87174,1.3305892,SCH
13962904204000,1.519907,-0.899655820500214,10.0161830282172,-0.196119814025224,-0.3323107,0.23640485,0.56688297,309.91263,-86.73639,1.4986717,SCH
13962909204000,1.524907,-1.06376149188928,9.88808749554781,0.0141297764672861,-0.37232238,0.2312125,0.5626069,310.07117,-86.60286,1.6483212,SCH
13962914223000,1.529926,-1.16610877278359,9.77178387766163,0.162998514231514,-0.419359,0.24251351,0.5665775,310.2147,-86.464005,1.7988756,SCH
13962919182000,1.534885,-1.26023491859492,9.68011862313905,0.287894078355551,-0.4877759,0.2507602,0.58093286,310.3676,-86.28917,1.945229,SCH
13962924204000,1.539907,-1.33043252939574,9.67075875274886,0.334692482298336,-0.56505036,0.24251351,0.57635134,310.51788,-86.108406,2.0821085,SCH
13962929194000,1.544897,-1.38780501436685,9.66882187336979,0.344376246657762,-0.6218608,0.21166481,0.5751296,310.66202,-85.90765,2.211708,SCH
13962934209000,1.549912,-1.38275367302272,9.70418110454354,0.167581022794173,-0.6954701,0.15424347,0.6056729,310.81128,-85.68718,2.345218,SCH
13962939196000,1.554899,-1.39585768883827,9.74083441685649,-0.00128708845558087,-0.78038037,0.12003502,0.6450737,310.96774,-85.45114,2.4688478,SCH
13962944216000,1.559919,-1.45973942820805,9.78190112338648,-0.151865469960896,-0.84696466,0.10170906,0.68203104,311.13074,-85.20551,2.5971005,SCH
13962949223000,1.564926,-1.52389805151935,9.82545215510245,-0.287721289664456,-0.88331115,0.09101892,0.70524395,311.31146,-84.97275,2.72485,SCH
13962954197000,1.5699,-1.58990721139266,9.88203158972582,-0.349015503216866,-0.90408057,0.040011674,0.72112644,311.5028,-84.73171,2.8578072,SCH
13962959222000,1.574925,-1.66174457536345,9.92190012381696,-0.412795969417504,-0.91782504,-0.050701816,0.72143185,311.72183,-84.520134,2.9797583,SCH
13962964226000,1.579929,-1.76461234384818,9.85643848814518,-0.487608879523856,-0.9297369,-0.121256754,0.6985244,311.9443,-84.313255,3.0958827,SCH
13962969220000,1.584923,-1.86327148543046,9.79004943519394,-0.558346868049196,-0.95142263,-0.17837265,0.6945538,312.1919,-84.12234,3.2031345,SCH
13962974199000,1.589902,-1.92191652152318,9.71336011684011,-0.589924953174078,-0.9605856,-0.19333886,0.6771441,312.44257,-83.94501,3.2965565,SCH
13962979542000,1.595245,-1.98343424005197,9.63081719982677,-0.619559248051104,-0.95478237,-0.20525073,0.655153,312.7242,-83.789604,3.371645,SCH
13962984214000,1.599917,-2.00668732429623,9.55330691901256,-0.553675468891295,-0.9645562,-0.20708331,0.64965516,313.00116,-83.63573,3.4429293,SCH
13962989996000,1.605699,-2.03546500689476,9.4573813103508,-0.472138651446514,-0.9779953,-0.23640485,0.6404922,313.28967,-83.50285,3.4959147,SCH
13962994241000,1.609944,-1.95906783209877,9.34578134156379,-0.472613446213992,-1.0228939,-0.24587326,0.63591075,313.56726,-83.366714,3.5450468,SCH
13962999233000,1.614936,-1.83910545739235,9.20182605098866,-0.491807428171234,-1.0919216,-0.25045475,0.6209445,313.84665,-83.23085,3.5862517,SCH
13963004211000,1.619914,-1.69396700693004,9.12804839553083,-0.452362808079389,-1.1496484,-0.25473082,0.6579019,314.1159,-83.07581,3.6385612,SCH
13963009251000,1.624954,-1.53468461658495,9.08709019828399,-0.384098944832171,-1.2183707,-0.26206118,0.6731735,314.38275,-82.91357,3.6782043,SCH
13963014210000,1.629913,-1.35909771226255,9.04564630803532,-0.281213760718808,-1.2840388,-0.27855456,0.7122689,314.6617,-82.71254,3.7608583,SCH
13963019213000,1.634916,-1.16681425833408,9.002916681352,-0.148751819841256,-1.3219124,-0.30115658,0.75228053,314.93774,-82.50732,3.845135,SCH
13963024203000,1.639906,-0.957925251240106,8.95320652686016,-0.0449922924466491,-1.3381003,-0.32742378,0.795652,315.1996,-82.2648,3.9674666,SCH
13963029225000,1.644928,-0.709203214617414,8.88721877192612,-0.00438461033709763,-1.3536774,-0.3747658,0.8338311,315.46613,-82.01742,4.0967965,SCH
13963034185000,1.649888,-0.39709517833971,8.86872621224325,-0.000603612271848568,-1.3448198,-0.41630468,0.88147855,315.714,-81.72636,4.277954,SCH
13963039196000,1.654899,0.0136073150422876,8.91704411880789,-0.0489215531445832,-1.3228287,-0.42455134,0.9636399,315.9561,-81.43418,4.4744906,SCH
13963044287000,1.65999,0.444703260294884,8.97636631637209,0.0143197766945116,-1.2980887,-0.40317106,1.0115929,316.18472,-81.116455,4.7055697,SCH
13963049232000,1.664935,0.880831068094884,9.04685165637209,0.216965009134512,-1.3048081,-0.35216382,1.070236,316.39606,-80.79246,4.9547133,SCH
13963054144000,1.669847,1.21881269304033,9.12350927024037,0.365195823512019,-1.3356569,-0.29352075,1.0955868,316.58185,-80.434906,5.254383,SCH
13963060179000,1.675882,1.31762918700593,9.23976389761641,0.371008554880821,-1.3658947,-0.24129178,1.1282681,316.74457,-80.074776,5.5619693,SCH
13963064167000,1.67987,1.34510398862682,9.3096875004997,0.368112694527284,-1.3710871,-0.21135938,1.1371256,316.85294,-79.636475,5.9329095,SCH
13963069218000,1.684921,1.29192618631821,9.38220312142714,0.348775320129922,-1.3744467,-0.20250183,1.1600331,316.94278,-79.19414,6.3056393,SCH
13963074191000,1.689894,1.27817727083485,9.45179886146555,0.376204768968283,-1.3454307,-0.14996742,1.1533136,317.01642,-78.75709,6.674119,SCH
13963079221000,1.694924,1.36159463129785,9.51765463616478,0.521087592500912,-1.3454307,-0.13133603,1.1508701,317.08868,-78.3186,7.0410137,SCH
13963084205000,1.699908,1.44548843004497,9.57851507214621,0.649087795994642,-1.3390167,-0.051618114,1.1520919,317.14273,-77.90097,7.387463,SCH
13963089198000,1.704901,1.54157078672854,9.59681636876854,0.626211027113195,-1.3594806,0.011911872,1.1459832,317.19,-77.48927,7.721328,SCH
13963094481000,1.710184,1.64066458372714,9.60684850677212,0.608022621221948,-1.3946054,0.06811147,1.1456778,317.19193,-77.05582,8.060125,SCH
13963099186000,1.714889,1.68966584467622,9.47320883104301,0.683751798710825,-1.4419475,0.1142318,1.1334605,317.17422,-76.62885,8.382164,SCH
13963104496000,1.720199,1.74263609858548,9.31787164824356,0.770770972674473,-1.4682146,0.1591304,1.1355985,317.16766,-76.18201,8.72772,SCH
13963109202000,1.724905,1.73419236635129,9.07300314894614,0.884761446004684,-1.4892895,0.16035213,1.1520919,317.15488,-75.73659,9.06462,SCH
13963114187000,1.72989,1.72524803885714,8.81361737142857,1.00550996057143,-1.5030339,0.14538592,1.1636983,317.1314,-75.26563,9.411805,SCH
13963119222000,1.734925,1.82431203965568,8.7884327969724,1.26990615182547,-1.502423,0.14049901,1.181108,317.0981,-74.80082,9.75558,SCH
13963124159000,1.739862,1.94126242329079,8.8071447450282,1.55526504490947,-1.5106697,0.13530666,1.2089024,317.06268,-74.338585,10.097438,SCH
13963129781000,1.745484,2.08863879673242,8.77483552898984,1.85521200796972,-1.5354098,0.11301007,1.2550226,317.02493,-73.83666,10.461485,SCH
13963134160000,1.749863,2.20561742568241,8.7414132630006,2.08499150443315,-1.5683966,0.08277224,1.321607,316.98212,-73.33423,10.830772,SCH
13963139254000,1.754957,2.34306568757425,8.56076711062421,2.23189501780115,-1.5735888,0.07269296,1.3921618,316.90448,-72.77768,11.231126,SCH
13963149305000,1.765008,2.63150211183719,8.29260154611651,2.49393036899739,-1.5427402,0.027794369,1.4908166,316.72922,-71.60672,12.087385,SCH
13963154149000,1.769852,2.78307535769231,8.27960975,2.64117282019231,-1.4947872,-0.027488936,1.5439619,316.63156,-70.999886,12.546709,SCH
13963159238000,1.774941,2.90569647104696,8.24205322576476,2.89773702404136,-1.4306464,-0.08124508,1.6029104,316.51645,-70.35758,13.047021,SCH
13963164135000,1.779838,3.00167387328738,8.19153880353296,3.2058751578953,-1.389413,-0.21624629,1.6633861,316.42783,-69.724594,13.559907,SCH
13963169128000,1.784831,3.09925376522102,8.15537105170976,3.13224410141785,-1.3228287,-0.25289822,1.713477,316.31085,-69.06455,14.111812,SCH
13963174126000,1.789829,3.19683759624687,8.12432148040033,2.92820523252711,-1.2803736,-0.22418754,1.7357736,316.20154,-68.41638,14.663204,SCH
13963179131000,1.794834,3.19981193464826,8.13012939732632,2.81645013633574,-1.2544118,-0.18570304,1.7351627,316.0482,-67.73711,15.230411,SCH
13963184128000,1.799831,3.13688587337278,8.16159253747534,2.76925548086785,-1.1972959,-0.20616703,1.738217,315.8922,-67.082375,15.792403,SCH
13963189115000,1.804818,3.09370294560995,7.80418966495726,2.70499026736597,-1.1304061,-0.26206118,1.7379116,315.784,-66.43967,16.368793,SCH
13963194164000,1.809867,3.05613237349456,7.3204690332265,2.63454553659674,-1.0687088,-0.21471913,1.7116444,315.64514,-65.82563,16.916973,SCH
13963199132000,1.814835,3.18978993243748,6.80966116413633,2.50318659090505,-1.0430524,-0.1020145,1.6533068,315.52747,-65.23981,17.442068,SCH
13963204206000,1.819909,3.39735870664768,6.27344168400819,2.34318562974103,-1.0769554,0.032986723,1.5748106,315.38605,-64.67635,17.933979,SCH
13963209205000,1.824908,3.57471227036134,5.8366786279538,2.3441277065063,-1.1233811,0.17379116,1.4810427,315.21405,-64.1045,18.413647,SCH
13963214223000,1.829926,3.72239014396524,5.50058429267776,2.52235965409558,-1.1911873,0.24862215,1.4230106,315.01947,-63.542107,18.863453,SCH
13963219211000,1.834914,3.75565631190868,5.23797333286253,2.63608813213698,-1.2751812,0.32803464,1.4172074,314.7669,-62.92577,19.342306,SCH
13963224202000,1.839905,3.70941677548612,5.02527122390442,2.70544743677082,-1.3255776,0.36743546,1.4046847,314.50467,-62.327297,19.789854,SCH
13963229220000,1.844923,3.7662267168406,5.00674171297319,2.91515291016984,-1.3707817,0.39278635,1.4300356,314.18256,-61.644104,20.279293,SCH
13963234215000,1.849918,3.91794766987927,5.16825121021076,3.25285441431348,-1.3704761,0.3417791,1.5039502,313.86072,-60.964775,20.77142,SCH
13963239199000,1.854902,4.05665336493056,5.31640810483218,3.50102947575231,-1.350623,0.3032946,1.5668694,313.49796,-60.267097,21.261866,SCH
13963244333000,1.860036,4.1894355994213,5.45867452290702,3.68597598265818,-1.2910637,0.27366763,1.6300939,313.13156,-59.574333,21.76508,SCH
13963249240000,1.864943,4.3173141036771,5.55280159049059,3.79687294906891,-1.2382239,0.17989981,1.6957619,312.7768,-58.82116,22.32554,SCH
13963254211000,1.869914,4.44781626912752,5.60680256107383,3.84412376308725,-1.2073752,0.064446285,1.7333301,312.4238,-58.082275,22.887487,SCH
13963259200000,1.874903,4.57879098315531,5.66099906926931,3.89154567238869,-1.2110404,0.004581489,1.7376062,312.0698,-57.321037,23.474928,SCH
13963264219000,1.879922,4.71055327814538,5.71552147348521,3.93925274049532,-1.2431108,0.015882496,1.7354681,311.71494,-56.56891,24.059753,SCH
13963269214000,1.884917,4.82454178854025,5.78571098635744,3.95477698281037,-1.2498302,0.08246681,1.740966,311.36725,-55.82542,24.64541,SCH
13963274206000,1.889909,4.88976337653479,5.90110293396999,3.87952136480218,-1.210735,0.093767814,1.7311921,311.025,-55.10355,25.215872,SCH
13963279154000,1.894857,4.92381309315895,5.99570917641851,3.8669893901006,-1.1899655,0.10140363,1.7290541,310.6502,-54.35113,25.803295,SCH
13963284216000,1.899919,4.89942790120724,6.05423363710262,3.97428423468813,-1.1774428,0.08827003,1.7140878,310.27307,-53.625412,26.369747,SCH
13963289191000,1.904894,4.8123255658849,6.06273539913404,4.03516490052318,-1.1771374,0.06872234,1.7150042,309.92325,-52.92087,26.938498,SCH
13963294314000,1.910017,4.60874883996031,5.9830750134945,4.01746250018041,-1.16492,0.042455133,1.752267,309.56866,-52.23137,27.49933,SCH
13963299235000,1.914938,4.41961501362509,5.92210648726804,4.03513604596606,-1.1447614,0.024740042,1.7498235,309.22894,-51.55292,28.046946,SCH
13963304215000,1.919918,4.2634322901955,5.94577050632133,4.24337966073236,-1.0827587,-0.018936822,1.7886134,308.88538,-50.882652,28.605415,SCH
13963309249000,1.924952,4.09946693109146,5.95522684290018,4.44411488008553,-1.0021244,-0.07086037,1.8139644,308.56583,-50.242134,29.142355,SCH
13963314327000,1.93003,3.89622724842064,5.87487629019341,4.58591012115852,-0.91324353,-0.09682214,1.8353447,308.23862,-49.62046,29.67546,SCH
13963319198000,1.934901,3.71055759366516,5.80288957420814,4.71768783554864,-0.8393288,-0.106595986,1.8619173,307.8879,-49.00782,30.185743,SCH
13963324182000,1.939885,3.63856548024133,5.79389056003017,4.79867901013386,-0.8026769,-0.101098195,1.8729129,307.53314,-48.415134,30.685398,SCH
13963329650000,1.945353,3.56833379167532,5.77492592642724,4.88314264511107,-0.7861836,-0.11362094,1.9071213,307.1719,-47.80801,31.18765,SCH
13963334212000,1.949915,3.69531147874196,5.56631969242267,4.86046807504671,-0.77732605,-0.14538592,1.960572,306.80408,-47.21004,31.68726,SCH
13963339453000,1.955156,3.85642428557657,5.34218927652948,4.83361721338524,-0.7892379,-0.16187929,1.9630154,306.4341,-46.612923,32.171997,SCH
13963344205000,1.959908,4.18124731605488,5.32109692458287,4.79986933574342,-0.79901177,-0.20555615,1.9486601,306.0699,-46.020138,32.66237,SCH
13963350186000,1.965889,4.59409346208545,5.29441064140387,4.74841465157681,-0.829555,-0.28038713,1.9367483,305.68896,-45.389847,33.189754,SCH
13963354214000,1.969917,4.91980635205493,5.2747894051882,4.6071416688708,-0.8594874,-0.34422258,1.930945,305.3128,-44.77067,33.707253,SCH
13963359214000,1.974917,5.32411728796541,5.25043335228891,4.43177798626653,-0.8918633,-0.38820487,1.9110919,304.9489,-44.13423,34.270054,SCH
13963364267000,1.97997,5.52027684884765,5.23061639242742,4.31880175923376,-0.9300423,-0.38912117,1.8961257,304.583,-43.50424,34.819893,SCH
13963369145000,1.984848,5.68806729781503,5.21197297135588,4.21626321101467,-0.9767735,-0.39400807,1.87444,304.2282,-42.885628,35.355083,SCH
13963374234000,1.989937,5.71206132460705,5.17122401888786,4.23849298194426,-1.0372492,-0.3622431,1.8515326,303.87482,-42.259075,35.920208,SCH
13963379175000,1.994878,5.71674884628187,5.12903625855237,4.27599313902721,-1.074512,-0.29229903,1.8280143,303.5074,-41.647064,36.45679,SCH
13963384334000,2.000037,5.72164318433496,5.0849871479329,4.31514782641659,-1.149343,-0.21227567,1.7892243,303.15005,-41.029793,36.994843,SCH
13963389214000,2.004917,5.72627283537181,5.04332022414476,4.35218501859728,-1.2284501,-0.10598512,1.7525724,302.7614,-40.424206,37.494797,SCH
13963394264000,2.009967,5.73106376523577,5.00020178866728,4.39051244083344,-1.2852604,-0.01863139,1.7299703,302.35364,-39.8292,37.962566,SCH
13963399153000,2.014856,5.73570195456347,4.95845802014265,4.42761793931119,-1.3344351,0.042760566,1.7403551,301.91788,-39.236687,38.40098,SCH
13963404243000,2.019946,5.76445456028703,4.85139771326059,4.60573707994692,-1.3521502,0.08674286,1.7003434,301.4733,-38.670322,38.796646,SCH
13963409178000,2.024881,5.79697501207117,4.73525324260297,4.80550576352108,-1.3811663,0.10781772,1.6728544,301.00952,-38.10197,39.177605,SCH
13963414261000,2.029964,5.93594253665414,4.72282216005639,4.9745842062406,-1.382388,0.087964594,1.6514742,300.54553,-37.518673,39.586937,SCH
13963419733000,2.035436,6.11325025093985,4.73759784577068,5.14696681195489,-1.3811663,0.01985312,1.6355917,300.09125,-36.94956,39.982697,SCH
13963424235000,2.039938,6.30023971899804,4.71013349979384,5.24520075617978,-1.3472633,-0.05681047,1.6471981,299.58514,-36.353916,40.38679,SCH
13963429230000,2.044933,6.52213707174518,4.66575394686115,5.33889068033708,-1.3002267,-0.116980694,1.6438384,299.0979,-35.781597,40.77974,SCH
13963434247000,2.04995,6.74501175017009,4.62117892843006,5.43299325280899,-1.2507466,-0.13805555,1.6600263,298.58844,-35.191605,41.194885,SCH
13963439195000,2.054898,6.96482117987836,4.57721696088032,5.52580161011236,-1.20371,-0.15790866,1.6899587,298.0894,-34.62029,41.60873,SCH
13963444269000,2.059972,7.23892998191362,4.54669542949627,5.59500086750161,-1.1753048,-0.14844026,1.6707164,297.61166,-34.07163,42.01845,SCH
13963449246000,2.064949,7.51984746344967,4.52035949580993,5.65645166971176,-1.1572843,-0.10873401,1.6578883,297.1171,-33.532898,42.419838,SCH
13963454245000,2.069948,7.80012600066225,4.44768033952753,5.75104163159039,-1.1542299,-0.05009095,1.6358972,296.5644,-32.956696,42.84576,SCH
13963459306000,2.075009,8.08278117483444,4.34707414273006,5.8660201279233,-1.1475104,-0.0125227375,1.6142114,296.00534,-32.399887,43.25019,SCH
13963464239000,2.079942,8.26801722171533,4.22084355624493,5.87044487270884,-1.1578951,0.02687807,1.5946637,295.40195,-31.829288,43.6478,SCH
13963469222000,2.084925,8.39864138366788,4.07570600265612,5.80755187556772,-1.1588113,0.050396383,1.5622878,294.79932,-31.282328,44.01932,SCH
13963474237000,2.08994,8.5157712310923,4.05575737218093,5.7925122769041,-1.1386528,0.07696902,1.5543466,294.15652,-30.701473,44.419533,SCH
13963479249000,2.094952,8.62456509343022,4.10855449286357,5.80531159610013,-1.135293,0.11911872,1.529912,293.51425,-30.142677,44.78655,SCH
13963484245000,2.099948,8.73301164894504,4.16118306727109,5.81807005553815,-1.1572843,0.160963,1.5189165,292.8379,-29.570738,45.155685,SCH
13963489216000,2.104919,8.84091553754875,4.21354828812373,5.83076467160428,-1.1774428,0.19730948,1.5088371,292.15714,-29.018213,45.498062,SCH
13963494229000,2.109932,8.94973110656311,4.26635594294857,5.84356654453518,-1.1859949,0.22082779,1.5155567,291.485,-28.471922,45.840755,SCH
13963499225000,2.114928,9.05817766207793,4.31898451735609,5.8563250039732,-1.1826351,0.28771752,1.4914275,290.8022,-27.946115,46.14507,SCH
13963504211000,2.119914,9.20398644780793,4.48442940530461,6.00141093308977,-1.1765264,0.4465425,1.4850134,290.08002,-27.425537,46.416367,SCH
13963509218000,2.124921,9.37234812943633,4.71649473266274,6.22437556993737,-1.1948525,0.65270954,1.4871514,289.3322,-26.916393,46.6476,SCH
13963514219000,2.129922,9.40918643501969,4.76329560263556,6.52305095336767,-1.2605205,0.8668178,1.4865406,288.58725,-26.417467,46.859364,SCH
13963519210000,2.134913,9.32713354831869,4.64263042880945,6.88987262014541,-1.2776246,1.0732902,1.4107933,287.8157,-25.951101,47.003742,SCH
13963524188000,2.139891,9.13661055808431,4.36559757618247,7.22119081757372,-1.2867876,1.1487321,1.318858,287.0477,-25.502882,47.10557,SCH
13963529222000,2.144925,8.85038686206214,3.95057296789036,7.52649649182664,-1.2840388,1.1108584,1.208597,286.29413,-25.08485,47.163746,SCH
13963534218000,2.149921,8.75200350825507,3.59824818782996,7.78729885919921,-1.2311989,0.9550878,1.0928379,285.52054,-24.659756,47.211243,SCH
13963539241000,2.154944,8.82333954345032,3.29863669103312,8.01081843614434,-1.1175779,0.7162395,0.9816604,284.82303,-24.278633,47.26364,SCH
13963544219000,2.159922,8.98194605007437,3.18873861465543,8.3038585826475,-0.99387777,0.4605924,0.8927795,284.06107,-23.865643,47.31663,SCH
13963549220000,2.164923,9.22889428953892,3.26472242513634,8.66953110758552,-0.890947,0.28405234,0.8210029,283.37918,-23.498074,47.38615,SCH
13963554209000,2.169912,9.5231431838451,3.33776896948954,9.03190270447878,-0.82344633,0.2284636,0.7666359,282.66254,-23.103989,47.479187,SCH
13963559286000,2.174989,9.87498980921181,3.40908935081166,9.39801418061803,-0.8042041,0.267559,0.7302894,281.99005,-22.738924,47.576298,SCH
13963564203000,2.179906,10.204891925021,3.42631227742236,9.67355414538842,-0.80909103,0.35308012,0.70952,281.3,-22.373339,47.652843,SCH
13963569207000,2.18491,10.5266683047655,3.37715207236781,9.85231846376947,-0.79809546,0.40622538,0.6881397,280.62814,-22.029297,47.717094,SCH
13963574200000,2.189903,10.8003995168202,3.28457746886088,9.95486719752787,-0.7959574,0.48441613,0.68111473,279.9091,-21.667194,47.754227,SCH
13963579227000,2.19493,10.9590855562773,3.08388603183713,9.87085684100824,-0.7852673,0.5338962,0.67256266,279.20227,-21.32133,47.77829,SCH
13963584169000,2.199872,11.060715504718,2.83919023063419,9.75463643844635,-0.76083267,0.5693264,0.66553766,278.458,-20.961754,47.795338,SCH
13963589200000,2.204903,10.9708458585692,2.42155882819838,9.51674532192232,-0.72234815,0.5852089,0.6383542,277.72943,-20.62126,47.797737,SCH
13963594282000,2.209985,10.7938872889648,1.9442573725,9.2795040453125,-0.70463306,0.56138515,0.6227771,276.99353,-20.252102,47.824894,SCH
13963599290000,2.214993,10.4988168092773,1.3962694925,9.0500046203125,-0.6579019,0.53023106,0.57818395,276.28857,-19.916054,47.838497,SCH
13963604141000,2.219844,10.2196913499854,0.981349954575908,8.81350274593437,-0.61819565,0.45814893,0.5329799,275.56448,-19.555347,47.879066,SCH
13963609211000,2.224914,9.94072433859188,0.768578623784205,8.53926457473951,-0.5540548,0.38148534,0.48441613,274.8773,-19.226221,47.91821,SCH
13963614149000,2.229852,9.64166421369295,0.542538111242837,8.28067127334519,-0.5174029,0.29565877,0.46273044,274.14233,-18.846638,47.97774,SCH
13963619213000,2.234916,9.26794731742739,0.264646093270105,8.03631771412764,-0.50243664,0.23457226,0.41233405,273.4576,-18.499863,48.035545,SCH
13963624196000,2.239899,8.94152277337054,0.0643995893984453,7.80452109376121,-0.47739118,0.14660765,0.36071593,272.80286,-18.159449,48.11663,SCH
13963629209000,2.244912,8.72143238907714,0.054830415884991,7.59399937438708,-0.44348818,0.063224554,0.31581733,272.1836,-17.839687,48.202225,SCH
13963634160000,2.249863,8.52291657859133,0.0541339175933148,7.38867994389176,-0.4147775,-0.02321288,0.27947086,271.58533,-17.506271,48.296265,SCH
13963639208000,2.254911,8.37382581695185,0.0781807335041783,7.18668662435336,-0.3827071,-0.093462385,0.24037547,271.0235,-17.195786,48.397297,SCH
13963644210000,2.259913,8.23614388933002,0.124408181951365,6.96050395880893,-0.37018433,-0.15485434,0.20372356,270.5139,-16.909988,48.50975,SCH
13963649219000,2.264922,8.1266337257072,0.233918373415782,6.66054117459057,-0.35094208,-0.18906279,0.17470746,270.0275,-16.642353,48.62518,SCH
13963654220000,2.269923,8.04796482772745,0.320248009090208,6.43101758302814,-0.34330627,-0.18997909,0.13622294,269.6043,-16.390657,48.741306,SCH
13963659194000,2.274897,8.06173752500964,0.337081259961449,6.4126540665478,-0.33475417,-0.17440203,0.12003502,269.18848,-16.147642,48.856747,SCH
13963664231000,2.279934,8.07568466538165,0.3541277184734,6.39405796029298,-0.344528,-0.15393804,0.09560041,268.85767,-15.935213,48.975155,SCH
13963669212000,2.284915,8.08947674522938,0.370984659082498,6.37566860050437,-0.3631594,-0.15027285,0.08460484,268.52875,-15.726271,49.089607,SCH
13963674898000,2.290601,8.10522092632035,0.390227494718581,6.35467645038229,-0.376293,-0.14538592,0.06627888,268.2093,-15.5266285,49.191025,SCH
13963679218000,2.294921,8.11718273819391,0.404847447224364,6.33872743727512,-0.39706242,-0.13744467,0.04917465,267.89362,-15.32754,49.286045,SCH
13963684469000,2.300172,8.12683866572977,0.434749730196748,6.31576663304557,-0.4166101,-0.15943582,0.034208454,267.60095,-15.118812,49.3824,SCH
13963689185000,2.304888,8.07696845693636,0.607028434043365,6.25229562605902,-0.42760566,-0.17806722,0.01985312,267.31396,-14.915193,49.470665,SCH
13963694455000,2.310158,8.01332491296928,0.799461822701934,6.17953556496018,-0.4269948,-0.20219639,0.017104227,267.06223,-14.711449,49.570988,SCH
13963699258000,2.314961,7.86505892576792,0.973892653284983,6.09232004266212,-0.4364632,-0.20677789,0.02687807,266.8117,-14.508293,49.667343,SCH
13963704214000,2.319917,7.71206991211604,1.15387999377418,6.00232626200228,-0.453262,-0.21074851,0.025350908,266.6285,-14.326018,49.77142,SCH
13963709385000,2.325088,7.48049999010495,1.34651348110945,5.84434475244378,-0.4382958,-0.21166481,0.035124753,266.43723,-14.146808,49.874573,SCH
13963714206000,2.329909,7.25899563958021,1.52648567556222,5.69206071022489,-0.4297437,-0.1957823,0.04337143,266.24536,-13.968101,49.970387,SCH
13963719246000,2.334949,7.04954086797961,1.63934390350895,5.56384525624313,-0.4129449,-0.16554448,0.05222898,266.1068,-13.817271,50.05209,SCH
13963724198000,2.339901,6.845677330001,1.74364610276917,5.44057882273318,-0.39064834,-0.11942416,0.051618114,265.9639,-13.67264,50.12227,SCH
13963729246000,2.344949,6.71069499976406,1.80916251727291,5.3342532463429,-0.3576616,-0.071776666,0.042455133,265.8817,-13.558854,50.182537,SCH
13963734147000,2.34985,6.5861107317735,1.86914749058199,5.23274039248919,-0.33017266,-0.0036651916,0.047036625,265.7835,-13.447876,50.2244,SCH
13963739226000,2.354929,6.50394116983693,1.92346458520543,5.25416775284686,-0.31673363,0.055588737,0.055283304,265.72574,-13.3530655,50.25086,SCH
13963744256000,2.359959,6.42933862196411,1.97612525305639,5.2936631277216,-0.30695978,0.09162979,0.057421334,265.66187,-13.265101,50.264412,SCH
13963749238000,2.364941,6.39605594220822,2.03528690654206,5.37051754675071,-0.28130344,0.1337795,0.059253927,265.61932,-13.180954,50.26442,SCH
13963754146000,2.369849,6.380732229624,2.0965818635514,5.46245982225603,-0.25503623,0.17745635,0.06261369,265.57007,-13.100193,50.254734,SCH
13963759229000,2.374932,6.41841047152167,2.19948909449985,5.57857658102103,-0.24404067,0.20799962,0.064751714,265.5249,-13.030872,50.228077,SCH
13963764163000,2.379866,6.46506982888318,2.30680561643132,5.69522526675225,-0.23884831,0.22724187,0.0729984,265.47174,-12.964804,50.194668,SCH
13963769216000,2.384919,6.47784246100448,2.41735168577822,5.81930516879165,-0.23518312,0.26175576,0.07544186,265.43127,-12.88335,50.15263,SCH
13963774201000,2.389904,6.48259033266037,2.52655392371954,5.94275102170065,-0.24740042,0.28038713,0.09193522,265.38257,-12.797429,50.113136,SCH
13963779269000,2.394972,6.53444383606802,2.68067347160899,6.04472891006364,-0.2660318,0.3115413,0.10995574,265.34192,-12.7236805,50.054855,SCH
13963784207000,2.39991,6.59557883934964,2.84056503753978,6.13878288214002,-0.28221974,0.32284227,0.12644911,265.29706,-12.647115,50.000164,SCH
13963789219000,2.404922,6.7322943959722,3.01561894330604,6.15057536579699,-0.2874121,0.34422258,0.13561209,265.26932,-12.559699,49.93542,SCH
13963794278000,2.409981,6.88914724100171,3.19553831376881,6.14134873635498,-0.31978795,0.34788775,0.15241088,265.23514,-12.462343,49.87674,SCH
13963799247000,2.41495,6.9595920644728,3.1393531340497,6.14847749200806,-0.33353242,0.30451632,0.18692477,265.23276,-12.37745,49.828278,SCH
13963804219000,2.419922,6.99613881654034,2.98859778177108,6.16218261943778,-0.3463606,0.3005457,0.20280726,265.22757,-12.29052,49.77,SCH
13963809212000,2.424915,7.03173399612055,2.8475296044113,6.13980597684847,-0.3640757,0.30390546,0.21594086,265.27692,-12.2115755,49.74158,SCH
13963814665000,2.430368,7.06985643149442,2.70048575451038,6.09079096214412,-0.3747658,0.2950479,0.21685717,265.32922,-12.134556,49.718746,SCH
13963819209000,2.434912,7.07390132555097,2.58964152339237,6.081272,-0.364992,0.27947086,0.22113322,265.3346,-12.032367,49.703197,SCH
13963824255000,2.439958,7.06903823479924,2.47049572380497,6.081272,-0.3481932,0.2611449,0.20769419,265.351,-11.937471,49.689735,SCH
13963829217000,2.44492,7.06425609918487,2.35333332635101,6.081272,-0.33933565,0.2556471,0.20250183,265.34827,-11.8034115,49.702175,SCH
13963834208000,2.449911,7.05944601477307,2.23548618292241,6.081272,-0.31948254,0.25900686,0.20097467,265.35318,-11.681526,49.71562,SCH
13963839190000,2.454893,7.0484389904637,2.11565884687588,6.14894403499766,-0.310625,0.25167647,0.19272798,265.37378,-11.556986,49.736515,SCH
13963844226000,2.459929,7.03488523923185,1.99367499143794,6.24382052949883,-0.28527406,0.25045475,0.17134771,265.40125,-11.447134,49.752785,SCH
13963849217000,2.46492,7.02672985377757,1.90440040793993,6.36441409219146,-0.28802297,0.24862215,0.16187929,265.374,-11.289613,49.77823,SCH
13963854209000,2.469912,7.02224291018301,1.83709761270765,6.50350639199437,-0.27458394,0.22693644,0.15424347,265.35986,-11.14921,49.80667,SCH
13963859200000,2.474903,7.0175405367241,1.78688861376375,6.66283098069338,-0.28191432,0.20219639,0.1469131,265.30643,-10.987338,49.82777,SCH
13963864217000,2.47992,7.01255342833714,1.75696528645422,6.84735805293751,-0.28221974,0.19303341,0.13805555,265.25992,-10.836469,49.848793,SCH
13963869209000,2.484912,7.01769145305441,1.76289616215871,7.0331947847967,-0.28191432,0.15118915,0.13408493,265.19617,-10.666198,49.866695,SCH
13963874201000,2.489904,7.03177740426242,1.80045848626007,7.22100635627578,-0.28771752,0.10629055,0.12095132,265.14438,-10.504131,49.885963,SCH
13963879203000,2.494906,7.02015107371258,1.82899423860279,7.36603527858283,-0.29535335,0.052534413,0.11362094,265.07724,-10.333978,49.900993,SCH
13963884373000,2.500076,6.98062038688623,1.84875953041916,7.46980295742515,-0.29626966,-0.016493361,0.10720685,265.0258,-10.171762,49.93101,SCH
13963889260000,2.504963,6.91743332647815,1.86262735244216,7.50124906580977,-0.30970868,-0.0571159,0.09865474,264.97885,-10.011576,49.94492,SCH
13963894323000,2.510026,6.82634583158988,1.87221551506822,7.4676905967372,-0.3032946,-0.09682214,0.09315695,264.94464,-9.860425,49.97655,SCH
13963899310000,2.515013,6.72441243922366,1.83615529985213,7.41200938957486,-0.30695978,-0.13041973,0.092240654,264.91608,-9.708701,50.005173,SCH
13963904229000,2.519932,6.61121301975046,1.75343276780961,7.33364071807763,-0.29565877,-0.1695151,0.09407325,264.89685,-9.566107,50.045097,SCH
13963909195000,2.524898,6.52374240200362,1.66912013490355,7.22795178940637,-0.2874121,-0.17195857,0.09865474,264.88522,-9.428531,50.07792,SCH
13963914256000,2.529959,6.49791474304593,1.58130598657146,7.05748902453373,-0.28069258,-0.16462818,0.09468412,264.88235,-9.298438,50.117023,SCH
13963919175000,2.534878,6.47166220363958,1.4316845146567,6.90118669964588,-0.27122417,-0.1685988,0.09010262,264.864,-9.158803,50.160828,SCH
13963924243000,2.539946,6.44301663728113,1.18819667715916,6.75318439907535,-0.2687807,-0.15699236,0.07422013,264.85196,-9.026613,50.195847,SCH
13963929209000,2.544912,6.45381351208239,0.979060780467133,6.63953313871095,-0.23976462,-0.13408493,0.0580322,264.83594,-8.893696,50.243824,SCH
13963934249000,2.549952,6.52516524954174,0.812573244052429,6.57293793539963,-0.23182335,-0.1020145,0.042455133,264.82605,-8.764993,50.283394,SCH
13963939226000,2.554929,6.64846608900394,0.631514627393017,6.50244363533401,-0.21044308,-0.070249505,0.027183503,264.77356,-8.601775,50.331516,SCH
13963944331000,2.560034,6.86798328762027,0.416477446356639,6.42180479711353,-0.19303341,-0.055588737,0.017715093,264.72516,-8.4463215,50.37313,SCH
13963949289000,2.564992,7.05823565631713,0.246242305633665,6.36175435286077,-0.17745635,-0.04062254,0.013439035,264.64526,-8.26169,50.42227,SCH
13963954249000,2.569952,7.15563074321422,0.232328725942199,6.37566787443859,-0.14294247,-0.02565634,0.007330383,264.57,-8.09177,50.464584,SCH
13963959201000,2.574904,7.24068108876521,0.215960925753337,6.39634126198099,-0.12644911,-0.024129177,-0.0009162979,264.44284,-7.883763,50.53587,SCH
13963964252000,2.579955,7.24544613992021,0.182605545278038,6.46305212741959,-0.116980694,0.014049901,-0.0015271631,264.31113,-7.6866846,50.589664,SCH
13963969202000,2.584905,7.25011590891986,0.149917140337881,6.52842903969857,-0.11056661,0.047647487,0.0067195175,264.1765,-7.494355,50.647263,SCH
13963974249000,2.589952,7.25487718652416,0.116588174735261,6.59508707530907,-0.0983493,0.06811147,-0.00030543262,264.04822,-7.314169,50.694244,SCH
13963979257000,2.59496,7.26702520273697,0.0889232229955726,6.66056435756691,-0.094989546,0.06688975,-0.005497787,263.93042,-7.122482,50.732075,SCH
13963984248000,2.599951,7.36321721078688,0.122590450923727,6.71827951217549,-0.0842994,0.05681047,-0.01740966,263.81964,-6.943374,50.764153,SCH
13963989236000,2.604939,7.45527066638478,0.156102135777436,6.77695940870652,-0.082161374,0.03970624,-0.027794369,263.6857,-6.7514844,50.78469,SCH
13963994357000,2.61006,7.50711294207188,0.189092694535845,6.84765342100711,-0.07666359,0.009468411,-0.03756821,263.56122,-6.570623,50.80989,SCH
13963999974000,2.615677,7.55682544815103,0.225341996837291,6.91590461901518,-0.055588737,-0.026572637,-0.058337633,263.4612,-6.406428,50.834198,SCH
13964004244000,2.619947,7.56080482553523,0.2531982410471,6.92386349844297,-0.03481932,-0.061086524,-0.07086037,263.3665,-6.2490754,50.865273,SCH
13964009620000,2.625323,7.56581789423459,0.288008657049702,6.93191730596421,-0.039095376,-0.094989546,-0.08735373,263.29358,-6.1055245,50.901096,SCH
13964014228000,2.629931,7.57020465526839,0.309942022489066,6.87927731868787,-0.023518313,-0.13408493,-0.10903945,263.23343,-5.978009,50.94576,SCH
13964019144000,2.634847,7.57488462862823,0.333341420166998,6.82311886003976,-0.0021380284,-0.13897185,-0.1142318,263.1892,-5.856262,50.987015,SCH
13964024198000,2.639901,7.58386638292377,0.343800631916739,6.77562458538113,-0.0070249503,-0.14538592,-0.12308934,263.16058,-5.742582,51.03669,SCH
13964029153000,2.644856,7.59301219462272,0.352946453165655,6.72989552688638,-0.0021380284,-0.1255328,-0.12705997,263.13165,-5.6385036,51.078472,SCH
13964034219000,2.649922,7.55954283491319,0.424071446804317,6.66868429962459,-0.0021380284,-0.099265605,-0.13072516,263.129215248779,-5.5931085222056,51.0970205611726,SCH
13964039182000,2.654885,7.51939577479118,0.504365632259033,6.60623317747536,-0.002443461,-0.07513642,-0.1518,263.12683,-5.5486364,51.115192,SCH
13964044226000,2.659929,7.4440961004774,0.60865593103098,6.57103180568817,-0.010995574,-0.067500606,-0.15821409,263.118,-5.4584503,51.15738,SCH
13964049163000,2.664866,7.35765101070594,0.719113595886237,6.54701928075165,-0.02107485,-0.06383542,-0.16615535,263.1286,-5.3743896,51.19128,SCH
13964054215000,2.669918,7.30797554902073,0.795743225575619,6.52354746813796,-0.019242255,-0.06963864,-0.1704314,263.17493,-5.3117824,51.220253,SCH
13964059173000,2.674876,7.27168490268463,0.859251904031719,6.50086581417789,-0.016798794,-0.05467244,-0.17867808,263.22528,-5.2530236,51.24087,SCH
13964064219000,2.679922,7.24338148011279,0.91591016959533,6.48040444455328,-0.016187929,-0.041233405,-0.18295415,263.31204,-5.2173166,51.258408,SCH
13964069864000,2.685567,7.21663718254675,0.97474780296824,6.45900890596616,-0.020158553,-0.042455133,-0.19333886,263.4051,-5.186625,51.274784,SCH
13964074242000,2.689945,7.23489351890231,1.03689225094889,6.44803684941773,-0.018325957,-0.0290161,-0.19639318,263.52054,-5.17,51.275734,SCH
13964079228000,2.694931,7.27093503011645,1.11412422966358,6.43773920566099,-0.01863139,-0.021380283,-0.20708331,263.64404,-5.1581154,51.27791,SCH
13964084244000,2.699947,7.31228658344024,1.16397662278693,6.39416434847528,-0.0030543262,-0.025961773,-0.21655174,263.78882,-5.1592765,51.275562,SCH
13964089254000,2.704957,7.35490159498668,1.20659168377578,6.34207938380539,0.0021380284,-0.018936822,-0.22052236,263.93372,-5.161162,51.26788,SCH
13964094262000,2.709965,7.38289972911392,1.27859461898734,6.31560099841772,0.011911872,-0.03359759,-0.24404067,264.11658,-5.1873455,51.269222,SCH
13964099211000,2.714914,7.40633504517405,1.35827469359177,6.29685269662777,0.01038471,-0.05222898,-0.26633725,264.29913,-5.213996,51.26977,SCH
13964104302000,2.720005,7.40528700150869,1.4960297083962,6.30867195473926,0.021685716,-0.062308256,-0.27580565,264.50436,-5.253804,51.28044,SCH
13964109265000,2.724968,7.39593383816333,1.64879817325681,6.33049603510003,0.01160644,-0.09468412,-0.2770274,264.71692,-5.293312,51.30168,SCH
13964114223000,2.729926,7.38659009771072,1.80141273073795,6.35229812867825,0.0061086523,-0.12095132,-0.2742785,264.9581,-5.3522787,51.32572,SCH
13964119222000,2.734925,7.35713967914545,1.92805869725467,6.32909912372966,0.005192355,-0.13530666,-0.27305678,265.1997,-5.41115,51.35446,SCH
13964124242000,2.739945,7.31874452211241,2.0432442184686,6.28590462218229,-0.007330383,-0.14569137,-0.27183503,265.4395,-5.4666824,51.38842,SCH
13964129203000,2.744906,7.2386187703337,2.1662188849391,6.2597638964848,-0.027794369,-0.1432479,-0.2519819,265.74304,-5.5581827,51.416542,SCH
13964134226000,2.749929,7.13858989583127,2.29482738102782,6.24071081542727,-0.05100725,-0.14294247,-0.23884831,266.04703,-5.6478353,51.44658,SCH
13964139807000,2.75551,7.07876915487959,2.33767966396282,6.23074672454584,-0.076052725,-0.12889257,-0.2321288,266.3844,-5.746614,51.475803,SCH
13964164225000,2.779928,6.91023762259002,2.34349109820324,6.20750086621934,-0.10048734,-0.01282817,-0.17867808,268.10678,-6.266933,51.518837,SCH
13964169212000,2.784915,6.87581765569969,2.34467799404061,6.20275325808296,-0.08979719,0.0067195175,-0.1591304,268.43088,-6.361838,51.50765,SCH
13964174233000,2.789936,6.84116302290315,2.34587298180869,6.19797328205472,-0.06688975,0.014966198,-0.1441642,268.75262,-6.459364,51.495968,SCH
13964179262000,2.794965,6.84541088825196,2.35774954539617,6.21619961412787,-0.057421334,0.014049901,-0.13530666,269.06754,-6.5494437,51.483986,SCH
13964184285000,2.799988,6.87266795653981,2.37592095587874,6.24799967734441,-0.043676864,0.007330383,-0.12797627,269.37354,-6.6412535,51.472054,SCH
13964189233000,2.804936,6.90341237797384,2.38967881473946,6.26070489263027,-0.022296581,-0.00030543262,-0.11911872,269.67313,-6.7283487,51.459267,SCH
13964194282000,2.809985,6.93854558819805,2.39971685982977,6.25568587008511,-0.014660766,-0.0015271631,-0.10842858,269.96616,-6.8134604,51.447052,SCH
13964199246000,2.814949,6.9668372632384,2.39533324441985,6.26491541531649,-0.009773844,-0.0027488936,-0.089491755,270.25394,-6.9004207,51.43668,SCH
13964204249000,2.819952,6.9909454600483,2.38086829612559,6.28420191234779,0.0061086523,0.0061086523,-0.087964594,270.5414,-6.9920278,51.423325,SCH
13964209233000,2.824936,6.99783967508876,2.3582122110355,6.30037997983235,0.0021380284,0.011301007,-0.08093964,270.81918,-7.076786,51.4149,SCH
13964214252000,2.829955,6.99309954142012,2.32977066656805,6.31460072731755,0.0076358155,0.025350908,-0.065973446,271.08853,-7.1635485,51.40189,SCH
13964219242000,2.834945,6.99656240092911,2.2901198372248,6.30421215380731,-0.004581489,0.035124753,-0.062002823,271.3576,-7.235326,51.39255,SCH
13964224247000,2.83995,7.0062435529186,2.24171362236922,6.2751684451121,-0.003970624,0.048563786,-0.054367006,271.61438,-7.3062706,51.379158,SCH
13964229251000,2.844954,7.00474920405314,2.21087269380394,6.27144162249588,0.003970624,0.049785517,-0.0571159,271.86646,-7.366673,51.367134,SCH
13964234250000,2.849953,6.99546501452536,2.19230412085717,6.28536795526035,-0.008246681,0.051923547,-0.058948494,272.11142,-7.422256,51.351627,SCH
13964239249000,2.854952,6.991069,2.17976610349235,6.29445927737653,-0.01282817,0.04734206,-0.05222898,272.33783,-7.471338,51.34202,SCH
13964244359000,2.860062,6.991069,2.1724934852727,6.29930771483628,-0.015271631,0.046120327,-0.046120327,272.56308,-7.5198045,51.33072,SCH
13964249255000,2.864958,6.991069,2.16552543462624,6.30395310618715,-0.01863139,0.049785517,-0.04642576,272.7792,-7.564165,51.318054,SCH
13964254238000,2.869941,6.991069,2.15843356445237,6.3086810443206,-0.025045475,0.06872234,-0.041233405,272.98712,-7.6056266,51.302147,SCH
13964259211000,2.874914,6.99540273132168,2.15261471171273,6.29378061632826,-0.028710667,0.05955936,-0.03573562,273.19806,-7.6441636,51.30142,SCH
13964264243000,2.879946,7.0044626964279,2.14808468185749,6.25754042478849,-0.03756821,0.06963864,-0.029321533,273.40103,-7.6801214,51.290283,SCH
13964269214000,2.884917,7.00148213959621,2.13122034684796,6.22401308751545,-0.038789943,0.08246681,-0.026572637,273.59705,-7.714358,51.280506,SCH
13964274239000,2.889942,6.97669669460239,2.09156353133498,6.19427055352287,-0.0421497,0.09315695,-0.018936822,273.7859,-7.745039,51.26913,SCH
13964279220000,2.894923,6.96615308725646,2.0619144973012,6.18562364632703,-0.051618114,0.09987647,-0.007330383,273.9701,-7.7735195,51.259453,SCH
13964284335000,2.900038,6.97557923475249,2.04541873918314,6.2068324781931,-0.052839845,0.12003502,0.0021380284,274.1481,-7.8024874,51.243416,SCH
13964289221000,2.904924,6.984583370953,2.02966150083225,6.22709178464425,-0.046731193,0.14049901,0.016493361,274.306,-7.8221517,51.228203,SCH
13964294323000,2.910026,6.99398556147592,2.01320766741714,6.24824671332083,-0.04520403,0.15882497,0.026267206,274.45895,-7.8407,51.208523,SCH
13964299268000,2.914971,7.00565859276374,1.99653963340871,6.27952391524924,-0.04184427,0.14110987,0.03726278,274.60614,-7.8576593,51.19286,SCH
13964304248000,2.919951,7.02441494435159,1.97778337974634,6.34048164172648,-0.042455133,0.14844026,0.036957346,274.7488,-7.875459,51.16561,SCH
13964309248000,2.924951,7.03787480722892,1.95138551593917,6.39743354355125,-0.023823744,0.14446963,0.040011674,274.87488,-7.8860593,51.141254,SCH
13964314256000,2.929959,7.0331383253012,1.89928525332807,6.44006104013431,-0.015577064,0.1441642,0.03970624,275.00082,-7.8965855,51.114323,SCH
13964319239000,2.934942,7.03129182657378,1.8516740261259,6.48110568716099,-0.012217305,0.1441642,0.03390302,275.11914,-7.903829,51.088398,SCH
13964324218000,2.939921,7.04078326986813,1.82082664958945,6.51669878534461,-0.00061086525,0.13988814,0.043982297,275.2305,-7.9114847,51.065365,SCH
13964329230000,2.944933,7.05033762090072,1.78977482167206,6.5525277887783,-0.004581489,0.13775012,0.037873644,275.33014,-7.9128437,51.040768,SCH
13964334246000,2.949949,7.05989959711371,1.7586982117691,6.58838538678776,-0.007941248,0.13225232,0.036957346,275.4235,-7.9139447,51.019833,SCH
13964339238000,2.954941,7.07220412035835,1.73114146735913,6.61606627823942,-0.004581489,0.1518,0.045814894,275.511,-7.917331,50.99166,SCH
13964344319000,2.960022,7.09747564130529,1.71850586081537,6.60764254054358,-0.016187929,0.15821409,0.04337143,275.6054,-7.921069,50.96846,SCH
13964349217000,2.96492,7.12183696970484,1.7063253450013,6.59952219666753,-0.008857546,0.16493362,0.034513887,275.6702,-7.9168673,50.935814,SCH
13964354246000,2.969949,7.14628846195487,1.67507000910655,6.5815045304361,-0.013133603,0.16707164,0.037873644,275.7306,-7.907398,50.90415,SCH
13964359285000,2.974988,7.17070285798847,1.64088980367297,6.56197301360923,-0.013744468,0.17379116,0.03573562,275.79617,-7.904036,50.869377,SCH
13964364265000,2.979968,7.16862829579334,1.60243226634674,6.53371127476006,-0.016493361,0.17898351,0.040317107,275.8536,-7.894075,50.841293,SCH
13964369182000,2.984885,7.1638203393302,1.56396861464162,6.50486353598121,-0.011911872,0.17928895,0.036651913,275.91544,-7.888627,50.81278,SCH
13964374188000,2.989891,7.15516238836013,1.55273027491586,6.46949462655198,-0.0027488936,0.1872302,0.04184427,275.95944,-7.8751664,50.786194,SCH
13964379187000,2.99489,7.14621050482423,1.54377848485415,6.43368727935677,0.031154128,0.19364429,0.041233405,276.00787,-7.870085,50.759953,SCH
13964384213000,2.999916,7.14038425930821,1.5496935222509,6.41038213289623,0.047647487,0.1994475,0.04734206,276.03915,-7.8553057,50.735996,SCH
13964389170000,3.004873,7.13548268967475,1.55949671270005,6.39077559845121,0.064446285,0.20586158,0.049480084,276.07193,-7.84843,50.710487,SIT
13964394894000,3.010597,7.11633211920543,1.60239461674419,6.41531350717054,0.09468412,0.20250183,0.056505036,276.09558,-7.847634,50.68587,SIT
13964399155000,3.014858,7.10051534500969,1.63798189418605,6.43903844137597,0.10293079,0.19364429,0.06169739,276.11902,-7.8462157,50.66185,SIT
13964404254000,3.019957,7.08873601284625,1.68175988227619,6.50661165714573,0.11881329,0.18692477,0.06047566,276.14655,-7.853838,50.639847,SIT
13964409166000,3.024869,7.07929377246086,1.72425001330791,6.58214953093135,0.13041973,0.18692477,0.06688975,276.16852,-7.859397,50.619858,SIT
13964414224000,3.029927,7.05014945506016,1.74114786998281,6.64102218710949,0.12767084,0.16798794,0.070554934,276.2074,-7.8743215,50.595856,SIT
13964419177000,3.03488,7.01657982278839,1.75073919348903,6.69377471677282,0.129198,0.15943582,0.071776666,276.2432,-7.8909826,50.57007,SIT
13964424191000,3.039894,6.99489350276851,1.74489115138425,6.73059053013941,0.12583824,0.14782938,0.0720821,276.28717,-7.9151177,50.53259,SIT
13964429354000,3.045057,6.97547664889063,1.73518272444532,6.76456997373846,0.10903945,0.13439035,0.07696902,276.32913,-7.9354014,50.49955,SIT
13964434213000,3.049916,6.91635577147094,1.71951213380295,6.77774739683937,0.10323623,0.12064589,0.06994407,276.37802,-7.960733,50.463627,SIT
13964439242000,3.054945,6.84493236501066,1.7016562705348,6.78667528186115,0.09590584,0.10720685,0.06841691,276.4232,-7.9802084,50.43304,SIT
13964444284000,3.059987,6.76761556321611,1.69190286645101,6.77718833246374,0.08979719,0.08857546,0.064446285,276.46942,-7.9987226,50.404476,SIT
13964449233000,3.064936,6.68848279360326,1.6869570683502,6.75740524334759,0.07238753,0.07452556,0.06047566,276.51678,-8.014102,50.37903,SIT
13964454252000,3.069955,6.63792164744929,1.69584397927295,6.75853295024101,0.07452556,0.07574729,0.052839845,276.56155,-8.03163,50.34859,SIT
13964459239000,3.074942,6.59955274717815,1.71023226053424,6.76812508766821,0.07238753,0.069027774,0.05589417,276.60526,-8.04377,50.32547,SIT
13964466286000,3.081989,6.53520647033772,1.74643031779737,6.76007525007428,0.082161374,0.07086037,0.040317107,276.6613,-8.064277,50.27824,SIT
13964469223000,3.084926,6.50734962018421,1.76314442788947,6.75450390913143,0.06841691,0.07086037,0.041233405,276.70923,-8.075855,50.23602,SIT
13964474261000,3.089964,6.48637566111276,1.79180714670825,6.76504753786754,0.0842994,0.06780604,0.03023783,276.77396,-8.103852,50.19006,SIT
13964479291000,3.094994,6.47683768358578,1.82042097969508,6.78412329373329,0.065973446,0.06505715,0.026572637,276.8346,-8.121322,50.145996,SIT
13964484246000,3.099949,6.48336089392308,1.85119581915385,6.80254215808654,0.05009095,0.060170226,0.021380283,276.91113,-8.151724,50.097683,SIT
13964489261000,3.104964,6.49721502430769,1.88352212338462,6.82101438015385,0.056199603,0.05467244,0.024740042,276.9852,-8.181516,50.052155,SIT
13964494330000,3.110033,6.51482290259221,1.91750728070697,6.85564843434426,0.05467244,0.05467244,0.03176499,277.06805,-8.212517,50.004856,SIT
13964499359000,3.115062,6.53456136690574,1.95204955461066,6.90005986311475,0.047036625,0.06383542,0.026572637,277.1536,-8.245249,49.95739,SIT
13964504235000,3.119938,6.52688006304348,1.97450854956522,6.90600710842391,0.03268129,0.05222898,0.028405234,277.2472,-8.276306,49.912037,SIT
13964509256000,3.124959,6.50510238514493,1.99193069188406,6.89294045620471,0.028405234,0.0290161,0.034208454,277.34076,-8.307924,49.868855,SIT
13964514258000,3.129961,6.49076844862237,2.00385910320908,6.87880451445705,0.021685716,0.024740042,0.02565634,277.44742,-8.34371,49.81925,SIT
13964519231000,3.134934,6.48562242798487,2.00900501638034,6.86336682867639,0.010079277,0.021991149,0.024740042,277.54947,-8.3747835,49.777805,SIT
13964524195000,3.139898,6.47246706944307,2.02491813518647,6.82114298851518,-0.0012217305,0.017715093,0.019547688,277.66077,-8.414845,49.732697,SIT
13964529243000,3.144946,6.45333820051439,2.04882934618657,6.75897383991493,-0.014049901,0.01740966,0.026267206,277.7661,-8.44986,49.689274,SIT
13964534511000,3.150214,6.4422958006593,2.05032798336242,6.69196323476828,-0.016798794,0.017104227,0.02443461,277.87912,-8.488803,49.64795,SIT
13964539249000,3.154952,6.4378963604809,2.03712993845259,6.63037217477215,-0.02321288,0.025350908,0.021991149,277.9876,-8.523294,49.605873,SIT
13964544299000,3.160002,6.44052365094937,2.04010225063291,6.59105526202532,-0.030543262,0.03390302,0.026267206,278.10455,-8.562082,49.567734,SIT
13964549270000,3.164973,6.44993949773536,2.05893384588608,6.57693156558544,-0.029626964,0.030848695,0.029626964,278.2221,-8.601785,49.531387,SIT
13964554252000,3.169955,6.46859717140172,2.07780989573647,6.57199418783263,-0.028405234,0.03023783,0.032070424,278.32816,-8.643438,49.494682,SIT
13964559240000,3.174943,6.49694957721832,2.09671159829855,6.57671953945989,-0.028405234,0.03023783,0.036957346,278.4309,-8.683404,49.46008,SIT
13964564258000,3.179961,6.52579045948136,2.10011657305511,6.59056775091167,-0.0290161,0.03481932,0.03634648,278.5426,-8.725733,49.428577,SIT
13964569206000,3.184909,6.55459070648298,2.08571634931118,6.61456820735413,-0.034513887,0.032070424,0.03940081,278.65027,-8.764968,49.400475,SIT
13964574235000,3.189938,6.58120396916848,2.06665233083152,6.6133328008098,-0.044593163,0.037873644,0.044593163,278.76025,-8.805524,49.370598,SIT
13964579218000,3.194921,6.60476766381592,2.04308863618408,6.58505617039305,-0.04184427,0.034208454,0.04062254,278.87296,-8.848433,49.344418,SIT
13964584173000,3.199876,6.63994133249022,2.02282700399941,6.58140590963223,-0.04734206,0.04642576,0.035124753,278.97394,-8.883043,49.313892,SIT
13964589245000,3.204948,6.69043116817799,2.00599709224373,6.60785301424046,-0.04886922,0.044898596,0.044593163,279.07092,-8.916244,49.28963,SIT
13964594225000,3.209928,6.74000517877048,1.98947245491264,6.63382040007425,-0.050396383,0.043066,0.03970624,279.16693,-8.948019,49.266045,SIT
13964599260000,3.214963,6.79012669349602,1.97276531656685,6.6600745743058,-0.04062254,0.05131268,0.040927973,279.25452,-8.978062,49.241722,SIT
13964604151000,3.219854,6.83288451292274,1.95614640280451,6.68035876642837,-0.04428773,0.03940081,0.038789943,279.34998,-9.005489,49.23422,SIT
13964609251000,3.224954,6.86869552474567,1.93824092026395,6.69378792507561,-0.04734206,0.045814894,0.03023783,279.44394,-9.035874,49.219193,SIT
13964614183000,3.229886,6.90141904879669,1.92601785699632,6.70448476757299,-0.05955936,0.03604105,0.028710667,279.52124,-9.052922,49.216686,SIT
13964619244000,3.234947,6.92850867693319,1.93079838548133,6.70767176992372,-0.059864793,0.03756821,0.02076942,279.60223,-9.074933,49.208252,SIT
13964624204000,3.239907,6.95505769008417,1.93548351120463,6.71079517076539,-0.05467244,0.03634648,0.014966198,279.67532,-9.09085,49.20555,SIT
13964629287000,3.24499,6.98226507594029,1.94028482048922,6.71399602691018,-0.07360926,0.02565634,0.009773844,279.75165,-9.104047,49.204445,SIT
13964634187000,3.24989,7.00849293167412,1.94491327130458,6.71708164467714,-0.074830994,0.03390302,0.009773844,279.82263,-9.124539,49.200565,SIT
13964639246000,3.254949,7.03557185456339,1.94969191062599,6.72026738759206,-0.083383106,0.03726278,0.008552114,279.89722,-9.141677,49.20021,SIT
13964644233000,3.259936,7.06068700468181,1.95624920468181,6.73001516287498,-0.09865474,0.03756821,0.007941248,279.96985,-9.158142,49.202614,SIT
13964649257000,3.26496,7.07737292221259,1.97293512221259,6.77590143608462,-0.09560041,0.03573562,0.0106901415,280.0407,-9.175996,49.204445,SIT
13964654193000,3.269896,7.09376657048726,1.98932877048726,6.82098396883995,-0.121256754,0.049480084,0.0070249503,280.11127,-9.1894865,49.196915,SIT
13964659234000,3.274937,7.08427085307972,1.97578541442016,6.79385873064283,-0.12064589,0.055588737,0.013133603,280.17676,-9.20565,49.19278,SIT
13964664156000,3.279859,7.07018824225464,1.95700853463128,6.75395786109147,-0.13836098,0.06719518,0.014049901,280.24323,-9.215837,49.182724,SIT
13964669214000,3.284917,7.05571651418613,1.93771283004531,6.71295448884629,-0.14935656,0.0729984,0.016187929,280.30713,-9.229404,49.168217,SIT
13964674166000,3.289869,7.041548068675,1.91882150361002,6.67281042017129,-0.15271631,0.09285152,0.015271631,280.36853,-9.241736,49.146835,SIT
13964679241000,3.294944,6.98022406071604,1.85271711633154,6.61064381892104,-0.15088372,0.100792766,0.01282817,280.42975,-9.253081,49.12762,SIT
13964684301000,3.300004,6.90892645208436,1.77666623452673,6.54409913603727,-0.15974127,0.1001819,0.002443461,280.49295,-9.263992,49.10526,SIT
13964689259000,3.304962,6.85777792047909,1.71710466539368,6.48635434375614,-0.15515977,0.09865474,-0.003970624,280.54657,-9.272614,49.087,SIT
13964694245000,3.309948,6.81089992636953,1.66085102351266,6.4301007997742,-0.13836098,0.10140363,-0.0061086523,280.60193,-9.283493,49.06768,SIT
13964699258000,3.314961,6.79243572016365,1.622370350263,6.402266014436,-0.124311075,0.11178834,-0.015577064,280.6421,-9.286514,49.048676,SIT
13964704267000,3.31997,6.7830902220826,1.5896612777518,6.38357511585817,-0.12339478,0.11942416,-0.025045475,280.68292,-9.291008,49.029976,SIT
13964709194000,3.324897,6.81707512751429,1.5668291848892,6.41818518466861,-0.11881329,0.12461651,-0.026267206,280.71094,-9.287322,49.00629,SIT
13964714225000,3.329928,6.87021753057255,1.54750470678833,6.47615882075604,-0.122783914,0.12644911,-0.027794369,280.74255,-9.284796,48.981503,SIT
13964719766000,3.335469,6.99564382529395,1.58734998375279,6.53476861219512,-0.12522738,0.13225232,-0.027794369,280.76318,-9.277973,48.95691,SIT
13964724189000,3.339892,7.11500925305607,1.63674248562822,6.58004502926829,-0.10476339,0.14385876,-0.02321288,280.78174,-9.274482,48.93116,SIT
13964729270000,3.344973,7.19502205708266,1.66625871701445,6.6268331829053,-0.10567969,0.15088372,-0.022907447,280.79306,-9.2591915,48.89911,SIT
13964734216000,3.349919,7.24254092078652,1.68051439101124,6.66960040337079,-0.105374254,0.15057829,-0.01863139,280.80054,-9.246617,48.86753,SIT
13964739254000,3.354957,7.2530864359969,1.68245141799845,6.70607740603181,-0.09590584,0.13500121,-0.014660766,280.82166,-9.242711,48.84313,SIT
13964744228000,3.359931,7.24384768440652,1.67783204220326,6.7384130848332,-0.08857546,0.13072516,-0.018325957,280.84308,-9.239629,48.816303,SIT
13964749221000,3.364924,7.21461749405891,1.6731135816675,6.74882132261608,-0.08155051,0.12583824,-0.014966198,280.8609,-9.239118,48.797653,SIT
13964754285000,3.369988,7.17103574428358,1.66827115378932,6.74397879360959,-0.0870483,0.12064589,-0.009468411,280.87976,-9.238162,48.78075,SIT
13964759186000,3.374889,7.12194062420827,1.65803370146626,6.7448489091766,-0.083383106,0.111177474,-0.009773844,280.89746,-9.239547,48.763794,SIT
13964764231000,3.379934,7.06651959707745,1.64357605643609,6.74966814096055,-0.07819075,0.109650314,-0.007330383,280.9114,-9.238618,48.74718,SIT
13964769206000,3.384909,7.01186754356391,1.62931901302179,6.75442050530647,-0.070554934,0.105068825,-0.009468411,280.92847,-9.240287,48.73165,SIT
13964774185000,3.389888,6.95717154870081,1.61505050665802,6.75917669064885,-0.07269296,0.10415252,-0.015577064,280.94586,-9.241601,48.71587,SIT
13964779190000,3.394893,6.9116919269854,1.60068496189238,6.7557466459892,-0.07666359,0.09865474,-0.013744468,280.96918,-9.236705,48.705074,SIT
13964784211000,3.399914,6.87321619180836,1.58625654236847,6.74612764941988,-0.07513642,0.09254608,-0.014966198,280.99634,-9.2348,48.694366,SIT
13964789862000,3.405565,6.84711884748103,1.58346471750632,6.7354887993581,-0.06780604,0.0842994,-0.020158553,281.01523,-9.233276,48.67665,SIT
13964794292000,3.409995,6.83474035380276,1.58759088206575,6.72723651332426,-0.050701816,0.07513642,-0.014660766,281.03085,-9.232108,48.661953,SIT
13964799292000,3.414995,6.82699490604444,1.59736026373333,6.71657653022222,-0.049785517,0.061391957,-0.012217305,281.04803,-9.229731,48.649128,SIT
13964804250000,3.419953,6.82465012706173,1.61142893762963,6.70485263530864,-0.041233405,0.040317107,-0.024740042,281.0709,-9.234191,48.640614,SIT
13964809240000,3.424943,6.82229021437037,1.62558841377778,6.69305307185185,-0.032986723,0.02687807,-0.030543262,281.09283,-9.238366,48.634186,SIT
13964814261000,3.429964,6.81991564089877,1.63983585460741,6.68118020449383,-0.024740042,0.01863139,-0.024129177,281.11633,-9.244252,48.632195,SIT
13964819244000,3.434947,6.82324585536695,1.65404979256116,6.67275481041438,-0.004276057,0.0070249503,-0.025350908,281.1538,-9.250716,48.63331,SIT
13964824228000,3.439931,6.83277766205691,1.66834762700949,6.66798888218672,0.009468411,0.005497787,-0.03023783,281.18958,-9.257103,48.63394,SIT
13964829250000,3.444953,6.84230111969207,1.68932448920271,6.65876605539865,0.029932396,-0.007941248,-0.028710667,281.2358,-9.273453,48.641586,SIT
13964834246000,3.449949,6.85168543715799,1.71747729461606,6.64468965269197,0.05467244,-0.008246681,-0.02565634,281.28156,-9.293733,48.645477,SIT
13964839304000,3.455007,6.86559550016097,1.7506055778672,6.64532907770624,0.07238753,-0.008857546,-0.010079277,281.32837,-9.313959,48.65218,SIT
13964844279000,3.459982,6.88476841942656,1.78895136634809,6.66450194692153,0.090713486,-0.004581489,-0.01282817,281.38034,-9.341827,48.656178,SIT
13964849185000,3.464888,6.89735005170343,1.82436001169752,6.67708357309965,0.09132435,-0.00580322,-0.011301007,281.43362,-9.37036,48.663555,SIT
13964854258000,3.469961,6.90213368690429,1.85784580775896,6.68186725825128,0.095294975,0.00580322,-0.004581489,281.48322,-9.40171,48.66598,SIT
13964859622000,3.475325,6.89197546211913,1.89640751295635,6.69751353788087,0.101098195,0.025350908,-0.00030543262,281.54248,-9.439417,48.664654,SIT
13964864243000,3.479946,6.86767992778845,1.93285092015738,6.72180907221155,0.08582657,0.05009095,-0.0009162979,281.59827,-9.472774,48.658504,SIT
13964869145000,3.484848,6.838038069214,1.97470852432769,6.74102990866992,0.07880162,0.07360926,-0.0018325958,281.66302,-9.511615,48.652115,SIT
13964874236000,3.489939,6.7924768701381,2.030394369702,6.73596761195099,0.069027774,0.08735373,0.009162978,281.7205,-9.543921,48.6423,SIT
13964879213000,3.494916,6.75122660553435,2.07430398957413,6.75106501916432,0.06811147,0.119729586,0.007941248,281.7913,-9.587046,48.614246,SIT
13964884252000,3.499955,6.71729701832061,2.09369239742869,6.81407701570912,0.04550946,0.13194689,0.012217305,281.85498,-9.620027,48.589565,SIT
13964889296000,3.504999,6.6759830224717,2.1018001974717,6.86281927790566,0.034208454,0.13988814,0.012217305,281.93158,-9.669759,48.550926,SIT
13964894279000,3.509982,6.61970795856132,2.08604315231132,6.88082725228774,0.008857546,0.13072516,0.012217305,281.970895136171,-9.68891545339923,48.5322183885415,SIT
13964899210000,3.514913,6.56402015199057,2.07045053949057,6.89864730480189,-0.01863139,0.1328632,0.002443461,282.0098,-9.707872,48.513706,SIT
13964904234000,3.519937,6.50728205825472,2.05456384575472,6.91680344834906,-0.040317107,0.13500121,0.002443461,282.0853,-9.749194,48.46163,SIT
13964909252000,3.524955,6.45056505808407,2.0374082610156,6.93185690072543,-0.0571159,0.13958271,-0.00580322,282.16476,-9.786714,48.40499,SIT
13964914254000,3.529957,6.3934411046507,2.0040859838418,6.90805527417271,-0.0720821,0.13072516,-0.0143553335,282.24478,-9.820178,48.352962,SIT
13964919328000,3.535031,6.33750039898981,1.97081167885022,6.88337839549086,-0.089186326,0.121256754,-0.016798794,282.31525,-9.84659,48.290417,SIT
13964924230000,3.539933,6.30732156394527,1.94494402878134,6.85319951542841,-0.089186326,0.11789699,-0.027488936,282.39246,-9.87688,48.229244,SIT
13964929366000,3.545069,6.27570212355588,1.91784157044724,6.82158002787216,-0.089491755,0.11178834,-0.021380283,282.45587,-9.898057,48.17663,SIT
13964934253000,3.549956,6.28834887008633,1.91924647766348,6.81091638524063,-0.07452556,0.11881329,-0.02687807,282.52698,-9.926856,48.12126,SIT
13964939244000,3.554947,6.30590863644379,1.92363643071271,6.80213652498163,-0.065973446,0.10629055,-0.023823744,282.59442,-9.95117,48.075573,SIT
13964944276000,3.559979,6.33099693530099,1.92825173921683,6.82604127913501,-0.058643065,0.106901415,-0.016493361,282.65115,-9.975312,48.023407,SIT
13964949189000,3.564892,6.35849595248393,1.93283490874732,6.86270658752192,-0.056199603,0.1001819,-0.013133603,282.71008,-10.00016,47.97813,SIT
13964954248000,3.569951,6.38042206355353,1.94339917266515,6.90576117796128,-0.05589417,0.08979719,-0.014049901,282.7694,-10.025616,47.937923,SIT
13964959271000,3.574974,6.39868488299165,1.95709628724374,6.95141817888193,-0.057421334,0.082161374,-0.00580322,282.82355,-10.048274,47.900967,SIT
13964964259000,3.579962,6.4176690972288,1.97403076907386,6.98539685503245,-0.058948494,0.08002335,0.0027488936,282.87244,-10.07203,47.857067,SIT
13964969215000,3.584918,6.43722724895436,1.99358886974348,7.0098443787576,-0.06536258,0.08093964,-0.0012217305,282.92322,-10.095243,47.815357,SIT
13964974214000,3.589917,6.44096409147666,1.99168984777416,7.03670667823018,-0.074830994,0.070249505,-0.0012217305,282.97147,-10.115954,47.776405,SIT
13964979257000,3.59496,6.43381337034844,1.97500488988254,7.06530963740993,-0.07788532,0.062308256,-0.004581489,283.02194,-10.138025,47.737118,SIT
13964984242000,3.599945,6.42674489031191,1.95851182720363,7.09358363136413,-0.08735373,0.04795292,-0.0021380284,283.07294,-10.160333,47.701252,SIT
13964989273000,3.604976,6.41961118458198,1.94186657176982,7.12211852877307,-0.1020145,0.042760566,-0.0027488936,283.12598,-10.182178,47.665596,SIT
13964994264000,3.609967,6.40867399177841,1.90596454212587,7.08800227777234,-0.1160644,0.03940081,-0.0036651916,283.179,-10.2016735,47.634388,SIT
13964999239000,3.614942,6.39468414764608,1.85466857682294,7.00406326167172,-0.12767084,0.041233405,-0.008552114,283.2334,-10.21973,47.603535,SIT
13965004244000,3.619947,6.40159353539473,1.83148068722188,6.96002783690505,-0.1301143,0.0421497,-0.012217305,283.27423,-10.229666,47.569183,SIT
13965009402000,3.625105,6.42983528719806,1.83618764175997,6.95532093151651,-0.1151481,0.040927973,-0.010079277,283.31445,-10.240648,47.53579,SIT
13965014245000,3.629948,6.45635231007194,1.84060714172662,6.95090147769784,-0.10934488,0.038789943,-0.011301007,283.34564,-10.243301,47.511276,SIT
13965019248000,3.634951,6.48374538573539,1.84517265036448,6.94633601673257,-0.1001819,0.042760566,-0.005192355,283.37225,-10.247611,47.48681,SIT
13965024223000,3.639926,6.51353851468203,1.85143421848058,6.94162970827998,-0.10323623,0.02565634,-0.01038471,283.40244,-10.254966,47.460823,SIT
13965029238000,3.644941,6.54941064058899,1.86168339731114,6.93650501184379,-0.099571034,0.021380283,-0.006414085,283.42438,-10.262087,47.432274,SIT
13965034195000,3.649898,6.58678183572135,1.86647185919256,6.93159712888383,-0.086132,0.021380283,-0.0015271631,283.45105,-10.271918,47.41275,SIT
13965039264000,3.654967,6.62761221440728,1.86407007811201,6.9267935918019,-0.082161374,0.01740966,0.002443461,283.47723,-10.280014,47.396194,SIT
13965044979000,3.660682,6.6736460700376,1.86136221090441,6.92137788566198,-0.07788532,0.016187929,0.003970624,283.50406,-10.291124,47.381924,SIT
13965049360000,3.665063,6.70893466522858,1.85928641628735,6.91722631810311,-0.067500606,0.008857546,0.0033597588,283.531,-10.303665,47.370815,SIT
13965054140000,3.669843,6.73765253746855,1.84930510421908,6.90757818337527,-0.06627888,0.01160644,0.009773844,283.55316,-10.313325,47.358093,SIT
13965059262000,3.674965,6.75189262928198,1.82557161786336,6.88859139429069,-0.06811147,0.019547688,0.014966198,283.576,-10.32459,47.345917,SIT
13965064148000,3.679851,6.7597916803839,1.80428034666536,6.86897712704926,-0.0580322,0.018936822,0.017715093,283.60434,-10.327036,47.34818,SIT
13965069215000,3.684918,6.7550394387915,1.78527113218098,6.84521567097248,-0.06078109,0.020158553,0.0106901415,283.63312,-10.327933,47.347145,SIT
13965074188000,3.689891,6.74913102742498,1.76856174249758,6.82322737456922,-0.06047566,0.019242255,0.01038471,283.65094,-10.324928,47.350727,SIT
13965079421000,3.695124,6.73942811837851,1.75643313785092,6.8038216324637,-0.060170226,0.036651913,0.007330383,283.6703,-10.323752,47.347855,SIT
13965084196000,3.699899,6.73057442246854,1.74536604685382,6.78611430998064,-0.0720821,0.037873644,0.007330383,283.68842,-10.313741,47.34918,SIT
13965089272000,3.704975,6.72116261923524,1.73360132352372,6.76729077722168,-0.06963864,0.04734206,0.008552114,283.70428,-10.307326,47.34317,SIT
13965094271000,3.709974,6.71366403583865,1.72124650992501,6.75487235838648,-0.06994407,0.04734206,0.004276057,283.7232,-10.299778,47.338943,SIT
13965099263000,3.714966,6.71572434378555,1.70476402483624,6.77547543785554,-0.06994407,0.05009095,0.004581489,283.73828,-10.291965,47.331787,SIT
13965104197000,3.7199,6.71776071385968,1.68847304297966,6.79583913859679,-0.06383542,0.05131268,0.004581489,283.74823,-10.284593,47.32512,SIT
13965109253000,3.724956,6.71984743601103,1.67177924397949,6.81670636011033,-0.058643065,0.050396383,0.002443461,283.75888,-10.277854,47.318264,SIT
13965114956000,3.730659,6.72220118926047,1.65294919340631,6.84024389260472,-0.058337633,0.038179077,0.0012217305,283.77026,-10.271502,47.31442,SIT
13965119252000,3.734955,6.71552115535984,1.65460804464016,6.87207472964268,-0.070554934,0.02565634,-0.00061086525,283.78485,-10.263473,47.31274,SIT
13965124263000,3.739966,6.7010301100151,1.6690990899849,6.92037804599899,-0.062002823,0.020463986,0.0012217305,283.79886,-10.259277,47.312527,SIT
13965129274000,3.744977,6.68596230965703,1.67657394388629,6.94887968176254,-0.06505715,0.007330383,0.00061086525,283.8022,-10.243511,47.315933,SIT
13965134261000,3.749964,6.67045322922589,1.67776694719856,6.95961668665851,-0.0571159,0.015577064,-0.0015271631,283.8036,-10.231909,47.314655,SIT
13965139259000,3.754962,6.6549099398746,1.67896258195988,6.970377374541,-0.059253927,0.011301007,0.0018325958,283.80862,-10.219442,47.315464,SIT
13965144281000,3.759984,6.63929201287937,1.6801639580646,6.98118973439412,-0.054367006,0.010079277,0.007941248,283.81213,-10.210086,47.31309,SIT
13965164147000,3.77985,6.57751070310494,1.68491635505708,7.02396120807833,-0.044593163,-0.0033597588,0.003970624,283.82385,-10.184854,47.291805,SIT
13965169115000,3.784818,6.57651436984311,1.68779302328104,7.02710092920782,-0.03604105,-0.0070249503,0.0009162979,283.83093,-10.186224,47.282158,SIT
13965174140000,3.789843,6.59049560749564,1.69245343583188,7.02244041932985,-0.03573562,-0.004276057,-0.0009162979,283.8357,-10.18575,47.27317,SIT
13965179104000,3.794807,6.60048898508118,1.70130265524354,7.00945261780864,-0.041233405,-0.013439035,0.00061086525,283.8428,-10.182446,47.265045,SIT
13965184255000,3.799958,6.60552626648627,1.7164144994588,6.9842663159808,-0.027183503,-0.007941248,-0.010995574,283.85406,-10.186269,47.251163,SIT
13965189143000,3.804846,6.61023947487357,1.71709627537928,6.95397144785325,-0.029321533,-0.005497787,-0.0030543262,283.86124,-10.181069,47.245396,SIT
13965194165000,3.809868,6.61500840790283,1.70278947629152,6.91582008321269,-0.02687807,-0.00030543262,-0.0030543262,283.8753,-10.183682,47.23593,SIT
13965199099000,3.814802,6.61438390104897,1.70041048342033,6.88892215769326,-0.021685716,0.004886922,0.00030543262,283.88995,-10.187181,47.228138,SIT
13965204098000,3.819801,6.60724381804126,1.71231066318668,6.87464189226945,-0.016493361,-0.0018325958,-0.002443461,283.90762,-10.192486,47.221786,SIT
13965209157000,3.82486,6.60001803689784,1.72435367367636,6.86019022938106,-0.009468411,-0.00061086525,-0.0070249503,283.92017,-10.196704,47.215652,SIT
13965214094000,3.829797,6.59296650863038,1.73610626169525,6.84608707467064,-0.009468411,-0.0012217305,-0.003970624,283.93146,-10.199517,47.212173,SIT
13965219081000,3.834784,6.5947696827112,1.75680779508841,6.85562013064833,-0.0021380284,-0.011301007,0.0030543262,283.9447,-10.204301,47.210964,SIT
13965224128000,3.839831,6.60901347682711,1.79004347995088,6.89835171130648,-0.010079277,-0.009468411,-0.0067195175,283.9621,-10.209089,47.20553,SIT
13965229080000,3.844783,6.61574027793736,1.80818347793736,6.93136336911031,-0.009468411,-0.009773844,-0.0036651916,283.982,-10.218136,47.20477,SIT
13965234105000,3.849808,6.61094041557949,1.80338361557949,6.9505627684221,-0.007941248,-0.013133603,-0.007941248,284.00867,-10.229371,47.202988,SIT
13965239119000,3.854822,6.60444553924767,1.81641910681317,6.96588937929181,-0.014660766,-0.01038471,-0.0125227375,284.0423,-10.242208,47.19473,SIT
13965244153000,3.859856,6.59519319120046,1.85805489040399,6.97514177564533,-0.0067195175,-0.00030543262,-0.0030543262,284.07114,-10.255875,47.186054,SIT
13965249092000,3.864795,6.59167699661006,1.88710323112433,6.97629636256439,-0.013439035,-0.005192355,-0.013744468,284.1087,-10.269445,47.17739,SIT
13965254097000,3.8698,6.60123505121473,1.88869623468045,6.95877334008109,-0.009468411,0.0021380284,-0.0015271631,284.1303,-10.279511,47.165115,SIT
13965259103000,3.874806,6.61079501552062,1.89028955651899,6.9412468164944,-0.02107485,0.005192355,0.00061086525,284.1764,-10.29727,47.15445,SIT
13965264096000,3.879799,6.62033015371066,1.89187874068597,6.92376580725182,-0.013133603,0.004581489,-0.008552114,284.22116,-10.319063,47.142937,SIT
13965269094000,3.884797,6.62987484040679,1.89346951626508,6.90626729249227,-0.01038471,0.005497787,-0.008552114,284.2604,-10.335071,47.131134,SIT
13965274127000,3.88983,6.63948636664562,1.8950714317292,6.88864623911396,-0.01863139,0.002443461,-0.005192355,284.302,-10.351478,47.120285,SIT
13965279102000,3.894805,6.64497073964526,1.89354115144669,6.86948092861673,-0.02321288,-0.005497787,-0.00030543262,284.34482,-10.365957,47.108055,SIT
13965284107000,3.89981,6.64022129617519,1.88404216531906,6.84573346329766,-0.008246681,-0.0067195175,-0.00030543262,284.357999633692,-10.370694148318,47.103279919891,SIT
13965289122000,3.904825,6.63797749499559,1.88205494525512,6.82951349499559,-0.009773844,-0.004276057,-0.00030543262,284.371205600319,-10.3754407614679,47.0984952991624,SIT
13965294144000,3.909847,6.64268753195573,1.90089533900695,6.83422353195573,-0.015577064,-0.0009162979,0.005497787,284.38443,-10.380194,47.093704,SIT
13965299102000,3.914805,6.64108817528912,1.91327507229416,6.83679685248591,-0.0033597588,-0.01282817,-0.0012217305,284.43442,-10.396041,47.09416,SIT
13965304107000,3.91981,6.61739924363942,1.90379950952852,6.83205914530987,-0.007330383,-0.016493361,-0.0015271631,284.47836,-10.403386,47.091625,SIT
13965309116000,3.924819,6.59746973243968,1.89715768739946,6.82921326756032,-0.009773844,-0.02076942,0.00030543262,284.53296,-10.416408,47.09393,SIT
13965314120000,3.929823,6.59271133637176,1.90191618284182,6.83397166362824,-0.012217305,-0.01282817,0.008246681,284.58368,-10.427419,47.093994,SIT
13965319119000,3.934822,6.58663333437423,1.90666846625031,6.83916580399009,-0.0012217305,-0.011301007,0.011911872,284.6338,-10.440182,47.09504,SIT
13965324113000,3.939816,6.57478041263941,1.91140963494424,6.84627758178439,-0.005192355,-0.014049901,0.008246681,284.68277,-10.449549,47.094887,SIT
13965329113000,3.944816,6.56291325030979,1.91615649987608,6.8533979039653,-0.0070249503,-0.018936822,0.011301007,284.7295,-10.4588375,47.092937,SIT
13965334114000,3.949817,6.55104371454771,1.92090431418092,6.86051965021066,-0.013744468,-0.007941248,0.005192355,284.77936,-10.469232,47.086224,SIT
13965339105000,3.954808,6.53955423125432,1.92564058070574,6.85954669294257,-0.013439035,-0.009468411,0.00580322,284.8269,-10.47927,47.08723,SIT
13965344152000,3.959855,6.52999915327666,1.93041809475141,6.81177155248592,-0.011301007,-0.003970624,0.014660766,284.87103,-10.487997,47.083263,SIT
13965349111000,3.964814,6.52239358832749,1.93275011658879,6.77374397235203,-0.025350908,0.0015271631,0.016798794,284.919,-10.499713,47.078663,SIT
13965354112000,3.969815,6.52705607632399,1.91876250654206,6.79705665576324,-0.03390302,0.008552114,0.02076942,284.96136,-10.510539,47.07282,SIT
13965359142000,3.974845,6.53062356107219,1.904267710265,6.81944493892781,-0.032070424,0.016187929,0.014966198,285.0102,-10.524274,47.06796,SIT
13965364114000,3.979817,6.52095443710021,1.8849293108742,6.82911406289979,-0.038789943,0.025350908,0.014966198,285.0537,-10.532732,47.06146,SIT
13965369112000,3.984815,6.5133959009542,1.86701033961832,6.8373730420563,-0.048258353,0.03390302,0.014966198,285.0923,-10.53905,47.051445,SIT
13965374113000,3.989816,6.52482089541985,1.86244034183206,6.83280306812977,-0.04886922,0.040317107,0.009773844,285.1319,-10.547019,47.039257,SIT
13965379207000,3.99491,6.53645835229008,1.85778535908397,6.82814810968511,-0.04886922,0.04062254,0.009162978,285.1628,-10.549056,47.025932,SIT
13965384114000,3.999817,6.54766859980916,1.85330126007634,6.82366403408874,-0.047036625,0.03970624,0.0125227375,285.19345,-10.55181,47.01143,SIT
13965389142000,4.004845,6.5591552769084,1.84870658923664,6.8190693872376,-0.04062254,0.038179077,0.018020526,285.2221,-10.5535345,46.988518,SIT
13965394160000,4.009863,6.58379700376425,1.87200820376425,6.8471079045171,-0.043066,0.036651913,0.01038471,285.2547,-10.556308,46.965733,SIT
13965399229000,4.014932,6.60921094392083,1.89560048279496,6.87645090543227,-0.04184427,0.036957346,0.022296581,285.277,-10.555941,46.94535,SIT
13965404192000,4.019895,6.62550090386428,1.88745556660955,6.88052332100077,-0.037873644,0.034208454,0.018936822,285.30423,-10.560129,46.929874,SIT
13965409170000,4.024873,6.64184009802073,1.87928603351041,6.88460804489761,-0.032986723,0.03268129,0.019547688,285.33032,-10.566724,46.920647,SIT
13965414219000,4.029922,6.65669486416667,1.866663272,6.8995784735,-0.042455133,0.014966198,0.015882496,285.3613,-10.572979,46.91611,SIT
13965419196000,4.034899,6.67071365813725,1.85264452682353,6.91827018252941,-0.024740042,0.022296581,0.018936822,285.38635,-10.583819,46.905704,SIT
13965424187000,4.03989,6.66463109175657,1.8413881186446,6.94483800785587,-0.030543262,0.027488936,0.019547688,285.40573,-10.592234,46.899727,SIT
13965429261000,4.044964,6.64936152466743,1.83120844268357,6.97537698259139,-0.03634648,0.025045475,0.025045475,285.42163,-10.602083,46.89445,SIT
13965434213000,4.049916,6.63887366528681,1.8254549132466,6.98520726434063,-0.0421497,0.017715093,0.027488936,285.42947,-10.609603,46.887222,SIT
13965439710000,4.055413,6.62849649305145,1.82026630003942,6.99039598590578,-0.03634648,0.009468411,0.023823744,285.4378,-10.618178,46.880978,SIT
13965444242000,4.059945,6.61854359523697,1.81270784808679,6.98418353011249,-0.03848451,0.004886922,0.01863139,285.44238,-10.62187,46.873123,SIT
13965449226000,4.064929,6.60731112251141,1.80372196373606,6.97519762230433,-0.044898596,-0.0018325958,0.020463986,285.44666,-10.625008,46.868465,SIT
13965454208000,4.069911,6.59608315719866,1.79473968527792,6.96621532039817,-0.041233405,0.008246681,0.018325957,285.44714,-10.633728,46.854664,SIT
13965459208000,4.074911,6.58481462517061,1.78572495378642,6.95720056537394,-0.04153884,0.0021380284,0.015577064,285.44965,-10.639983,46.847416,SIT
13965464220000,4.079923,6.58167560532807,1.7836956550074,6.940713924963,-0.038789943,0.0067195175,0.021991149,285.44696,-10.645795,46.835228,SIT
13965469215000,4.084918,6.58639559694129,1.78841554805131,6.91711445974346,-0.046731193,0.008246681,0.019547688,285.4499,-10.651727,46.824833,SIT
13965474263000,4.089966,6.5797857334167,1.7885985892651,6.89129185923432,-0.04734206,0.006414085,0.01985312,285.43976,-10.658909,46.813435,SIT
13965479209000,4.094912,6.56156065590612,1.78404233178145,6.86395436190843,-0.04428773,0.017104227,0.021991149,285.4284,-10.665085,46.79841,SIT
13965484216000,4.099919,6.54861731343076,1.78512291320211,6.85317219977135,-0.05100725,0.007330383,0.017104227,285.42456,-10.672444,46.793106,SIT
13965489234000,4.104937,6.54383991203897,1.79467781575703,6.86750450371806,-0.055588737,0.006414085,0.018325957,285.41522,-10.678686,46.78326,SIT
13965494206000,4.109909,6.53661321770357,1.7978322215465,6.88483885551721,-0.040011674,0.00580322,0.01740966,285.41037,-10.688923,46.7764,SIT
13965499220000,4.114923,6.5254160170693,1.79111387778192,6.90723323340174,-0.041233405,0.00580322,0.022907447,285.40247,-10.693165,46.770367,SIT
13965504246000,4.119949,6.5141920181886,1.78437945501353,6.92968120772316,-0.025350908,0.010995574,0.01985312,285.4004,-10.707004,46.7607,SIT
13965509759000,4.125462,6.50188045714019,1.77699249267326,6.95430430410876,-0.025350908,0.010079277,0.01985312,285.3955,-10.715379,46.753487,SIT
13965514228000,4.129931,6.49451096900418,1.77362383700114,6.97382983200304,-0.036957346,0.005192355,0.020158553,285.38876,-10.726008,46.742027,SIT
13965519213000,4.134916,6.50811991479475,1.79176920858039,6.99197515621437,-0.032986723,0.005497787,0.023823744,285.38016,-10.7384,46.72994,SIT
13965524617000,4.14032,6.52216073328904,1.81108281100142,7.00951153342193,-0.01863139,0.0015271631,0.01985312,285.36957,-10.749675,46.71758,SIT
13965529217000,4.14492,6.52634230139535,1.82362764631229,7.0011483972093,-0.022602014,-0.01282817,0.01985312,285.35718,-10.756166,46.70889,SIT
