timestamp,rel_time,acc_x,acc_y,acc_z,gyro_x,gyro_y,gyro_z,azimuth,pitch,roll,label
54489437459000,0,3.58249933535529,9.65649021095706,1.0848642705854,0.17134771,0.23335053,-0.115453534,162.29997,-13.647985,39.08886,STD
54489442781000,0.005322,3.72223451050442,9.72863741202982,1.14865736481193,0.13652839,0.18112154,-0.093462385,162.93518,-14.545222,38.949333,STD
54489447638000,0.010179,3.81495724201768,9.70848031478592,1.14059452591437,0.11148291,0.10781772,-0.08460484,163.57384,-15.433461,38.823006,STD
54489452554000,0.015095,3.90880631513261,9.68807836089444,1.13243374435777,0.08093964,0.061086524,-0.04184427,164.27385,-16.362627,38.709286,STD
54489457574000,0.020115,3.93956672171702,9.57717834848947,1.08807370285831,0.051618114,0.031154128,0.014049901,164.96567,-17.271536,38.604683,STD
54489462512000,0.025053,3.9443770399349,9.43286880195301,1.03034983401485,0.023518313,0.025961773,0.036651913,165.64948,-18.161121,38.49892,STD
54489467706000,0.030247,3.9495255661878,9.31334302373516,0.809439546150323,-0.003970624,0.0030543262,0.05497787,166.42703,-19.10308,38.41773,STD
54489472431000,0.034972,3.95423620328961,9.21441905434104,0.559775602677493,-0.008552114,0.0021380284,0.06627888,167.18646,-20.025738,38.3248,STD
54489477434000,0.039975,3.76394230178092,9.14400168779226,0.809791370424833,-0.018325957,-0.00580322,0.07147124,168.0827,-21.03215,38.239555,STD
54489482421000,0.044962,3.52635628299672,9.08222957297781,1.18517724437966,-0.016493361,0.0106901415,0.08002335,168.95424,-22.01681,38.139008,STD
54489487409000,0.04995,3.41146540216061,9.1089065501912,0.917923197998088,-0.008246681,0.027183503,0.06047566,170.02232,-23.135588,38.044804,STD
54489492400000,0.054941,3.32921286328872,9.15917202772467,0.479243184722753,-0.0033597588,0.050396383,0.05589417,171.05283,-24.221468,37.933178,STD
54489497425000,0.059966,3.26427800196796,9.18120083138845,0.232224302868869,0.0033597588,0.09162979,0.042760566,172.44952,-25.658094,37.65777,STD
54489502458000,0.064999,3.20707864382911,9.19073376740506,0.0701592013006329,0.015577064,0.12675454,0.030848695,173.77573,-27.040152,37.358982,STD
54489507450000,0.069991,3.10093715513103,9.21984961512302,0.30968775669734,0.04337143,0.16707164,0.023823744,175.20326,-28.513962,37.039757,STD
54489512457000,0.074998,2.97144340479096,9.25821841938388,0.736537654727145,0.061391957,0.19547687,0.0067195175,176.5569,-29.933136,36.693253,STD
54489517447000,0.079988,2.98368921343369,9.3172779830281,0.718187950902292,0.069027774,0.21074851,0.0061086523,177.80034,-31.27166,36.351906,STD
54489522851000,0.085392,3.06805032214977,9.39171420970371,0.475029444614057,0.08124508,0.21044308,-0.0012217305,178.9883,-32.573235,35.990704,STD
54489527448000,0.089989,3.16330808141668,9.38965353829742,0.380921727070621,0.07941248,0.20952678,0.005192355,180.18636,-33.935658,35.5198,STD
54489532443000,0.094984,3.28067864542351,9.34882924450608,0.345200262189034,0.08155051,0.19608775,0.0033597588,181.32205,-35.24978,35.043674,STD
54489537442000,0.099983,3.36829549163525,9.32370665747172,0.424108680861282,0.08674286,0.1731803,0.005497787,182.35956,-36.461605,34.622993,STD
54489542443000,0.104984,3.44433207912284,9.30469710121056,0.547668315411788,0.087964594,0.16615535,0.018325957,183.34131,-37.626896,34.201443,STD
54489547461000,0.110002,3.49360654728728,9.28567779632375,0.610987808277498,0.08002335,0.15424347,0.022602014,184.31725,-38.767006,33.802017,STD
54489552452000,0.114993,3.53139511042593,9.26678361340053,0.648776401009981,0.082161374,0.1432479,0.032070424,185.24136,-39.862164,33.407497,STD
54489557440000,0.119981,3.53047934973177,9.24459818716471,0.641391104331413,0.09682214,0.14874569,0.025350908,186.18913,-40.983334,32.98359,STD
54489562424000,0.124965,3.51151222427975,9.22088928034969,0.61294038644546,0.09132435,0.15363261,0.025350908,187.08429,-42.049965,32.569225,STD
54489567531000,0.130072,3.45989577045097,9.22096217782591,0.598494326559669,0.102319926,0.16035213,0.025961773,187.94337,-43.089275,32.15835,STD
54489572477000,0.135018,3.39460072970658,9.23262199783379,0.591498424814888,0.10048734,0.16432275,0.021685716,188.75613,-44.081676,31.751984,STD
54489577466000,0.140007,3.32873802079559,9.24438318708153,0.584441701441512,0.11301007,0.18478674,0.026267206,189.5262,-45.0444,31.349207,STD
54489582466000,0.145007,3.26273009444663,9.25617030799527,0.577369419046869,0.1133155,0.18997909,0.02443461,190.26062,-45.966602,30.953045,STD
54489587467000,0.150008,3.19074260413513,9.27665954164812,0.577497030774101,0.101098195,0.20769419,0.02321288,190.9439,-46.845512,30.560648,STD
54489593257000,0.155798,3.10297540306673,9.30682971749023,0.582982492296582,0.10873401,0.2134974,0.016493361,191.59517,-47.69381,30.176085,STD
54489597471000,0.160012,3.03909785810951,9.32878776947618,0.586974847193946,0.118507855,0.21746802,0.018325957,192.1874,-48.508114,29.79027,STD
54489602471000,0.165012,2.96330580191918,9.35484146191324,0.591711860598506,0.12095132,0.20463985,0.011911872,192.75589,-49.294514,29.410946,STD
54489607463000,0.170004,2.90369857561362,9.38756106749802,0.556235815071259,0.12034045,0.20799962,0.018936822,193.29514,-50.0581,29.040716,STD
54489612461000,0.175002,2.85632639984165,9.42545885758116,0.489914714578385,0.10354166,0.2012801,0.01985312,193.8163,-50.792286,28.679491,STD
54489617447000,0.179988,2.83218490009833,9.45293213333333,0.431636198243855,0.11026118,0.1957823,0.02076942,194.27223,-51.490192,28.316158,STD
54489622476000,0.185017,2.82744913480826,9.4718747,0.379543833324484,0.09865474,0.19150625,0.018325957,194.70926,-52.15793,27.961512,STD
54489627459000,0.19,2.84945009191286,9.47132221396598,0.349483436544315,0.0888809,0.18081611,0.012217305,195.11386,-52.793747,27.626585,STD
54489632470000,0.195011,2.89718643409927,9.45222777678305,0.339936158137869,0.08124508,0.16615535,0.01160644,195.50342,-53.406525,27.300926,STD
54489637462000,0.200003,2.94930453121296,9.43090762228368,0.330458483974714,0.08307768,0.1554652,0.009468411,195.87611,-53.994793,26.988935,STD
54489642483000,0.205024,3.00629997330107,9.40715954207823,0.320959241973528,0.06261369,0.1432479,-0.009773844,196.24112,-54.56305,26.68124,STD
54489647462000,0.210003,3.06970185861932,9.38807715413608,0.313777679234279,0.05100725,0.14569137,-0.0067195175,196.5973,-55.11004,26.391752,STD
54489652469000,0.21501,3.14104351358857,9.37380879334457,0.309021575524697,0.039095376,0.15302174,-0.0027488936,196.9441,-55.639503,26.105433,STD
54489657451000,0.219992,3.2029360674235,9.36185639685247,0.33415515286299,0.027488936,0.14966199,0.007941248,197.28497,-56.13984,25.839611,STD
54489662795000,0.225336,3.25779497180861,9.35188209320795,0.398988506704346,0.009468411,0.14294247,0.019547688,197.61165,-56.6193,25.581507,STD
54489667410000,0.229951,3.30920542893567,9.35820748058108,0.470308370501038,-0.00061086525,0.14721853,0.034208454,197.93605,-57.078968,25.340574,STD
54489672492000,0.235033,3.37173155653721,9.38706574740587,0.571312018120368,-0.010995574,0.1423316,0.03604105,198.25359,-57.519756,25.107811,STD
54489677396000,0.239937,3.41260673313653,9.38973904976937,0.645123374473247,-0.024129177,0.15668693,0.048563786,198.56079,-57.94323,24.881973,STD
54489682486000,0.245027,3.42160044383764,9.34926721074723,0.681098250146679,-0.028099801,0.15515977,0.05589417,198.8631,-58.35134,24.66466,STD
54489687468000,0.250009,3.42960731770016,9.31045977173563,0.705352146899516,-0.029626964,0.16340645,0.06688975,199.14825,-58.740154,24.45387,STD
54489692484000,0.255025,3.43476983557227,9.27432166147233,0.689864593283181,-0.037873644,0.17287487,0.076358154,199.42189,-59.11009,24.252338,STD
54489697370000,0.259911,3.44274947399495,9.23872606778015,0.693980921984851,-0.03390302,0.18875736,0.08582657,199.67702,-59.459297,24.06165,STD
54489702489000,0.26503,3.4570309769664,9.20064225869101,0.736825430899204,-0.034513887,0.20158553,0.080634214,199.9214,-59.79372,23.875917,STD
54489707369000,0.26991,3.46288350046576,9.16543311317015,0.777906012248538,-0.01160644,0.22449298,0.08857546,200.149,-60.11522,23.705908,STD
54489712502000,0.275043,3.44826917649391,9.13133282043405,0.821749035031216,-0.0009162979,0.24373524,0.082161374,200.36743,-60.426365,23.536076,STD
54489717399000,0.27994,3.44059043850225,9.11761030144783,0.868695263404893,0.029626964,0.25381452,0.08032878,200.5699,-60.72424,23.376627,STD
54489722491000,0.285032,3.45032884401398,9.15656372011982,0.931994950074888,0.03726278,0.27030787,0.083383106,200.75768,-61.00893,23.22032,STD
54489727409000,0.28995,3.45228324063792,9.18168509775546,0.989194211311282,0.04886922,0.27977628,0.07544186,200.92868,-61.2863,23.06839,STD
54489732815000,0.295356,3.43189647914944,9.17149203632605,1.04016116825162,0.06841691,0.28252518,0.076052725,201.08937,-61.553043,22.924053,STD
54489737422000,0.299963,3.41223745699182,9.17391402633154,1.0659198337323,0.09254608,0.2837469,0.07391469,201.23677,-61.8137,22.777647,STD
54489742487000,0.305028,3.38320908620586,9.21261838599641,1.03689136190904,0.096516706,0.267559,0.06688975,201.3833,-62.065434,22.63641,STD
54489747434000,0.309975,3.35286448702892,9.24806410692375,1.00869541551271,0.10995574,0.2669481,0.06872234,201.51382,-62.315098,22.495022,STD
54489752483000,0.315024,3.31519503330412,9.2763161849255,0.980443435845749,0.11575896,0.2565634,0.076052725,201.6471,-62.555244,22.360228,STD
54489757469000,0.32001,3.27508021847738,9.30795581159128,0.955905351585218,0.113926366,0.25289822,0.06658431,201.77469,-62.797043,22.220444,STD
54489762471000,0.325012,3.22187603941842,9.35632379806139,0.946231830048465,0.12339478,0.23518312,0.064446285,201.90353,-63.029243,22.091286,STD
54489767481000,0.330022,3.17557664314234,9.40563697684168,0.937546235785586,0.12308934,0.22479841,0.05467244,202.02322,-63.257687,21.958862,STD
54489772483000,0.335024,3.156449810002,9.45823586783789,0.932764527500499,0.116675265,0.20097467,0.053450707,202.14725,-63.476757,21.835062,STD
54489777454000,0.339995,3.13890929517791,9.49882292849504,0.919816623558721,0.1151481,0.18875736,0.055283304,202.26239,-63.69851,21.703577,STD
54489782507000,0.345048,3.12714778185884,9.49176587312852,0.872770533438654,0.112399206,0.16401732,0.057421334,202.38419,-63.911144,21.579107,STD
54489787422000,0.349963,3.11570748145052,9.48490154953335,0.82700929596782,0.089491755,0.13805555,0.054061573,202.49825,-64.113976,21.45865,STD
54489792493000,0.355034,3.10390407079526,9.47781935524013,0.779795616371767,0.09101892,0.1142318,0.053450707,202.61478,-64.311554,21.345285,STD
54489797469000,0.36001,3.09210460621726,9.47106063121479,0.730590968953247,0.07238753,0.1020145,0.04734206,202.7325,-64.49746,21.234484,STD
54489802469000,0.36501,3.07790538708115,9.46632750874765,0.650129517930216,0.06688975,0.10048734,0.04550946,202.85014,-64.677864,21.129515,STD
54489807592000,0.370133,3.06498613776016,9.46106874578791,0.568894586848365,0.046120327,0.096516706,0.04428773,202.971,-64.84549,21.033644,STD
54489812487000,0.375028,3.06963226412289,9.45177673562934,0.503850132482656,0.036651913,0.100792766,0.042455133,203.08658,-65.00834,20.94014,STD
54489817687000,0.380228,3.07456788354807,9.44190575445986,0.434752857160555,0.03023783,0.10170906,0.036651913,203.20535,-65.16491,20.853146,STD
54489822482000,0.385023,3.07911909415263,9.43280357086224,0.371037196551041,0.011911872,0.116675265,0.03481932,203.3155,-65.31221,20.768564,STD
54489827855000,0.390396,3.08560072299353,9.42451238588817,0.298048516770635,0.0143553335,0.12980886,0.0290161,203.4237,-65.45874,20.684359,STD
54489832491000,0.395032,3.10248844189806,9.43295646576645,0.222053332031191,0.01038471,0.16065755,0.025045475,203.51941,-65.59651,20.60094,STD
54489837440000,0.399981,3.12051633682008,9.44197064853556,0.140927324853557,0.009162978,0.16554448,0.023518313,203.62395,-65.72868,20.534454,STD
54489842485000,0.405026,3.14713543046064,9.43436636303568,0.104796160246366,0.017104227,0.1695151,0.03023783,203.71695,-65.85615,20.469448,STD
54489847424000,0.409965,3.17392412076647,9.42543662865773,0.0735427193033793,0.026572637,0.16982053,0.034513887,203.80763,-65.98032,20.405499,STD
54489852493000,0.415034,3.18771817326396,9.41946877755362,0.0793650659029518,0.029626964,0.16584991,0.036957346,203.902,-66.094055,20.355001,SCH
54489857377000,0.419918,3.19765087472924,9.41450232310469,0.0942641253610108,0.032070424,0.16523905,0.038179077,203.9932,-66.20452,20.30684,SCH
54489862458000,0.424999,3.21604617439881,9.4226975415141,0.104464431165562,0.0421497,0.15149458,0.045814894,204.09343,-66.30772,20.27036,SCH
54489867373000,0.429914,3.23467847489362,9.4320139106383,0.113780613514894,0.036651913,0.1459968,0.04428773,204.19017,-66.40733,20.232666,SCH
54489872472000,0.435013,3.23270880615066,9.42465114591766,0.136180888992003,0.03359759,0.12339478,0.05009095,204.29366,-66.500175,20.20309,SCH
54489877375000,0.439916,3.22807315010366,9.41537954339027,0.15935943061704,0.03634648,0.11148291,0.05497787,204.39407,-66.59019,20.173914,SCH
54489882491000,0.445032,3.22321503114705,9.40983252292122,0.158636890324469,0.026267206,0.098043874,0.06169739,204.50095,-66.67105,20.151318,SCH
54489887372000,0.449913,3.21857672504465,9.40519465270887,0.153998627811074,0.028099801,0.090713486,0.06383542,204.60786,-66.750626,20.13044,SCH
54489892487000,0.455028,3.19944986916836,9.4248218356998,0.159347964969574,0.013439035,0.084910266,0.063224554,204.71425,-66.822136,20.110907,SCH
54489897380000,0.459921,3.17858542290605,9.44800458066591,0.166302793300846,0.007330383,0.07971791,0.056505036,204.82129,-66.8931,20.091885,SCH
54489902483000,0.465024,3.15682550684708,9.47218229322713,0.173556112118439,-0.004886922,0.0720821,0.053145275,204.92897,-66.958,20.075146,SCH
54489907383000,0.469924,3.13593121159155,9.49539820377974,0.180520890132588,-0.009773844,0.06261369,0.05375614,205.03737,-67.02101,20.059256,SCH
54489912486000,0.475027,3.12081791502986,9.51459023812586,0.178359997918236,-0.015882496,0.063224554,0.06169739,205.13853,-67.07897,20.04828,SCH
54489918035000,0.480576,3.1061716137345,9.53411853789619,0.173477892388608,-0.020463986,0.06291912,0.055588737,205.24199,-67.13718,20.035238,SCH
54489922488000,0.485029,3.07970373192843,9.54181174043333,0.208810931667565,-0.026267206,0.06383542,0.06047566,205.33458,-67.19393,20.01928,SCH
54489927437000,0.489978,3.04394108536165,9.54692078139485,0.265009251288132,-0.035430185,0.049785517,0.062002823,205.43082,-67.24951,20.002712,SCH
54489932484000,0.495025,3.03398175638303,9.548077,0.324376017701811,-0.036957346,0.050701816,0.061391957,205.5189,-67.304886,19.984482,SCH
54489937441000,0.499982,3.03162640051104,9.548077,0.383259948933763,-0.04520403,0.05222898,0.06780604,205.6091,-67.353676,19.970549,SCH
54489942493000,0.505034,3.02922590467378,9.548077,0.443272379957331,-0.06169739,0.051923547,0.07238753,205.68567,-67.401184,19.951794,SCH
54489947480000,0.510021,3.02685629407591,9.548077,0.50251267954453,-0.05497787,0.057421334,0.07269296,205.75877,-67.44822,19.934267,SCH
54489952482000,0.515023,3.02985625610725,9.57675969910626,0.560171846981132,-0.070554934,0.059864793,0.083383106,205.83096,-67.48463,19.922098,SCH
54489957482000,0.520023,3.03461137030785,9.61480041410129,0.617233262075472,-0.07269296,0.05100725,0.08979719,205.90408,-67.52301,19.910042,SCH
54489962441000,0.524982,3.0118935062207,9.64522320693359,0.666289480793945,-0.08032878,0.05589417,0.09712757,205.96129,-67.55503,19.892786,SCH
54489967515000,0.530056,2.97867580213867,9.67369558134766,0.713743307666992,-0.09040806,0.04917465,0.10873401,206.02303,-67.58226,19.880651,SCH
54489972520000,0.535061,2.94232024795888,9.69539682415736,0.711281183364634,-0.09712757,0.04886922,0.11484267,206.07492,-67.60744,19.86528,SCH
54489977522000,0.540063,2.90444096273599,9.7143363926065,0.687606599199367,-0.105068825,0.05467244,0.119729586,206.12553,-67.627335,19.85381,SCH
54489982515000,0.545056,2.86035784247169,9.73956174111275,0.657666826325948,-0.116980694,0.059253927,0.13836098,206.16562,-67.64422,19.84008,SCH
54489988080000,0.550621,2.80787630303299,9.77105070861644,0.62092979255933,-0.14049901,0.05375614,0.15393804,206.20613,-67.65711,19.828056,SCH
54489992530000,0.555071,2.76874090845742,9.79022508755211,0.591381611506849,-0.15027285,0.06352998,0.16187929,206.23267,-67.66663,19.817154,SCH
54489997535000,0.560076,2.72591909428231,9.80925690559857,0.558075736164384,-0.16279559,0.06383542,0.17501289,206.26215,-67.66709,19.813406,SCH
54490002515000,0.565056,2.69220567505235,9.82824735387377,0.548883104157942,-0.1826487,0.0729984,0.1966986,206.27902,-67.66738,19.80847,SCH
54490007528000,0.570069,2.66348386924918,9.84739512443913,0.553670071791804,-0.20219639,0.07452556,0.20463985,206.29796,-67.66607,19.804087,SCH
54490012514000,0.575055,2.63844478199712,9.87173092145943,0.466604279547768,-0.22174409,0.087964594,0.21594086,206.30676,-67.66283,19.799915,SCH
54490017511000,0.580052,2.61547057671627,9.8993000637542,0.324164096455113,-0.24831672,0.086437434,0.22724187,206.31915,-67.654205,19.798855,SCH
54490022519000,0.58506,2.59210064452339,9.91455321383462,0.209968691214525,-0.27580565,0.098043874,0.24617869,206.31822,-67.642685,19.796265,SCH
54490027532000,0.590073,2.56841370011841,9.91929068186304,0.11995862104401,-0.33017266,0.1020145,0.26450464,206.31955,-67.621796,19.79725,SCH
54490032512000,0.595053,2.5522020460305,9.91916932283926,0.0141461087434493,-0.36957347,0.0852157,0.27550024,206.33415,-67.60393,19.804096,SCH
54490037546000,0.600087,2.54277505909269,9.91445573093469,-0.108404807087212,-0.40011674,0.082161374,0.29810223,206.34201,-67.57324,19.81816,SCH
54490042515000,0.605056,2.52213662222333,9.90974965628443,-0.230760279657486,-0.42852196,0.07391469,0.32528573,206.36111,-67.53583,19.839434,SCH
54490047524000,0.610065,2.48850704401602,9.90494533049574,-0.355670231867802,-0.45265114,0.071776666,0.3390302,206.3791,-67.49381,19.862587,SCH
54490052514000,0.615055,2.4574748845312,9.89797105974564,-0.470297405368234,-0.47983465,0.06536258,0.36713,206.4094,-67.440445,19.903145,SCH
54490057693000,0.620234,2.42813554061915,9.88819156778074,-0.577875253309672,-0.49877146,0.08277224,0.39064834,206.43304,-67.38418,19.944242,SCH
54490062453000,0.624994,2.40307508420002,9.86270436840004,-0.714311814366703,-0.52687126,0.08307768,0.408058,206.47334,-67.32763,19.991482,SCH
54490067486000,0.630027,2.37902077019663,9.81459574039325,-0.906746462027148,-0.5549711,0.10262536,0.42363504,206.5019,-67.26484,20.041687,SCH
54490072430000,0.634971,2.34493409134775,9.75949163227953,-1.07115229392679,-0.5662721,0.122783914,0.44073927,206.53778,-67.20347,20.096735,SCH
54490077492000,0.640033,2.29564065540765,9.69227343815863,-1.20558882254576,-0.5900958,0.15851954,0.4605924,206.56262,-67.13402,20.15372,SCH
54490082479000,0.64502,2.24102168200766,9.61382324330072,-1.30926891356869,-0.6041457,0.18478674,0.48808134,206.6,-67.05859,20.22684,SCH
54490087510000,0.650051,2.16929344602297,9.50110722990217,-1.33488614070608,-0.6188065,0.20677789,0.49327368,206.62897,-66.98286,20.295898,SCH
54490092368000,0.654909,2.09335369064592,9.364318034167,-1.32967874618944,-0.63285637,0.23884831,0.50946164,206.65732,-66.904785,20.37395,SCH
54490097495000,0.660036,2.00149608491532,9.17093330878298,-1.27166342953919,-0.627664,0.28802297,0.5155703,206.67523,-66.830925,20.446703,SCH
54490102369000,0.66491,1.92370222512504,8.99205027792488,-1.21501852512504,-0.6230826,0.32467487,0.50426924,206.68355,-66.75835,20.513847,SCH
54490107507000,0.670048,1.86097070673728,8.8135071713249,-1.15228700673728,-0.6203337,0.3659083,0.5036584,206.67601,-66.68453,20.580847,SCH
54490112376000,0.674917,1.80560289549896,8.65097169390978,-1.091323039542,-0.6252206,0.42088616,0.4981606,206.64172,-66.61693,20.631231,SCH
54490117498000,0.680039,1.75718475235416,8.49603359540026,-1.02353765936235,-0.64904433,0.47311515,0.49632803,206.59705,-66.5489,20.678608,SCH
54490122397000,0.684938,1.71863524113924,8.36073817207279,-0.958669430439082,-0.66889745,0.5128214,0.48624873,206.52336,-66.476074,20.720142,SCH
54490127542000,0.690083,1.69914448322785,8.25353880003956,-0.890451726869066,-0.6951646,0.57848936,0.47800204,206.42776,-66.40203,20.755375,SCH
54490132410000,0.694951,1.68784269686784,8.16348239753629,-0.810213219576012,-0.73945236,0.6282749,0.46670106,206.31337,-66.31961,20.783894,SCH
54490137497000,0.700038,1.69714697142857,8.10300432142857,-0.679953278571429,-0.7791586,0.66828656,0.45631635,206.1844,-66.23905,20.805182,SCH
54490142429000,0.70497,1.71326218201575,8.05956076143954,-0.564455897910478,-0.7968737,0.6927212,0.44806966,206.03827,-66.152534,20.820429,SCH
54490147507000,0.710048,1.76659100289104,8.09349745409231,-0.501430952176254,-0.80909103,0.70402217,0.44501534,205.88634,-66.06575,20.830647,SCH
54490152424000,0.714965,1.8137067816596,8.1248222816596,-0.453800213200946,-0.8063421,0.72356987,0.44684792,205.71268,-65.97319,20.834215,SCH
54490157483000,0.720024,1.8375803557209,8.1486958557209,-0.477673797233665,-0.8323039,0.73639804,0.44715336,205.54,-65.87914,20.834183,SCH
54490162449000,0.72499,1.85426059904981,8.17447583875612,-0.507093705542758,-0.8371908,0.75716746,0.44868052,205.3509,-65.772705,20.84307,SCH
54490167468000,0.730009,1.82658080682407,8.21599543075151,-0.576293210192917,-0.8402451,0.79412484,0.4447099,205.15579,-65.667496,20.846432,SCH
54490172627000,0.735168,1.79462520714286,8.24460411785714,-0.632753252857143,-0.8374963,0.8323039,0.44012842,204.95787,-65.55588,20.855263,SCH
54490177548000,0.740089,1.72633613948176,8.12007718939652,-0.528311227344016,-0.8246681,0.8622363,0.44837508,204.75322,-65.446556,20.862446,SCH
54490182405000,0.744946,1.65893520438118,7.99716979424651,-0.425227521203546,-0.8197812,0.8750645,0.44012842,204.54857,-65.34845,20.858324,SCH
54490187528000,0.750069,1.56587643329356,7.90365400727924,-0.283304344701671,-0.80878556,0.8881981,0.4541783,204.33519,-65.24897,20.858603,SCH
54490192453000,0.754994,1.4673799105708,7.82860912387629,-0.133214372197693,-0.79168135,0.8738427,0.46089783,204.1297,-65.158165,20.85354,SCH
54490197539000,0.76008,1.41966191106032,7.75452033318096,-0.0187548549498162,-0.7687739,0.8393288,0.45875978,203.8976,-65.061615,20.839296,SCH
54490202477000,0.765018,1.39616482351188,7.68402907053563,0.0752335639431581,-0.7415904,0.83016586,0.47036624,203.66328,-64.966774,20.82781,SCH
54490207525000,0.770066,1.38533021225344,7.62837786064953,0.171479992695756,-0.73548174,0.8338311,0.46944994,203.4004,-64.874565,20.79117,SCH
54490212502000,0.775043,1.38058183296473,7.58089426608886,0.266446656252242,-0.7247916,0.84299403,0.48258355,203.13927,-64.78431,20.759789,SCH
54490217467000,0.780008,1.41526860121541,7.5686944354899,0.324037384884069,-0.7257079,0.8680395,0.48166725,202.85638,-64.68581,20.718842,SCH
54490222746000,0.785287,1.47198809021129,7.57342115416978,0.366576984356769,-0.7324274,0.88789266,0.4877759,202.57355,-64.58659,20.680864,SCH
54490227647000,0.790188,1.5301082073074,7.59331729796073,0.447583699310801,-0.74036866,0.8753699,0.4908302,202.27579,-64.47403,20.642588,SCH
54490232793000,0.795334,1.59524713232628,7.6258869305136,0.563903204108761,-0.7507534,0.852157,0.4905248,201.97816,-64.36294,20.601875,SCH
54490237680000,0.800221,1.65455474049893,7.65655994880831,0.714215036802374,-0.75686204,0.83169305,0.48808134,201.683,-64.23461,20.57432,SCH
54490243841000,0.806382,1.72568849348975,7.69486270811463,0.960447272318464,-0.7663304,0.77946407,0.4908302,201.40677,-64.10686,20.549793,SCH
54490247462000,0.810003,1.77141194179347,7.71812919379184,1.11630325514303,-0.77549344,0.72082096,0.4999932,201.12773,-63.953907,20.536386,SCH
54490252657000,0.815198,1.84711417951917,7.75345677474133,1.36864397729763,-0.7825184,0.655153,0.50640726,200.86942,-63.80418,20.525131,SCH
54490257537000,0.820078,1.94718320556587,7.79768402308973,1.61477665106001,-0.79717916,0.5861252,0.52381694,200.60316,-63.62219,20.525335,SCH
54490262667000,0.825208,2.12025027608403,7.87005750320246,1.89483068808045,-0.8185594,0.5216789,0.52687126,200.35912,-63.444733,20.525742,SCH
54490268582000,0.831123,2.31980031938128,7.95350567764043,2.21773899782233,-0.8576548,0.46700647,0.5186246,200.10475,-63.22894,20.53505,SCH
54490272369000,0.83491,2.46761774312347,8.03685065191222,2.43005538777032,-0.8958339,0.43799037,0.5119051,199.86555,-63.014797,20.545956,SCH
54490277425000,0.839966,2.77711173166081,8.31539574789603,2.74470749813572,-0.9071349,0.37934732,0.5002986,199.65613,-62.80762,20.558023,SCH
54490282403000,0.844944,3.06759910693717,8.58079444502618,3.02160779319372,-0.93615097,0.31215215,0.51007247,199.43532,-62.523174,20.60417,SCH
54490287923000,0.850464,3.34844406720819,8.84942821157992,3.23325907745611,-0.96791595,0.2302962,0.52503866,199.24217,-62.247597,20.651821,SCH
54490292425000,0.854966,3.57749551850169,9.06852046104096,3.40587757052664,-0.9950995,0.13530666,0.5546656,199.06349,-61.917145,20.749716,SCH
54490297751000,0.860292,3.82122913958734,9.27254174603014,3.53919914305654,-1.0054842,0.058643065,0.589485,198.90747,-61.592415,20.854458,SCH
54490302337000,0.864878,4.02112442375847,9.42801628370588,3.62804156373015,-0.9947941,-0.006414085,0.61819565,198.77872,-61.274044,20.969032,SCH
54490307353000,0.869894,4.16989569581471,9.45417273344169,3.70871478293377,-0.99296147,-0.06994407,0.6246097,198.68297,-60.919662,21.131071,SCH
54490312776000,0.875317,4.29651519856766,9.41196654469728,3.78785191017879,-0.9877691,-0.13500121,0.63041294,198.60829,-60.57596,21.301113,SCH
54490317346000,0.879887,4.37548972923815,9.21072231158088,3.83368914338235,-0.97219205,-0.19608775,0.63407815,198.56125,-60.207417,21.5105,SCH
54490322352000,0.884893,4.45382539837623,8.94144276194853,3.87775298602941,-0.94897914,-0.24037547,0.6239988,198.53279,-59.857487,21.71541,SCH
54490327346000,0.889887,4.50165652303292,8.65071854004416,3.85523475608189,-0.945314,-0.27275133,0.6178902,198.52107,-59.48657,21.949663,SCH
54490332347000,0.894888,4.5401097661381,8.35270481433159,3.81197480112405,-0.93859446,-0.3032946,0.61117065,198.52568,-59.13698,22.17775,SCH
54490337353000,0.899894,4.59134062549038,8.11450723519281,3.75610505838676,-0.93126404,-0.33078352,0.6133087,198.53949,-58.75281,22.4415,SCH
54490342349000,0.90489,4.64627798191561,7.89475876557267,3.69658970046885,-0.9251554,-0.34238997,0.6227771,198.55986,-58.383755,22.69866,SCH
54490347345000,0.909886,4.70444240805697,7.71277315429878,3.62006578467616,-0.9089675,-0.34055737,0.65393126,198.5912,-57.99072,22.991755,SCH
54490352347000,0.914888,4.76420312574072,7.5484312196694,3.53540473762345,-0.91538155,-0.34208453,0.70646566,198.62502,-57.60185,23.285873,SCH
54490357344000,0.919885,4.81107578517453,7.36488733626537,3.42510723694962,-0.91415983,-0.3484986,0.7257079,198.67264,-57.19639,23.60811,SCH
54490362348000,0.924889,4.85384663654304,7.17479493368703,3.30629935507735,-0.9126327,-0.33383787,0.7641924,198.70773,-56.788887,23.937092,SCH
54490367324000,0.929865,4.9432819412529,6.91317920225522,3.13830571552668,-0.9193522,-0.2929099,0.81031275,198.7571,-56.374367,24.287924,SCH
54490372434000,0.934975,5.05228405076566,6.61796451937819,2.94755176304408,-0.9071349,-0.26145032,0.8765916,198.79918,-55.96504,24.643179,SCH
54490377451000,0.939992,5.16530408771431,6.43220876552704,2.84369076453282,-0.88147855,-0.20555615,0.947452,198.82687,-55.51971,25.033098,SCH
54490382564000,0.945105,5.2845280226641,6.31298508993609,2.79401421142335,-0.8686504,-0.14294247,1.0231993,198.83641,-55.07362,25.425426,SCH
54490387454000,0.949995,5.36108565495802,6.15760166215514,2.78940097610956,-0.82833326,-0.070554934,1.0940597,198.86226,-54.60199,25.876993,SCH
54490392463000,0.955004,5.41862676777289,5.9753877209916,2.80858128028788,-0.81214535,0.015577064,1.1612549,198.85904,-54.127487,26.324781,SCH
54490397450000,0.959991,5.44107541996838,5.92338385159297,2.94457680434054,-0.80756384,0.105068825,1.2018774,198.85568,-53.64474,26.794357,SCH
54490402455000,0.964996,5.44337182609112,5.94634736131845,3.14895287294591,-0.7837401,0.16554448,1.2278391,198.83163,-53.172104,27.256145,SCH
54490407449000,0.96999,5.44566318516744,5.96926040179179,3.35287976337853,-0.7715228,0.18936823,1.2443326,198.77867,-52.656647,27.739819,SCH
54490412425000,0.974966,5.44794628544052,5.99209085621616,3.55607163498299,-0.7357872,0.20616703,1.2562444,198.7106,-52.16116,28.207314,SCH
54490417424000,0.979965,5.44276784598612,6.02825326471754,3.76015422993062,-0.6945538,0.23823744,1.2498302,198.62729,-51.67471,28.659166,SCH
54490422423000,0.984964,5.42853362699703,6.0804454010109,3.96417808498513,-0.7098254,0.3136793,1.2379184,198.52914,-51.198555,29.090244,SCH
54490427384000,0.989925,5.45886522228826,6.15243648870728,4.16256673090639,-0.7538077,0.3817908,1.2153164,198.3495,-50.713062,29.472853,SCH
54490432427000,0.994968,5.54976381111441,6.25290343943536,4.35871630154532,-0.8155051,0.4098906,1.1905763,198.16432,-50.239407,29.834211,SCH
54490437414000,0.999955,5.63952441470879,6.37163483642646,4.53288793835143,-0.88789266,0.4382958,1.1667526,197.91722,-49.758625,30.15591,SCH
54490442465000,1.005006,5.73025264071076,6.51966493719645,4.68091828843041,-0.9447031,0.4709771,1.1673635,197.66463,-49.28424,30.46143,SCH
54490447348000,1.009889,5.79660917419795,6.61497813993174,4.78495853037543,-1.0146471,0.4868596,1.1575897,197.38785,-48.794838,30.743929,SCH
54490452581000,1.015122,5.83081763453925,6.63452598464164,4.82894073447099,-1.0815369,0.4718934,1.1404854,197.11652,-48.311977,31.013672,SCH
54490457352000,1.019893,5.83454290826233,6.62020729819695,4.83855495635031,-1.1386528,0.4700608,1.1261301,196.83156,-47.83324,31.259943,SCH
54490462472000,1.025013,5.78110855121855,6.53762688210818,4.78512075147612,-1.1511755,0.48899764,1.1032226,196.55489,-47.370674,31.489227,SCH
54490467348000,1.029889,5.70964486779158,6.45245733395142,4.67586851064343,-1.183246,0.48502702,1.069625,196.29253,-46.91008,31.708195,SCH
54490472426000,1.034967,5.58790939847951,6.34875700356017,4.42788909330614,-1.205848,0.48166725,1.0424415,196.03339,-46.466297,31.911724,SCH
54490477412000,1.039953,5.46464605086013,6.22240322438295,4.19805827015707,-1.2052372,0.5103779,1.0210613,195.74855,-46.004784,32.111763,SCH
54490482483000,1.045024,5.31935396303024,5.96295246378887,4.03719871623037,-1.1997393,0.54000485,0.99296147,195.47807,-45.562252,32.295498,SCH
54490487406000,1.049947,5.20858793709772,5.74332304990679,3.95678712234105,-1.1615603,0.5516113,0.95722586,195.24625,-45.163406,32.46763,SCH
54490492478000,1.055019,5.1704609984792,5.5979645909586,4.06401876708203,-1.1334605,0.56505036,0.93737274,195.01541,-44.780083,32.62502,SCH
54490497423000,1.059964,5.13328873675432,5.45624582528454,4.16856539232731,-1.0812315,0.5876524,0.9056077,194.76973,-44.391815,32.783184,SCH
54490502492000,1.065033,5.09518434955848,5.31097334334282,4.27573361141091,-1.0473285,0.55680364,0.872621,194.54745,-44.023315,32.936066,SCH
54490507443000,1.069984,5.11209589664113,5.22472109145551,4.40239085721862,-1.0128145,0.5122105,0.84940815,194.31575,-43.66042,33.085426,SCH
54490512508000,1.075049,5.32647363834217,5.33905573116284,4.61200470327048,-1.001819,0.4428773,0.81122905,194.11653,-43.322052,33.226597,SCH
54490517470000,1.080011,5.51023019135802,5.43662100425649,4.79607711614151,-1.0250319,0.39095375,0.8054258,193.86526,-42.940628,33.371147,SCH
54490522558000,1.085099,5.58205893209877,5.47253542150359,4.89035221531233,-1.0351112,0.3903429,0.84207773,193.62486,-42.573994,33.514168,SCH
54490527740000,1.090281,5.65644966153099,5.50730964113076,4.98219926418302,-1.0491611,0.4083634,0.8393288,193.38654,-42.18755,33.66792,SCH
54490532541000,1.095082,5.74131337625801,5.51624256063726,5.01346476228871,-1.0852021,0.40683624,0.83658,193.15318,-41.79914,33.82727,SCH
54490537872000,1.100413,5.83711339562147,5.52848664689266,5.05031355861582,-1.1142182,0.42943826,0.83260936,192.89151,-41.39607,33.98783,SCH
54490542552000,1.105093,5.95950160918079,5.59601137909605,5.13471947387006,-1.1129965,0.4352415,0.84482664,192.6392,-41.00152,34.1481,SCH
54490547471000,1.110012,6.0881399900565,5.66698448971751,5.22343586214689,-1.1200215,0.4569272,0.8582657,192.37279,-40.5869,34.318855,SCH
54490552397000,1.114938,6.18158800634582,5.62336894704031,5.29816790867093,-1.1166617,0.46792278,0.86529064,192.11389,-40.18644,34.48472,SCH
54490557361000,1.119902,6.26847075781298,5.55579342887603,5.37056998315565,-1.1081096,0.47067168,0.87109387,191.85612,-39.795944,34.644146,SCH
54490562426000,1.124967,6.31392389015888,5.47558610165047,5.3569345278729,-1.0940597,0.48838675,0.88086766,191.58183,-39.391502,34.814335,SCH
54490567938000,1.130479,6.35463599998458,5.38601946003394,5.32436484001234,-1.0803152,0.5207626,0.8897252,191.30934,-39.00099,34.974934,SCH
54490572400000,1.134941,6.38653339524136,5.30355427230401,5.30136095967135,-1.0613784,0.5320636,0.8958339,191.02333,-38.58905,35.15362,SCH
54490577362000,1.139903,6.4190701969531,5.18425223190688,5.2850925871277,-1.0461067,0.5561928,0.89919364,190.73146,-38.191345,35.317425,SCH
54490582347000,1.144888,6.41920780467197,5.10015394314115,5.31666430324056,-1.0574077,0.56199604,0.9126327,190.43805,-37.770912,35.505478,SCH
54490587385000,1.149926,6.3856357445328,5.05219378568588,5.39819642067594,-1.0644327,0.54458636,0.9288206,190.15054,-37.36668,35.686413,SCH
54490592352000,1.154893,6.35052529585944,5.02105420728269,5.45993362527408,-1.0888673,0.5213735,0.93431836,189.85283,-36.935688,35.884903,SCH
54490597363000,1.159904,6.31294549363743,5.00696179984338,5.50221094569303,-1.0989466,0.51343226,0.9486737,189.55757,-36.51513,36.080215,SCH
54490602326000,1.164867,6.27108206847936,5.00326900810675,5.51746538378651,-1.1087204,0.5326745,0.98837996,189.23277,-36.0764,36.263382,SCH
54490607364000,1.169905,6.22249403383686,5.01298666577039,5.49803006845922,-1.1145236,0.5522222,1.0177015,188.91707,-35.649788,36.44041,SCH
54490612309000,1.17485,6.19408906502824,4.98667201602418,5.52750477554256,-1.1175779,0.5305365,1.026559,188.58275,-35.212402,36.61377,SCH
54490617368000,1.179909,6.18928795320583,4.91465383467446,5.61872820632246,-1.1261301,0.5198463,1.0250319,188.2454,-34.78398,36.776524,SCH
54490622298000,1.184839,6.1684826046137,4.83429538847569,5.70170940713931,-1.135904,0.5305365,1.006095,187.89937,-34.356937,36.929577,SCH
54490627364000,1.189905,6.12506536764443,4.73781319935368,5.77889505769116,-1.1505647,0.52870387,0.990518,187.56885,-33.941998,37.079456,SCH
54490632282000,1.194823,6.07927601229363,4.66383161261792,5.87845690044222,-1.1636983,0.5161811,0.97249746,187.2201,-33.512928,37.216408,SCH
54490637750000,1.200291,6.02266979967571,4.61237115554245,6.0276915489092,-1.1768318,0.4822781,0.96577793,186.88861,-33.09681,37.350037,SCH
54490642285000,1.204826,5.98990260501205,4.5769335100241,6.1038779633253,-1.1835514,0.42424592,0.977079,186.5352,-32.659054,37.48519,SCH
54490647367000,1.209908,5.97582955510361,4.54878741020723,6.11325999659759,-1.2113458,0.4166101,0.9941832,186.1884,-32.22961,37.609848,SCH
54490652369000,1.21491,5.93204843322748,4.38987655927774,6.13878858502858,-1.2177598,0.41416663,1.0042624,185.82085,-31.791487,37.724293,SCH
54490657455000,1.219996,5.82156026336993,3.93908450322112,6.20066219089012,-1.2195925,0.37873647,1.003957,185.47179,-31.362007,37.8423,SCH
54490662370000,1.224911,5.72317982246021,3.58246561174057,6.25633412681413,-1.2226468,0.35918877,0.9673051,185.12238,-30.936016,37.94666,SCH
54490667433000,1.229974,5.68920811103994,3.84938635349815,6.28059963497147,-1.2257011,0.3036,0.9059132,184.80757,-30.529327,38.05586,SCH
54490672506000,1.235047,5.66121952576488,4.09895414436793,6.3207736097393,-1.2342533,0.2507602,0.893085,184.4534,-30.068382,38.17376,SCH
54490677479000,1.24002,5.67058999824889,4.23482614215445,6.45664536291195,-1.2174544,0.2415972,0.8854492,184.12518,-29.634752,38.278893,SCH
54490682456000,1.244997,5.68840802968516,4.36868072050974,6.5984569504048,-1.2223413,0.23823744,0.8738427,183.80861,-29.22482,38.362347,SCH
54490687487000,1.250028,5.78472163448276,4.48425709655172,6.79590004137931,-1.2217305,0.23335053,0.85154617,183.50922,-28.83571,38.440678,SCH
54490692428000,1.254969,5.88584277476038,4.59426638977636,7.00199953594249,-1.2461652,0.23609942,0.8268061,183.20421,-28.45943,38.490185,SCH
54490697474000,1.260015,6.05470865599042,4.67146233059106,7.3349064639377,-1.2925909,0.24312437,0.81031275,182.9134,-28.093819,38.534336,SCH
54490702405000,1.264946,6.21994499979296,4.74524416385685,7.66066929370009,-1.3319917,0.25625798,0.79534656,182.61288,-27.726812,38.55401,SCH
54490707620000,1.270161,6.39720497322291,4.80433078739032,8.01026555664005,-1.385137,0.25320363,0.77549344,182.33148,-27.364252,38.57042,SCH
54490712535000,1.275076,6.56446620184312,4.85709939142735,8.33057865512216,-1.4327844,0.26206118,0.7556403,182.01874,-26.976997,38.562157,SCH
54490717490000,1.280031,6.73532173806258,4.877439315988,8.55025018019717,-1.4746287,0.28160888,0.7150178,181.72855,-26.60097,38.544815,SCH
54490722420000,1.284961,6.9053152382769,4.89767661731676,8.76881337265323,-1.5060883,0.3100141,0.6649268,181.4105,-26.200588,38.513546,SCH
54490727482000,1.290023,7.20816859532253,4.93570053569754,9.05644471232039,-1.5497651,0.35338554,0.59589905,181.11655,-25.81402,38.46497,SCH
54490732377000,1.294918,7.54734839798227,4.97869517683685,9.35740715041272,-1.5803084,0.43035457,0.5314528,180.83655,-25.445019,38.39557,SCH
54490737480000,1.300021,8.08386315660848,5.06347514333167,9.61065569885287,-1.5793921,0.50610185,0.46578476,180.55432,-25.064262,38.30936,SCH
54490742369000,1.30491,8.65365477057357,5.15688376773067,9.83483573416459,-1.5775595,0.54275376,0.43890667,180.28592,-24.694643,38.213158,SCH
54490747474000,1.310015,9.05039551613486,5.14781110115701,9.94935144382175,-1.5583172,0.5384777,0.43249258,180.01634,-24.309566,38.12924,SCH
54490752410000,1.314951,9.37086340874989,5.10508179597758,10.021990910151,-1.509448,0.52290064,0.44806966,179.7565,-23.944584,38.04177,SCH
54490757478000,1.320019,9.5277619375395,5.01795796429324,10.0444260428692,-1.46852,0.48288897,0.4538729,179.53326,-23.556398,38.017952,SCH
54490762481000,1.325022,9.54290215167474,4.89683888603328,10.0242396176533,-1.3836098,0.42271876,0.45142943,179.32549,-23.20016,38.0043,SCH
54490767430000,1.329971,9.47653219324108,4.78389629068392,9.98001224649017,-1.2840388,0.3472769,0.44959682,179.13136,-22.818575,38.053345,SCH
54490772468000,1.335009,9.3652500887485,4.67261433775572,9.92195197412756,-1.1780536,0.2678644,0.45906523,178.95485,-22.468874,38.11632,SCH
54490777717000,1.340258,9.2461805829919,4.57055120094934,9.84799850704507,-1.0760391,0.19853121,0.46395215,178.77838,-22.119991,38.203167,SCH
54490782480000,1.345021,9.13678246447487,4.48394461097232,9.77506658668932,-0.95111716,0.1704314,0.47219884,178.61183,-21.808996,38.29645,SCH
54490787456000,1.349997,9.01977735758298,4.43132221278076,9.68976569707812,-0.86009824,0.129198,0.49266282,178.43713,-21.496368,38.403603,SCH
54490792474000,1.355015,8.90037668574836,4.39789007453787,9.5990212862254,-0.788627,0.07269296,0.50823987,178.27507,-21.216629,38.517113,SCH
54490797466000,1.360007,8.79113052300386,4.23908867168299,9.46304189195607,-0.7128797,0.02076942,0.5204572,178.08966,-20.935537,38.637466,SCH
54490802475000,1.365016,8.68671366330266,4.01126927123776,9.30166952547739,-0.6585127,-0.043066,0.5235115,177.91971,-20.674082,38.77045,SCH
54490807465000,1.370006,8.53515500673667,3.6803268474143,9.12298484446206,-0.60139686,-0.13775012,0.5332854,177.74327,-20.419443,38.917877,SCH
54490812476000,1.375017,8.35449291836735,3.28572429897959,8.93281506122449,-0.548557,-0.23884831,0.52442783,177.58897,-20.1874,39.075497,SCH
54490817464000,1.380005,8.15677879522789,2.85294947777053,8.73409334905397,-0.50579643,-0.36071593,0.50762904,177.43143,-19.932888,39.269886,SCH
54490822492000,1.385033,7.94584133115854,2.39068132502563,8.52764401584491,-0.4718934,-0.45845437,0.49877146,177.2917,-19.696545,39.47691,SCH
54490827471000,1.390012,7.69876638108677,1.95425560625527,8.26898030501264,-0.44012842,-0.5180137,0.4868596,177.14598,-19.432518,39.707104,SCH
54490832479000,1.39502,7.40583065673968,1.5401050812342,7.94574048496209,-0.41263947,-0.548557,0.48899764,177.01414,-19.18229,39.94769,SCH
54490837462000,1.400003,7.13999495249232,1.17096704463383,7.57890235726885,-0.39645153,-0.55863625,0.49266282,176.85649,-18.889692,40.204872,SCH
54490842477000,1.405018,6.89250318671093,0.83304555028243,7.17434845488059,-0.3827071,-0.5403103,0.48930305,176.70493,-18.611824,40.453907,SCH
54490847369000,1.40991,6.73364195336172,0.577576435142806,6.86643626929218,-0.37873647,-0.52534413,0.4896085,176.53584,-18.307371,40.71011,SCH
54490852474000,1.415015,6.64257548214476,0.378097849228313,6.6235927233901,-0.3747658,-0.4990769,0.4841107,176.36789,-18.014715,40.950516,SCH
54490857464000,1.420005,6.5687441573358,0.216873322451149,6.39013338013288,-0.38545597,-0.47403142,0.4801401,176.18526,-17.692413,41.20303,SCH
54490862476000,1.425017,6.53214771359329,0.138452191268054,6.16532615516828,-0.3912592,-0.4343252,0.47525316,176.00032,-17.379402,41.43782,SCH
54490867413000,1.429954,6.48929721667324,0.112445373154907,5.97834043072527,-0.41141775,-0.38973203,0.46731192,175.80936,-17.045977,41.682106,SCH
54490872480000,1.435021,6.43669748257785,0.150699753185652,5.8301047165944,-0.4266894,-0.33658674,0.4569272,175.61514,-16.719532,41.907166,SCH
54490877421000,1.439962,6.39519150996263,0.215253986567663,5.70516122295437,-0.42730024,-0.28252518,0.44104472,175.42085,-16.387121,42.132324,SCH
54490882493000,1.445034,6.36652897353462,0.320350206205744,5.60484207110543,-0.43890667,-0.23701571,0.43279803,175.22333,-16.055912,42.34027,SCH
54490887382000,1.449923,6.34413524760304,0.420086431074429,5.56964716558268,-0.43218717,-0.17501289,0.42455134,175.02464,-15.734669,42.529736,SCH
54490893289000,1.45583,6.32736040688939,0.537510012458239,5.64792971665513,-0.4260785,-0.12980886,0.41080686,174.8308,-15.420308,42.705654,SCH
54490897367000,1.459908,6.33204366717236,0.631211601241069,5.69688417502202,-0.42088616,-0.092240654,0.41538838,174.63689,-15.115976,42.862736,SCH
54490902486000,1.465027,6.36563131153959,0.770360701352648,5.74966483776059,-0.40775254,-0.052839845,0.40683624,174.45187,-14.827127,43.00086,SCH
54490907369000,1.46991,6.41408337753156,0.864547937753156,5.82655680405049,-0.4025602,-0.01160644,0.41355577,174.25159,-14.540312,43.110092,SCH
54490912494000,1.475035,6.5032325919535,0.87346285919535,5.9691955471256,-0.41783184,0.040927973,0.4147775,174.05682,-14.262817,43.201435,SCH
54490917437000,1.479978,6.58760382141045,0.87939864152207,6.09974265682395,-0.43157628,0.057421334,0.41508293,173.8559,-13.992896,43.285084,SCH
54490922493000,1.485034,6.66130316590563,0.864658823926941,6.17835511993912,-0.44837508,0.07391469,0.41996986,173.6547,-13.727053,43.352978,SCH
54490927465000,1.490006,6.73071600382514,0.860842175211128,6.25896415846995,-0.46395215,0.083383106,0.42241332,173.44444,-13.4558525,43.411877,SCH
54490932479000,1.49502,6.78319477453552,0.918091793075012,6.35915100218579,-0.47861293,0.111177474,0.42852196,173.23566,-13.18887,43.460365,SCH
54490937468000,1.500009,6.84062804632375,0.98547925502935,6.45820654998508,-0.4813618,0.13591751,0.4447099,173.0153,-12.911915,43.505947,SCH
54490942491000,1.505032,6.93156233736942,1.11948785753656,6.55392705887971,-0.49693888,0.14355333,0.44959682,172.80495,-12.639843,43.546734,SCH
54490947429000,1.50997,7.01411749080933,1.24987558595924,6.64117883235352,-0.514654,0.15149458,0.45723262,172.57648,-12.364711,43.578033,SCH
54490952486000,1.515027,7.04733414211248,1.37325176892024,6.67914071955712,-0.52381694,0.15271631,0.47433686,172.35196,-12.094617,43.60907,SCH
54490957456000,1.519997,7.07922240180162,1.48479747626213,6.72040626862008,-0.5345071,0.16279559,0.5112942,172.121,-11.826003,43.63138,SCH
54490963286000,1.525827,7.10685719045734,1.49032437628192,6.8198904112651,-0.52503866,0.18173242,0.5348125,171.89676,-11.567958,43.65017,SCH
54490967551000,1.530092,7.12360250093957,1.48897034230047,6.88765148373059,-0.5186246,0.19058995,0.5403103,171.68306,-11.3251505,43.66452,SCH
54490972480000,1.535021,7.10492802091781,1.4282787575314,6.91099440094946,-0.50732356,0.19028452,0.55680364,171.46394,-11.086792,43.67808,SCH
54490977670000,1.540211,7.08431059516891,1.36262605260625,6.93469073846713,-0.5021312,0.18570304,0.56291234,171.22957,-10.838628,43.68045,SCH
54490982482000,1.545023,7.05501647457319,1.28311387029604,6.94724528666909,-0.46914452,0.19853121,0.56779927,170.9968,-10.604069,43.67853,SCH
54490987448000,1.549989,7.02478484471486,1.20105703377225,6.96020162215765,-0.44043383,0.20341812,0.56321776,170.74968,-10.361855,43.68325,SCH
54490992483000,1.555024,6.97550535165054,0.909681122519198,7.03079262535155,-0.4202753,0.21594086,0.5403103,170.51488,-10.135854,43.680386,SCH
54490997420000,1.559961,6.92363681704398,0.584322778158971,7.11095356239154,-0.39003745,0.20586158,0.44593164,170.3197,-9.941041,43.67642,SCH
54491002497000,1.565038,6.97507995794759,0.639892072026308,7.14535300005021,-0.39095375,0.17684549,0.41172317,170.08987,-9.72115,43.677433,SCH
54491007376000,1.569917,7.04545626280751,0.771261349165579,7.16881178466713,-0.3585779,0.15210545,0.41325033,169.89067,-9.533042,43.67576,SCH
54491012488000,1.575029,7.11888434188442,0.851854136320127,7.20341741144516,-0.31978795,0.16371189,0.42088616,169.65991,-9.310427,43.66621,SCH
54491017451000,1.579992,7.19011006220849,0.918628068420905,7.23903020188255,-0.27122417,0.1777618,0.40591997,169.44762,-9.108392,43.660892,SCH
54491022494000,1.585035,7.25908671121215,0.901008408509044,7.30421547230938,-0.2434298,0.17989981,0.40133846,169.2399,-8.917902,43.65549,SCH
54491027456000,1.589997,7.32556833793345,0.848772858823823,7.38019431843709,-0.21624629,0.16401732,0.3924809,169.04709,-8.7476,43.64963,SCH
54491032607000,1.595148,7.34900467300614,0.83677594805726,7.48552795541922,-0.20189096,0.1554652,0.38148534,168.86974,-8.593827,43.643024,SCH
54491037484000,1.600025,7.35378024337423,0.841551618159509,7.59536856723926,-0.18020524,0.13713925,0.36743546,168.70514,-8.454915,43.642433,SCH
54491042484000,1.605025,7.36215965345924,0.875033596297217,7.62672438928429,-0.17867808,0.11759156,0.34697145,168.54817,-8.315916,43.64461,SCH
54491047477000,1.610018,7.37166590854871,0.917812215705765,7.63147746719682,-0.17073683,0.10262536,0.3387248,168.3984,-8.187907,43.649937,SCH
54491052481000,1.615022,7.37065517783019,1.05792841843553,7.59785605031447,-0.15515977,0.07941248,0.31887165,168.22795,-8.045374,43.647984,SCH
54491057495000,1.620036,7.36593651898585,1.23252251577241,7.55066847641509,-0.14049901,0.045814894,0.30207285,168.06726,-7.9105678,43.65238,SCH
54491062482000,1.625023,7.36931603030275,1.36882083275377,7.47200847150623,-0.10629055,0.022296581,0.267559,167.93083,-7.7997923,43.65708,SCH
54491067458000,1.629999,7.37601597713938,1.48941915289624,7.3804431221764,-0.086132,0.01282817,0.24312437,167.80316,-7.6946898,43.66623,SCH
54491072513000,1.635054,7.38282229371075,1.61193211678695,7.28742406251757,-0.06566802,-0.0036651916,0.24281894,167.67415,-7.6046343,43.68805,SCH
54491077513000,1.640054,7.38955455540351,1.73311210085294,7.19541707967007,-0.038789943,-0.002443461,0.2669481,167.54814,-7.523118,43.706432,SCH
54491082512000,1.645053,7.3330725958837,1.78190972020037,7.1489305130894,-0.033292156,-0.0036651916,0.29077184,167.41649,-7.4357023,43.728687,SCH
54491087516000,1.650057,7.1973891604051,1.74016094986388,7.15936774654253,-0.030848695,-0.0070249503,0.3155119,167.27888,-7.3512197,43.751144,SCH
54491092507000,1.655048,7.06677180960854,1.78125197882562,7.117510175,-0.050396383,-0.022602014,0.29932398,167.1771,-7.291307,43.790913,SCH
54491097510000,1.660051,6.9388906587584,1.87597870960854,7.04172862222222,-0.07452556,-0.007330383,0.27977628,167.06825,-7.229002,43.822132,SCH
54491102879000,1.66542,6.77986888252446,1.99942280438865,6.972861869744,-0.11453723,0.016798794,0.27030787,166.94414,-7.1523824,43.837624,SCH
54491107512000,1.670053,6.63075767569438,2.11783462759711,6.92023452505684,-0.11636983,0.025350908,0.27672195,166.82481,-7.0819697,43.851868,SCH
54491112509000,1.67505,6.47501747324348,2.18457208181548,6.8846640904172,-0.10903945,0.027183503,0.2828306,166.70988,-7.0159297,43.84733,SCH
54491117511000,1.680052,6.32310979164602,2.20356054821128,6.86567557445248,-0.09743301,0.03390302,0.30207285,166.58952,-6.9490194,43.83954,SCH
54491122508000,1.685049,6.16910861796644,2.1635642189536,6.88005178716683,-0.062308256,0.046731193,0.31031954,166.46715,-6.904855,43.815876,SCH
54491127520000,1.690061,6.01274460809477,2.07353652766041,6.92269648564659,-0.03176499,0.06383542,0.31856623,166.33937,-6.8604817,43.789734,SCH
54491132508000,1.695049,5.89658063194919,1.96268861328774,6.98422436805081,-0.0106901415,0.08857546,0.32284227,166.19238,-6.8153353,43.737408,SCH
54491137554000,1.700095,5.81631526327308,1.83048656857841,7.06448973672692,-0.01038471,0.13408493,0.32925636,166.04172,-6.772252,43.674995,SCH
54491142514000,1.705055,5.77032326610812,1.72620170541592,7.14641249882306,-0.03481932,0.15363261,0.32406402,165.86948,-6.71855,43.59141,SCH
54491147521000,1.710062,5.76075792846599,1.64967895433872,7.23250073736286,-0.05497787,0.17531833,0.31673363,165.69585,-6.6675224,43.495533,SCH
54491152517000,1.715058,5.78988254236482,1.60117606387403,7.29051633202614,-0.09407325,0.19639318,0.29901853,165.51062,-6.6005945,43.380203,SCH
54491157515000,1.720056,5.86335301862745,1.5845859754902,7.31658650980392,-0.14660765,0.22602014,0.27672195,165.33208,-6.532145,43.257496,SCH
54491162511000,1.725052,5.93679409493959,1.56800252579719,7.34264625533769,-0.1957823,0.26633725,0.2574797,165.1428,-6.4459696,43.114902,SCH
54491167503000,1.730044,6.01017637135076,1.55143235348584,7.36868513638344,-0.24037547,0.30665436,0.24801129,164.96107,-6.356021,42.966064,SCH
54491172510000,1.735051,6.06360286496059,1.50683893912492,7.39293563746716,-0.29626966,0.3268129,0.23090707,164.7929,-6.262514,42.813496,SCH
54491177531000,1.740072,6.08973844579219,1.42407617552315,7.41471528816016,-0.3378085,0.34147367,0.22602014,164.62593,-6.1660047,42.654655,SCH
54491182453000,1.744994,6.11591706271882,1.34314886614985,7.43653074222267,-0.38759398,0.32925636,0.20525073,164.47104,-6.0527744,42.513683,SCH
54491187516000,1.750057,6.14501855061518,1.26069560426128,7.46078168670601,-0.39370266,0.33750305,0.20066923,164.31459,-5.9422145,42.366894,SCH
54491192464000,1.755005,6.1694547320578,1.18117486684604,7.48346748490284,-0.41538838,0.3454443,0.19792034,164.16278,-5.8137403,42.23075,SCH
54491197524000,1.760065,6.17911255009467,1.10391146535127,7.50278322182362,-0.41630468,0.31031954,0.183565,164.02386,-5.696133,42.107452,SCH
54491202499000,1.76504,6.1826485296116,1.03891092755538,7.47810453440946,-0.44165558,0.30604348,0.16615535,163.87431,-5.555571,41.979126,SCH
54491207511000,1.770052,6.16357664237608,1.01507114319062,7.28738680714215,-0.45081854,0.2968805,0.16310102,163.73193,-5.4231906,41.865433,SCH
54491212503000,1.775044,6.14364810709319,0.987596541446453,7.12632989666203,-0.4538729,0.28771752,0.15668693,163.58662,-5.2807465,41.75957,SCH
54491218362000,1.780903,6.11577664735744,0.937428204951321,7.07616129242003,-0.4370741,0.28313604,0.15790866,163.44498,-5.1448307,41.658142,SCH
54491222482000,1.785023,6.09279747982161,0.899625691796829,7.04259653986125,-0.41080686,0.26939157,0.16218472,163.31355,-5.004766,41.58113,SCH
54491227518000,1.790059,6.04977875998018,0.842267353755203,7.00913753554014,-0.38820487,0.24190263,0.16340645,163.18842,-4.872743,41.511574,SCH
54491232478000,1.795019,6.01569672496656,0.785370452750812,6.98222313156889,-0.3539964,0.20952678,0.1518,163.07028,-4.750312,41.45217,SCH
54491237514000,1.800055,6.0249129514141,0.725464634394229,6.98683136508695,-0.310625,0.19486602,0.16646078,162.94644,-4.63386,41.398113,SCH
54491242589000,1.80513,6.03468529909488,0.671241363052985,6.99409601165463,-0.26542094,0.15790866,0.16768251,162.81766,-4.515018,41.360344,SCH
54491247519000,1.81006,6.0490899939998,0.680844459564731,7.02770674917116,-0.23335053,0.12644911,0.16707164,162.68867,-4.404454,41.326588,SCH
54491253202000,1.815743,6.06550702688379,0.695177625149354,7.07279002435922,-0.21166481,0.1020145,0.16737708,162.55037,-4.289411,41.304886,SCH
54491257520000,1.820061,6.07746099672384,0.715100838870688,7.12459058807092,-0.17592919,0.079107046,0.17379116,162.41533,-4.187176,41.292034,SCH
54491262800000,1.825341,6.09286270274673,0.737816837185073,7.18663266764539,-0.14874569,0.06505715,0.17684549,162.28552,-4.091287,41.27923,SCH
54491267492000,1.830033,6.11414264258382,0.742072789600303,7.22919214735745,-0.14294247,0.040927973,0.18753563,162.15533,-3.999205,41.27599,SCH
54491272475000,1.835016,6.136742374086,0.746592698143588,7.27439118559386,-0.12308934,0.02687807,0.20799962,162.02255,-3.9197452,41.268047,SCH
54491277519000,1.84006,6.15201830942866,0.689423327517823,7.36251037401346,-0.11178834,0.026572637,0.22540927,161.89073,-3.8412201,41.26277,SCH
54491282437000,1.844978,6.16620618881414,0.62794291026107,7.45236631794357,-0.0983493,0.01038471,0.22540927,161.76225,-3.7697186,41.265453,SCH
54491287656000,1.850197,6.16064016149568,0.570176663357334,7.48762756400834,-0.09621128,-0.011301007,0.2284636,161.61432,-3.6854405,41.266083,SCH
54491292394000,1.854935,6.1538805238554,0.51835310024779,7.5146659263482,-0.10323623,-0.031154128,0.22357668,161.47368,-3.606668,41.2698,SCH
54491297492000,1.860033,6.14660727930281,0.462591908873274,7.54375870203595,-0.11178834,-0.03176499,0.20952678,161.33315,-3.5268524,41.266346,SCH
54491302392000,1.864933,6.13961651855199,0.408996413044493,7.57172155038236,-0.11362094,-0.03145956,0.20708331,161.19446,-3.4487627,41.2676,SCH
54491307512000,1.870053,6.14300030522669,0.252880975700851,7.6008560551376,-0.1020145,-0.038789943,0.18295415,161.07318,-3.381393,41.269665,SCH
54491312394000,1.874935,6.14762839483271,0.0908943454434765,7.6286252693526,-0.112399206,-0.030543262,0.106595986,160.97566,-3.3220425,41.2653,SCH
54491317520000,1.880061,6.1600141739878,0.141163618130893,7.5741945374376,-0.14782938,-0.0580322,0.076358154,160.85701,-3.2411964,41.26796,SCH
54491323076000,1.885617,6.17476987870216,0.234615825740433,7.50041652745424,-0.15149458,-0.053450707,0.06780604,160.76077,-3.1777248,41.257732,SCH
54491327519000,1.89006,6.16975597875769,0.274493163364427,7.47449368145007,-0.13500121,-0.04337143,0.06078109,160.65901,-3.0943866,41.256798,SCH
54491332390000,1.894931,6.15986651664193,0.309106306585754,7.45471465395378,-0.12980886,-0.042760566,0.054367006,160.56364,-3.0123768,41.256905,SCH
54491337516000,1.900057,6.16573640207325,0.288561692252937,7.42720747574292,-0.12980886,-0.033292156,0.048563786,160.4733,-2.9385989,41.258648,SCH
54491342407000,1.904948,6.17498511938,0.256191157535788,7.39946142039688,-0.129198,-0.030848695,0.04428773,160.38776,-2.8695192,41.26179,SCH
54491347512000,1.910053,6.19620564751469,0.268162037526646,7.34729880591692,-0.12767084,-0.025350908,0.03481932,160.30917,-2.8055139,41.258663,SCH
54491352424000,1.914965,6.21963489425242,0.291591308728957,7.29106851588804,-0.12522738,-0.020158553,0.016798794,160.23788,-2.746556,41.25459,SCH
54491357544000,1.920085,6.24394824540412,0.277857354731577,7.28217792908082,-0.12522738,-0.015882496,0.015271631,160.15796,-2.6770566,41.254185,SCH
54491362454000,1.924995,6.26723572955626,0.254569846262876,7.28683542591125,-0.12858713,-0.02565634,0.022602014,160.08409,-2.6113613,41.256073,SCH
54491367467000,1.930008,6.28921821564562,0.238057205928369,7.27518696983977,-0.12461651,-0.023518313,0.019242255,160.02296,-2.553253,41.261715,SCH
54491372470000,1.935011,6.31060886365891,0.223796747447294,7.25854980467781,-0.122783914,-0.01985312,0.015882496,159.96144,-2.4946709,41.26954,SCH
54491377512000,1.940053,6.33216625867851,0.209425124088993,7.24178294744283,-0.1255328,-0.022907447,0.016493361,159.90163,-2.4345772,41.28163,SCH
54491382485000,1.945026,6.35342863976388,0.195250177051937,7.22524554541396,-0.10720685,-0.018020526,0.01282817,159.84651,-2.3828206,41.289978,SCH
54491387513000,1.950054,6.38679906367621,0.201960912242353,7.17226344121372,-0.103847094,-0.028405234,0.010995574,159.78815,-2.3143067,41.291405,SCH
54491392964000,1.955505,6.42747942109877,0.217216076806936,7.10107256351062,-0.081855945,-0.02076942,0.017715093,159.72957,-2.2550256,41.286495,SCH
54491397507000,1.960048,6.46837798533637,0.177673339640543,7.12287745229367,-0.05589417,0.00061086525,0.016798794,159.68015,-2.191455,41.284424,SCH
54491402521000,1.965062,6.51595360725255,0.115824988426434,7.17521073575746,-0.046120327,-0.003970624,0.0033597588,159.63538,-2.132438,41.287582,SCH
54491407514000,1.970055,6.5475093810143,0.0893171082262679,7.16960370026008,-0.04153884,0.0033597588,0.007941248,159.59288,-2.0752747,41.291595,SCH
54491412492000,1.975033,6.57135318935681,0.0797795799097729,7.13622241837551,-0.043066,0.011911872,0.0076358155,159.55905,-2.0241024,41.29628,SCH
54491417512000,1.980053,6.59143415867207,0.0735724210025464,7.11297627779874,-0.04153884,0.013439035,-0.00580322,159.5263,-1.9703616,41.302845,SCH
54491422514000,1.985055,6.60950575299444,0.0690545323287749,7.09490458912572,-0.028099801,0.02107485,-0.0061086523,159.49016,-1.9183247,41.30544,SCH
54491427515000,1.990056,6.60970494436529,0.00671333634807559,7.11831064163451,-0.036957346,0.047036625,-0.028710667,159.4716,-1.8682395,41.308937,SCH
54491432506000,1.995047,6.59551745774216,-0.102057852032255,7.17506098317997,-0.049480084,0.06536258,-0.08124508,159.46602,-1.8275979,41.312046,SCH
54491437483000,2.000024,6.60130343993863,-0.0485617974077007,7.17933032260715,-0.071776666,0.048258353,-0.077579886,159.45143,-1.7747339,41.320568,SCH
54491442520000,2.005061,6.62517686556468,0.15197386106602,7.13635837584876,-0.06780604,0.058643065,-0.070554934,159.4555,-1.7353489,41.31594,SCH
54491447504000,2.010045,6.62957898041418,0.306182775300381,7.11318483557683,-0.055283304,0.053450707,-0.05100725,159.44334,-1.6801157,41.317303,SCH
54491452518000,2.015059,6.61550686639641,0.418758208270978,7.10849395131386,-0.03573562,0.051618114,-0.03634648,159.43123,-1.6285115,41.31531,SCH
54491457509000,2.02005,6.59923700098775,0.463511210722047,7.11912976285065,-0.01160644,0.058643065,-0.03756821,159.43466,-1.6036562,41.314873,SIT
54491462862000,2.025403,6.57898231493481,0.428065473117345,7.14951205630186,0.01282817,0.056505036,-0.036957346,159.43259,-1.5808749,41.317993,SIT
54491467477000,2.030018,6.55931587475416,0.434624228539033,7.16760107009833,-0.005497787,0.03726278,-0.03573562,159.42729,-1.5590287,41.317757,SIT
54491472465000,2.035006,6.53534985107365,0.487349510666265,7.17718747957054,0.004886922,0.027488936,-0.031154128,159.4207,-1.5483081,41.315697,SIT
54491477462000,2.040003,6.51800909099099,0.519045656396396,7.19019771801802,0.004886922,0.029626964,-0.036957346,159.416487166117,-1.53945371149735,41.3141391499351,SIT
54491482476000,2.045017,6.50926979256529,0.523415332985713,7.20767631486941,0.007330383,0.024740042,-0.03390302,159.41226,-1.5305692,41.312576,SIT
54491487462000,2.050003,6.50020475154185,0.53651214784141,7.21968903215859,0.0067195175,0.015882496,-0.028405234,159.3997,-1.5126339,41.314262,SIT
54491492541000,2.055082,6.48975222738799,0.578322047998281,7.21446279736757,0.017715093,0.009468411,-0.025961773,159.39096,-1.5061086,41.310577,SIT
54491497375000,2.059916,6.49197785201263,0.615210643443173,7.21472764080505,0.016798794,0.011301007,-0.021991149,159.37856,-1.4970062,41.303852,SIT
54491502488000,2.065029,6.51613243883189,0.649027095256511,7.22438947553275,0.008552114,0.011301007,-0.015882496,159.371314195356,-1.49337725950761,41.3029524149319,SIT
54491507367000,2.069908,6.52824640966782,0.681351123460585,7.2242180702231,0.018020526,0.0027488936,-0.0143553335,159.3644,-1.4899144,41.302094,SIT
54491512492000,2.075033,6.51851297511155,0.715418322270699,7.20475104865642,0.028099801,-0.018325957,-0.015577064,159.35529,-1.4899417,41.300766,SIT
54491517367000,2.079908,6.51517548182354,0.749202098070348,7.18923501817646,0.039095376,-0.006414085,-0.004276057,159.34143,-1.4904008,41.293755,SIT
54491522481000,2.085022,6.52479927814895,0.787697514501867,7.17961122185105,0.035430185,-0.0061086523,0.0030543262,159.33018,-1.4909294,41.295902,SIT
54491527370000,2.089911,6.52810572631579,0.829754690105263,7.17892578578947,0.04795292,-0.0036651916,0.009162978,159.31761,-1.4992802,41.294003,SIT
54491532485000,2.095026,6.51605817786522,0.887582983051648,7.20061134784063,0.06566802,-0.018325957,0.017715093,159.30179,-1.5061605,41.296898,SIT
54491537414000,2.099955,6.50444872208559,0.9433084289818,7.22150834399902,0.069027774,-0.028710667,0.024740042,159.29297,-1.5232655,41.30268,SIT
54491542510000,2.105051,6.49244592503689,1.00092191497491,7.24311335362026,0.06719518,-0.02565634,0.032986723,159.28043,-1.5407715,41.308445,SIT
54491547440000,2.109981,6.48993759482759,1.05031157241379,7.24741373965517,0.057421334,-0.03970624,0.044898596,159.26422,-1.5548553,41.32164,SIT
54491552468000,2.115009,6.51856560790725,1.07893948585018,7.19492933133175,0.06078109,-0.051618114,0.062002823,159.243,-1.568502,41.332962,SIT
54491557449000,2.11999,6.54395435957023,1.09933588666932,7.14688576163948,0.051618114,-0.074830994,0.07788532,159.22096,-1.5894719,41.340195,SIT
54491562486000,2.125027,6.55835094941305,1.08973812670115,7.11329340131317,0.03604105,-0.093767814,0.09407325,159.19249,-1.6059799,41.34923,SIT
54491567452000,2.129993,6.56584510183827,1.08506234109493,7.07914860367655,0.03390302,-0.087659165,0.11301007,159.16382,-1.6214802,41.365753,SIT
54491572486000,2.135027,6.54647403722752,1.09959060162732,7.04040647445505,0.03176499,-0.090713486,0.12522738,159.13246,-1.6316167,41.389397,SIT
54491578156000,2.140697,6.534479480581,1.09851972619114,6.99473509412527,0.021685716,-0.10323623,0.13439035,159.09644,-1.6419045,41.427383,SIT
54491582492000,2.145033,6.54216293355537,1.0677860346378,6.95631806994172,0.013133603,-0.103847094,0.1337795,159.06023,-1.6514617,41.461437,SIT
54491587646000,2.150187,6.55134724512593,1.03186046462222,6.90999100180741,0.007941248,-0.10293079,0.14935656,159.01532,-1.6527675,41.496708,SIT
54491592497000,2.155038,6.5605239477037,1.00433035688889,6.85951913762963,0.011301007,-0.1133155,0.14630222,158.97893,-1.6577718,41.533802,SIT
54491597766000,2.160307,6.5704479332368,0.975317039467539,6.80797175608594,0.01160644,-0.098043874,0.14263703,158.93884,-1.6530772,41.569664,SIT
54491602540000,2.165081,6.57898971406819,0.958233544698739,6.79515915173284,0.02107485,-0.089186326,0.13225232,158.90388,-1.6531327,41.608696,SIT
54491607551000,2.170092,6.58795554225128,0.940301958547408,6.78171047967305,0.01282817,-0.08307768,0.12797627,158.87206,-1.6426038,41.647587,SIT
54491612783000,2.175324,6.56621266131125,0.924948851512823,6.7713271645245,0.008552114,-0.07513642,0.12950343,158.84277,-1.6360353,41.682106,SIT
54491617454000,2.179995,6.54389291637561,0.911557009212653,6.76239926655024,0.010995574,-0.05467244,0.11453723,158.82205,-1.6333334,41.709908,SIT
54491622535000,2.185076,6.5367320995949,0.901343035733623,6.77390609226361,0.0070249503,-0.03573562,0.11209377,158.79715,-1.6233325,41.738346,SIT
54491627460000,2.190001,6.53207181652011,0.892022664228831,6.7878866008596,0.0061086523,-0.03481932,0.10567969,158.7802,-1.6183449,41.765,SIT
54491632528000,2.195069,6.51059265879528,0.886485165709426,6.79827177989794,0.005497787,-0.022602014,0.087964594,158.76689,-1.6141598,41.780613,SIT
54491637421000,2.199962,6.48714895137082,0.881796394848909,6.8076493118271,0.005497787,-0.022907447,0.08277224,158.75201,-1.608986,41.799004,SIT
54491642516000,2.205057,6.46436824045731,0.884892175878665,6.82823945954269,0.008246681,-0.00580322,0.080634214,158.74477,-1.6073072,41.804703,SIT
54491648030000,2.210571,6.44002448460262,0.889760957553015,6.85258321539738,0.01282817,0.00030543262,0.0711658,158.74274,-1.6084962,41.81319,SIT
54491652501000,2.215042,6.41073912557444,0.862214552572406,6.90318992716683,0.015271631,0.009162978,0.06536258,158.73396,-1.6041439,41.808567,SIT
54491657369000,2.21991,6.37586271753767,0.822355689047772,6.96796044382815,0.030543262,0.013133603,0.051618114,158.73209,-1.6070058,41.80351,SIT
54491662498000,2.225039,6.34110134800159,0.790478369995016,7.02466738522874,0.032375857,0.020463986,0.047647487,158.72961,-1.612785,41.791256,SIT
54491667424000,2.229965,6.30818729188677,0.762266250353832,7.0763896487591,0.03176499,0.024740042,0.03390302,158.73593,-1.6255515,41.778725,SIT
54491672536000,2.235077,6.28197579388707,0.725266570219311,7.12987613515927,0.02321288,0.029932396,0.0290161,158.73146,-1.6329935,41.753956,SIT
54491677410000,2.239951,6.2588154668056,0.688210046888955,7.18082895147365,0.021685716,0.024740042,0.027183503,158.7309,-1.6436332,41.73139,SIT
54491682615000,2.245156,6.26118661607637,0.649826812101193,7.24490323389021,0.016493361,0.030543262,0.023823744,158.71721,-1.6500607,41.699734,SIT
54491687478000,2.250019,6.27007864059189,0.614258686184248,7.30714731264916,0.018325957,0.03390302,0.01740966,158.70547,-1.658555,41.67081,SIT
54491692447000,2.254988,6.27944480630949,0.600020728183404,7.326257,0.028710667,0.040317107,0.019547688,158.68045,-1.6618531,41.63305,SIT
54491697479000,2.26002,6.28905165042612,0.595217293585846,7.326257,0.011301007,0.027794369,0.014049901,158.6612,-1.6623986,41.60042,SIT
54491702463000,2.265004,6.29856685533018,0.590459678714179,7.326257,0.0067195175,0.03176499,0.018936822,158.63116,-1.6619234,41.557022,SIT
54491707468000,2.270009,6.30812215238973,0.585682017712435,7.326257,0.01160644,0.027794369,0.008246681,158.60986,-1.6640775,41.520172,SIT
54491712464000,2.275005,6.33534036824085,0.582570255371901,7.32464205584416,-0.0036651916,0.032070424,0.010079277,158.57516,-1.6559291,41.48354,SIT
54491717994000,2.280535,6.37441925253837,0.57996498553719,7.3220368512987,-0.010079277,0.029626964,0.0076358155,158.54678,-1.6539038,41.450577,SIT
54491722460000,2.285001,6.40597916162928,0.577860982809917,7.3199329012987,-0.018936822,0.02565634,0.01740966,158.51431,-1.6443037,41.42054,SIT
54491727465000,2.290006,6.44134802526564,0.575503048719008,7.3175750262987,-0.04184427,0.02687807,0.018325957,158.48665,-1.6329244,41.390316,SIT
54491732465000,2.295006,6.44880488264231,0.583552591791989,7.30177343443429,-0.03390302,0.021685716,0.016187929,158.46574,-1.6305137,41.3631,SIT
54491737450000,2.299991,6.43921937973095,0.597930791109326,7.27780980226885,-0.032986723,0.01740966,0.022296581,158.44179,-1.6204557,41.336117,SIT
54491742470000,2.305011,6.43850817363313,0.597550613613914,7.24274941148266,-0.03268129,0.0061086523,0.022602014,158.42636,-1.6144674,41.326023,SIT
54491747465000,2.310006,6.44310480234458,0.588357548177189,7.20138066501393,-0.026267206,-0.007941248,0.01985312,158.4103,-1.6097677,41.318256,SIT
54491752469000,2.31501,6.45816323676136,0.5764018871068,7.15666074520439,-0.025350908,-0.0125227375,0.016187929,158.3959,-1.611698,41.318398,SIT
54491757466000,2.320007,6.48184692952588,0.562191651663862,7.10929321129368,-0.018020526,-0.013439035,0.01985312,158.38023,-1.615551,41.321354,SIT
54491762445000,2.324986,6.49555197819839,0.550500791873947,7.07197492389258,-0.0143553335,-0.008552114,0.018936822,158.37872,-1.6253455,41.330677,SIT
54491767462000,2.330003,6.50031328073531,0.540978087364979,7.04340671093053,-0.0012217305,-0.004276057,0.022296581,158.37424,-1.6370006,41.34009,SIT
54491772483000,2.335024,6.50504379510599,0.531516994801211,7.01741552447006,0.005192355,-0.009162978,0.019547688,158.37636,-1.6461244,41.35913,SIT
54491777494000,2.340035,6.50973162794764,0.522141299747973,6.9939763602618,0.021685716,-0.00030543262,0.01863139,158.37622,-1.6589798,41.37251,SIT
54491782457000,2.344998,6.51425798537644,0.515118054623557,6.97946251462356,0.008246681,0.017104227,0.025961773,158.35841,-1.6530154,41.3891,SIT
54491787802000,2.350343,6.5189866686097,0.5103893713903,6.9747338313903,0.016187929,0.020158553,0.017715093,158.34737,-1.6582941,41.406387,SIT
54491792492000,2.355033,6.5202996019862,0.512087843474807,6.9704095019862,0.008246681,0.018020526,0.005497787,158.3248,-1.6509708,41.427013,SIT
54491797483000,2.360024,6.51530296715451,0.527077779274514,6.96541286715451,0.009162978,0.0290161,0.011301007,158.29893,-1.6456103,41.442398,SIT
54491802458000,2.364999,6.51042936559447,0.538100334405525,6.96773584078934,0.014966198,0.03390302,0.01038471,158.28134,-1.6426104,41.460564,SIT
54491807489000,2.37003,6.5056754553034,0.542854244696596,6.98199767094228,0.02565634,0.038179077,0.0012217305,158.26514,-1.6415443,41.47514,SIT
54491812442000,2.374983,6.49352772474802,0.549195815796443,6.99023952959486,0.020463986,0.04153884,0.004581489,158.24547,-1.6427038,41.492573,SIT
54491817478000,2.380019,6.46731646441206,0.5587272021917,6.98785663572134,0.007941248,0.032070424,0.008552114,158.22949,-1.6460458,41.51167,SIT
54491822447000,2.384988,6.44145392417984,0.568131781023715,6.98550544436759,0.018020526,0.030543262,0.003970624,158.2066,-1.6489164,41.523903,SIT
54491827476000,2.390017,6.41527909728755,0.577649918867589,6.98312586269763,0.02107485,0.035430185,0.00061086525,158.18246,-1.6468289,41.53645,SIT
54491832454000,2.394995,6.39007484193325,0.588524534840052,6.97715272026344,0.017104227,0.043066,-0.00061086525,158.15982,-1.645975,41.548004,SIT
54491837465000,2.400006,6.36631068188571,0.602783030868575,6.96289427386352,0.018020526,0.03940081,-0.01038471,158.14238,-1.6491674,41.560707,SIT
54491842457000,2.404998,6.34673426695115,0.619637445950559,6.95545040497351,0.013133603,0.04153884,-0.0061086523,158.11807,-1.6513063,41.56246,SIT
54491847469000,2.41001,6.33731712506376,0.643180207253286,6.96486744852855,0.020158553,0.05375614,-0.0070249503,158.0997,-1.6589576,41.56188,SIT
54491852495000,2.415036,6.33273382391765,0.6669609776264,6.97930873315168,0.027794369,0.05375614,-0.016798794,158.09238,-1.6724076,41.559937,SIT
54491857365000,2.419906,6.34214733880311,0.690494641971945,7.00754913036633,0.020463986,0.047647487,-0.01038471,158.0791,-1.680991,41.556347,SIT
54491862371000,2.424912,6.34702927349567,0.717061720269672,7.03615821815255,0.01985312,0.04337143,-0.008246681,158.0666,-1.6985599,41.552414,SIT
54491867431000,2.429972,6.33727705440397,0.75119439544241,7.06378947729255,0.01985312,0.0580322,-0.009468411,158.05273,-1.71375,41.544632,SIT
54491872387000,2.434928,6.32772527617898,0.784625529465352,7.09085282122493,0.020463986,0.056199603,-0.018936822,158.04172,-1.7328166,41.53977,SIT
54491877340000,2.439881,6.31817927990206,0.818036426724358,7.11789978298786,0.007330383,0.058643065,-0.02107485,158.02802,-1.7473826,41.529507,SIT
54491882343000,2.444884,6.30853691782384,0.851784603382304,7.1452197809083,0.0067195175,0.061086524,-0.020463986,158.01675,-1.7655886,41.519646,SIT
54491887346000,2.449887,6.29889455574562,0.885532780040249,7.17253977882874,-0.0030543262,0.058643065,-0.028405234,158.0095,-1.7806767,41.510372,SIT
54491892334000,2.454875,6.29594526776637,0.915107663816406,7.19749301906708,-0.0061086523,0.059864793,-0.03023783,157.99362,-1.7965146,41.504448,SIT
54491897345000,2.459886,6.31029476796571,0.934240259160769,7.21662566935114,-0.015882496,0.058643065,-0.021991149,157.97702,-1.808059,41.499813,SIT
54491902333000,2.464874,6.31812190366927,0.949389161586391,7.23177459145485,-0.021991149,0.05222898,-0.02107485,157.96217,-1.8349869,41.480087,SIT
54491907347000,2.469888,6.30862376807437,0.954138278973395,7.23652363445752,-0.021685716,0.057726767,-0.016493361,157.94244,-1.8584486,41.457653,SIT
54491912334000,2.474875,6.30035293196941,0.951750478738703,7.23057766629258,-0.03848451,0.050396383,-0.008552114,157.91743,-1.8710316,41.436314,SIT
54491917342000,2.479883,6.29558963710398,0.927934481884994,7.19247215289502,-0.035124753,0.047036625,-0.012217305,157.89503,-1.8891411,41.412525,SIT
54491922333000,2.484874,6.29419827664914,0.91203292380617,7.16233357918857,-0.036651913,0.040317107,-0.015577064,157.86218,-1.8989952,41.39214,SIT
54491927343000,2.489884,6.30371717725424,0.921551769744073,7.1575742034322,-0.037873644,0.050701816,-0.009162978,157.82713,-1.9084814,41.368126,SIT
54491932333000,2.494874,6.31632368491615,0.924783863154709,7.15283338126426,-0.042760566,0.046731193,-0.0061086523,157.7962,-1.9147816,41.354664,SIT
54491937353000,2.499894,6.34017777641163,0.905700594939962,7.14806246333234,-0.04428773,0.04184427,-0.0012217305,157.76244,-1.9201008,41.338768,SIT
54491942332000,2.504873,6.35996649714399,0.889676256798889,7.14816519867116,-0.03481932,0.03634648,0.0033597588,157.73312,-1.9327717,41.32901,SIT
54491947334000,2.509875,6.36471690904403,0.88492581513685,7.16716689587465,-0.03940081,0.022907447,0.009468411,157.702,-1.9408517,41.322952,SIT
54491952336000,2.514877,6.36982126715935,0.877331910219861,7.1830202166097,-0.03940081,0.020463986,0.0067195175,157.68724,-1.9548597,41.315445,SIT
54491957345000,2.519886,6.37646842995381,0.857390484304388,7.18523590669284,-0.028099801,0.021991149,0.005497787,157.66995,-1.9687319,41.310623,SIT
54491962332000,2.524873,6.38308639778291,0.837536643010623,7.18744186525635,-0.03604105,0.018325957,0.0143553335,157.64908,-1.9765459,41.306602,SIT
54491967332000,2.529873,6.38972161718245,0.817631047167667,7.18965357426328,-0.030848695,0.014966198,0.013133603,157.63261,-1.9915378,41.301807,SIT
54491973429000,2.53597,6.39807249706283,0.792961214553656,7.19256475852302,-0.040317107,0.0061086523,0.01282817,157.60489,-1.9972886,41.302547,SIT
54491977473000,2.540014,6.40619761549355,0.772648282729466,7.19662742379104,-0.03176499,0.0067195175,0.01985312,157.57518,-2.0068362,41.30135,SIT
54491982825000,2.545366,6.41704594350353,0.7457029230696,7.20070520047101,-0.03390302,-0.004581489,0.015577064,157.55058,-2.0108805,41.3095,SIT
54491987478000,2.550019,6.42821015916721,0.721141625294383,7.18060958896127,-0.023518313,0.0070249503,0.021380283,157.5196,-2.0162954,41.310753,SIT
54491992719000,2.55526,6.44078519770006,0.69347651426066,7.15797449334068,-0.03176499,0.004886922,0.013744468,157.49551,-2.0176218,41.319965,SIT
54491997468000,2.560009,6.45217975179135,0.668408471463647,7.13746427218019,-0.03176499,0.00030543262,0.01863139,157.46486,-2.0195937,41.3264,SIT
54492002771000,2.565312,6.46456505774933,0.641425441444598,7.11545741479193,-0.040927973,0.0027488936,0.018325957,157.43954,-2.0203478,41.330883,SIT
54492007598000,2.570139,6.46913429489967,0.636856187595137,7.11317266500939,-0.028099801,0.0036651916,0.019547688,157.41248,-2.0247407,41.336784,SIT
54492012431000,2.574972,6.47370921164871,0.632281254126223,7.11088507526441,-0.03573562,0.014966198,0.021380283,157.3841,-2.0086365,41.34374,SIT
54492017450000,2.579991,6.4784601959573,0.627530252454285,7.1085094466838,-0.03726278,0.013133603,0.02076942,157.35722,-1.9973484,41.353786,SIT
54492022381000,2.584922,6.48312787948503,0.622862551867649,7.10617547088564,-0.03023783,0.008552114,0.02076942,157.33011,-1.9863563,41.361153,SIT
54492027465000,2.590006,6.48796701272745,0.604616757068708,7.13727306911604,-0.02565634,0.011911872,0.022907447,157.3031,-1.9747733,41.366516,SIT
54492032364000,2.594905,6.49263219349707,0.585956428560207,7.16992889609227,-0.03176499,0.003970624,0.015882496,157.28064,-1.9646208,41.37599,SIT
54492037470000,2.600011,6.46835526501668,0.650104329660734,7.26366716977197,-0.024129177,0.04428773,0.01160644,157.25264,-1.9511038,41.36981,SIT
54492042979000,2.60552,6.4390122311828,0.728352178172043,7.37125786827957,-0.049480084,0.051923547,-0.0027488936,157.23271,-1.9330719,41.374767,SIT
54492047472000,2.610013,6.45912909076433,0.694303221671975,7.32493047770701,-0.0729984,0.017104227,0.014660766,157.20029,-1.9105777,41.378277,SIT
54492052358000,2.614899,6.48893317208068,0.639662559801486,7.25042053375796,-0.033292156,0.022296581,0.023518313,157.17648,-1.9012492,41.368126,SIT
54492057469000,2.62001,6.47206501207801,0.606857231330561,7.20224810949411,-0.018020526,0.010995574,0.020158553,157.15524,-1.8940763,41.350838,SIT
54492062356000,2.624897,6.44889808721909,0.579056906985447,7.16054774151074,-0.03481932,0.013439035,0.015882496,157.1311,-1.8873518,41.328682,SIT
54492067431000,2.629972,6.43706340940002,0.562417077750321,7.1579387316497,-0.030543262,0.016798794,0.01863139,157.10983,-1.8797442,41.32328,SIT
54492072357000,2.634898,6.42773741096175,0.548428153128398,7.16260165783335,-0.030848695,0.02565634,0.023823744,157.08963,-1.8683313,41.315674,SIT
54492077466000,2.640007,6.41405519706844,0.54987204821234,7.17143979642468,-0.029932396,0.0290161,0.020158553,157.0754,-1.8554307,41.30831,SIT
54492082374000,2.644915,6.40008982989007,0.554527186807963,7.18075007361593,-0.025045475,0.01985312,0.014966198,157.06041,-1.8432384,41.302315,SIT
54492087448000,2.649989,6.40510703340624,0.551554762934977,7.18650529634122,-0.0290161,0.013133603,0.015271631,157.04347,-1.8281499,41.293682,SIT
54492092397000,2.654938,6.41453143900378,0.546842535533903,7.19121747453768,-0.023518313,0.019547688,0.027794369,157.02429,-1.8153343,41.284252,SIT
54492097464000,2.660005,6.42799823620604,0.549723898682516,7.17295250658742,-0.038179077,0.021380283,0.022907447,157.01875,-1.8029081,41.27049,SIT
54492102426000,2.664967,6.442120152105,0.554431187597821,7.1494160620109,-0.03604105,0.022907447,0.015271631,157.00981,-1.7939304,41.25556,SIT
54492107466000,2.670007,6.445191,0.562938276900769,7.14055628499211,-0.02107485,0.0070249503,0.015577064,157.00043,-1.7837989,41.246487,SIT
54492112682000,2.675223,6.445191,0.57279281250148,7.13562904806175,-0.024129177,0.015882496,0.016798794,156.99348,-1.771991,41.23031,SIT
54492117463000,2.680004,6.445191,0.581825507038864,7.13111272908858,-0.019547688,0.020463986,0.018325957,156.98613,-1.7623821,41.224117,SIT
54492122447000,2.684988,6.445191,0.5912417274058,7.12640464840205,-0.015271631,0.017715093,0.015271631,156.98036,-1.753151,41.21775,SIT
54492127462000,2.690003,6.44874425397641,0.607975200607802,7.12869779107953,-0.0125227375,0.017715093,0.022296581,156.97041,-1.7428198,41.209724,SIT
54492132446000,2.694987,6.45355528842859,0.627219534340288,7.13350887576857,-0.013439035,0.02076942,0.021685716,156.9648,-1.7350042,41.20176,SIT
54492137470000,2.700011,6.4378990657442,0.625321779820494,7.13809499162304,-0.004276057,0.019242255,0.021685716,156.97263,-1.734859,41.1901,SIT
54492142461000,2.705002,6.41555528825729,0.61638427349196,7.14256370045811,-0.0106901415,0.027488936,0.029321533,156.97746,-1.7299833,41.175358,SIT
54492147467000,2.710008,6.40397486267815,0.621642230938242,7.153024633462,-0.0009162979,0.01863139,0.030848695,156.98576,-1.7340509,41.165806,SIT
54492152466000,2.715007,6.39923674675376,0.635856707347585,7.16723917913697,-0.004886922,0.014966198,0.03145956,156.99118,-1.7326251,41.153004,SIT
54492157444000,2.719985,6.39174568361214,0.647207316387861,7.17163817453245,-0.003970624,0.012217305,0.029626964,157.00195,-1.7359257,41.136402,SIT
54492162482000,2.725023,6.38222226010363,0.656730739896373,7.16925732487047,-0.002443461,0.0125227375,0.03756821,157.00853,-1.7365742,41.12069,SIT
54492167428000,2.729969,6.37287274587713,0.666080254122872,7.1669199524155,0.0015271631,0.008246681,0.036957346,157.0184,-1.741968,41.10481,SIT
54492172477000,2.735018,6.36332852886751,0.675624471132494,7.16453390439181,0.005497787,0.028405234,0.02687807,157.02826,-1.7479824,41.082397,SIT
54492177481000,2.740022,6.35257063222519,0.682524927109924,7.15959425933511,0.00030543262,0.01160644,0.035124753,157.0318,-1.7495104,41.07249,SIT
54492182487000,2.745028,6.34071215275552,0.687268318897794,7.15247917165331,0.0030543262,0.008857546,0.03023783,157.04326,-1.7578685,41.053177,SIT
54492187478000,2.750019,6.32888920608489,0.691997497566043,7.14538540365094,-0.0015271631,0.023823744,0.025045475,157.04747,-1.7649617,41.034588,SIT
54492192481000,2.755022,6.31703783317503,0.696738046729989,7.13827457990502,0.0018325958,0.022296581,0.01985312,157.05359,-1.775127,41.02183,SIT
54492197478000,2.760019,6.30892305192555,0.710070254850541,7.14129931291032,-0.0030543262,0.016493361,0.028405234,157.05598,-1.7807672,41.006626,SIT
54492202465000,2.765006,6.30454390256739,0.731966230276912,7.15443689816615,0.0061086523,0.015882496,0.026572637,157.06389,-1.7928988,40.990677,SIT
54492207480000,2.770021,6.29661193280224,0.742063832802239,7.16509405573259,-0.002443461,0.01740966,0.022907447,157.06468,-1.7968655,40.97377,SIT
54492212483000,2.775024,6.28113791071159,0.726589810711594,7.17025206309614,-0.00030543262,0.020463986,0.027183503,157.06297,-1.8038886,40.9571,SIT
54492217476000,2.780017,6.27716810717467,0.70954139460663,7.17956785180604,0.0061086523,0.008857546,0.018936822,157.0674,-1.8161491,40.941463,SIT
54492222476000,2.785017,6.28664529668481,0.690586817664522,7.19378383399307,0.0076358155,0.007330383,0.0143553335,157.0684,-1.8262056,40.922688,SIT
54492227427000,2.789968,6.29500326932373,0.678939547087259,7.20480024815271,-0.00061086525,0.01282817,0.020158553,157.06639,-1.8336414,40.903713,SIT
54492232488000,2.795029,6.30217561976521,0.67654877192818,7.21197254866571,0.0033597588,0.009773844,0.017104227,157.06937,-1.8463598,40.88791,SIT
54492237393000,2.799934,6.30912689005081,0.674231689897894,7.21892377056183,-0.0030543262,0.013744468,0.018020526,157.0671,-1.8508344,40.869373,SIT
54492242485000,2.805026,6.31634317308736,0.671826270591427,7.22614000336408,-0.007330383,0.0061086523,0.016798794,157.06688,-1.8575126,40.855404,SIT
54492247362000,2.809903,6.31898929677356,0.669524893940586,7.22537966364352,-0.00030543262,0.008552114,0.015577064,157.06596,-1.8650426,40.837887,SIT
54492252482000,2.815023,6.3141660663978,0.667113266161716,7.21090989697029,-0.014660766,0.0067195175,0.01160644,157.06667,-1.8677311,40.824123,SIT
54492257364000,2.819905,6.30956704087153,0.664813741392878,7.19711274835727,-0.005497787,0.0061086523,0.008552114,157.06715,-1.8763306,40.810143,SIT
54492262534000,2.825075,6.30469670863663,0.662378562561479,7.18250167536888,-0.009773844,0.0125227375,0.015577064,157.06517,-1.8777637,40.795155,SIT
54492267367000,2.829908,6.29461764493461,0.659415428986922,7.16749141594769,-0.0143553335,0.008857546,0.018325957,157.06245,-1.8850733,40.7886,SIT
54492272460000,2.835001,6.27081584794066,0.654655069588132,7.14844997835253,-0.023518313,0.010995574,0.026267206,157.0549,-1.8881,40.778904,SIT
54492277396000,2.839937,6.25245976619273,0.6488324735703,7.13950213538705,-0.02076942,0.01038471,0.021380283,157.05019,-1.8883076,40.76891,SIT
54492282485000,2.845026,6.24764762628357,0.639208359566548,7.15875029304897,-0.014660766,0.013744468,0.017104227,157.04242,-1.8859509,40.757572,SIT
54492287406000,2.849947,6.24736822360348,0.636456172282402,7.1741252335665,-0.019242255,0.013744468,0.0067195175,157.03363,-1.8826251,40.7486,SIT
54492292485000,2.855026,6.26195028789847,0.655898824858599,7.17898588782852,-0.014660766,0.013744468,0.0061086523,157.02292,-1.8817556,40.738956,SIT
54492297974000,2.860515,6.27890331709386,0.671900183251002,7.17803426615714,-0.015882496,0.010079277,0.0036651916,157.01514,-1.8783875,40.72595,SIT
54492302481000,2.865022,6.29499522684314,0.675923171190232,7.1659653443471,-0.023518313,0.013439035,0.005497787,157.00604,-1.8741479,40.711357,SIT
54492307415000,2.869956,6.31194135631173,0.679746886460905,7.15325575722737,-0.025045475,0.0125227375,0.0067195175,156.9987,-1.871768,40.698956,SIT
54492312486000,2.875027,6.32193396527778,0.677248740740741,7.14576129398148,-0.013744468,0.0070249503,0.004276057,156.99226,-1.8711262,40.687283,SIT
54492317467000,2.880008,6.33174922563272,0.674794932057613,7.13839984230967,-0.019242255,0.0125227375,-0.0009162979,156.98894,-1.8669375,40.67699,SIT
54492322481000,2.885022,6.34162951381173,0.672324866460905,7.13098961972737,-0.009773844,0.021991149,-0.0021380284,156.98521,-1.8683288,40.667377,SIT
54492327481000,2.890022,6.35141775857086,0.669379115507275,7.13112880695635,-0.013439035,0.020158553,0.0030543262,156.9876,-1.8705915,40.66047,SIT
54492332563000,2.895104,6.36111858446283,0.664528677237393,7.16023143657564,-0.01985312,0.017715093,0.0061086523,156.9909,-1.8748502,40.651302,SIT
54492337455000,2.899996,6.37044277732713,0.662665987070927,7.18353843379167,-0.02565634,0.007941248,0.0018325958,156.99664,-1.8777295,40.649734,SIT
54492342462000,2.905003,6.37992952918192,0.672152788455831,7.188281784954,-0.021991149,0.008857546,0.0033597588,156.99887,-1.8796644,40.64608,SIT
54492347456000,2.909997,6.38606629282425,0.678705513103551,7.19135014641212,-0.016187929,0.006414085,0.008857546,157.00006,-1.8805615,40.644512,SIT
54492352474000,2.915015,6.37654692839103,0.671565952503343,7.18659046419551,-0.027488936,0.004581489,0.004886922,157.0042,-1.8800695,40.642536,SIT
54492357459000,2.92,6.36709016639429,0.664473343975635,7.18186208319715,-0.029626964,0.003970624,0.009468411,156.99786,-1.8751702,40.639507,SIT
54492362484000,2.925025,6.35755752265637,0.657323823844897,7.17709576132818,-0.032375857,-0.0021380284,-0.00061086525,156.99889,-1.8714358,40.638508,SIT
54492368002000,2.930543,6.34715071498843,0.645542210011574,7.17416463657407,-0.03359759,-0.004581489,0.00030543262,156.99896,-1.8662239,40.63503,SIT
54492372507000,2.935048,6.33882824021026,0.624736105623071,7.17832585223765,-0.032375857,0.004886922,-0.00030543262,157.00337,-1.8632984,40.629944,SIT
54492377580000,2.940121,6.32858949015348,0.602918888634642,7.18134545028902,-0.030543262,0.00030543262,-0.0033597588,157.00723,-1.859339,40.628754,SIT
54492382517000,2.945058,6.30974126012557,0.598206843428344,7.16720936387283,-0.028710667,0.0061086523,-0.0018325958,157.00935,-1.8551303,40.622196,SIT
54492387616000,2.950157,6.29134097357199,0.593969050250391,7.15366798542645,-0.032986723,-0.00030543262,-0.005497787,157.01456,-1.8509735,40.620155,SIT
54492392514000,2.955055,6.28445910152582,0.596263023568075,7.15137396420188,-0.025045475,0.0027488936,-0.0070249503,157.01819,-1.8493795,40.61405,SIT
54492397735000,2.960276,6.27712340247457,0.598708273607199,7.14892866309664,-0.019547688,0.002443461,-0.007941248,157.02019,-1.8479933,40.612957,SIT
54492402513000,2.965054,6.2704101348885,0.600946045046948,7.14669084492371,-0.023518313,0.008552114,-0.0125227375,157.02403,-1.8473378,40.60921,SIT
54492407881000,2.970422,6.26347334164962,0.60406346469666,7.1447810858214,-0.023518313,0.010079277,-0.007330383,157.03049,-1.852303,40.60833,SIT
54492412490000,2.975031,6.26777166390106,0.616958426962703,7.15337777520693,-0.029626964,0.01282817,-0.0125227375,157.04225,-1.8577287,40.605297,SIT
54492417452000,2.979993,6.27239919156685,0.630841005128055,7.1626328788587,-0.02443461,0.012217305,-0.0125227375,157.0488,-1.863711,40.601257,SIT
54492422516000,2.985057,6.2950081827486,0.636509141913593,7.19009125493184,-0.026267206,0.01038471,-0.013133603,157.05731,-1.8678385,40.596905,SIT
54492427426000,2.989967,6.31857573978549,0.641222648399158,7.21837238243785,-0.027794369,0.0067195175,-0.011301007,157.06473,-1.872589,40.59347,SIT
54492432513000,2.995054,6.34139307355541,0.658206502074998,7.23747291561366,-0.03756821,0.007330383,-0.012217305,157.07361,-1.8774117,40.588573,SIT
54492437876000,3.000417,6.36528829008095,0.67732272519773,7.25658903893179,-0.03145956,0.010995574,-0.0106901415,157.08069,-1.8844293,40.584038,SIT
54492442513000,3.005054,6.38043927872498,0.691816037435137,7.25131110837657,-0.03970624,0.002443461,-0.0027488936,157.08992,-1.8889371,40.583538,SIT
54492447393000,3.009934,6.39528676787038,0.706663474902044,7.24141281673197,-0.038789943,0.00061086525,-0.008552114,157.10327,-1.8988163,40.580063,SIT
54492452537000,3.015078,6.38097344103931,0.712767079080613,7.2278159053964,-0.027488936,0.003970624,-0.014966198,157.11514,-1.9096627,40.578136,SIT
54492457457000,3.019998,6.36303569325212,0.717251504320929,7.21436267650138,-0.031154128,0.0076358155,-0.0009162979,157.1212,-1.9144645,40.57688,SIT
54492462517000,3.025058,6.36090810804557,0.708718459772143,7.19988527165398,-0.019242255,0.005192355,-0.005497787,157.13864,-1.9306202,40.57861,SIT
54492467391000,3.029932,6.3632611515098,0.696953242450975,7.18576703543883,-0.025045475,0.00030543262,-0.011911872,157.15115,-1.9395806,40.58015,SIT
54492472513000,3.035054,6.36573392307809,0.684589384609568,7.17093043184957,-0.030543262,0.0027488936,-0.005497787,157.17421,-1.9547628,40.574295,SIT
54492477392000,3.039933,6.36808938041538,0.672812097923073,7.15679771242123,-0.02687807,-0.004886922,0.002443461,157.1986,-1.9710373,40.572876,SIT
54492482490000,3.045031,6.36663733315836,0.664558979226503,7.16163162686937,-0.019547688,0.005497787,-0.0012217305,157.2218,-1.9838704,40.563602,SIT
54492487421000,3.049962,6.36429885634347,0.657543524363672,7.17098548529266,-0.023518313,0.0012217305,-0.005497787,157.24216,-1.9933982,40.561035,SIT
54492492512000,3.055053,6.36188450114886,0.650300433569377,7.18064285565019,-0.018325957,0.004276057,0.004276057,157.25711,-1.9999336,40.558594,SIT
54492497448000,3.059989,6.35954365313459,0.643277865083688,7.19000619882143,-0.015882496,-0.0009162979,0.007941248,157.27577,-2.0067303,40.55976,SIT
54492502509000,3.06505,6.35531403590954,0.65638884879056,7.18481063333333,-0.021685716,-0.00061086525,0.0070249503,157.29199,-2.011727,40.558704,SIT
54492507522000,3.070063,6.35059348555556,0.675271296666667,7.17536948333333,-0.015577064,-0.0061086523,0.0070249503,157.300153026973,-2.01547798601399,40.560454794006,SIT
54492512519000,3.07506,6.3505957208964,0.681126033141962,7.17420123314196,-0.018020526,-0.0106901415,0.0021380284,157.30829,-2.019217,40.5622,SIT
54492517491000,3.080032,6.3521489356798,0.68267926414405,7.17575446414405,-0.022602014,-0.00580322,0.003970624,157.32146,-2.025802,40.562702,SIT
54492522510000,3.085051,6.35371683290384,0.684247177740083,7.17732237774008,-0.016493361,0.0009162979,0.004581489,157.33788,-2.0385907,40.56522,SIT
54492527471000,3.090012,6.35526661137135,0.685796972390397,7.1788721723904,-0.02107485,0.0018325958,0.0033597588,157.35393,-2.0477517,40.568,SIT
54492532515000,3.095056,6.35684231840423,0.687372695876827,7.18044789587683,-0.01863139,-0.0067195175,0.0061086523,157.36792,-2.0585938,40.57164,SIT
54492537538000,3.100079,6.35841146519768,0.688941859055324,7.18201705905532,-0.02565634,-0.0012217305,0.002443461,157.38412,-2.0675113,40.57095,SIT
54492542518000,3.105059,6.36193859710662,0.686591202893381,7.19142199131986,-0.028099801,-0.0027488936,0.0076358155,157.38528,-2.0662298,40.572662,SIT
54492547515000,3.110056,6.36668049857313,0.681849301426873,7.20564769571938,-0.02443461,-0.0027488936,0.0076358155,157.387441314895,-2.06689724334555,40.5721208387204,SIT
54492552482000,3.115023,6.36013672019392,0.66870027005046,7.21977542105471,-0.018325957,-0.00030543262,0.0076358155,157.389589654115,-2.06756067962679,40.5715829263579,SIT
54492557523000,3.120064,6.34580700311665,0.649593997239537,7.23410503837934,-0.021380283,0.0015271631,0.0018325958,157.39177,-2.068234,40.571037,SIT
54492562509000,3.12505,6.3407580200745,0.64073400182846,7.23003399821011,-0.025350908,0.0015271631,0.0015271631,157.40408,-2.0685537,40.56736,SIT
54492567490000,3.130031,6.34233045759304,0.639161602073376,7.21273756314072,-0.028405234,0.0030543262,-0.0067195175,157.4204,-2.0725625,40.56132,SIT
54492572512000,3.135053,6.34391583828328,0.637576259457428,7.195298756291,-0.026267206,0.015577064,-0.0018325958,157.41856,-2.0613003,40.54503,SIT
54492577514000,3.140055,6.34549490523124,0.635997230432146,7.17792939909022,-0.02107485,0.011911872,-0.0015271631,157.42192,-2.052833,40.533325,SIT
54492582507000,3.145048,6.34707113099515,0.634421042522662,7.16059129423147,-0.032986723,0.013439035,-0.0009162979,157.42314,-2.0405612,40.517254,SIT
54492587630000,3.150171,6.34868839608399,0.632803816273857,7.14280176665458,-0.02565634,0.008857546,-0.002443461,157.42532,-2.0343218,40.504513,SIT
54492592509000,3.15505,6.35165902364135,0.629833183010064,7.13919341732845,-0.02687807,0.021991149,0.004886922,157.42699,-2.0178463,40.480297,SIT
54492597488000,3.160029,6.35602154782251,0.625470613275389,7.14791860235133,-0.019242255,0.019242255,-0.0027488936,157.4353,-2.0084734,40.4625,SIT
54492602510000,3.165051,6.35739573451318,0.6216904522811,7.15708289747691,-0.019547688,0.019242255,-0.0009162979,157.44334,-1.9944686,40.447357,SIT
54492607512000,3.170053,6.35245239787421,0.619218799446881,7.16696946751973,-0.013439035,0.016798794,-0.004886922,157.4565,-1.9864254,40.434196,SIT
54492612512000,3.175053,6.34751103777927,0.616748134878489,7.17685208451576,-0.01740966,0.016798794,-0.0018325958,157.46576,-1.9743364,40.420845,SIT
54492617512000,3.180053,6.34256967768433,0.614277470310098,7.18673470151179,-0.0106901415,0.017715093,0.00030543262,157.47684,-1.9671557,40.408478,SIT
54492623100000,3.185641,6.34521608993169,0.610230609052569,7.18681196614197,-0.019547688,0.003970624,-0.0015271631,157.4747,-1.9485778,40.4025,SIT
54492627520000,3.190061,6.35359737435897,0.606039988717949,7.17843076923077,-0.016493361,0.0027488936,0.0021380284,157.46985,-1.9332632,40.393234,SIT
54492632443000,3.194984,6.3648512803005,0.605289373555927,7.17888012103506,-0.0061086523,-0.002443461,-0.008246681,157.46953,-1.9211583,40.38601,SIT
54492637519000,3.20006,6.37917269862516,0.610063196280075,7.19320163905529,-0.008857546,-0.00580322,-0.00580322,157.4634,-1.9044186,40.379208,SIT
54492642416000,3.204957,6.38948911785574,0.618192876011037,7.20351806275128,-0.01282817,0.0027488936,0.0027488936,157.4601,-1.8899896,40.373207,SIT
54492647512000,3.210053,6.39429837997635,0.632620340985416,7.20832717422152,-0.013744468,-0.0009162979,-0.0009162979,157.46104,-1.8779389,40.371784,SIT
54492652386000,3.214927,6.39334875210826,0.64560425615807,7.20975239257698,-0.008246681,-0.0021380284,-0.005497787,157.45384,-1.8670791,40.372738,SIT
54492657642000,3.220183,6.38100916081585,0.657943873220239,7.20481653029025,-0.0015271631,-0.006414085,-0.00580322,157.44696,-1.8566651,40.37566,SIT
54492662387000,3.224928,6.3698692520102,0.669083805290253,7.20036054350363,-0.014049901,0.0015271631,0.0027488936,157.43936,-1.8445165,40.37517,SIT
54492667479000,3.23002,6.35791468601687,0.681038396249265,7.19557869214062,-0.0106901415,-0.007330383,-0.00030543262,157.43687,-1.8398099,40.38055,SIT
54492672387000,3.234928,6.3463508280489,0.688301231219561,7.19463974397674,-0.0036651916,0.004581489,0.0018325958,157.42513,-1.8247885,40.374397,SIT
54492677516000,3.240057,6.33414542918199,0.683419071672796,7.20440408855979,-0.014660766,0.009468411,0.0018325958,157.41608,-1.8081205,40.372837,SIT
54492682417000,3.244958,6.32248259825067,0.678753939300268,7.21373437766127,-0.0061086523,0.0027488936,0.008246681,157.40639,-1.8030484,40.37082,SIT
54492687516000,3.250057,6.3103485899016,0.67390033596064,7.22344160968095,-0.014049901,0.00580322,0.0061086523,157.40001,-1.7939613,40.36472,SIT
54492693063000,3.255604,6.29990655681818,0.675273727272727,7.22069484545455,-0.004886922,0.003970624,-0.00030543262,157.39337,-1.7904412,40.362083,SIT
54492697519000,3.26006,6.29596391897635,0.687101393791574,7.19703951241685,-0.008246681,0.0070249503,0.0021380284,157.38445,-1.7816014,40.357426,SIT
54492702484000,3.265025,6.29323303202883,0.698683224131718,7.17345217586828,-0.020158553,0.00580322,0.0018325958,157.37978,-1.7799805,40.35237,SIT
54492707517000,3.270058,6.30770611845661,0.693858878780903,7.1782765212191,-0.023518313,0.009162978,0.0030543262,157.37366,-1.7788978,40.34536,SIT
54492712478000,3.275019,6.32027130253014,0.690372494939712,7.18302649307175,-0.015577064,0.00580322,0.005497787,157.35562,-1.7733599,40.346527,SIT
54492717511000,3.280052,6.31550751182052,0.699900076358964,7.18779023403835,-0.024129177,-0.00030543262,0.005497787,157.33858,-1.7641263,40.34749,SIT
54492722567000,3.285108,6.3119057741299,0.707893625870104,7.19257704531482,-0.02107485,0.007330383,0.0061086523,157.32126,-1.7581122,40.34695,SIT
54492727525000,3.290066,6.32132209032226,0.698477309677739,7.19728530173525,-0.018936822,-0.004581489,0.0061086523,157.3051,-1.7505586,40.353622,SIT
54492732677000,3.295218,6.33047673245088,0.689115230766208,7.20155156105108,-0.017104227,0.0015271631,0.004886922,157.28912,-1.7454361,40.35143,SIT
54492737494000,3.300035,6.33274249688605,0.684583654577603,7.19928572563851,-0.01863139,0.002443461,0.007941248,157.27228,-1.7395757,40.354046,SIT
54492742805000,3.305346,6.33524062329568,0.679587349587426,7.1967875209725,-0.016493361,-0.00061086525,0.004886922,157.26045,-1.7408612,40.36119,SIT
54492747514000,3.310055,6.33745558794696,0.675157374027505,7.19457248693517,-0.018020526,-0.0009162979,0.011301007,157.24426,-1.738847,40.367176,SIT
54492752857000,3.315398,6.33972288312974,0.670253381844153,7.19242823759728,-0.014049901,-0.0061086523,0.014049901,157.23106,-1.7398618,40.37508,SIT
54492757514000,3.320055,6.33752611966309,0.668056595438873,7.19682183334647,-0.017715093,-0.01038471,0.007941248,157.21918,-1.7394961,40.382507,SIT
54492762940000,3.325481,6.33496660955571,0.665497058605064,7.20194093374052,-0.015271631,0.00061086525,0.0067195175,157.20865,-1.7431992,40.390224,SIT
54492767489000,3.33003,6.33282079100089,0.663351217643582,7.20623263807014,-0.0067195175,-0.002443461,0.0012217305,157.20255,-1.7493577,40.40264,SIT
54492772392000,3.334933,6.33050798634617,0.661038388838538,7.21085831983056,-0.013439035,0.004276057,0.0067195175,157.19266,-1.7508796,40.408916,SIT
54492777520000,3.340061,6.32588629479156,0.665182705208436,7.23325068027528,-0.019242255,0.00061086525,0.0018325958,157.18909,-1.7573041,40.418507,SIT
54492782389000,3.34493,6.32126906148133,0.669799938518665,7.25633679861372,-0.01740966,0.007330383,0.0036651916,157.18085,-1.7616303,40.423077,SIT
54492787515000,3.350056,6.30363099274448,0.687438007255521,7.24215813728312,-0.018020526,-0.00061086525,-0.0067195175,157.18762,-1.7715076,40.42915,SIT
54492792395000,3.354936,6.28520245015773,0.705866549842271,7.22372964280363,-0.01740966,-0.009162978,0.00030543262,157.187,-1.7782961,40.433613,SIT
54492797513000,3.360054,6.31557905253196,0.712832919066495,7.23336020052522,-0.02321288,-0.00030543262,0.003970624,157.18958,-1.786927,40.43168,SIT
54492802390000,3.364931,6.35260694162125,0.717461405202656,7.2472457072639,-0.030543262,-0.00061086525,0.0070249503,157.18991,-1.7939485,40.434753,SIT
54492807492000,3.370033,6.35497476491713,0.702160591554854,7.22951811444357,-0.02443461,0.0018325958,0.004276057,157.19878,-1.8062233,40.429474,SIT
54492812394000,3.374935,6.3503432551105,0.683634358879242,7.20636032359905,-0.023518313,0.0067195175,0.0106901415,157.20282,-1.8133252,40.423862,SIT
54492817516000,3.380057,6.35333692275482,0.670168427722548,7.1919741420267,-0.022907447,0.009468411,0.0067195175,157.21637,-1.8252181,40.421013,SIT
54492822392000,3.384933,6.35793776348589,0.658666249028031,7.18047198014681,-0.01985312,0.0036651916,0.004581489,157.2266,-1.8360624,40.41944,SIT
54492827516000,3.390057,6.36277260924183,0.646579053861767,7.16838480265038,-0.021685716,0.007941248,0.0009162979,157.23863,-1.8442038,40.41687,SIT
54492832564000,3.395105,6.36753574378048,0.634671137936844,7.15647690413321,-0.012217305,0.011301007,0.0033597588,157.24898,-1.8545034,40.416325,SIT
54492837514000,3.400055,6.37222421778218,0.617478362680198,7.1502272060396,-0.013744468,0.0106901415,0.0125227375,157.26978,-1.8662368,40.412827,SIT
54492842453000,3.404994,6.37690736780198,0.598745767491089,7.14554395821782,-0.015271631,0.010079277,0.004581489,157.29536,-1.8822912,40.408417,SIT
54492847511000,3.410052,6.38177686390096,0.582891219650328,7.14067443609904,-0.008552114,0.015577064,0.0021380284,157.3182,-1.8920057,40.404633,SIT
54492852445000,3.414986,6.38655214816574,0.568565197319858,7.13589915183426,-0.011301007,0.0009162979,0.0036651916,157.34233,-1.8997735,40.40698,SIT
54492857513000,3.420054,6.38085644408722,0.55815800820054,7.13128450410027,-0.00580322,0.00061086525,0.0021380284,157.36732,-1.9090382,40.405594,SIT
54492862510000,3.425051,6.37193742074364,0.549238938290933,7.12682496914547,-0.014660766,0.003970624,0.012217305,157.38708,-1.911896,40.40762,SIT
54492867466000,3.430007,6.36275812262752,0.560424031526295,7.1425997232503,-0.009773844,0.002443461,0.0021380284,157.4123,-1.9192032,40.41247,SIT
54492872509000,3.43505,6.35320977342823,0.584295049094504,7.17124492040332,-0.0067195175,0.0036651916,0.0033597588,157.42911,-1.9201843,40.415924,SIT
54492877483000,3.440024,6.3381555078825,0.597987348073385,7.18964748257343,-0.004886922,0.007941248,0.004276057,157.4486,-1.9227979,40.41846,SIT
54492882520000,3.445061,6.31907199819998,0.60514366171348,7.20157467612501,-0.0061086523,0.004886922,0.004276057,157.45960069141,-1.92424748859623,40.420653605208,SIT
54492887506000,3.450047,6.30018171047374,0.612227517145188,7.21338110595391,-0.01038471,0.004581489,-0.0030543262,157.47049,-1.9256824,40.422825,SIT
54492892517000,3.455058,6.28119670610227,0.619346891306498,7.22524673368608,-0.0070249503,0.003970624,-0.00580322,157.49434,-1.9293635,40.41229,SIT
54492897508000,3.460049,6.2675713464356,0.627729675361363,7.22263344699685,0.0015271631,0.01282817,0.0036651916,157.51573,-1.9319928,40.4006,SIT
54492902510000,3.465051,6.25813787782592,0.63716312919555,7.20848329333399,-0.00580322,0.004581489,-0.00061086525,157.54308,-1.9348385,40.394276,SIT
54492907514000,3.470055,6.25615110612164,0.646638238307372,7.21174337235837,-0.009162978,0.008552114,-0.005497787,157.56946,-1.9436272,40.371807,SIT
54492912669000,3.47521,6.26104925117571,0.656434579561464,7.23133585028277,-0.01038471,0.0143553335,0.00580322,157.5908,-1.9488527,40.35207,SIT
54492917508000,3.480049,6.26990506100146,0.665248571637427,7.2333927157712,-0.01985312,0.007941248,0.010995574,157.61638,-1.9545087,40.335335,SIT
54492922485000,3.485026,6.28297068649488,0.673959049269006,7.2203270448008,-0.027794369,0.0027488936,0.003970624,157.64159,-1.9602444,40.317333,SIT
54492927510000,3.490051,6.29361677321814,0.676643822678186,7.20471674535637,-0.022602014,0.0015271631,0.00580322,157.66064,-1.9654232,40.299133,SIT
54492932507000,3.495048,6.29878483682505,0.666307911317495,7.18404492263499,-0.029932396,0.009162978,0.009468411,157.68106,-1.9670075,40.28051,SIT
54492937509000,3.50005,6.31262488300505,0.66301687660101,7.16859416994952,-0.023518313,0.0009162979,0.004581489,157.70622,-1.9744313,40.270485,SIT
54492942513000,3.505054,6.33634175284569,0.667760250569138,7.15910747154311,-0.02076942,0.005497787,0.008857546,157.72574,-1.9770224,40.255398,SIT
54492948165000,3.510706,6.35216190589399,0.664898631012658,7.15661390589399,-0.021685716,-0.005192355,0.010995574,157.7491,-1.9778844,40.248405,SIT
54492952518000,3.515059,6.3562844706784,0.656653415348101,7.1607364706784,-0.026267206,0.00030543262,0.0018325958,157.77432,-1.9798303,40.235943,SIT
54492957431000,3.519972,6.35415781683305,0.653159653266779,7.16926195980034,-0.014660766,-0.004581489,0.002443461,157.79767,-1.9827557,40.23414,SIT
54492962519000,3.52506,6.34211700473461,0.657975978106158,7.18371093431847,-0.010079277,-0.0036651916,0.002443461,157.812246570568,-1.98393664754395,40.2324789251632,SIT
54492967386000,3.529927,6.33059919174656,0.662583103301374,7.19753230990412,-0.014049901,-0.009162978,-0.0030543262,157.82619,-1.9850663,40.23089,SIT
54492972513000,3.535054,6.31846608568746,0.667436345725017,7.21209203717505,-0.011301007,-0.004276057,0.0030543262,157.84608,-1.9893372,40.23182,SIT
54492977385000,3.539926,6.31276468793591,0.671475829116968,7.21981317662257,-0.009468411,-0.0070249503,0.004581489,157.86908,-1.995376,40.23667,SIT
54492982522000,3.545063,6.3175613193214,0.674673594504209,7.21661542793071,-0.015882496,-0.0070249503,0.0070249503,157.88895,-1.9987477,40.239544,SIT
54492987387000,3.549928,6.32210397295005,0.677702040797556,7.21358699744873,-0.0070249503,0.0125227375,0.00580322,157.90578,-2.008223,40.231052,SIT
54492992489000,3.55503,6.32686792337418,0.680878018801391,7.21041103602652,-0.015577064,0.004276057,0.015271631,157.91785,-2.009923,40.230892,SIT
54492997390000,3.559931,6.33144419170594,0.683928874974812,7.20736019578147,-0.02443461,0.007330383,0.004581489,157.93443,-2.0167243,40.223167,SIT
54493002510000,3.565051,6.33622494948162,0.687116057918684,7.20417302947772,-0.016798794,0.010995574,0.003970624,157.94366,-2.0216064,40.218086,SIT
54493007420000,3.569961,6.33581902393807,0.683489597011307,7.2027657387593,-0.016187929,0.0021380284,0.011911872,157.9536,-2.0233617,40.215958,SIT
54493012509000,3.57505,6.31596119333809,0.653702659308343,7.20773017048997,-0.025045475,0.0012217305,0.013133603,157.9658,-2.025973,40.210682,SIT
54493018105000,3.580646,6.29892288958114,0.626837006430557,7.21220773680629,-0.02687807,0.0070249503,0.017104227,157.9684,-2.0281343,40.213387,SIT
54493022519000,3.58506,6.29284525200805,0.614681724938177,7.21423361599732,-0.025961773,0.01160644,0.019242255,157.9713,-2.0291004,40.21662,SIT
54493027526000,3.590067,6.28595111260424,0.600893438931755,7.21653166246525,-0.024129177,0.002443461,0.0067195175,157.98425,-2.0317507,40.21641,SIT
54493032518000,3.595059,6.27907762670373,0.587146459953513,7.21882282443209,-0.012217305,0.0018325958,0.004581489,157.99222,-2.034552,40.212814,SIT
54493037511000,3.600052,6.27343441069307,0.5746084,7.22070389643564,-0.014049901,-0.0015271631,0.008246681,158.00487,-2.0404468,40.215683,SIT
54493042513000,3.605054,6.28054874043564,0.5746084,7.21833245318812,-0.006414085,-0.0015271631,0.004276057,158.013062547664,-2.04605765749284,40.2165907026573,SIT
54493047634000,3.610175,6.28783232352475,0.5746084,7.21590459215842,-0.011301007,-0.0012217305,0.002443461,158.02145,-2.051802,40.21752,SIT
54493052591000,3.615132,6.29488264990099,0.5746084,7.21355448336634,-0.0021380284,0.0021380284,0.0036651916,158.031,-2.0589676,40.218063,SIT
54493057717000,3.620258,6.30278075925962,0.575436244116678,7.21299138909778,-0.0015271631,-0.0021380284,-0.002443461,158.04056,-2.0687091,40.225414,SIT
54493062499000,3.62504,6.31609486863068,0.584312366461866,7.2307436430565,-0.004886922,0.0015271631,-0.007941248,158.04901,-2.0789506,40.22939,SIT
54493067848000,3.630389,6.3295517378122,0.594479604435624,7.25059974791868,-0.009773844,-0.00061086525,-0.0061086523,158.05829,-2.0880158,40.238472,SIT
54493072521000,3.635062,6.31655496221684,0.607476420744434,7.26792875188771,-0.01160644,0.005192355,-0.003970624,158.069,-2.09764,40.24397,SIT
54493077471000,3.640012,6.30278778070668,0.621243645381413,7.28628496195547,-0.0125227375,-0.00061086525,-0.0030543262,158.07976,-2.107068,40.25271,SIT
54493082522000,3.645063,6.30570656249645,0.634995278504965,7.28378239398582,-0.021380283,-0.008246681,-0.0015271631,158.08916,-2.1135824,40.260204,SIT
54493087974000,3.650515,6.31064388338534,0.649807431927187,7.27884502154137,-0.03145956,-0.003970624,0.00030543262,158.09776,-2.119153,40.2658,SIT
54493092519000,3.65506,6.31505851186822,0.655165711868222,7.27640179406589,-0.016187929,-0.0061086523,-0.004886922,158.1103,-2.139912,40.27677,SIT
54493097391000,3.659932,6.31983221450788,0.659939414507878,7.27401494274606,-0.01863139,-0.0070249503,-0.003970624,158.11946,-2.152688,40.285976,SIT
54493102519000,3.66506,6.3248567520974,0.664963952097401,7.2715026739513,-0.027183503,-0.0070249503,0.0076358155,158.127804924985,-2.16116874158832,40.2879799103821,SIT
54493107389000,3.66993,6.32962849508901,0.669735695089012,7.26911680245549,-0.01985312,-0.004276057,0.005497787,158.13573,-2.1692228,40.289883,SIT
54493112520000,3.675061,6.33871602132585,0.657706440061072,7.25612638416076,-0.023823744,0.00030543262,0.006414085,158.15425,-2.1854637,40.293293,SIT
54493117394000,3.679935,6.34791175948582,0.643912856826241,7.24233284893617,-0.029321533,0.0018325958,0.009162978,158.15822,-2.1990469,40.30414,SIT
54493122517000,3.685058,6.34532399088929,0.637547089330561,7.23186819578134,-0.020463986,-0.002443461,0.0021380284,158.1668,-2.21694,40.316296,SIT
54493127391000,3.689932,6.34070146187364,0.632924671328976,7.22262337908497,-0.013133603,-0.004276057,-0.0021380284,158.17305,-2.231898,40.32702,SIT
54493132491000,3.695032,6.32791034444334,0.628090664299852,7.20101967149926,-0.016187929,-0.007941248,0.008857546,158.17772,-2.2411313,40.34073,SIT
54493137393000,3.699934,6.31397309252845,0.623444897491341,7.1777908374567,-0.016493361,-0.0076358155,-0.0027488936,158.19214,-2.2570975,40.35302,SIT
54493142517000,3.705058,6.30723540832678,0.620552296318611,7.17108836429274,-0.010995574,0.0015271631,0.005497787,158.19476,-2.2670107,40.364407,SIT
54493147425000,3.709966,6.30261184155518,0.618240527416388,7.16877659297659,-0.010995574,-0.013439035,-0.004276057,158.20872,-2.280762,40.38177,SIT
54493152511000,3.715052,6.29782059041413,0.615844916854712,7.16638097991344,-0.0106901415,-0.004276057,-0.004276057,158.213527785498,-2.28470045227517,40.3839300195714,SIT
54493157644000,3.720185,6.29298506306315,0.613427168326776,7.16396322886091,-0.020463986,-0.00030543262,0.00061086525,158.21838,-2.2886753,40.38611,SIT
54493162597000,3.725138,6.29542508761923,0.61984166698055,7.1669147152983,-0.007330383,-0.0009162979,-0.002443461,158.2349,-2.3043866,40.398075,SIT
54493167520000,3.730061,6.29983387488311,0.628659052764167,7.17132341049186,-0.0033597588,0.009162978,-0.005192355,158.24869,-2.3147717,40.403114,SIT
54493172523000,3.735064,6.30604186753148,0.636572124175391,7.17753139887726,-0.011301007,0.00030543262,-0.004276057,158.26164,-2.3245132,40.412975,SIT
54493177505000,3.740046,6.31328074653821,0.643811046015273,7.18477032827593,-0.0125227375,-0.005192355,-0.003970624,158.2752,-2.3368056,40.418816,SIT
54493182525000,3.745066,6.32057483979669,0.651105182433622,7.19206447231073,-0.01863139,-0.0036651916,0.005192355,158.27672,-2.3385918,40.424263,SIT
54493187525000,3.750066,6.32783987292267,0.658370258547514,7.19932955601072,-0.02076942,-0.004581489,-0.0021380284,158.28441,-2.3438766,40.431545,SIT
54493192524000,3.755065,6.33658489562934,0.663957481328048,7.21754790664024,-0.02443461,-0.0030543262,0.00061086525,158.28484,-2.3439183,40.437805,SIT
54493197529000,3.76007,6.34608581421209,0.668707915817641,7.24130007908821,-0.01863139,-0.0015271631,0.0018325958,158.2886,-2.3471642,40.44404,SIT
54493202489000,3.76503,6.35244698831418,0.667352495897638,7.24057095611656,-0.013744468,-0.0027488936,0.003970624,158.29489,-2.3560078,40.45402,SIT
54493207531000,3.770072,6.35720868384202,0.662590775509097,7.22628574522953,-0.014049901,-0.009162978,-0.004886922,158.30476,-2.3665395,40.464615,SIT
54493212517000,3.775058,6.36191749262857,0.657881942137962,7.21215919594694,-0.0067195175,-0.0009162979,0.00030543262,158.30345,-2.3737772,40.469223,SIT
54493217543000,3.780084,6.36666407765889,0.653135332325822,7.1979193169469,-0.01282817,-0.004581489,0.005497787,158.30573,-2.3794463,40.47866,SIT
54493222563000,3.785104,6.37141535448112,0.648384020322166,7.18508482674321,-0.019547688,-0.00061086525,0.01038471,158.30574,-2.3854496,40.48342,SIT
54493227567000,3.790108,6.3761584689464,0.643640863758599,7.17322697867076,-0.0143553335,-0.00030543262,0.0018325958,158.309,-2.3941143,40.489902,SIT
54493232526000,3.795067,6.38085892950463,0.638940361480675,7.1614757659227,-0.0125227375,0.00030543262,-0.004276057,158.30527,-2.3923824,40.499115,SIT
54493237546000,3.800087,6.38561720980353,0.634182038948879,7.14958000306824,-0.009162978,0.003970624,-0.0009162979,158.30125,-2.3920145,40.507122,SIT
54493242525000,3.805066,6.38053892645854,0.644054411805771,7.14909209074361,-0.013133603,-0.0033597588,0.008552114,158.29758,-2.3904653,40.51786,SIT
54493247503000,3.810044,6.36752177588059,0.66574976999818,7.1577702666424,-0.016493361,-0.0030543262,0.009162978,158.29585,-2.3908253,40.52506,SIT
54493252511000,3.815052,6.3556009119348,0.680519765663364,7.1634517,-0.009162978,0.0012217305,0.003970624,158.29482,-2.3903706,40.53716,SIT
54493257531000,3.820072,6.34584567117589,0.682145641952721,7.1634517,0.00030543262,0.010995574,0.007330383,158.29048,-2.3881075,40.547394,SIT
54493262520000,3.825061,6.33615067194359,0.683761477970172,7.1634517,-0.01282817,0.01160644,0.0067195175,158.27094,-2.3814623,40.561493,SIT
54493267491000,3.830032,6.32649065166221,0.685371484152322,7.1634517,-0.019242255,0.005192355,0.002443461,158.25201,-2.3786018,40.574326,SIT
54493272411000,3.834952,6.31692973840847,0.686964972467787,7.1634517,-0.0106901415,0.006414085,0.00061086525,158.23282,-2.376079,40.584396,SIT
54493277509000,3.84005,6.30702292219554,0.68861611137678,7.1634517,-0.015271631,0.0012217305,-0.0021380284,158.21638,-2.3705497,40.597626,SIT
54493282467000,3.845008,6.3035811115304,0.693614365708296,7.1614095884696,-0.009468411,0.0036651916,0.00061086525,158.1989,-2.368652,40.60795,SIT
54493287493000,3.850034,6.30838619231307,0.703224627623041,7.15660450768693,-0.0036651916,0.0067195175,-0.0015271631,158.18481,-2.367382,40.619022,SIT
54493292422000,3.854963,6.31209568239589,0.70476377041642,7.15583495455891,-0.0143553335,0.005497787,0.00030543262,158.17096,-2.3673854,40.62702,SIT
54493297485000,3.860026,6.31448799236234,0.695194530550622,7.16061954951155,-0.016493361,0.0070249503,0.002443461,158.15791,-2.3708239,40.633015,SIT
54493302367000,3.864908,6.31679477831064,0.68596738675745,7.1652330973209,-0.01038471,0.0067195175,-0.0009162979,158.14064,-2.3744888,40.644344,SIT
54493307505000,3.870046,6.31922252640616,0.67625639437537,7.17008856816163,-0.015271631,0.0076358155,0.004886922,158.11952,-2.3732893,40.654602,SIT
54493312367000,3.874908,6.3239077026172,0.66876889029815,7.17463610970185,-0.018020526,0.006414085,0.010079277,158.10034,-2.3746533,40.665028,SIT
54493317461000,3.880002,6.33326135317803,0.664092040600134,7.17931295939987,-0.011911872,-0.0030543262,-0.00061086525,158.08559,-2.378868,40.676952,SIT
54493322370000,3.884911,6.33959907489427,0.659565060032352,7.18161758668512,-0.009468411,0.00061086525,0.0076358155,158.06018,-2.38008,40.691055,SIT
54493327491000,3.890032,6.33864328996122,0.654786079477305,7.17779439705131,-0.014966198,0.0061086523,0.0143553335,158.03995,-2.3830945,40.70645,SIT
54493332369000,3.89491,6.33773285861901,0.650233869528561,7.17415262414882,-0.015271631,-0.004581489,0.0125227375,158.02069,-2.387061,40.72562,SIT
54493337492000,3.900033,6.33677670040537,0.645453022548771,7.17032794137319,-0.03145956,-0.0012217305,0.01038471,157.99915,-2.3852623,40.738678,SIT
54493342898000,3.905439,6.33576772298922,0.640408076467814,7.16629197902984,-0.01282817,-0.002443461,0.01038471,157.98106,-2.392377,40.754982,SIT
54493347491000,3.910032,6.33491048413011,0.636121832044981,7.1628629788369,-0.015577064,0.004581489,0.015882496,157.96194,-2.3907995,40.76745,SIT
54493352744000,3.915285,6.33393006267857,0.631219667456881,7.15894124184288,-0.01160644,-0.005192355,0.01282817,157.9468,-2.3962805,40.78434,SIT
54493357490000,3.920031,6.33304426785485,0.62679064154119,7.1553980163006,-0.015271631,0.0012217305,0.01038471,157.9293,-2.3983946,40.794147,SIT
54493362499000,3.92504,6.33210938663444,0.622116180771764,7.1516584426088,-0.0143553335,-0.00030543262,0.008552114,157.90303,-2.394362,40.807133,SIT
54493367446000,3.929987,6.33118607711212,0.617499579169379,7.14796515631346,-0.0106901415,-0.0012217305,0.016798794,157.8744,-2.3889894,40.817745,SIT
54493372792000,3.935333,6.3310780863203,0.612106857902316,7.14631995524421,-0.0125227375,0.0033597588,0.009773844,157.85281,-2.3860948,40.82648,SIT
54493377555000,3.940096,6.3399542366511,0.603230753913213,7.16851021521697,-0.009773844,-0.0036651916,0.01038471,157.82617,-2.382293,40.838554,SIT
54493382896000,3.945437,6.34872146637866,0.593995883726521,7.19241584861007,-0.011911872,-0.0015271631,0.010079277,157.80258,-2.3757765,40.848415,SIT
54493387496000,3.950037,6.33630971769346,0.598133118888054,7.1965531701728,-0.014049901,0.0033597588,0.0070249503,157.78053,-2.3705451,40.85897,SIT
54493392454000,3.954995,6.32293201117581,0.602592338873028,7.20101248328325,-0.011911872,0.009162978,0.004581489,157.76689,-2.3695054,40.86525,SIT
54493397518000,3.960059,6.31661443792618,0.591104636745449,7.19360283326964,-0.0106901415,0.0009162979,0.003970624,157.75427,-2.3681748,40.87387,SIT
54493402397000,3.964938,6.3119151311576,0.577006696811827,7.18420417066278,-0.0076358155,0.004886922,0.01038471,157.73985,-2.3669581,40.87718,SIT
54493407555000,3.970096,6.31488647787482,0.589691527248908,7.18637603850073,-0.019242255,0.00061086525,0.011911872,157.72707,-2.3649418,40.882317,SIT
54493413108000,3.975649,6.31972453922853,0.609043792871179,7.19121404933588,-0.016798794,0.004886922,0.006414085,157.71458,-2.3668394,40.88367,SIT
54493417515000,3.980056,6.3175311030347,0.616077051820321,7.19376273974661,-0.009468411,0.0009162979,0.0067195175,157.702,-2.3640761,40.887447,SIT
54493422520000,3.985061,6.31273049872302,0.620877678689469,7.19616310456207,-0.009468411,-0.0076358155,0.004276057,157.69284,-2.361871,40.891026,SIT
54493427514000,3.990055,6.30794044519004,0.625667754730332,7.19855819385047,-0.013439035,0.005192355,0.010079277,157.6813,-2.361215,40.889168,SIT
54493432510000,3.995051,6.30314847333367,0.630459749103611,7.20095424232561,-0.0125227375,0.0033597588,0.0070249503,157.67476,-2.363709,40.893578,SIT
54493437520000,4.000061,6.29836918138472,0.641578510425152,7.19858918138472,-0.0125227375,0.008857546,0.005192355,157.66539,-2.3639312,40.892246,SIT
54493442510000,4.005051,6.29362206407073,0.655819599657296,7.19384206407073,-0.008857546,0.005192355,0.009773844,157.65517,-2.3645773,40.89403,SIT
54493447520000,4.010061,6.2888510731768,0.663910659307532,7.19840395109939,-0.0067195175,0.0036651916,0.0018325958,157.65427,-2.3714159,40.890625,SIT
54493452527000,4.015068,6.28408035017411,0.668681432126157,7.20794554655258,-0.0125227375,0.011301007,0.012217305,157.64464,-2.3729675,40.886,SIT
54493457491000,4.020032,6.28086089650657,0.671900919411265,7.20218919945025,-0.008552114,0.003970624,0.00580322,157.64536,-2.3833482,40.885136,SIT
54493462514000,4.025055,6.27845679014943,0.674305050872108,7.1877644357889,-0.0036651916,0.01282817,0.0061086523,157.63914,-2.3894017,40.877785,SIT
54493467464000,4.030005,6.27608762302464,0.676674242735769,7.17354930934579,-0.008552114,0.0070249503,0.0009162979,157.63316,-2.3917875,40.872025,SIT
54493472515000,4.035056,6.27367011531811,0.679091775685941,7.1590441368884,-0.014966198,0.004276057,0.0012217305,157.62483,-2.3938308,40.863144,SIT
54493477511000,4.040052,6.27578305414966,0.682927785208941,7.16279842456754,-0.008857546,0.014966198,0.01282817,157.62326,-2.3980496,40.84759,SIT
54493482823000,4.045364,6.2807268277551,0.687871610437318,7.17762984862974,-0.0106901415,0.009468411,0.007941248,157.62808,-2.4021657,40.83757,SIT
54493487511000,4.050052,6.27674598176292,0.683890752320162,7.19388399535968,-0.015882496,0.00580322,0.011301007,157.62682,-2.403438,40.827034,SIT
54493492523000,4.055064,6.26701980729483,0.674164527071935,7.21333644585613,-0.017715093,0.00061086525,0.0070249503,157.63033,-2.4073672,40.818604,SIT
54493497518000,4.060059,6.27496849045509,0.676244845227547,7.23558333243053,-0.009468411,0.0015271631,0.010079277,157.62935,-2.4110425,40.808807,SIT
54493502497000,4.065038,6.29417223076923,0.685846715384616,7.25958795769231,-0.008552114,0.007941248,0.007941248,157.63188,-2.4144998,40.799026,SIT
54493507525000,4.070066,6.30738822752204,0.683680841939275,7.27172102903036,-0.008857546,-0.002443461,0.00030543262,157.63759,-2.42162,40.79029,SIT
54493512528000,4.075069,6.31677363011753,0.674295390342801,7.2764137548286,-0.008857546,-0.008552114,0.016798794,157.63458,-2.4247742,40.779224,SIT
54493517520000,4.080061,6.31520681523283,0.669005078808208,7.26328758121054,-0.022907447,-0.0036651916,0.011911872,157.64256,-2.4310856,40.767372,SIT
54493522531000,4.085072,6.30573772588792,0.666637806471981,7.23724761023086,-0.015271631,-0.008857546,0.00580322,157.64502,-2.4391587,40.76061,SIT
54493527478000,4.090019,6.29638957482242,0.664300768705604,7.21154021920383,-0.008552114,-0.008857546,0.016493361,157.6426,-2.4404404,40.752472,SIT
