timestamp,rel_time,acc_x,acc_y,acc_z,gyro_x,gyro_y,gyro_z,azimuth,pitch,roll,label
36283731021000,0,-1.96466881043836,9.66264213995886,-1.03144827912328,-0.03359759,0.03176499,0.008246681,308.67126,-99.87824,-8.3566265,STD
36283736574000,0.005553,-1.97140151756291,9.66095892802659,-1.01798286487419,-0.042760566,0.03756821,0.014966198,308.5098,-100.01021,-8.470908,STD
36283741016000,0.009995,-1.97678719828454,9.65961247972781,-1.00721150343092,-0.03940081,0.029932396,0.016798794,308.35635,-100.13817,-8.57974,STD
36283746092000,0.015071,-1.98294156914069,9.6580738548821,-0.994902761718626,-0.046120327,0.02565634,0.014660766,308.2046,-100.25803,-8.683608,STD
36283751060000,0.020039,-1.98896499593607,9.65656796673524,-0.982855908127868,-0.035124753,0.018936822,0.014049901,308.06107,-100.37617,-8.784658,STD
36283756053000,0.025032,-1.99501873385662,9.65505450064884,-0.970748432286754,-0.036957346,0.01160644,0.016493361,307.9229,-100.48691,-8.881848,STD
36283761001000,0.02998,-2.00101791175186,9.65355467485362,-0.958750076496281,-0.03390302,0.015577064,0.016798794,307.78326,-100.59949,-8.979664,STD
36283766035000,0.035014,-2.02082157049611,9.63415213010623,-1.00103593391742,-0.040317107,0.004886922,0.019242255,307.6538,-100.70523,-9.073227,STD
36283771012000,0.039991,-2.03906490206088,9.61630637180942,-1.04625669381736,-0.042760566,-0.008552114,0.019242255,307.52756,-100.808655,-9.163932,STD
36283776011000,0.04499,-2.03001320548308,9.62988420022689,-1.07341178355077,-0.040317107,-0.008246681,0.019547688,307.40268,-100.905815,-9.251736,STD
36283781358000,0.050337,-2.02080533475021,9.6440432632895,-1.10163020425064,-0.029321533,-0.0015271631,0.02321288,307.28674,-101.006096,-9.336971,STD
36283786028000,0.055007,-2.02304185302795,9.64851615972396,-1.10833975908386,-0.043982297,-0.0033597588,0.022907447,307.17627,-101.10019,-9.4203615,STD
36283791041000,0.06002,-2.02544263806571,9.65331757938691,-1.11554211419713,-0.036957346,-0.004276057,0.015577064,307.06766,-101.19801,-9.500884,STD
36283796021000,0.065,-2.02782761901285,9.65808739185878,-1.12269705703856,-0.03940081,-0.0018325958,0.025045475,306.9621,-101.28483,-9.573812,STD
36283801375000,0.070354,-2.02987801982116,9.66279550568182,-1.13168312282973,-0.040927973,0.003970624,0.01985312,306.8581,-101.37488,-9.650104,STD
36283806337000,0.075316,-2.02102554560358,9.65836917613636,-1.16709306591841,-0.038789943,0.008857546,0.018936822,306.7518,-101.45767,-9.713472,STD
36283811033000,0.080012,-2.01264762965723,9.65418013068182,-1.20060477344449,-0.030543262,0.00580322,0.018020526,306.6459,-101.5441,-9.780384,STD
36283816033000,0.085012,-1.99454932772794,9.66171120926351,-1.19424264579595,-0.03145956,0.01985312,0.01740966,306.53656,-101.626465,-9.844311,STD
36283820956000,0.089935,-1.97487622678907,9.67154796515752,-1.1794878200918,-0.033292156,0.016798794,0.014049901,306.43576,-101.70774,-9.9074955,STD
36283826002000,0.094981,-1.98570879667458,9.6553929608076,-1.13928746512272,-0.032070424,0.013439035,0.01740966,306.3354,-101.7906,-9.971823,STD
36283830981000,0.09996,-1.99986642351544,9.63651622357482,-1.09681453532264,-0.04062254,0.013133603,0.016493361,306.23755,-101.870514,-10.035884,STD
36283836021000,0.105,-2.00558765894168,9.63023285679094,-1.08973847052916,-0.043066,0.00580322,0.022602014,306.14093,-101.94263,-10.091473,STD
36283841005000,0.109984,-2.0101099737079,9.6257104475816,-1.08747731314605,-0.04062254,0.01282817,0.017104227,306.0425,-102.01446,-10.147994,STD
36283846165000,0.115144,-2.01479198498271,9.62102833852859,-1.08513630750865,-0.031154128,-0.00061086525,0.0143553335,305.95343,-102.079926,-10.20174,STD
36283851007000,0.119986,-2.01918545370221,9.61663477805675,-1.08293957314889,-0.035124753,0.0009162979,0.012217305,305.86032,-102.14235,-10.254089,STD
36283856027000,0.125006,-2.03402074909053,9.62510012036171,-1.07885056272737,-0.03481932,-0.0033597588,0.013744468,305.77518,-102.20417,-10.304783,STD
36283861055000,0.130034,-2.05404035220871,9.64011513626442,-1.07384566194782,-0.032986723,-0.0021380284,0.011301007,305.69006,-102.264694,-10.355026,STD
36283866029000,0.135008,-2.07699592293578,9.65823088315354,-0.914356746456296,-0.030543262,0.00580322,0.015271631,305.60117,-102.32242,-10.398499,STD
36283871038000,0.140017,-2.1011769853211,9.67757555126525,-0.701564134751487,-0.03726278,-0.004886922,0.005497787,305.51904,-102.38062,-10.445392,STD
36283876059000,0.145038,-2.10505718094284,9.67110944722208,-0.711956767321277,-0.027488936,0.008552114,0.0067195175,305.43085,-102.437126,-10.487098,STD
36283881007000,0.149986,-2.10268325146035,9.65686582075046,-0.790296489820149,-0.032375857,0.00030543262,0.0027488936,305.35367,-102.491745,-10.532379,STD
36283886025000,0.155004,-2.10027573768849,9.64242068784129,-0.86974449456941,-0.032070424,-0.00061086525,0.005497787,305.26157,-102.523605,-10.568846,STD
36283891041000,0.16002,-2.09786918346776,9.62798131225891,-0.949160834111517,-0.028405234,-0.0067195175,0.004276057,305.17502,-102.55536,-10.606285,STD
36283896031000,0.16501,-2.06083632135076,9.63563616835017,-0.883343298158051,-0.020463986,-0.009468411,0.009162978,305.0952,-102.57983,-10.634498,STD
36283901035000,0.170014,-2.01337899586057,9.64987313804714,-0.774191578371955,-0.027183503,-0.008857546,0.009162978,305.01764,-102.60261,-10.663116,STD
36283906022000,0.175001,-1.95628922000583,9.66386660513269,-1.00812575661515,-0.028710667,-0.009162978,0.01282817,304.95248,-102.64164,-10.693296,STD
36283911019000,0.179998,-1.89581298743074,9.67782293904929,-1.35702706102848,-0.026572637,-0.009162978,0.0143553335,304.8886,-102.67909,-10.722824,STD
36283916028000,0.185007,-1.91450244293924,9.66342777965144,-1.28737181177108,-0.028710667,-0.014049901,0.011301007,304.8188,-102.69596,-10.741932,STD
36283921021000,0.19,-1.96855840601978,9.63639972755535,-1.030606045935,-0.026572637,-0.016798794,0.018936822,304.75024,-102.70971,-10.756576,STD
36283925998000,0.194977,-1.99470096080494,9.63831680402468,-0.853969547997775,-0.02565634,-0.010995574,0.01985312,304.69797,-102.75394,-10.772054,STD
36283931028000,0.200007,-1.99957216153302,9.66267280766508,-0.737060654226919,-0.021685716,-0.004581489,0.021991149,304.64813,-102.79551,-10.784612,STD
36283936023000,0.205002,-1.99874791817731,9.66416107167676,-0.748428465134518,-0.015577064,-0.010995574,0.02687807,304.5915,-102.81485,-10.799771,STD
36283941016000,0.209995,-1.99400087534995,9.64992014146729,-0.848116443818128,-0.02687807,-0.0027488936,0.022602014,304.52985,-102.83276,-10.815436,STD
36283946216000,0.215195,-2.00740927821522,9.63870039982502,-0.970382761907262,-0.024129177,-0.00030543262,0.021380283,304.4654,-102.83823,-10.824844,STD
36283951031000,0.22001,-2.03161520577428,9.6306315888014,-1.09544682206474,-0.0421497,0.010079277,0.024129177,304.3974,-102.83809,-10.833057,STD
36283956022000,0.225001,-2.04046810070244,9.62883032177552,-1.20063191386938,-0.030543262,0.011301007,0.01740966,304.33792,-102.8564,-10.848063,STD
36283961026000,0.230005,-2.00943188321626,9.64315477970408,-1.2459925643551,-0.038789943,0.018325957,0.014966198,304.27527,-102.86634,-10.859827,STD
36283966023000,0.235002,-1.97843908170179,9.65745919942211,-1.29128976069347,-0.030543262,0.01740966,0.014660766,304.2259,-102.90093,-10.8808565,STD
36283971026000,0.240005,-1.94740906649728,9.67178079474917,-1.336641346301,-0.035430185,0.017104227,0.010079277,304.17545,-102.93261,-10.902692,STD
36283976010000,0.244989,-1.92154956334755,9.68418514943844,-1.37626065915141,-0.04550946,0.0036651916,0.015271631,304.13544,-102.96003,-10.922409,STD
36283981031000,0.25001,-1.90904820799709,9.69168584255408,-1.40126331763727,-0.031154128,-0.0009162979,0.014049901,304.09372,-102.99195,-10.944133,STD
36283985995000,0.254974,-1.89668877203619,9.69910138539933,-1.42598213793677,-0.041233405,0.007941248,0.014966198,304.05573,-103.01496,-10.953411,STD
36283991011000,0.25999,-1.88419986575499,9.70659460919301,-1.45095989833611,-0.03604105,0.0027488936,0.01863139,304.02417,-103.04126,-10.962545,STD
36283996045000,0.265024,-1.88215005713583,9.70578605350644,-1.49073115375234,-0.032986723,-0.00030543262,0.020158553,303.9904,-103.0651,-10.971274,STD
36284001121000,0.2701,-1.89410342054687,9.69383271505852,-1.55049789591817,-0.031154128,-0.0009162979,0.018325957,303.95837,-103.08868,-10.9797125,STD
36284005967000,0.274946,-1.90551516189633,9.68242099754106,-1.60755653116947,-0.044898596,-0.0027488936,0.016187929,303.92984,-103.11112,-10.985847,STD
36284011029000,0.280008,-1.91743555700797,9.67050062732369,-1.66715843204485,-0.04428773,-0.008552114,0.023823744,303.9038,-103.13339,-10.989688,STD
36284015997000,0.284976,-1.93074658251568,9.65635988321097,-1.69139528844265,-0.042760566,-0.003970624,0.02443461,303.87393,-103.15774,-10.999595,STD
36284021025000,0.290004,-1.9471352173579,9.63763011260757,-1.6539355272135,-0.043676864,-0.0015271631,0.016187929,303.84708,-103.18135,-11.009849,STD
36284025969000,0.294948,-1.96325005639131,9.61921324986629,-1.61710158538435,-0.034208454,0.0061086523,0.01863139,303.82352,-103.22281,-11.025805,STD
36284031065000,0.300044,-1.97986033545972,9.60023017289833,-1.57913520845043,-0.047036625,0.010079277,0.014049901,303.80066,-103.26312,-11.045603,STD
36284035982000,0.304961,-1.99313803300971,9.58405948543689,-1.53284694757282,-0.047647487,0.020158553,0.017715093,303.77518,-103.303154,-11.061373,STD
36284041062000,0.310041,-1.99805815275081,9.57421904045307,-1.4541249289644,-0.053145275,0.014049901,0.013439035,303.75372,-103.34225,-11.080621,STD
36284046096000,0.315075,-1.99620915216668,9.57390930979165,-1.37416818475007,-0.04062254,0.013439035,0.013439035,303.727,-103.37804,-11.09936,STD
36284051124000,0.320103,-1.97736843989044,9.59746020013695,-1.28938497950699,-0.043676864,0.013744468,0.017104227,303.70258,-103.409584,-11.117818,STD
36284056050000,0.325029,-1.96000489767986,9.62051483720023,-1.2096287771203,-0.044593163,0.016187929,0.01740966,303.66946,-103.4382,-11.136835,STD
36284061711000,0.33069,-1.94414968278417,9.64694019535972,-1.13035264745564,-0.042760566,0.0125227375,0.020158553,303.63922,-103.464325,-11.153679,STD
36284066032000,0.335011,-1.93623161460834,9.66728953652085,-1.06844626968973,-0.042760566,0.01160644,0.019547688,303.6014,-103.48057,-11.172117,STD
36284071058000,0.340037,-1.94602469635809,9.69177224089522,-0.990101538997965,-0.040317107,0.016493361,0.01740966,303.56387,-103.49642,-11.189382,STD
36284076029000,0.345008,-1.95270122781687,9.71184939238554,-0.919276523118072,-0.03481932,0.012217305,0.017715093,303.52502,-103.500885,-11.201149,STD
36284081065000,0.350044,-1.94805267217349,9.71649804510843,-0.872790942414458,-0.03970624,0.011301007,0.028099801,303.48486,-103.50165,-11.209702,STD
36284086036000,0.355015,-1.94930783844614,9.71785099439327,-0.827966154745695,-0.04184427,0.014660766,0.02565634,303.4408,-103.497826,-11.219326,STD
36284091069000,0.360048,-1.98791419359231,9.69854791760112,-0.789359749209051,-0.047036625,0.017715093,0.028405234,303.3983,-103.48878,-11.224054,STD
36284096136000,0.365115,-2.02297167956989,9.67913137634409,-0.749771261290323,-0.046120327,0.013439035,0.028405234,303.35443,-103.47525,-11.227704,STD
36284101148000,0.370127,-2.03730827502987,9.66001601553166,-0.706761474910394,-0.05375614,0.013744468,0.030543262,303.3091,-103.45831,-11.229229,STD
36284105999000,0.374978,-2.05434095326877,9.64221018523002,-0.666562008450363,-0.056199603,0.008246681,0.0290161,303.2672,-103.44423,-11.235757,STD
36284111027000,0.380006,-2.09469952648538,9.62875707776122,-0.635172051802943,-0.053145275,0.024740042,0.032986723,303.21964,-103.42794,-11.238755,STD
36284116333000,0.385312,-2.13521607322597,9.61449611844156,-0.601691132043636,-0.046731193,0.03604105,0.028405234,303.17383,-103.41188,-11.24546,STD
36284121022000,0.390001,-2.1258850363013,9.60049975792208,-0.564366964858182,-0.05955936,0.03023783,0.0290161,303.1291,-103.39111,-11.249053,STD
36284126124000,0.395103,-2.11576352509453,9.58602855512438,-0.5238808977801,-0.070249505,0.03970624,0.020463986,303.07718,-103.37697,-11.259651,STD
36284131343000,0.400322,-2.10581699391045,9.58105518567164,-0.484094736692537,-0.058643065,0.036651913,0.018020526,303.0313,-103.36261,-11.268338,STD
36284136177000,0.405156,-2.09430189302282,9.5774778806707,-0.447426460906381,-0.06047566,0.034208454,0.013744468,302.97668,-103.34231,-11.2748575,STD
36284141062000,0.410041,-2.05508018934327,9.58619397661854,-0.412562773346996,-0.06566802,0.016493361,0.011301007,302.92792,-103.32334,-11.2815275,STD
36284146050000,0.415029,-2.01503149784816,9.59509385104797,-0.37696398654122,-0.069027774,0.010079277,0.015271631,302.8689,-103.302956,-11.289031,STD
36284151053000,0.420032,-2.00026973097354,9.59378902083647,-0.42562191214942,-0.07360926,-0.0030543262,0.020158553,302.81747,-103.2819,-11.296999,STD
36284156417000,0.425396,-1.98737372374354,9.59120976552694,-0.487522795330622,-0.056505036,-0.013439035,0.019547688,302.76755,-103.26393,-11.304764,STD
36284161041000,0.43002,-1.97625680774213,9.58898633589396,-0.540884033926796,-0.06352998,-0.018936822,0.020463986,302.7162,-103.23049,-11.30363,STD
36284166012000,0.434991,-1.96430564220515,9.58659605286941,-0.598249673429733,-0.05955936,-0.017715093,0.019547688,302.66617,-103.202065,-11.302819,STD
36284171052000,0.440031,-1.97479027633028,9.59023237247706,-0.672608162275229,-0.06261369,-0.0012217305,0.022296581,302.61377,-103.17075,-11.299923,STD
36284176042000,0.445021,-1.98731668052425,9.59440792774137,-0.747766657198777,-0.059253927,-0.0061086523,0.02076942,302.57288,-103.15212,-11.299556,STD
36284181030000,0.450009,-1.99571157501557,9.59720615431561,-0.824286501208121,-0.06414085,0.0027488936,0.021380283,302.5239,-103.130684,-11.296446,STD
36284186067000,0.455046,-2.00171958866609,9.59920865823888,-0.90239072048823,-0.06047566,0.017104227,0.01985312,302.4751,-103.11192,-11.294041,STD
36284191060000,0.460039,-2.0076751201644,9.6011936695728,-0.97981267142442,-0.058948494,0.008246681,0.023518313,302.43927,-103.101906,-11.296501,STD
36284196046000,0.465025,-2.01362230222942,9.60317589799477,-1.05712607966953,-0.057421334,0.025350908,0.023518313,302.39218,-103.09349,-11.298693,STD
36284201174000,0.470153,-2.01973885851289,9.60521457977332,-1.13664135393366,-0.06719518,0.0290161,0.021685716,302.35068,-103.08434,-11.302181,STD
36284206029000,0.475008,-2.05545774751745,9.61325970947159,-1.24960996685942,-0.059864793,0.023518313,0.02076942,302.30753,-103.0774,-11.30476,STD
36284211017000,0.479996,-2.0983214267996,9.62278514835494,-1.37343813607178,-0.049785517,0.025350908,0.018325957,302.26175,-103.07008,-11.307549,STD
36284216070000,0.485049,-2.10297180905782,9.62076512707238,-1.42962006853013,-0.04886922,0.013744468,0.009468411,302.2386,-103.08475,-11.321567,STD
36284220959000,0.489938,-2.09823859280226,9.61603181196927,-1.46748584799838,-0.047036625,0.016493361,0.015882496,302.21176,-103.09719,-11.330942,STD
36284226053000,0.495032,-2.07774794398107,9.62098596716948,-1.48461460757172,-0.044898596,0.018325957,0.0143553335,302.19766,-103.13145,-11.353781,STD
36284230985000,0.499964,-2.05446445968648,9.62797114374446,-1.49625632540668,-0.049480084,0.0106901415,0.009162978,302.18622,-103.163414,-11.375465,STD
36284236061000,0.50504,-2.03050116563147,9.63516026708075,-1.50823794741201,-0.047036625,0.01038471,0.009468411,302.17358,-103.19771,-11.393821,STD
36284240993000,0.509972,-2.00721768133688,9.64214544365572,-1.51987966524697,-0.04337143,0.011911872,0.01282817,302.16315,-103.23113,-11.412418,STD
36284246075000,0.515054,-1.9871232820881,9.65827424257714,-1.54435621453522,-0.05009095,0.002443461,0.01282817,302.15768,-103.26291,-11.4317665,STD
36284251017000,0.519996,-1.96875396495245,9.67664346380749,-1.57191023819135,-0.04184427,0.004276057,0.02076942,302.1494,-103.293724,-11.446984,STD
36284256060000,0.525039,-1.94988477911851,9.67547155004897,-1.58685341044074,-0.044593163,0.004581489,0.01863139,302.14328,-103.31991,-11.459485,STD
36284261034000,0.530013,-1.93122268188051,9.66614030656219,-1.59618445905975,-0.04917465,0.0012217305,0.016798794,302.1384,-103.34436,-11.469487,STD
36284266068000,0.535047,-1.91513369431068,9.6662662254394,-1.60913117156355,-0.04184427,0.0036651916,0.024740042,302.1281,-103.36932,-11.47516,STD
36284271035000,0.540014,-1.90063563543635,9.6710989958346,-1.62362917997562,-0.049480084,0.01282817,0.024740042,302.11703,-103.39321,-11.483295,STD
36284276071000,0.54505,-1.91161965044207,9.66743776067073,-1.5835337035061,-0.04795292,0.01038471,0.022602014,302.10913,-103.41661,-11.488266,STD
36284281061000,0.55004,-1.93347405018801,9.66015307063008,-1.52039879344512,-0.03848451,0.018325957,0.023518313,302.09625,-103.43878,-11.491614,STD
36284286063000,0.555042,-1.95538100560468,9.65285086229675,-1.45711205594512,-0.04734206,0.022907447,0.025961773,302.0903,-103.45608,-11.493541,STD
36284291072000,0.560051,-1.97731861849594,9.64553843495935,-1.39373675243902,-0.046731193,0.024129177,0.031154128,302.08362,-103.474815,-11.494259,STD
36284296083000,0.565062,-1.99292418744292,9.64033653091705,-1.31941737115677,-0.04886922,0.024129177,0.028710667,302.0762,-103.49269,-11.49634,STD
36284301072000,0.570051,-2.00655964840183,9.63579128234399,-1.24214975905632,-0.053450707,0.01985312,0.024129177,302.0702,-103.50916,-11.497706,STD
36284306041000,0.57502,-2.00467899967314,9.63104273248213,-1.14530002905005,-0.049480084,0.016493361,0.026572637,302.0611,-103.516975,-11.499645,STD
36284311068000,0.580047,-1.99484394888662,9.62612510439224,-1.03711436770174,-0.0571159,0.023823744,0.01863139,302.0499,-103.52575,-11.505464,STD
36284316024000,0.585003,-1.9853065329143,9.62802570318268,-0.912194891160331,-0.05009095,0.025350908,0.017104227,302.0382,-103.52799,-11.508384,STD
36284321027000,0.590006,-1.97574597611494,9.63280608141275,-0.778346996138881,-0.049785517,0.025961773,0.021685716,302.02478,-103.52834,-11.511354,STD
36284326002000,0.594981,-1.95729505579819,9.64047866312123,-0.681516348446913,-0.055283304,0.016493361,0.02076942,302.00467,-103.51737,-11.50918,STD
36284331031000,0.60001,-1.93462858027108,9.64954496931476,-0.599916989213102,-0.057726767,-0.0009162979,0.023518313,301.9872,-103.50495,-11.504874,STD
36284336022000,0.605001,-1.9289671780542,9.64939207803939,-0.547572681075078,-0.052534413,0.0027488936,0.027488936,301.95868,-103.477104,-11.494662,STD
36284341025000,0.610004,-1.93606220698949,9.64229714788489,-0.516827530993632,-0.056199603,-0.01160644,0.027183503,301.94034,-103.44843,-11.486132,STD
36284346091000,0.61507,-1.9432465796831,9.63511287521595,-0.485695224315119,-0.054367006,-0.012217305,0.02565634,301.91238,-103.40673,-11.467835,STD
36284351055000,0.620034,-1.95028630057752,9.6280732523323,-0.455189742603287,-0.04337143,-0.015271631,0.032986723,301.88947,-103.36457,-11.4479,STD
36284356020000,0.624999,-1.96758737419961,9.62701084414609,-0.442852902966858,-0.0580322,-0.014966198,0.03573562,301.86414,-103.31824,-11.423878,STD
36284361067000,0.630046,-1.99481530186837,9.63154892686133,-0.447390905127218,-0.06291912,-0.0070249503,0.03359759,301.83743,-103.275246,-11.399511,STD
36284366022000,0.635001,-2.01446113602378,9.63926553445635,-0.468434490307179,-0.050701816,0.0015271631,0.03359759,301.8079,-103.22798,-11.374497,STD
36284371023000,0.640002,-2.02308983196108,9.65220839816233,-0.515892349497343,-0.053145275,0.011911872,0.035430185,301.7753,-103.17892,-11.349647,STD
36284375984000,0.644963,-2.02947282849818,9.6597573309122,-0.565176866481521,-0.055588737,0.021685716,0.03726278,301.74188,-103.1363,-11.328412,STD
36284381031000,0.65001,-2.02431003106174,9.63910624898526,-0.627130489628285,-0.063224554,0.026267206,0.03481932,301.70685,-103.09397,-11.3080435,STD
36284386680000,0.655659,-2.02270917853419,9.62268797963601,-0.68039139267093,-0.06811147,0.035124753,0.035124753,301.67166,-103.05723,-11.288345,STD
36284391008000,0.659987,-2.02678673784555,9.6186103351697,-0.700779189227742,-0.06963864,0.027794369,0.03573562,301.63983,-103.021034,-11.269954,STD
36284396114000,0.665093,-2.0289122185512,9.61922643022779,-0.725114407243997,-0.06383542,0.030543262,0.032070424,301.60043,-102.9958,-11.256099,STD
36284401048000,0.670027,-2.02406387757028,9.63377175692592,-0.749356112148574,-0.07360926,0.029321533,0.03604105,301.56488,-102.966446,-11.240466,STD
36284405999000,0.674978,-2.01062031549627,9.64096325853276,-0.779112080835622,-0.070249505,0.03176499,0.032986723,301.52914,-102.94604,-11.229281,STD
36284411038000,0.680017,-1.97748943413103,9.63149709474304,-0.821708977726559,-0.07880162,0.025045475,0.03023783,301.4969,-102.92181,-11.217397,STD
36284416009000,0.684988,-1.95684609492961,9.62405548774244,-0.868223287919661,-0.07544186,0.002443461,0.036957346,301.47394,-102.89829,-11.203448,STD
36284421027000,0.690006,-1.96867448480851,9.62168976036231,-0.927365286718519,-0.080634214,-0.010079277,0.03756821,301.44995,-102.87492,-11.19208,STD
36284426050000,0.695029,-1.98051466064783,9.61932167574087,-0.986566215368711,-0.070554934,-0.02076942,0.039095376,301.43384,-102.85091,-11.172821,STD
36284431031000,0.70001,-1.99225583441961,9.61697339194644,-1.0452721332677,-0.07727446,-0.028710667,0.03848451,301.42053,-102.82474,-11.154793,STD
36284436043000,0.705022,-2.01237680260501,9.61927714816021,-1.1142370174536,-0.0888809,-0.03390302,0.04184427,301.40967,-102.79848,-11.135947,STD
36284441014000,0.709993,-2.06275799281993,9.63865449788343,-1.21887478689352,-0.08399397,-0.03848451,0.03756821,301.4006,-102.77622,-11.120148,STD
36284446038000,0.715017,-2.11367633915663,9.65823844578313,-1.3246281873494,-0.09010262,-0.040927973,0.04520403,301.39505,-102.76632,-11.109543,STD
36284451033000,0.720012,-2.13861061037269,9.6724177544957,-1.38800803111806,-0.09621128,-0.035430185,0.047036625,301.38828,-102.759766,-11.101944,STD
36284456656000,0.725635,-2.15732326657979,9.68645253974459,-1.44414599973938,-0.099265605,-0.029932396,0.04062254,301.38223,-102.75316,-11.094885,STD
36284461029000,0.730008,-2.17620485230533,9.70120611236447,-1.48894432935056,-0.09896017,-0.024129177,0.03970624,301.38617,-102.76441,-11.096644,STD
36284465992000,0.734971,-2.20223138740554,9.72202723173804,-1.54099745390428,-0.105068825,-0.013744468,0.045814894,301.38733,-102.773964,-11.097908,STD
36284470994000,0.739973,-2.19805743572455,9.73854686007087,-1.55250849181113,-0.11178834,-0.0067195175,0.039095376,301.39417,-102.795616,-11.109927,STD
36284475997000,0.744976,-2.17511292351307,9.75231337573029,-1.53874173656738,-0.10629055,0.0021380284,0.043982297,301.3982,-102.81335,-11.116374,STD
36284481006000,0.749985,-2.15679743231829,9.75687571860413,-1.53039875807957,-0.102319926,-0.0030543262,0.047647487,301.4077,-102.83868,-11.128889,STD
36284485987000,0.754966,-2.14266035273024,9.75334137489812,-1.52686448818256,-0.102319926,-0.009773844,0.053450707,301.4156,-102.86194,-11.138946,STD
36284490993000,0.759972,-2.12845231811514,9.7497892920649,-1.52331247952878,-0.10903945,-0.01282817,0.05681047,301.4219,-102.87909,-11.144815,STD
36284495989000,0.764968,-2.12231834379637,9.73799058730159,-1.49284938934911,-0.11301007,-0.019547688,0.06078109,301.43158,-102.894714,-11.149159,STD
36284501054000,0.770033,-2.11776246026111,9.72432312698413,-1.45640236863905,-0.10903945,-0.035430185,0.06261369,301.4449,-102.909966,-11.153563,STD
36284505924000,0.774903,-2.11292911751911,9.71336828696027,-1.43900733503823,-0.111177474,-0.046120327,0.06047566,301.46115,-102.919205,-11.154607,STD
36284510919000,0.779898,-2.10777824899322,9.70306633476903,-1.42870559798643,-0.112704635,-0.050396383,0.06169739,301.4802,-102.92779,-11.154646,STD
36284515945000,0.784924,-2.11892722954637,9.68125561742272,-1.36679602665596,-0.1160644,-0.06414085,0.06505715,301.51605,-102.92465,-11.148941,STD
36284520890000,0.789869,-2.13318574299478,9.65749142834203,-1.2955033105279,-0.11453723,-0.06811147,0.06872234,301.54977,-102.922,-11.142986,STD
36284526070000,0.795049,-2.16433946790551,9.63291280863892,-1.23407238356232,-0.110872045,-0.073303826,0.06169739,301.58627,-102.92019,-11.139414,STD
36284530902000,0.799881,-2.19635742611446,9.61004283848967,-1.17918450296531,-0.112704635,-0.06780604,0.05681047,301.6203,-102.91685,-11.134387,STD
36284535941000,0.80492,-2.19494103287942,9.60167503907638,-1.12202305694691,-0.108123146,-0.06780604,0.056505036,301.66022,-102.911156,-11.134875,STD
36284540926000,0.809905,-2.18551921563055,9.59696452397869,-1.06549210426288,-0.13133603,-0.06047566,0.051923547,301.69525,-102.90391,-11.137652,STD
36284545959000,0.814938,-2.16923265228574,9.58882117703933,-0.99990119388529,-0.118202426,-0.052534413,0.05375614,301.72812,-102.90028,-11.141726,STD
36284551066000,0.820045,-2.15086835392847,9.57963883610251,-0.931035007930161,-0.12370021,-0.062002823,0.04886922,301.76266,-102.893875,-11.149243,STD
36284556019000,0.824998,-2.13553062822967,9.58003179126794,-0.890448296255981,-0.12308934,-0.07147124,0.05375614,301.7871,-102.880005,-11.147124,STD
36284561046000,0.830025,-2.12113392559809,9.58483079236444,-0.861654860927034,-0.1282817,-0.06780604,0.053450707,301.80942,-102.86753,-11.147775,STD
36284566023000,0.835002,-2.10404536464891,9.59570559806295,-0.855443042615012,-0.13072516,-0.06566802,0.056199603,301.82953,-102.84464,-11.142418,STD
36284571019000,0.839998,-2.08550940625666,9.60960730072639,-0.86007700801937,-0.12675454,-0.064446285,0.059253927,301.8481,-102.82263,-11.137065,STD
36284576002000,0.844981,-2.06123427062978,9.61793618049833,-0.844979858842456,-0.1160644,-0.062002823,0.06169739,301.87692,-102.790085,-11.124628,STD
36284581032000,0.850011,-2.03288153137139,9.6226617357269,-0.816627099846969,-0.118507855,-0.060170226,0.06811147,301.9047,-102.755585,-11.110535,STD
36284586019000,0.854998,-2.03805551983339,9.63047422738439,-0.807343313305564,-0.12217305,-0.053145275,0.06780604,301.92825,-102.722206,-11.095267,STD
36284591006000,0.859985,-2.06866077558475,9.64067619235288,-0.812444189264125,-0.111177474,-0.048258353,0.07086037,301.95123,-102.689186,-11.077749,STD
36284596437000,0.865416,-2.08127370293307,9.65005808147405,-0.779855521935322,-0.10903945,-0.045814894,0.07696902,301.96896,-102.64819,-11.0553465,STD
36284601029000,0.870008,-2.08494860758753,9.65740750706109,-0.739432391901061,-0.11148291,-0.04886922,0.076358154,301.98587,-102.61016,-11.034626,STD
36284606019000,0.874998,-2.08431268784491,9.66397839245051,-0.712115007036619,-0.12156218,-0.045814894,0.08002335,302.0187,-102.56574,-11.010022,STD
36284611011000,0.87999,-2.07287039640989,9.66724767709509,-0.723557281403221,-0.124311075,-0.038789943,0.08002335,302.0499,-102.52446,-10.987356,STD
36284616023000,0.885002,-2.06138226246111,9.6705300598352,-0.735045398215202,-0.12370021,-0.033292156,0.076358154,302.0819,-102.47644,-10.963244,STD
36284621032000,0.890011,-2.04990100488939,9.67381047786098,-0.746526638660375,-0.13164146,-0.035430185,0.07880162,302.11295,-102.426926,-10.93816,STD
36284626012000,0.894991,-2.03848621896263,9.67707190364824,-0.75794140755975,-0.12614368,-0.03481932,0.06963864,302.1399,-102.38466,-10.917876,STD
36284631033000,0.900012,-2.02697745588265,9.68036018053134,-0.769450153472151,-0.12522738,-0.034208454,0.073303826,302.1667,-102.33832,-10.893982,STD
36284636018000,0.904997,-2.01642169170479,9.673583028148,-0.803570717340362,-0.12889257,-0.043676864,0.076052725,302.20367,-102.290825,-10.869421,STD
36284641012000,0.909991,-2.00690775910086,9.65455526228367,-0.865411309069027,-0.13103059,-0.033292156,0.07788532,302.23352,-102.244514,-10.844278,STD
36284646011000,0.91499,-2.01604077352825,9.63142652232319,-0.914708042173054,-0.1386664,-0.04153884,0.08093964,302.2705,-102.19648,-10.8163395,STD
36284651031000,0.92001,-2.04928146416436,9.60293440260767,-0.947948752643224,-0.14508049,-0.049785517,0.07941248,302.30316,-102.15055,-10.789767,STD
36284655965000,0.924944,-2.06404953405385,9.59001651379165,-0.96816563318923,-0.14355333,-0.04428773,0.08368854,302.33878,-102.10999,-10.764187,STD
36284661078000,0.930057,-2.05254486359664,9.59922020210517,-0.970466567280673,-0.15821409,-0.04062254,0.079107046,302.37573,-102.07052,-10.742642,STD
36284665991000,0.93497,-2.04149020958602,9.60806387914102,-0.972677498082797,-0.16584991,-0.0421497,0.07880162,302.4157,-102.03974,-10.725304,STD
36284671025000,0.940004,-2.03016329562521,9.61712536299986,-0.974942880874959,-0.1695151,-0.035430185,0.08093964,302.451,-102.00924,-10.70883,STD
36284675995000,0.944974,-2.02147246388483,9.63005487919883,-0.979133091654496,-0.18906279,-0.03940081,0.07941248,302.48856,-101.97784,-10.694378,STD
36284681033000,0.950012,-2.02650562875026,9.66528724348007,-0.994232586250782,-0.19853121,-0.03176499,0.07941248,302.5198,-101.94741,-10.678929,STD
36284685996000,0.954975,-2.02819428746194,9.69590640326598,-1.00138727492389,-0.19914207,-0.022602014,0.080634214,302.54944,-101.91369,-10.660898,STD
36284691015000,0.959994,-2.01932521112649,9.71364446332688,-0.983649122252976,-0.2003638,-0.014660766,0.08674286,302.5763,-101.87858,-10.641855,STD
36284696055000,0.965034,-2.01074799782049,9.73041741014464,-0.962299267683773,-0.20616703,-0.005497787,0.094989546,302.5944,-101.845924,-10.623129,STD
36284701029000,0.970008,-2.00602885742025,9.73513664909848,-0.900950393203884,-0.2012801,0.004886922,0.09682214,302.60907,-101.81551,-10.604793,STD
36284706114000,0.975093,-1.99995356196542,9.73929318571429,-0.83796188255687,-0.2144137,0.00580322,0.10140363,302.6246,-101.77597,-10.581955,STD
36284711811000,0.98079,-1.97513143748863,9.73432865714286,-0.763495457288444,-0.22021692,0.008552114,0.1020145,302.63577,-101.73958,-10.560039,STD
36284715962000,0.984941,-1.95704531519563,9.73071135714286,-0.709237052638762,-0.22418754,0.012217305,0.112704635,302.6425,-101.694016,-10.5347395,STD
36284721023000,0.990002,-1.9598341564991,9.72387031474064,-0.682665400980373,-0.22388211,0.013439035,0.11453723,302.64813,-101.65158,-10.512313,STD
36284725973000,0.994952,-1.96695489953935,9.71674942299219,-0.663676735523733,-0.22449298,0.01985312,0.118507855,302.6508,-101.60647,-10.486604,STD
36284731032000,1.000011,-1.97423244277989,9.70947172776888,-0.644269935817645,-0.23151793,0.030848695,0.10934488,302.64523,-101.5551,-10.45955,STD
36284735961000,1.00494,-1.98132297660725,9.70238104586421,-0.62536182833567,-0.23457226,0.03359759,0.1160644,302.63998,-101.50042,-10.427583,STD
36284741013000,1.009992,-1.97042150662534,9.6933202545525,-0.642454948140256,-0.23884831,0.028099801,0.1133155,302.63287,-101.45091,-10.4014635,STD
36284745991000,1.01497,-1.95656835559861,9.68408510984115,-0.665543566937234,-0.24465153,0.021991149,0.11056661,302.62476,-101.40045,-10.374004,STD
36284751028000,1.020007,-1.95772880545474,9.69027215653189,-0.678496910909477,-0.23457226,0.021991149,0.11362094,302.61444,-101.35049,-10.347121,STD
36284755953000,1.024932,-1.96273419015176,9.70028261233153,-0.688507680303513,-0.23609942,0.01038471,0.11484267,302.60852,-101.30098,-10.3224535,STD
36284761010000,1.029989,-1.99936454128709,9.68643256379403,-0.678906814015687,-0.24953845,-0.0012217305,0.109650314,302.6029,-101.25417,-10.298535,STD
36284766010000,1.034989,-2.03902104248064,9.67010358245238,-0.667243127164223,-0.25411993,-0.014660766,0.105068825,302.6006,-101.20899,-10.274964,STD
36284771022000,1.040001,-2.07877271927705,9.65373541155551,-0.655551447464315,-0.26419923,-0.03573562,0.10781772,302.60394,-101.16351,-10.252342,STD
36284776009000,1.044988,-2.1183261135675,9.63744888556535,-0.643918086198665,-0.28771752,-0.04917465,0.10598512,302.60806,-101.119644,-10.232887,STD
36284781762000,1.050741,-2.14407345918488,9.641026253101,-0.625876523213231,-0.2947425,-0.052839845,0.10567969,302.6147,-101.07664,-10.212886,STD
36284786006000,1.054985,-2.16007816058279,9.64702793256546,-0.611872409490057,-0.3155119,-0.058337633,0.10903945,302.62485,-101.03038,-10.193073,STD
36284791016000,1.059995,-2.17897155219531,9.6541128557787,-0.5953406918291,-0.31673363,-0.06352998,0.10567969,302.63422,-101.00019,-10.188082,STD
36284796053000,1.065032,-2.1979667644812,9.66123596121284,-0.578719881078953,-0.35063666,-0.048563786,0.10323623,302.63846,-100.96425,-10.181546,STD
36284801028000,1.070007,-2.17628806352137,9.67948396029914,-0.561419631760687,-0.376293,-0.040927973,0.09896017,302.64532,-100.93159,-10.176728,STD
36284806039000,1.075018,-2.14084214362478,9.70163766023451,-0.54369667181239,-0.40775254,-0.03634648,0.09773844,302.64783,-100.89578,-10.171371,STD
36284811074000,1.080053,-2.10186576332833,9.71390523482737,-0.524208497447995,-0.43035457,-0.034208454,0.105068825,302.64755,-100.85976,-10.167674,STD
36284816047000,1.085026,-2.06101176313532,9.71901207816856,-0.503781524013511,-0.45814893,-0.022602014,0.10629055,302.64212,-100.823296,-10.165472,STD
36284821023000,1.090002,-2.01800446382039,9.71731572073979,-0.516853248118329,-0.4700608,-0.0106901415,0.118507855,302.6449,-100.77331,-10.152378,STD
36284826000000,1.094979,-1.97414751350755,9.71292993411851,-0.543167441203533,-0.4813618,-0.0106901415,0.13103059,302.642647693232,-100.746790582699,-10.144325505006,STD
36284831011000,1.09999,-1.92079362843607,9.72184025710635,-0.54723606426062,-0.4822781,0.010995574,0.13836098,302.64038,-100.72009,-10.136218,STD
36284836027000,1.105006,-1.85942375223038,9.74229675790482,-0.531893608559566,-0.48747048,0.02321288,0.1554652,302.6309,-100.659584,-10.1122265,STD
36284841008000,1.109987,-1.82360602336664,9.75221723856649,-0.493414439786703,-0.49541172,0.028405234,0.16401732,302.6191,-100.59181,-10.079115,STD
36284846097000,1.115076,-1.80019310292083,9.75689992044581,-0.441905965910838,-0.48747048,0.02443461,0.16493362,302.60556,-100.52471,-10.043827,STD
36284851354000,1.120333,-1.79664839807297,9.7414094453695,-0.430057756171188,-0.49357912,0.004886922,0.1740966,302.5906,-100.44797,-10.001028,STD
36284856024000,1.125003,-1.80501577992516,9.71630721244154,-0.442608842055192,-0.51007247,-0.004886922,0.17531833,302.57288,-100.37546,-9.960842,STD
36284861020000,1.129999,-1.82750005624838,9.69802688098318,-0.451202651552393,-0.5122105,-0.019547688,0.17959438,302.5599,-100.29434,-9.912455,STD
36284866029000,1.135008,-1.86721666996636,9.69058012445019,-0.45368493828978,-0.52290064,-0.014660766,0.18661933,302.54288,-100.21307,-9.863667,STD
36284871018000,1.139997,-1.90677470267529,9.68316310142303,-0.456157313720569,-0.5323691,-0.016493361,0.18295415,302.5372,-100.13458,-9.81513,STD
36284876017000,1.144996,-1.94641202588875,9.67573121164295,-0.458634644804657,-0.550695,-0.01740966,0.18387043,302.5286,-100.05446,-9.764271,STD
36284881102000,1.150081,-2.03154575947221,9.667110861697,-0.497934930733892,-0.5757405,-0.018020526,0.1777618,302.51892,-99.97915,-9.717481,STD
36284886021000,1.155,-2.14497231863623,9.6580365550419,-0.561453802918232,-0.5849035,-0.010079277,0.16035213,302.50555,-99.909515,-9.674545,STD
36284891018000,1.159997,-2.27412207747444,9.60962515734131,-0.642168055854717,-0.59742624,0.015882496,0.13927728,302.48975,-99.85377,-9.644615,STD
36284896062000,1.165041,-2.41858158544279,9.52108558605055,-0.74002775283716,-0.61819565,0.05222898,0.11301007,302.46713,-99.805824,-9.621399,STD
36284901073000,1.170052,-2.55999063153961,9.42769211539611,-0.85740336445142,-0.6432411,0.10903945,0.09407325,302.45837,-99.77317,-9.610553,SCH
36284906019000,1.174998,-2.69687555580468,9.32856855804684,-0.999008418918784,-0.66859204,0.16218472,0.062308256,302.43866,-99.75219,-9.61043,SCH
36284911004000,1.179983,-2.80985924895205,9.24387339218894,-1.13920335376751,-0.68630713,0.23793201,0.04184427,302.41757,-99.75359,-9.627886,SCH
36284916027000,1.185006,-2.88854949197424,9.17993734505674,-1.27691120202433,-0.7309003,0.31948254,0.018936822,302.37854,-99.76274,-9.653604,SCH
36284921082000,1.190061,-2.87315278998349,9.13991730866128,-1.28111404210755,-0.7657196,0.35705075,0.0076358155,302.34717,-99.80097,-9.703248,SCH
36284926003000,1.194982,-2.75442313769438,9.12763511510729,-1.13781966070715,-0.79168135,0.37293324,-0.0106901415,302.2986,-99.845116,-9.758869,SCH
36284930988000,1.199967,-2.6362848748274,9.12811372278279,-0.97509285409453,-0.8219192,0.39064834,-0.030543262,302.26144,-99.906525,-9.829615,SCH
36284936019000,1.204998,-2.52881811933085,9.19975804832714,-0.714102261412639,-0.86345804,0.36957347,-0.04734206,302.2313,-99.96927,-9.902256,SCH
36284941002000,1.209981,-2.44054499147615,9.24748921112052,-0.43407831978267,-0.88178396,0.33933565,-0.067500606,302.18158,-100.012276,-9.957552,SCH
36284946016000,1.214995,-2.3998862112146,9.23393645733371,-0.095254507813529,-0.9071349,0.31856623,-0.08124508,302.13544,-100.05618,-10.013525,SCH
36284951024000,1.220003,-2.34561416840167,9.25508758524765,0.20642905369875,-0.91904676,0.29016098,-0.096516706,302.0872,-100.08577,-10.05754,SCH
36284956017000,1.224996,-2.21584040220994,9.46828728176796,0.303759378342541,-0.93034774,0.21013765,-0.13836098,302.05948,-100.12755,-10.111113,SCH
36284961060000,1.230039,-2.09175281631056,9.6750619533554,0.381049125931387,-0.9642508,0.12797627,-0.14721853,302.01883,-100.15168,-10.146374,SCH
36284966025000,1.235004,-2.03451671068312,9.79907339933795,0.261807362058381,-0.97097033,0.09468412,-0.116980694,301.98608,-100.18029,-10.179901,SCH
36284971020000,1.239999,-1.97966389794508,9.9106994290607,0.153660768282489,-0.9636399,0.0983493,-0.07941248,301.9501,-79.81063,-10.187901,SCH
36284976003000,1.244982,-1.95091070482337,9.89707953456587,0.158200746809158,-0.93034774,0.11362094,-0.043676864,301.9185,-79.80492,-10.186278,SCH
36284981238000,1.250217,-1.9207034068117,9.88277085552102,0.162970320878417,-0.8912524,0.16798794,0.0027488936,301.87833,-79.80963,-10.16967,SCH
36284986020000,1.254999,-1.89311003544745,9.86970034870299,0.167327169627069,-0.8570439,0.18112154,0.024740042,301.84396,-79.814285,-10.14918,SCH
36284991039000,1.260018,-1.86414911305575,9.8559820564153,0.171899947516966,-0.84299403,0.20952678,0.069027774,301.78775,-79.835434,-10.109096,SCH
36284996061000,1.26504,-1.83517087989155,9.84225556431154,0.176475458687131,-0.8549059,0.22724187,0.10293079,301.72958,-79.856606,-10.06583,SCH
36285000963000,1.269942,-1.80688507762732,9.82885706485064,0.18094163864654,-0.8695667,0.2452624,0.13041973,301.66183,-79.88535,-10.012394,SCH
36285006038000,1.275017,-1.78216515870215,9.78560001677755,0.287951524503905,-0.9242391,0.25381452,0.1600467,301.6076,-79.916885,-9.94936,SCH
36285011059000,1.280038,-1.75898262412496,9.73459845039051,0.42241004107897,-0.97035944,0.2312125,0.18784106,301.55566,-79.950745,-9.87989,SCH
36285016075000,1.285054,-1.71457232295294,9.67902259287633,0.438968580522336,-1.0079277,0.21227567,0.2049453,301.4939,-79.99151,-9.796191,SCH
36285021041000,1.29002,-1.66252349463735,9.62224190916327,0.410578312777833,-1.040609,0.2012801,0.21471913,301.4345,-80.02962,-9.708201,SCH
36285026058000,1.295037,-1.62886600015083,9.55050290045249,0.383881172488688,-1.067487,0.20525073,0.22571471,301.37497,-80.05924,-9.614027,SCH
36285030966000,1.299945,-1.60354660002155,9.47454470006464,0.358561761784098,-1.0864239,0.21197024,0.21746802,301.3156,-80.0768,-9.5242605,SCH
36285036892000,1.305871,-1.61379528751849,9.40401095208518,0.412216240289855,-1.10139,0.20647246,0.21655174,301.2652,-80.08606,-9.432973,SCH
36285040990000,1.309969,-1.62540301493641,9.35758028482697,0.458647174202899,-1.1160508,0.20922135,0.20861048,301.2083,-80.082146,-9.34782,SCH
36285046121000,1.3151,-1.64372673973471,9.26861559680094,0.484933127010631,-1.1285735,0.23609942,0.19394971,301.15375,-80.06279,-9.270238,SCH
36285051055000,1.320034,-1.66216117045743,9.17644320257486,0.503367519235346,-1.1239921,0.26908615,0.1704314,301.09454,-80.032845,-9.198938,SCH
36285056058000,1.325037,-1.69613202280333,9.10333373780182,0.559664103218114,-1.1291844,0.3268129,0.14172074,301.01526,-79.985,-9.13637,SCH
36285061045000,1.330024,-1.73441235671776,9.03634325338142,0.62665471754734,-1.1246029,0.36254853,0.12308934,300.93137,-79.93023,-9.078661,SCH
36285066071000,1.33505,-1.66536049499556,9.0730974594808,0.715568272431152,-1.1307116,0.39858958,0.11026118,300.8313,-79.85177,-9.038113,SCH
36285071057000,1.340036,-1.56638226769322,9.13908284591847,0.809833349244892,-1.1246029,0.43585235,0.12217305,300.71942,-79.77384,-8.996606,SCH
36285076065000,1.345044,-1.44807887002096,9.20592764640112,1.07125718169112,-1.1099422,0.44318274,0.15057829,300.6109,-79.6789,-8.961672,SCH
36285081066000,1.350045,-1.32376680083857,9.27286476080663,1.38681853431167,-1.1044444,0.4364632,0.16707164,300.495,-79.58121,-8.926889,SCH
36285086066000,1.355045,-1.22552376644666,9.35330289951729,1.64247565207369,-1.0983357,0.37110063,0.18967366,300.38132,-79.495346,-8.865378,SCH
36285091092000,1.360071,-1.13543136723476,9.43865379676879,1.8795608506157,-1.0821478,0.29077184,0.21410827,300.2727,-79.41287,-8.798353,SCH
36285096162000,1.365141,-1.06110559030704,9.49390213666466,1.94764922661048,-1.0809261,0.20891592,0.2180789,300.1539,-79.314964,-8.704975,SCH
36285101097000,1.370076,-0.994713697320891,9.53658300361228,1.95239150114389,-1.0781772,0.13927728,0.22602014,300.05215,-79.22043,-8.602947,SCH
36285106900000,1.375879,-0.866382924033314,9.67552079298037,1.80923216821337,-1.0772609,0.083383106,0.25228736,299.95724,-79.09376,-8.489347,SCH
36285111013000,1.379992,-0.764843695300416,9.79268134741225,1.676450084186,-1.0574077,0.067500606,0.27122417,299.86798,-78.96417,-8.376357,SCH
36285116030000,1.385009,-0.734517419440864,9.88548172142361,1.62471704027957,-1.0589349,0.06261369,0.32834008,299.7833,-78.84302,-8.237214,SCH
36285121019000,1.389998,-0.743990732655894,9.95653132323783,1.61998038367205,-1.0372492,0.04184427,0.3652974,299.7047,-78.72298,-8.099748,SCH
36285126000000,1.394979,-0.788283995231129,9.9536213517164,1.65342061645212,-1.0213667,0.004886922,0.3827071,299.64606,-78.62447,-7.942751,SCH
36285131020000,1.399999,-0.849234109332943,9.91611357036279,1.70499379745465,-1.0082331,0.004886922,0.38698313,299.57886,-78.52802,-7.7834215,SCH
36285136021000,1.405,-0.886368916468857,9.86968303580186,1.74763243256498,-0.99112886,0.013439035,0.39370266,299.52023,-78.42743,-7.6270146,SCH
36285141011000,1.40999,-0.909806033634134,9.81812133398725,1.78513182981854,-0.9651671,0.04153884,0.39828414,299.45306,-78.326836,-7.4746385,SCH
36285146092000,1.415071,-0.891065232841329,9.77725729306662,1.83440954876675,-0.93645644,0.05955936,0.40194935,299.39572,-78.211044,-7.33011,SCH
36285151056000,1.420035,-0.844901635608856,9.74494284851428,1.8898058461643,-0.92057395,0.10262536,0.3912592,299.321,-78.09283,-7.194174,SCH
36285156022000,1.425001,-0.79871943902214,9.71261538444358,1.94522446277918,-0.90408057,0.13775012,0.37690386,299.24377,-77.96467,-7.067932,SCH
36285161024000,1.430003,-0.752202454059041,9.68005356904253,2.00104482530588,-0.88606006,0.15393804,0.37507126,299.1576,-77.83865,-6.945177,SCH
36285166023000,1.435002,-0.706422250109661,9.69155146610966,2.11118430510705,-0.8790351,0.12797627,0.38515055,299.0719,-77.71177,-6.8253145,SCH
36285171019000,1.439998,-0.661449745169713,9.75151494516971,2.2810804464752,-0.8918633,0.089186326,0.40408736,298.98358,-77.58406,-6.706053,SCH
36285176270000,1.445249,-0.64887767949213,9.78659802747253,2.32552157935848,-0.91721416,0.07727446,0.4089743,298.89783,-77.427925,-6.5804486,SCH
36285181032000,1.450011,-0.660164882947233,9.80014269047619,2.27811537670528,-0.95081174,0.08552113,0.41172317,298.81433,-77.26771,-6.4520545,SCH
36285186021000,1.455,-0.671990136630037,9.81433301465201,2.22844936556777,-0.956615,0.10995574,0.4251622,298.71295,-77.091446,-6.3127766,SCH
36285191003000,1.459982,-0.683798798455599,9.82850342857143,2.17885304015444,-0.96974856,0.14294247,0.42271876,298.6054,-76.90212,-6.181253,SCH
36285196095000,1.465074,-0.735027793115395,9.81263216531936,2.16388113387226,-0.9602802,0.14049901,0.44623706,298.5018,-76.71742,-6.042419,SCH
36285201099000,1.470078,-0.820170072976814,9.77006104761482,2.18090958095407,-0.9257663,0.1020145,0.4578435,298.39813,-76.53363,-5.910193,SCH
36285206021000,1.475,-0.920830368251599,9.71356051812367,2.20954291242004,-0.8885035,0.06841691,0.4437936,298.30157,-76.36668,-5.786793,SCH
36285211005000,1.479984,-1.06839895690832,9.61687729424307,2.27060567958422,-0.8735373,0.03940081,0.42210788,298.21277,-76.20345,-5.663258,SCH
36285216013000,1.484992,-1.21233281518444,9.52196032032218,2.34727238740825,-0.86070913,0.02076942,0.41172317,298.14554,-76.0313,-5.5552998,SCH
36285221019000,1.489998,-1.349426069002,9.43056515179678,2.44780743066438,-0.84788096,-0.0018325958,0.3998113,298.08716,-75.86189,-5.454076,SCH
36285225985000,1.494964,-1.47387733984691,9.35295861949819,2.56548657080587,-0.82253003,-0.016798794,0.38545597,298.04694,-75.67604,-5.371956,SCH
36285231017000,1.499996,-1.571221449394,9.30684755634701,2.72943470527323,-0.8197812,-0.032986723,0.376293,298.01154,-75.48978,-5.2917995,SCH
36285235964000,1.504943,-1.61853245089109,9.27230532049505,2.88040102450495,-0.8219192,-0.065973446,0.39492437,297.97687,-75.29255,-5.221035,SCH
36285241009000,1.509988,-1.59461415584158,9.25317078435644,3.01912728564356,-0.8313876,-0.100792766,0.39736784,297.9468,-75.09516,-5.1570406,SCH
36285246334000,1.515313,-1.51275987897791,9.30086005466118,3.1478276615687,-0.83260936,-0.106595986,0.39278635,297.9199,-74.87268,-5.0944786,SCH
36285251027000,1.520006,-1.37394011317858,9.42285345638338,3.24037420138525,-0.8350528,-0.1142318,0.3830125,297.90057,-74.65154,-5.0311956,SCH
36285256012000,1.524991,-1.25206196072313,9.52296903744428,3.32202887749381,-0.84604836,-0.118202426,0.39675698,297.87085,-74.413445,-4.953522,SCH
36285261002000,1.529981,-1.20472344462605,9.53717088885587,3.35516583876176,-0.8564331,-0.12186762,0.40286562,297.8415,-74.17789,-4.881254,SCH
36285266028000,1.535007,-1.14108001995227,9.55244344945107,3.38497936084964,-0.8750645,-0.13744467,0.3924809,297.8138,-73.9297,-4.785127,SCH
36285271025000,1.540004,-1.02686684675418,9.57071744267303,3.40325340177566,-0.88178396,-0.13439035,0.38881573,297.77798,-73.68751,-4.688543,SCH
36285276012000,1.544991,-0.926918720713136,9.57622635003017,3.43246354743512,-0.8940013,-0.12767084,0.3839288,297.74863,-73.43579,-4.586292,SCH
36285281019000,1.549998,-0.91244949291893,9.50388018587809,3.5289252003621,-0.9068295,-0.105374254,0.3820962,297.711,-73.186714,-4.487769,SCH
36285286013000,1.554992,-0.89530002017336,9.42305261427333,3.60272501537128,-0.93187493,-0.082161374,0.39950588,297.66177,-72.93522,-4.374091,SCH
36285291018000,1.559997,-0.862985324199172,9.29379365684292,3.55194472788212,-0.945314,-0.08857546,0.42088616,297.61157,-72.687935,-4.261511,SCH
36285296127000,1.565106,-0.831704000571906,9.15142255395533,3.50314027017324,-0.94959,-0.103847094,0.43310347,297.56064,-72.418755,-4.1398726,SCH
36285301050000,1.570029,-0.816942994923815,8.92016691525778,3.4834589567105,-0.9599747,-0.1255328,0.44532076,297.50827,-72.15031,-4.0139284,SCH
36285306008000,1.574987,-0.789584844618674,8.70960413542409,3.48302245801853,-0.9419542,-0.1441642,0.44623706,297.45612,-71.89474,-3.8870754,SCH
36285311007000,1.579986,-0.695746826952958,8.6157664384355,3.585391235335,-0.9401216,-0.16737708,0.45937067,297.40582,-71.63764,-3.7541552,SCH
36285316053000,1.585032,-0.601026555470421,8.52104649064505,3.68872247165004,-0.9401216,-0.19303341,0.4343252,297.37802,-71.37242,-3.6229086,SCH
36285321020000,1.589999,-0.691657376316293,8.28069752981188,3.81318948906366,-0.9462303,-0.21166481,0.44501534,297.3465,-71.113106,-3.4800594,SCH
36285326214000,1.595193,-0.787879704095457,8.02689644236542,3.9350183108265,-0.95630956,-0.2134974,0.45142943,297.31622,-70.85554,-3.3473902,SCH
36285331017000,1.599996,-0.695829670836502,7.92103887984791,3.92121081520913,-0.97402465,-0.21502456,0.42394048,297.2842,-70.569786,-3.203352,SCH
36285336206000,1.605185,-0.59618846762902,7.81792456679132,3.91188743350785,-0.9923506,-0.17348573,0.43371433,297.2248,-70.25739,-3.0575678,SCH
36285341016000,1.609995,-0.50144110921466,7.86099151518325,3.97218116125654,-0.9798279,-0.20830505,0.4550946,297.1835,-69.95334,-2.911528,SCH
36285346137000,1.615116,-0.400567674195961,7.90684304173523,4.03637329842932,-0.9560041,-0.2742785,0.44959682,297.14258,-69.64031,-2.7624161,SCH
36285351107000,1.620086,-0.31261621110682,8.00826027710133,3.9969497285903,-0.9434814,-0.27672195,0.45540005,297.08633,-69.33426,-2.6104505,SCH
36285355995000,1.624974,-0.226976836511841,8.11293054489277,3.94937233413965,-0.9755518,-0.26939157,0.45234573,297.0422,-69.02689,-2.460172,SCH
36285361095000,1.630074,-0.0738543439511344,8.190959593817,3.97492679746198,-0.9914343,-0.24098633,0.43371433,296.99066,-68.7188,-2.3027813,SCH
36285366034000,1.635013,0.079448578600349,8.264073540364,4.00558733616554,-0.97310835,-0.23304509,0.39828414,296.94046,-68.41626,-2.152983,SCH
36285371020000,1.639999,0.234210346537522,8.33788324627275,4.03653964351035,-0.9627236,-0.2321288,0.42455134,296.88138,-68.12698,-1.9891922,SCH
36285375986000,1.644965,0.388351329204188,8.41139688436799,4.06736779398654,-0.9624182,-0.2678644,0.44257188,296.83102,-67.84414,-1.8372872,SCH
36285381034000,1.650013,0.376570632562834,8.40946207821446,4.10434962812227,-0.9569204,-0.26236662,0.43799037,296.79083,-67.567184,-1.6757218,SCH
36285385963000,1.654942,0.349086452032994,8.4003004997574,4.14099512882096,-0.981355,-0.23060162,0.4288274,296.74777,-67.287155,-1.5138398,SCH
36285391009000,1.659988,0.380940636645047,8.35866450088443,4.21106937887186,-0.9975429,-0.21197024,0.42913285,296.6966,-67.00912,-1.3165289,SCH
36285396030000,1.665009,0.423468773089623,8.31141055542453,4.28667519819182,-1.0005972,-0.20555615,0.43799037,296.63678,-66.73258,-1.1265312,SCH
36285401048000,1.670027,0.429009481982691,8.31477215204563,4.22211359799371,-0.99265605,-0.21135938,0.44776422,296.5779,-66.44706,-0.9433531,SCH
36285405954000,1.674933,0.426699107238395,8.32863469000787,4.12969851172305,-0.9761627,-0.22388211,0.46639562,296.51382,-66.16858,-0.7600737,SCH
36285410999000,1.679978,0.424323273446105,8.34288999046027,4.03466506079858,-0.947452,-0.22113322,0.48533243,296.4323,-65.88436,-0.5730043,SCH
36285416055000,1.685034,0.421942259441385,8.35717637283635,3.9394244011605,-0.90408057,-0.1853976,0.5006041,296.34067,-65.614174,-0.38930666,SCH
36285421019000,1.689998,0.424762662358234,8.41130043537351,3.9372129741494,-0.8677341,-0.16737708,0.5128214,296.24832,-65.35493,-0.20465681,SCH
36285426007000,1.694986,0.42924003403318,8.4784610104977,3.96407720419908,-0.8454375,-0.16768251,0.5323691,296.14642,-65.10825,-0.020939652,SCH
36285431671000,1.70065,0.464127859388655,8.51894783146989,4.00386053991179,-0.8359691,-0.14446963,0.5311473,296.08432,-64.89131,0.15912995,SCH
36285436026000,1.705005,0.502630562250487,8.53606004656888,4.03808505945225,-0.84574294,-0.10598512,0.52595496,296.01392,-64.67847,0.3362282,SCH
36285441009000,1.709988,0.536472759776525,8.55861633299778,4.07353509982887,-0.8903361,-0.04886922,0.51251596,295.94318,-64.45703,0.5054251,SCH
36285446050000,1.715029,0.565631225174149,8.58291502879001,4.10755332468291,-0.94042706,0.005497787,0.5036584,295.86115,-64.234695,0.6652515,SCH
36285451030000,1.720009,0.594014875393103,8.57745842403941,4.14713656675862,-0.9728029,0.055283304,0.50640726,295.76428,-64.00101,0.821488,SCH
36285456027000,1.725006,0.622303719482759,8.55859930295567,4.18957005689655,-0.9923506,0.09590584,0.50579643,295.6557,-63.761093,0.9648422,SCH
36285460993000,1.729972,0.67578092400161,8.52398870516045,4.25105230080475,-0.99387777,0.12675454,0.49754974,295.5331,-63.517418,1.1017072,SCH
36285466003000,1.734982,0.743351299486973,8.48055073010763,4.32344904348657,-0.9941832,0.13652839,0.4868596,295.40494,-63.273186,1.231754,SCH
36285470981000,1.73996,0.803290712820327,8.43160911288566,4.34215553520871,-0.9877691,0.1414153,0.47708577,295.26425,-63.025883,1.3575946,SCH
36285476006000,1.744985,0.860060700479129,8.3792059323049,4.33342174777677,-0.99021256,0.10262536,0.46211955,295.1337,-62.78086,1.4806544,SCH
36285480987000,1.749966,1.18474341281638,8.43635996972337,4.37140871056415,-0.98715824,0.14782938,0.45112398,294.9965,-62.513664,1.6075643,SCH
36285485996000,1.754975,1.83256604573513,8.62443750021782,4.46544731215421,-1.0070114,0.16279559,0.48716503,294.8713,-62.24398,1.7480108,SCH
36285490985000,1.759964,1.8494283643841,8.48459732841146,4.36620186691111,-1.0097603,0.059864793,0.5235115,294.76093,-61.98025,1.8997878,SCH
36285496001000,1.76498,1.47811671511248,8.14184760132792,4.14722321979982,-1.0268645,0.089491755,0.4792238,294.61816,-61.71286,2.0171359,SCH
36285501905000,1.770884,1.10858279104343,7.85152673908323,4.03415663586651,-1.0622946,0.15943582,0.43371433,294.48434,-61.416874,2.2140615,SCH
36285505936000,1.774915,0.879627947587455,7.69242282870929,4.00699252593486,-1.1023064,0.21319197,0.42180246,294.34778,-61.120228,2.4011981,SCH
36285510955000,1.779934,0.763255393469143,7.50088632462552,3.98486108040743,-1.1157454,0.23609942,0.41508293,294.2218,-60.843597,2.5328155,SCH
36285515979000,1.784958,0.758450735670062,7.3135044697823,3.97044710701019,-1.1386528,0.25625798,0.44409904,294.07864,-60.55792,2.6601274,SCH
36285520944000,1.789923,0.776252579874547,7.12195670900715,4.17008316828384,-1.1496484,0.24648413,0.4978552,293.93988,-60.271526,2.7652898,SCH
36285525948000,1.794927,0.809130797128296,6.9246873858669,4.51295599274723,-1.1661417,0.17012598,0.52290064,293.81174,-59.982925,2.875,SCH
36285530949000,1.799928,0.449794715056489,7.19848815364967,4.7033920120837,-1.1722504,0.15882497,0.4370741,293.66986,-59.684185,2.959944,SCH
36285535952000,1.804931,-0.218602231566952,7.84334973789174,4.77399727350427,-1.2064588,0.1966986,0.31795537,293.5349,-59.37916,3.043816,SCH
36285540930000,1.809909,-0.461512353584301,8.36176382218662,4.87237400040048,-1.2281445,0.19120082,0.30573806,293.36948,-59.002552,3.1496558,SCH
36285545967000,1.814946,-0.316623346124349,8.77228285232279,4.99794447386864,-1.2043208,0.12064589,0.34330627,293.2194,-58.639503,3.241169,SCH
36285550976000,1.819955,-0.107719615207136,8.90586651754212,5.08178216069376,-1.1591167,0.03023783,0.41905355,293.1215,-58.355938,3.2573953,SCH
36285555976000,1.824955,0.158039140987116,8.79671587333994,5.12923919736373,-1.1429288,-0.039095376,0.46883908,293.03302,-58.07778,3.284567,SCH
36285560967000,1.829946,0.347417650922292,8.58732990708399,5.11144508708791,-1.1148291,-0.08399397,0.5036584,292.97083,-57.828007,3.3468254,SCH
36285565986000,1.834965,0.465318944466248,8.28078630749607,5.03127207747253,-1.1145236,-0.07788532,0.5009095,292.90973,-57.580944,3.4132025,SCH
36285570948000,1.839927,0.52018005613116,8.04478145440435,4.97424619088087,-1.1221595,-0.05467244,0.5012149,292.8341,-57.318325,3.528039,SCH
36285575986000,1.844965,0.506138146245634,7.88095945750873,4.94148179150175,-1.1432343,-0.029321533,0.4978552,292.7557,-57.058258,3.6368215,SCH
36285580972000,1.849951,0.522101925216994,7.80201597089135,4.90238873638581,-1.1777482,-0.006414085,0.50335294,292.65396,-56.775555,3.7586517,SCH
36285586011000,1.85499,0.580958556572822,7.84125369439984,4.8533415820002,-1.2034045,-0.0021380284,0.52412236,292.54715,-56.495102,3.879126,SCH
36285590957000,1.859936,0.648297755212902,7.83133891725833,4.84544241137772,-1.2244794,-0.0067195175,0.5384777,292.4389,-56.19093,3.99215,SCH
36285596046000,1.865025,0.729772680243879,7.75944934817583,4.88857620287147,-1.246776,-0.007330383,0.54183745,292.3255,-55.885586,4.10331,SCH
36285600932000,1.869911,0.781380184270431,7.66986357344536,4.96194483640272,-1.2507466,-0.023518313,0.54183745,292.22784,-55.59059,4.225679,SCH
36285606024000,1.875003,0.795673105651898,7.54599151351668,5.08581692120561,-1.2556335,-0.029932396,0.52656585,292.12817,-55.29621,4.340583,SCH
36285610991000,1.87997,0.809615159953104,7.42516030344878,5.2066481555371,-1.2641857,-0.041233405,0.5204572,292.02618,-54.98418,4.4681773,SCH
36285616058000,1.885037,0.823837907918519,7.30189641349226,5.32991207024571,-1.2886202,-0.047036625,0.52320606,291.92355,-54.673508,4.5910916,SCH
36285620957000,1.889936,0.837143447738649,7.1733774719856,5.42145927215245,-1.3213016,-0.04520403,0.5195409,291.82205,-54.365517,4.7084255,SCH
36285626023000,1.895002,0.849925410187055,7.0199937446474,5.45554432739088,-1.3515394,-0.03970624,0.52290064,291.71765,-54.05786,4.8251915,SCH
36285631174000,1.900153,0.86948769195175,6.86592092072375,5.49811514138818,-1.3487904,-0.010079277,0.5216789,291.58148,-53.680412,4.943086,SCH
36285636063000,1.905042,0.962074253332015,6.74092900001978,5.62773648200514,-1.3158038,0.005192355,0.5198463,291.44482,-53.31171,5.0599103,SCH
36285641288000,1.910267,1.06096963653436,6.61593833627828,5.76056589116517,-1.282817,0.0030543262,0.5174029,291.29587,-52.921837,5.1785355,SCH
36285646157000,1.915136,1.15251701924883,6.59603674037559,5.82027067887324,-1.255328,-0.023518313,0.5296202,291.14496,-52.54785,5.298829,SCH
36285651055000,1.920034,1.24460966261204,6.57601660960307,5.88033107119078,-1.2357804,-0.069027774,0.54367006,290.98257,-52.145294,5.4348226,SCH
36285656062000,1.925041,1.31250095326373,6.58584997479754,5.84113457072885,-1.2238685,-0.10354166,0.5552765,290.82007,-51.75658,5.572404,SCH
36285661032000,1.930011,1.36822939984389,6.60907014066738,5.75754197359742,-1.2232577,-0.106901415,0.5681047,290.65613,-51.377796,5.712274,SCH
36285666069000,1.935048,1.36674036488984,6.63008582623617,5.66124056401665,-1.2293663,-0.11301007,0.57879484,290.49542,-50.98744,5.875047,SCH
36285671049000,1.940028,1.33284380199005,6.64945554356787,5.55955067306326,-1.2174544,-0.11209377,0.5888741,290.32956,-50.609997,6.035468,SCH
36285676090000,1.945069,1.27014351988704,6.68804090408244,5.53546543838684,-1.2217305,-0.10354166,0.6102544,290.17706,-50.23495,6.1961627,SCH
36285681067000,1.950046,1.19457671099881,6.7352701288149,5.54963430443916,-1.2302825,-0.09132435,0.6072,290.0241,-49.870663,6.3483934,SCH
36285686058000,1.955037,1.08772618214959,6.77956424799127,5.6413957044936,-1.2428054,-0.09621128,0.61117065,289.89487,-49.516365,6.5038705,SCH
36285691066000,1.960045,0.964030395382403,6.82238187798829,5.77460651738915,-1.2516629,-0.111177474,0.6105598,289.76443,-49.168747,6.6531005,SCH
36285696109000,1.965088,0.832217112287752,6.82538916658294,5.93786954041997,-1.2788464,-0.1459968,0.6026186,289.6474,-48.81801,6.7862906,SCH
36285701140000,1.970119,0.69667351567869,6.80602590756556,6.11698082365116,-1.3228287,-0.18325958,0.5864306,289.53387,-48.468376,6.9172497,SCH
36285706044000,1.975023,0.568116868315992,6.72829916735067,6.22749772637765,-1.3631458,-0.22602014,0.5757405,289.43164,-48.104347,7.0428867,SCH
36285711057000,1.980036,0.438614059229287,6.61729661743738,6.30612426493256,-1.4010195,-0.24923302,0.550695,289.33667,-47.739044,7.1619544,SCH
36285716070000,1.985049,0.428132378243028,6.56559294298307,6.32209511484064,-1.4428637,-0.24312437,0.5354234,289.22568,-47.347065,7.2656584,SCH
36285721033000,1.990012,0.506243927960159,6.55849192311753,6.29132402051793,-1.4798211,-0.22052236,0.5109888,289.12036,-46.95738,7.360509,SCH
36285726041000,1.99502,0.58506372263745,6.55132651761952,6.26027392171315,-1.498147,-0.21777347,0.5009095,289.01505,-46.536995,7.4455853,SCH
36285731058000,2.000037,0.664025166306773,6.54414823499502,6.22916802201195,-1.5125023,-0.23823744,0.51007247,288.90833,-46.11845,7.5279284,SCH
36285736061000,2.00504,0.768791881769572,6.48467495419693,6.17514495421711,-1.5097535,-0.2507602,0.50854534,288.81418,-45.701748,7.6047263,SCH
36285741029000,2.010008,0.893591805861582,6.3838749759887,6.10314469053672,-1.509448,-0.25045475,0.50732356,288.71716,-45.290703,7.683111,SCH
36285746008000,2.014987,0.974384890772763,6.31882125519734,6.07432337251856,-1.496009,-0.26511553,0.48472157,288.63895,-44.892757,7.7805953,SCH
36285751039000,2.020018,1.02145499263384,6.28116533098867,6.0790303261821,-1.4785993,-0.2669481,0.47769663,288.5525,-44.50557,7.8759,SCH
36285756028000,2.025007,1.06068651893983,6.29926288693171,6.1269115590443,-1.4856243,-0.26297748,0.4700608,288.4807,-44.108395,7.985023,SCH
36285761010000,2.029989,1.09299270226349,6.36849037443413,6.21460006006965,-1.4905112,-0.27183503,0.46792278,288.4094,-43.7268,8.093899,SCH
36285766023000,2.035002,1.12175398852542,6.4198969662305,6.22419191071968,-1.5070046,-0.27305678,0.47128254,288.33206,-43.338898,8.201645,SCH
36285771024000,2.040003,1.14585744942124,6.44882111930549,6.13741925014595,-1.5180001,-0.25778514,0.47342056,288.25125,-42.96115,8.304228,SCH
36285776001000,2.04498,1.13941937966866,6.46003914018234,6.09515435981766,-1.5204436,-0.2510656,0.48624873,288.17783,-42.57861,8.41357,SCH
36285781027000,2.050006,1.09695325172042,6.45060227213018,6.10459122786982,-1.5372424,-0.24556783,0.48716503,288.10114,-42.19947,8.515216,SCH
36285785976000,2.054955,1.05887746676902,6.41185904854398,6.23940896359945,-1.5531249,-0.26633725,0.4841107,288.04877,-41.834064,8.626489,SCH
36285791581000,2.06056,1.02166012242472,6.32147414873217,6.59031521830428,-1.5589281,-0.29229903,0.4868596,287.9923,-41.475952,8.736113,SCH
36285796007000,2.064986,1.02729021873466,6.24979697463645,6.81086941612842,-1.5723672,-0.3191771,0.47403142,287.9436,-41.116127,8.838038,SCH
36285801039000,2.070018,1.08189701707271,6.16788665833806,6.98379079372993,-1.5925257,-0.3323107,0.47311515,287.89148,-40.76137,8.9425,SCH
36285805975000,2.074954,1.15295811771772,6.075125495905,7.12523294217854,-1.5781704,-0.3491095,0.47647488,287.80658,-40.37166,9.044154,SCH
36285811015000,2.079994,1.27155047807808,5.94774861138411,7.19551005274365,-1.5827519,-0.36713,0.4801401,287.7221,-39.981445,9.146139,SCH
36285816011000,2.08499,1.3929392336933,5.82049915896328,7.27141641166307,-1.5803084,-0.3930918,0.49754974,287.6335,-39.55409,9.268457,SCH
36285821022000,2.090001,1.55581590567726,5.68230069564949,7.41455042394323,-1.591304,-0.4034765,0.5015204,287.54477,-39.13354,9.386251,SCH
36285826063000,2.095042,1.70393673010381,5.54201980166904,7.52663140846733,-1.5958854,-0.4083634,0.50732356,287.4416,-38.68246,9.525416,SCH
36285831004000,2.099983,1.76172505899654,5.39754915543456,7.45921164952168,-1.6190983,-0.37751472,0.49510628,287.33405,-38.23566,9.652446,SCH
36285836023000,2.105002,1.83820385871997,5.30252090649742,7.42857186709464,-1.6126842,-0.34605515,0.4813618,287.20313,-37.762867,9.799256,SCH
36285841014000,2.109993,1.99627476587881,5.44664419933859,7.57269549975683,-1.5995506,-0.32345316,0.45875978,287.0705,-37.299137,9.933181,SCH
36285846020000,2.114999,2.13734587098175,5.5794276724815,7.67513014671929,-1.5894713,-0.33353242,0.45631635,286.9297,-36.82589,10.072706,SCH
36285851032000,2.120011,2.15155374121362,5.62678753663542,7.4714837100148,-1.5992452,-0.3436117,0.46517387,286.78528,-36.363377,10.201535,SCH
36285856011000,2.12499,2.16250171447755,5.65313114801511,7.29760477247167,-1.6187929,-0.30970868,0.4633413,286.65747,-35.909748,10.343545,SCH
36285861663000,2.130642,2.13978745782627,5.45324545230382,7.41571900193034,-1.6129897,-0.2501493,0.45478916,286.52472,-35.471844,10.477893,SCH
36285865993000,2.134972,2.12238605455308,5.30011292179606,7.5062063716324,-1.5897768,-0.22082779,0.4456262,286.42715,-35.064045,10.613623,SCH
36285871026000,2.140005,2.10668038288831,5.22523759340607,7.64141665221552,-1.5848899,-0.20250183,0.42730024,286.32404,-34.66406,10.731698,SCH
36285876000000,2.144979,2.09300395360322,5.19332592507417,7.78729875500048,-1.5641204,-0.19272798,0.41630468,286.21664,-34.28484,10.841504,SCH
36285880992000,2.149971,2.13162341547619,5.16538125109481,7.94996922927296,-1.5919148,-0.16249016,0.4156938,286.06427,-33.85928,10.934142,SCH
36285886039000,2.155018,2.20354917380952,5.13969310474065,8.12464596364796,-1.5992452,-0.14110987,0.40469822,285.9161,-33.45673,11.020378,SCH
36285891002000,2.159981,2.17801508889314,5.07925535342191,8.20945035299178,-1.5781704,-0.17195857,0.4016439,285.74857,-33.045197,11.104988,SCH
36285896103000,2.165082,2.11731289634869,5.0045451088702,8.26548285356528,-1.5265522,-0.20311269,0.41691554,285.57526,-32.650063,11.183855,SCH
36285901049000,2.170028,2.10628378465947,4.89628494531474,8.21522090906486,-1.5021176,-0.2012801,0.4147775,285.43185,-32.208588,11.266701,SCH
36285906022000,2.175001,2.11993134213392,4.76890769471774,8.11058982510268,-1.475545,-0.23518312,0.44837508,285.2864,-31.78944,11.371005,SCH
36285910998000,2.179977,2.11491510311243,4.6672445543087,8.07202310173618,-1.4413365,-0.23457226,0.43554693,285.12888,-31.377518,11.446966,SCH
36285916066000,2.185045,2.09436239407156,4.58503361084057,8.08743768716917,-1.4227052,-0.23273966,0.40530908,284.9722,-30.97778,11.530805,SCH
36285921039000,2.190018,2.08139109165095,4.51091368490023,8.17816516569046,-1.4208726,-0.2742785,0.40622538,284.81195,-30.578419,11.632139,SCH
36285926024000,2.195003,2.07191211885238,4.43982213124193,8.30613040767398,-1.4080443,-0.29565877,0.4025602,284.6565,-30.198954,11.7205,SCH
36285930983000,2.199962,2.07773796835845,4.34477559746233,8.33877880570975,-1.4269812,-0.32467487,0.39645153,284.5339,-29.777002,11.821194,SCH
36285936029000,2.205008,2.09210896435369,4.23459872846947,8.3196172109437,-1.4312572,-0.34513888,0.38453966,284.41492,-29.373104,11.921029,SCH
36285941042000,2.210021,2.13909053295488,4.14988812776745,8.24404626470588,-1.4566082,-0.36926803,0.3820962,284.2901,-28.934698,12.022298,SCH
36285946083000,2.215062,2.20524234691201,4.07901088820593,8.13536823529412,-1.4639386,-0.37843102,0.3848451,284.16708,-28.510874,12.121267,SCH
36285951052000,2.220031,2.25774393084959,4.00092798641028,8.02916649347324,-1.484708,-0.36254853,0.40225476,284.0383,-28.05908,12.221426,SCH
36285956063000,2.225042,2.30210867597301,3.91663506332625,7.92269115150227,-1.4947872,-0.34422258,0.40744713,283.9123,-27.619226,12.319028,SCH
36285961009000,2.229988,2.31790045981308,3.83918079345794,7.87285121168224,-1.4908166,-0.34513888,0.4089743,283.79807,-27.175556,12.438262,SCH
36285966029000,2.235008,2.29592363006908,3.76836651328728,7.89726988590004,-1.4987578,-0.32284227,0.42058071,283.67358,-26.734732,12.546032,SCH
36285971020000,2.239999,2.27407375810646,3.69796131959569,7.92154749606359,-1.4789047,-0.31123585,0.42058071,283.56073,-26.29874,12.664751,SCH
36285976009000,2.244988,2.25223264185291,3.62758433876473,7.94581537767168,-1.4825699,-0.29535335,0.41630468,283.442,-25.863111,12.774696,SCH
36285981042000,2.250021,2.24331140932725,3.55856204499901,8.00392912083251,-1.496009,-0.27458394,0.41325033,283.32803,-25.432528,12.877693,SCH
36285986064000,2.255043,2.24808365477277,3.49175055893034,8.09698778244195,-1.50731,-0.23304509,0.41050145,283.21014,-25.01109,12.968041,SCH
36285991025000,2.260004,2.25279793387577,3.42575060226235,8.18891610188529,-1.5228871,-0.17745635,0.4166101,283.0634,-24.5662,13.039719,SCH
36285996107000,2.265086,2.25762719539591,3.35814089055368,8.2830865754614,-1.5451837,-0.1151481,0.4700608,282.89877,-24.122894,13.102071,SCH
36286001166000,2.270145,2.29879414668036,3.5506094312115,8.36139081519507,-1.5546521,-0.09407325,0.48288897,282.74188,-23.690983,13.154565,SCH
36286006038000,2.275017,2.37635250889802,4.00683528747433,8.42070087679672,-1.5357152,-0.07086037,0.5207626,282.55658,-23.264856,13.198017,SCH
36286010987000,2.279966,2.39025790048611,4.21740653125,8.56971958263889,-1.5225816,-0.038789943,0.6432411,282.3492,-22.772205,13.24872,SCH
36286016046000,2.285025,2.3085481746627,4.05879333035714,8.85330012123016,-1.5057828,0.015577064,0.64965516,282.15884,-22.302189,13.276629,SCH
36286020952000,2.289931,2.11761952235702,3.78710424783362,9.18497099133449,-1.5259414,0.0067195175,0.5897904,282.02936,-21.904442,13.329792,SCH
36286026039000,2.295018,1.73767587111496,3.31334737295398,9.62120254737146,-1.5118915,-0.022296581,0.44929138,281.91724,-21.534885,13.364555,SCH
36286030966000,2.299945,1.58153942705353,3.00195569703852,10.0238467658829,-1.4987578,-0.015882496,0.3399465,281.78317,-21.113537,13.368512,SCH
36286036059000,2.305038,1.90361340946473,3.01659540961481,10.3947198411706,-1.4654657,0.009773844,0.28893927,281.67386,-20.717787,13.365823,SCH
36286041041000,2.31002,2.1625299792058,2.99172919681019,10.7305044070027,-1.409877,0.054061573,0.23335053,281.5072,-20.232521,13.283532,SCH
36286047013000,2.315992,2.3327304241421,2.86407879368548,11.0655864791686,-1.3967434,0.07727446,0.22968534,281.343,-19.757095,13.201987,SCH
36286051065000,2.320044,2.48108604075306,2.75322743369193,11.2664326075306,-1.3790283,0.1572978,0.23732115,281.16824,-19.292685,13.116469,SCH
36286056067000,2.325046,2.8090296840978,2.50961217814181,11.397610240978,-1.3377949,0.28771752,0.24098633,280.9918,-18.851982,13.012743,SCH
36286061051000,2.33003,3.14568519507215,2.28942250103458,11.5591930220528,-1.2244794,0.3378085,0.21624629,280.83286,-18.386992,12.926919,SCH
36286066050000,2.335029,3.54974398961793,2.21990709389237,11.9284943171794,-1.1695015,0.35277468,0.19425514,280.66776,-17.931316,12.819695,SCH
36286071057000,2.340036,3.95444940755967,2.15028043984935,12.2983866125783,-1.078788,0.2171626,0.16126843,280.51154,-17.473577,12.788781,SCH
36286076065000,2.345044,3.9931063494544,2.19097902524192,12.3665477071237,-1.0345002,0.057421334,0.15424347,280.35962,-17.031704,12.763285,SCH
36286081417000,2.350396,3.97978121617852,2.23400247154812,12.3908991095836,-1.0002918,-0.043982297,0.1600467,280.22366,-16.62591,12.75849,SCH
36286086065000,2.355044,3.59398425104603,2.11870678953975,12.0494466019127,-0.95294976,-0.079107046,0.18203785,280.0814,-16.211567,12.827221,SCH
36286091383000,2.360362,3.15751213520352,1.97596177854785,11.6615169328933,-0.90285885,-0.086132,0.20219639,279.9656,-15.81479,12.914609,SCH
36286096206000,2.365185,2.87111213083308,1.60641333135314,11.3704969488949,-0.8503244,-0.065973446,0.21013765,279.8501,-15.442479,13.002419,SCH
36286101444000,2.370423,2.58216616476741,1.21444669463774,11.0712884322969,-0.782213,-0.061086524,0.20769419,279.72717,-15.094863,13.050599,SCH
36286106041000,2.37502,2.68403067670764,1.02132849961822,11.0797773152085,-0.72356987,-0.08124508,0.20158553,279.6046,-14.768201,13.099488,SCH
36286111032000,2.380011,2.79462579941673,0.81165851672885,11.0889937638949,-0.64996064,-0.11148291,0.18692477,279.47806,-14.407203,13.124224,SCH
36286116593000,2.385572,2.91785150115691,0.578043053926247,11.0992627823572,-0.59040123,-0.14752395,0.17867808,279.3536,-14.067978,13.155999,SCH
36286120955000,2.389934,3.01450866911063,0.394797118169197,11.1073177110629,-0.51893,-0.17684549,0.16401732,279.237,-13.762469,13.192382,SCH
36286126039000,2.395018,3.16842311654419,0.358484836359437,11.0055215910141,-0.45875978,-0.23976462,0.15057829,279.13696,-13.471133,13.244186,SCH
36286131028000,2.400007,3.32892269265169,0.36350044156624,10.880131460844,-0.40530908,-0.28771752,0.13530666,279.0422,-13.206209,13.298088,SCH
36286136047000,2.405026,3.36282800835196,0.384441019782123,10.6480346926443,-0.344528,-0.31703907,0.12095132,278.92496,-12.885705,13.396129,SCH
36286141002000,2.409981,3.38491969592179,0.406532762715084,10.4094440608939,-0.3032946,-0.36132678,0.11911872,278.81216,-12.582444,13.509053,SCH
36286146183000,2.415162,3.38644744411765,0.336958730042017,10.0868326890756,-0.26633725,-0.3857614,0.124005646,278.71677,-12.301268,13.648055,SCH
36286151021000,2.42,3.3819201747606,0.246412335969318,9.76539264100059,-0.22785273,-0.3924809,0.13744467,278.62015,-12.037546,13.791347,SCH
36286156061000,2.42504,3.3925990404908,0.12266490496589,9.58011020667485,-0.20555615,-0.3915646,0.13225232,278.5441,-11.794994,13.949799,SCH
36286160995000,2.429974,3.40883280858896,-0.00952464117693252,9.45487790080982,-0.16554448,-0.3747658,0.13988814,278.45862,-11.570704,14.10338,SCH
36286166064000,2.435043,3.42551075153374,-0.145331047621595,9.3262190928589,-0.172264,-0.35430184,0.1459968,278.37003,-11.340919,14.262924,SCH
36286171064000,2.440043,3.44196167177914,-0.27928883657865,9.19931160819632,-0.1563815,-0.3549127,0.14538592,278.2802,-11.131775,14.42013,SCH
36286176064000,2.445043,3.48420677535739,-0.395677755059807,9.13410235758047,-0.14385876,-0.36010507,0.13683382,278.18887,-10.923369,14.569364,SCH
36286181066000,2.450045,3.54010863703199,-0.502822881299232,9.10149280044734,-0.13103059,-0.3848451,0.12889257,278.09775,-10.72275,14.720881,SCH
36286186629000,2.455608,3.66014891874232,-0.570272176046702,9.07444955192544,-0.12095132,-0.40622538,0.122478485,278.00916,-10.475244,14.8915615,SCH
36286190991000,2.45997,3.7799433592585,-0.600220781708316,9.05733616253585,-0.093462385,-0.41874814,0.11789699,277.9213,-10.240229,15.06254,SCH
36286196100000,2.465079,3.89142681656945,-0.618194252173472,9.06063917474005,-0.08399397,-0.43127087,0.1133155,277.83127,-9.984781,15.249106,SCH
36286201053000,2.470032,3.98365595585426,-0.626214180423535,9.07667895587116,-0.05955936,-0.4382958,0.109650314,277.74054,-9.7450695,15.433206,SCH
36286206021000,2.475,4.05375210311566,-0.626543054063167,9.07733670294494,-0.040317107,-0.45051312,0.09101892,277.6573,-9.503217,15.641847,SCH
36286211005000,2.479984,4.06393798028169,-0.606171411408451,9.03659361971831,-0.032070424,-0.4560109,0.076052725,277.57193,-9.268673,15.845877,SCH
36286216055000,2.485034,4.08377081410114,-0.578187032126779,8.98841243736752,-0.009468411,-0.45540005,0.0711658,277.484,-9.04659,16.061245,SCH
36286221029000,2.490008,4.11742833125063,-0.539721248034723,8.93071363571212,-0.00030543262,-0.44929138,0.04886922,277.4039,-8.829024,16.270258,SCH
36286226007000,2.494986,4.11750497510477,-0.495504647689084,8.88701532727998,0.015882496,-0.4392121,0.03756821,277.33994,-8.616047,16.485107,SCH
36286231045000,2.500024,4.06936301938735,-0.442548410941928,8.86294432428657,0.019242255,-0.4382958,0.021991149,277.2817,-8.407767,16.694582,SCH
36286236012000,2.504991,4.00486305056069,-0.373329654477671,8.86051093999606,0.03359759,-0.43768495,0.020463986,277.2304,-8.215177,16.906567,SCH
36286241058000,2.510037,3.91454570615778,-0.278258701105646,8.8890323059217,0.0421497,-0.43096542,0.0143553335,277.18256,-8.026846,17.110619,SCH
36286246053000,2.515032,3.83546447588702,-0.159372153071867,8.89904890451302,0.03756821,-0.45204028,-0.004276057,277.15613,-7.84583,17.317642,SCH
36286251143000,2.520122,3.77176984587396,0.00231406516715248,8.87945069062217,0.04734206,-0.47952923,-0.018936822,277.12787,-7.6745405,17.519411,SCH
36286256357000,2.525336,3.7229477079187,0.179816368331095,8.87412636245746,0.04550946,-0.5012149,-0.026267206,277.12112,-7.5141973,17.71161,SCH
36286261071000,2.53005,3.69803552073945,0.35420180258144,8.88658228262669,0.043982297,-0.5213735,-0.03573562,277.11758,-7.3614798,17.905094,SCH
36286266066000,2.535045,3.6774938,0.506153592264623,8.89073330624309,0.04642576,-0.54519725,-0.03940081,277.13834,-7.2379503,18.097193,SCH
36286271063000,2.540042,3.6774938,0.542952989734224,8.86313392925458,0.051923547,-0.5720753,-0.04428773,277.1603,-7.1187987,18.289827,SCH
36286276047000,2.545026,3.6774938,0.57965665132888,8.83560635372711,0.053145275,-0.59864795,-0.06047566,277.21637,-7.035603,18.487173,SCH
36286281067000,2.550046,3.6774938,0.616625427654155,8.80787994338444,0.036957346,-0.59437186,-0.06780604,277.2683,-6.9512415,18.677332,SCH
36286286136000,2.555115,3.67609111827872,0.654028263442558,8.77211324259771,0.027488936,-0.57451874,-0.06566802,277.31995,-6.8719783,18.864147,SCH
36286291063000,2.560042,3.65746305132254,0.691284397354915,8.6417169684169,0.020158553,-0.5360342,-0.070249505,277.37238,-6.7926035,19.038004,SCH
36286296331000,2.56531,3.64121586042379,0.726213891660971,8.50525905536569,0.02443461,-0.4642576,-0.06872234,277.4276,-6.731182,19.193953,SCH
36286301052000,2.570031,3.66328991217655,0.708554650258764,8.41254748481594,0.021380283,-0.41538838,-0.06963864,277.48236,-6.668426,19.340172,SCH
36286306348000,2.575327,3.68934896270946,0.691903393910786,8.31247813264102,0.022296581,-0.35979962,-0.07666359,277.55704,-6.6120434,19.496607,SCH
36286311057000,2.580036,3.74043853413264,0.745121684510267,8.30822058314845,0.009773844,-0.30879238,-0.0711658,277.62387,-6.5524793,19.635273,SCH
36286316027000,2.585006,3.79435978492329,0.801289640398867,8.30372705565258,0.0106901415,-0.28252518,-0.069027774,277.69635,-6.493412,19.776484,SCH
36286321032000,2.590011,3.84866076283219,0.857853145272599,8.29920188359688,0.009468411,-0.27672195,-0.05467244,277.75967,-6.431189,19.904867,SCH
36286325996000,2.594975,3.90251691754543,0.913953292763748,8.2947137808827,0.011301007,-0.29443705,-0.037873644,277.8191,-6.371985,20.028332,SCH
36286331064000,2.600043,3.95664130814516,0.950619709662298,8.3693574953629,0.0027488936,-0.34208453,-0.03726278,277.8788,-6.313384,20.167961,SCH
36286335958000,2.604937,4.00861282540323,0.978967834652218,8.46857643850806,0.020158553,-0.35460728,-0.035430185,277.93015,-6.262727,20.298464,SCH
36286341042000,2.610021,4.07090283445707,1.14971618166364,8.65098382504059,0.027488936,-0.37659842,-0.03604105,277.99295,-6.233907,20.453215,SCH
36286346069000,2.615048,4.13527071053386,1.36580848109063,8.85788056957311,0.035430185,-0.40408736,-0.026572637,278.05115,-6.209854,20.608385,SCH
36286351097000,2.620076,4.14996887553045,1.49380685437132,8.97013957220039,0.04520403,-0.40683624,-0.021991149,278.1159,-6.19043,20.76703,SCH
36286356068000,2.625047,4.14061592438114,1.5779830240668,9.03560979076621,0.051618114,-0.41141775,-0.02107485,278.17828,-6.172689,20.928457,SCH
36286361061000,2.63004,4.12184211571761,1.65798572173561,9.08419996672398,0.0571159,-0.41050145,-0.022907447,278.26794,-6.1944733,21.079184,SCH
36286366036000,2.635015,4.09774755720643,1.73508835928998,9.12275105906746,0.059253927,-0.4098906,-0.022907447,278.35565,-6.2168574,21.22595,SCH
36286371045000,2.640024,4.06727431932367,1.70865033429952,9.12368905797101,0.06291912,-0.39064834,-0.00580322,278.4524,-6.2528906,21.368845,SCH
36286376066000,2.645045,4.0333979820149,1.62637905614936,9.10433122312802,0.06261369,-0.36957347,-0.0015271631,278.5515,-6.2895474,21.504911,SCH
36286381062000,2.650041,4.00946551086262,1.62491331167133,9.04359472154553,0.052839845,-0.35155296,-0.02076942,278.66864,-6.3349886,21.63841,SCH
36286386088000,2.655067,3.99024306805112,1.66335824747404,8.96189964067492,0.05131268,-0.3100141,-0.025045475,278.77676,-6.3801775,21.754435,SCH
36286391039000,2.660018,3.97442952457143,1.72037758514286,8.89072438285714,0.05955936,-0.27366763,-0.02107485,278.87238,-6.415385,21.865505,SCH
36286396166000,2.665145,3.95966253100752,1.78929027317293,8.82181133503759,0.04886922,-0.23243423,-0.022907447,278.96796,-6.4462647,21.958494,SCH
36286401149000,2.670128,3.99860334180253,1.85006162098228,8.79774818825316,0.056505036,-0.20433442,-0.020158553,279.069,-6.4899807,22.048334,SCH
36286406157000,2.675136,4.06174131510886,1.90834292463797,8.79289182288607,0.048258353,-0.17745635,-0.02076942,279.16882,-6.527104,22.123062,SCH
36286410991000,2.67997,4.09268513090674,1.95411086954017,8.80447456321382,0.05222898,-0.16554448,-0.0021380284,279.2688,-6.584729,22.205147,SCH
36286416030000,2.685009,4.11185585101798,1.99724498979045,8.82364518323567,0.044898596,-0.17379116,0.0027488936,279.37177,-6.638083,22.281473,SCH
36286421027000,2.690006,4.14045920669244,2.03035706210589,8.80417908372992,0.051618114,-0.19211712,0.0021380284,279.47574,-6.706639,22.370605,SCH
36286426058000,2.695037,4.17389859666865,2.05901909708507,8.76596298720999,0.050701816,-0.19761491,0.017715093,279.57205,-6.767903,22.455557,SCH
36286431062000,2.700041,4.17877111969158,2.11893946809015,8.74061410083037,0.06536258,-0.21166481,0.022296581,279.6783,-6.843899,22.554857,SCH
36286436062000,2.705041,4.16930379070779,2.19467543092131,8.72167998655595,0.064751714,-0.21624629,0.027488936,279.77847,-6.9125543,22.649529,SCH
36286441710000,2.710689,4.12649205243086,2.10714658701601,8.67905883182921,0.069027774,-0.22632557,0.03848451,279.87918,-6.990605,22.757221,SCH
36286446140000,2.715119,4.08120558751092,1.97540393257642,8.63788927918486,0.056505036,-0.22602014,0.044593163,279.97864,-7.0625124,22.858963,SCH
36286451115000,2.720094,4.04934339512389,1.9350009585332,8.55179042933598,0.047036625,-0.21563543,0.027488936,280.0936,-7.150193,22.954449,SCH
36286456056000,2.725035,4.03058463643211,1.96782878624381,8.43923797512389,0.036651913,-0.18967366,0.016493361,280.20316,-7.231322,23.041874,SCH
36286461020000,2.729999,4.01699946039736,1.97976933019868,8.39059786235941,0.032070424,-0.14874569,0.015577064,280.2898,-7.2855754,23.117311,SCH
36286466056000,2.735035,4.00744116583263,1.97499018291632,8.39298748590398,0.032986723,-0.11178834,0.012217305,280.3787,-7.3392873,23.1828,SCH
36286471026000,2.740005,3.99800813882971,1.97027366941485,8.39534579190408,0.017715093,-0.07452556,0.0070249503,280.47186,-7.398353,23.246183,SCH
36286476183000,2.745162,3.98822018706832,1.96537969353416,8.39779283094684,0.015882496,-0.050701816,-0.00061086525,280.565,-7.4608426,23.300003,SCH
36286481037000,2.750016,3.97462017527586,1.96091254381896,8.40819137600524,0.018020526,-0.026267206,-0.0012217305,280.65497,-7.5192842,23.340996,SCH
36286486024000,2.755003,3.9567561387694,1.95644653469235,8.42605531924444,0.0061086523,-0.01282817,0.0030543262,280.74435,-7.5730305,23.37643,SCH
36286491068000,2.760047,3.94366376681576,1.95762986636848,8.4450894913738,0.0125227375,-0.005192355,0.006414085,280.8294,-7.6329827,23.409876,SCH
36286496060000,2.765039,3.93857245844515,1.96781248310969,8.46545461853035,0.0070249503,-0.0030543262,0.005497787,280.91336,-7.685865,23.439602,SCH
36286501019000,2.769998,3.91662070382314,1.98254564808843,8.49005922289829,0.007941248,-0.009773844,0.008857546,280.99716,-7.73814,23.474495,SCH
36286505945000,2.774924,3.87834846628131,2.00168176685935,8.51876350096339,0.007941248,-0.013744468,0.0070249503,281.0818,-7.788749,23.506262,SCH
36286511269000,2.780248,3.85671480711884,2.01660618576231,8.5521038645442,0.004581489,-0.026267206,0.003970624,281.16382,-7.8435884,23.547153,SCH
36286515971000,2.78495,3.85226255147321,2.02551069705359,8.58326984002373,-0.00061086525,-0.025045475,0.014660766,281.24103,-7.8956866,23.584084,SCH
36286520944000,2.789923,3.86155112935096,2.02561310825962,8.60931273471822,0.002443461,-0.024129177,0.004581489,281.333,-7.9517293,23.619495,SCH
36286525928000,2.794907,3.88527181874565,2.01612483250174,8.62828918715833,-0.008246681,-0.015271631,0.011301007,281.41534,-7.998935,23.651896,SCH
36286530933000,2.799912,3.91140497612446,2.01567759204149,8.65647267318241,-0.0106901415,-0.005497787,0.015271631,281.50192,-8.051019,23.679537,SCH
36286535945000,2.804924,3.94012678021342,2.02525152673781,8.69476821202753,-0.02076942,-0.007941248,0.015882496,281.58685,-8.097284,23.706968,SCH
36286540915000,2.809894,3.94425482509804,1.94035865709804,8.79165862431373,-0.02565634,0.00030543262,0.016798794,281.66626,-8.140667,23.729525,SCH
36286545980000,2.814959,3.92047713294118,1.74538143244118,8.95810246941176,-0.03023783,-0.040927973,0.03573562,281.74167,-8.178851,23.766418,SCH
36286550961000,2.81994,3.93160262783046,1.63561178101413,8.97324156299594,-0.016493361,-0.059864793,0.030543262,281.831,-8.217672,23.80238,SCH
36286556018000,2.824997,3.98784014778401,1.630925321018,8.79515627888523,-0.03023783,-0.04062254,0.0125227375,281.91766,-8.247278,23.837643,SCH
36286560947000,2.829926,4.04132543177736,1.6228571045791,8.67229732744498,-0.049785517,-0.0030543262,-0.0012217305,281.96744,-8.243273,23.868584,SCH
36286566032000,2.835011,4.09419011148722,1.60843945097207,8.633850200977,-0.048258353,0.0076358155,-0.0033597588,282.01892,-8.242585,23.899933,SCH
36286570930000,2.839909,4.13389832092116,1.59617928953942,8.60797584406714,-0.061086524,0.016493361,-0.0076358155,282.07364,-8.237133,23.933418,SCH
36286576025000,2.845004,4.15294351842311,1.58665669078845,8.6032146938427,-0.05375614,0.02687807,-0.015577064,282.1288,-8.238662,23.961855,SCH
36286581289000,2.850268,4.16535319281637,1.57961558699488,8.58993773097879,-0.04917465,0.020463986,-0.013439035,282.18378,-8.229155,23.999208,SCH
36286586028000,2.855007,4.1638813117338,1.57814369054291,8.56344350262697,-0.042760566,0.02565634,-0.020158553,282.242,-8.224854,24.028284,SCH
36286591010000,2.859989,4.16233395753389,1.57659632018551,8.53559073924888,-0.051618114,0.023518313,-0.02687807,282.2974,-8.216313,24.062435,SCH
36286596066000,2.865045,4.16076361975092,1.57502596600506,8.50732426561588,-0.058948494,0.027488936,-0.032375857,282.35315,-8.211201,24.091858,SCH
36286601020000,2.869999,4.1592249620419,1.57348729222936,8.47962804125316,-0.049785517,0.032070424,-0.03481932,282.4068,-8.212057,24.123444,SCH
36286606013000,2.874992,4.15767419136343,1.57193650535772,8.45171378040475,-0.056199603,0.034208454,-0.03940081,282.46198,-8.208495,24.152996,SCH
36286611080000,2.880059,4.14786594674385,1.56668796092619,8.42303031982634,-0.067500606,0.032070424,-0.0421497,282.52048,-8.202491,24.177286,SCH
36286616062000,2.885041,4.09176509392185,1.54079521456223,8.39282243867583,-0.06780604,0.040317107,-0.05497787,282.5821,-8.200162,24.196424,SCH
36286621002000,2.889981,4.03613719088278,1.51512075309334,8.36286922051375,-0.062002823,0.04184427,-0.046731193,282.6358,-8.198748,24.22445,SCH
36286626019000,2.894998,4.01852695208875,1.53975255685589,8.37386136997801,-0.06047566,0.065973446,-0.048563786,282.69427,-8.199475,24.241693,SCH
36286630990000,2.899969,4.00425353487907,1.56829924223466,8.38813448910654,-0.06383542,0.061086524,-0.042455133,282.74835,-8.199062,24.26646,SCH
36286636060000,2.905039,4.01358825348085,1.55382307253762,8.46476246884816,-0.057726767,0.06627888,-0.0421497,282.79706,-8.201076,24.272886,SCH
36286641058000,2.910037,4.02480780399419,1.53587176828559,8.54554327940556,-0.069027774,0.062002823,-0.04795292,282.84586,-8.198197,24.282932,SCH
36286646227000,2.915206,4.03641121667995,1.51730628375604,8.62908789920773,-0.058948494,0.0711658,-0.03940081,282.89142,-8.207511,24.282604,SCH
36286651248000,2.920227,4.04768239777788,1.49927237046083,8.71024045018986,-0.07788532,0.050396383,-0.03268129,282.94043,-8.207593,24.291386,SCH
36286656063000,2.925042,4.03565767905729,1.47558421486875,8.74018049635946,-0.07086037,0.056199603,-0.032986723,282.9867,-8.217148,24.289982,SCH
36286661022000,2.930001,4.01290842096187,1.44828510515424,8.74928015208852,-0.06780604,0.047036625,-0.042455133,283.0349,-8.2214365,24.29824,SCH
36286666056000,2.935035,3.9856230258139,1.42486627955262,8.73280582288385,-0.06994407,0.02321288,-0.035124753,283.06793,-8.214223,24.305315,SCH
36286671047000,2.940026,3.95550478861584,1.40478733245117,8.69766780959882,-0.052839845,0.017715093,-0.04062254,283.10696,-8.215988,24.308617,SCH
36286676051000,2.94503,3.92362951869031,1.40135868304424,8.67358413350224,-0.036651913,0.019547688,-0.043066,283.13858,-8.211541,24.314413,SCH
36286681052000,2.950031,3.8909599574352,1.40602576322354,8.65491591025141,-0.02687807,0.018020526,-0.044898596,283.1717,-8.210918,24.32214,SCH
36286686058000,2.955037,3.88441742173744,1.45718084544215,8.65366743971562,-0.0125227375,0.009773844,-0.056199603,283.2063,-8.215288,24.329315,SCH
36286691081000,2.96006,3.89378716587456,1.53682376844566,8.66303689033892,-0.003970624,0.004581489,-0.057726767,283.23795,-8.220001,24.33613,SCH
36286696125000,2.965104,3.83220655174709,1.38486042989136,8.68066703983557,0.004276057,0.0036651916,-0.04917465,283.2718,-8.230524,24.340923,SCH
36286701108000,2.970087,3.72010812146423,1.06724826765685,8.70402085915631,0.022602014,-0.0888809,-0.016493361,283.30298,-8.243216,24.373825,SCH
36286706011000,2.97499,3.69169559694319,1.03826649678939,8.71251621479381,0.040317107,-0.108123146,-0.030543262,283.3468,-8.284475,24.38583,SCH
36286711037000,2.980016,3.73796397798712,1.2696085227915,8.70788952162838,0.015271631,-0.053145275,-0.06261369,283.38666,-8.316815,24.402336,SCH
36286716044000,2.985023,3.78119487398533,1.4529319590726,8.73595976804709,-0.01160644,-0.011301007,-0.060170226,283.36652,-8.293213,24.415154,SCH
36286721027000,2.990006,3.82062176149954,1.57614076384385,8.80495679546628,-0.008857546,-0.0033597588,-0.05467244,283.35428,-8.274696,24.420479,SCH
36286726044000,2.995023,3.85680939538596,1.67301208222525,8.85118571098997,-0.0027488936,0.0030543262,-0.036651913,283.3791,-8.287319,24.412241,SCH
36286731065000,3.000044,3.88957448733574,1.74322309129758,8.87458934809695,-0.0106901415,-0.0027488936,-0.03726278,283.40793,-8.29847,24.404852,SCH
36286736039000,3.005018,3.91533829575218,1.77928580517529,8.88127605286589,-0.023518313,-0.008857546,-0.03268129,283.45047,-8.323202,24.391468,SCH
36286741078000,3.010057,3.93324128043035,1.77481001227045,8.86784853394546,-0.022602014,-0.0033597588,-0.027794369,283.49237,-8.349124,24.376745,SIT
36286746035000,3.015014,3.94713290602205,1.76724368193384,8.83770694677693,-0.017104227,0.0018325958,-0.024740042,283.5448,-8.383786,24.364927,SIT
36286751097000,3.020076,3.9522726178117,1.75182454656489,8.76575108905852,-0.016493361,0.0027488936,-0.022602014,283.5954,-8.416428,24.353172,SIT
36286755955000,3.024934,3.94431403046435,1.73207163046435,8.70447448455411,-0.010079277,0.00030543262,-0.024740042,283.64398,-8.452081,24.347536,SIT
36286761065000,3.030044,3.9157901633573,1.7035477633573,8.65218062891005,-0.0018325958,0.0021380284,-0.025045475,283.69064,-8.487322,24.340656,SIT
36286765962000,3.034941,3.89462425903153,1.67924570168942,8.60501339838916,0.005497787,0.009773844,-0.017715093,283.73334,-8.521359,24.336834,SIT
36286771062000,3.040041,3.88502958660249,1.66005630673804,8.56183747264512,0.02076942,0.019242255,-0.023823744,283.77966,-8.560624,24.331257,SIT
36286775980000,3.044959,3.8786068,1.6536683922985,8.53221746448142,0.008857546,0.024129177,-0.022602014,283.81744,-8.588893,24.325514,SIT
36286781050000,3.050029,3.8786068,1.67543734173558,8.52979864461492,0.0070249503,0.017104227,-0.02443461,283.8579,-8.624159,24.320124,SIT
36286785979000,3.054958,3.8786068,1.69660088251968,8.5274470937033,0.018325957,0.02076942,-0.025045475,283.8946,-8.655094,24.308224,SIT
36286791112000,3.060091,3.8786068,1.71864033369533,8.52499821749527,0.02687807,0.026572637,-0.03145956,283.93353,-8.685296,24.297514,SIT
36286796120000,3.065099,3.87995637149268,1.75229601498968,8.53280505681716,0.025961773,0.01038471,-0.025961773,283.9696,-8.714099,24.292713,SIT
36286801147000,3.070126,3.88427757906831,1.81279296617,8.563053690333,0.027794369,0.007330383,-0.040317107,284.01254,-8.74839,24.281559,SIT
36286806070000,3.075049,3.88705744201055,1.86897884790568,8.59339907229289,0.020158553,-0.00580322,-0.03848451,284.06265,-8.782073,24.284624,SIT
36286811039000,3.080018,3.87229258963698,1.88866536912814,8.63277180639156,0.01863139,-0.016798794,-0.03604105,284.11652,-8.818854,24.28711,SIT
36286816019000,3.084998,3.85795590196916,1.90608405960617,8.66581216782918,0.02321288,-0.010079277,-0.040317107,284.1842,-8.865,24.285715,SIT
36286821041000,3.09002,3.84654553670225,1.90836613265955,8.65668392327402,0.019547688,-0.0070249503,-0.038179077,284.2492,-8.90685,24.288502,SIT
36286826017000,3.094996,3.83523968692764,1.91062730261447,8.64763929067616,0.021380283,0.0030543262,-0.043982297,284.31976,-8.955029,24.282904,SIT
36286831066000,3.100045,3.82376797561091,1.91292164487782,8.63846196953737,0.018325957,0.014049901,-0.049480084,284.38867,-8.999958,24.276146,SIT
36286836752000,3.105731,3.81184368875226,1.91618486625678,8.62760505072333,0.008857546,0.027488936,-0.047036625,284.45874,-9.040038,24.265532,SIT
36286841115000,3.110094,3.81562158915009,1.92751856745027,8.61249352802893,0.009773844,0.040317107,-0.04428773,284.52908,-9.082061,24.251808,SIT
36286846067000,3.115046,3.81990950177215,1.94038230531646,8.59534196708861,-0.0033597588,0.04734206,-0.042760566,284.59982,-9.119119,24.234423,SIT
36286851091000,3.12007,3.81072064807265,1.95104198623613,8.59734614994955,-0.0033597588,0.05497787,-0.041233405,284.6683,-9.15898,24.213757,SIT
36286855958000,3.124937,3.79661047348133,1.96044870381433,8.60675281841574,-0.0061086523,0.05375614,-0.032986723,284.73364,-9.193315,24.194462,SIT
36286861074000,3.130053,3.79066797215039,1.97897225064651,8.60081245198429,0.0030543262,0.06658431,-0.03756821,284.80334,-9.23449,24.169922,SIT
36286866009000,3.134988,3.78831758882037,2.00012570061667,8.58906065804655,-0.009162978,0.07238753,-0.036651913,284.8686,-9.26731,24.14883,SIT
36286871100000,3.140079,3.78589290765864,2.02194783107221,8.57693737882932,0.004886922,0.065973446,-0.028710667,284.9344,-9.310409,24.126078,SIT
36286876014000,3.144993,3.78355252595982,2.04301126636165,8.56523559252536,-0.003970624,0.065973446,-0.024740042,284.99982,-9.3442745,24.100378,SIT
36286881039000,3.150018,3.77946080698209,2.04605880698209,8.57179923797139,0.005192355,0.059253927,-0.015577064,285.0592,-9.388746,24.089212,SIT
36286886025000,3.155004,3.77468438157447,2.04128238157447,8.58612831469441,0.0106901415,0.064446285,-0.010995574,285.11755,-9.429405,24.074875,SIT
36286891117000,3.160096,3.75387892282802,2.02693788188535,8.57424360235668,0.01160644,0.057726767,-0.014049901,285.18417,-9.478606,24.065344,SIT
36286896192000,3.165171,3.72660747795754,2.00875691863836,8.55151739829795,0.009162978,0.0580322,-0.009773844,285.24585,-9.526079,24.053146,SIT
36286901099000,3.170078,3.70744851910857,1.99737635955428,8.52859119851428,0.01160644,0.05375614,-0.008552114,285.3048,-9.578035,24.047075,SIT
36286906332000,3.175311,3.69235579379612,1.98982999689806,8.50343665632686,0.0106901415,0.0571159,-0.004276057,285.36053,-9.626647,24.03915,SIT
36286911051000,3.18003,3.67874551847613,1.98302485923807,8.48075286412689,0.0018325958,0.059253927,-0.004276057,285.41498,-9.67111,24.031113,SIT
36286916064000,3.185043,3.66428730483361,1.9757957524168,8.45665584138935,0.009468411,0.05681047,-0.004276057,285.46777,-9.718274,24.023691,SIT
36286921029000,3.190008,3.67571429669826,1.9525524205187,8.4380570725966,0.009468411,0.04428773,-0.009468411,285.496787788606,-9.73810656354868,24.0221670298402,SIT
36286926017000,3.194996,3.70556686105614,1.91772442876784,8.42313099822935,0.008246681,0.046731193,-0.008552114,285.52594,-9.758031,24.020636,SIT
36286931052000,3.200031,3.72191668828924,1.91190028828924,8.44553453344217,0.005192355,0.045814894,-0.01038471,285.5825,-9.798317,24.01575,SIT
36286936060000,3.205039,3.73112792647045,1.92111152647045,8.48698500907476,0.0106901415,0.04153884,-0.005497787,285.63782,-9.838819,24.01403,SIT
36286941112000,3.210091,3.74042009406059,1.93040369406059,8.52879966620253,0.007330383,0.050701816,-0.004276057,285.68692,-9.869943,24.012917,SIT
36286946153000,3.215132,3.74969202929851,1.93967562929851,8.5705232779565,0.007330383,0.04734206,-0.00580322,285.73587,-9.902614,24.01636,SIT
36286951084000,3.220063,3.76122400146843,1.94883566764562,8.60462765247186,-0.017104227,0.044593163,0.00030543262,285.77472,-9.933402,24.023777,SIT
36286956061000,3.22504,3.77522216111601,1.95816777407734,8.63262406921194,-0.0106901415,0.03573562,-0.0012217305,285.81662,-9.972574,24.032944,SIT
36286961044000,3.230023,3.77531093267522,1.9621700189536,8.64570619299112,-0.013744468,0.02107485,-0.0012217305,285.85855,-10.001047,24.040682,SIT
36286966067000,3.235046,3.75869050499506,1.95979567214215,8.64095740019743,-0.021991149,0.019242255,-0.0033597588,285.90097,-10.029731,24.04671,SIT
36286971020000,3.239999,3.74230169784798,1.95745441397828,8.63627478608095,-0.023518313,0.018325957,-0.006414085,285.94186,-10.060799,24.05224,SIT
36286976329000,3.245308,3.72473493484699,1.95494487640671,8.63125560612043,-0.01282817,0.015271631,-0.0033597588,285.98138,-10.091925,24.05873,SIT
36286980964000,3.249943,3.71398902112056,1.94823266336169,8.62145512232326,-0.016798794,0.0015271631,-0.0018325958,286.02258,-10.118896,24.067867,SIT
36286986058000,3.255037,3.70921888137284,1.93392224411851,8.60237466295101,-0.027794369,-0.0009162979,-0.008552114,286.06448,-10.146877,24.073997,SIT
36286990988000,3.259967,3.7045721614621,1.93429976321503,8.60416298781581,-0.02443461,0.010079277,-0.0012217305,286.1,-10.176809,24.077671,SIT
36286996203000,3.265182,3.6995979230238,1.9624871489924,8.64561497480163,-0.019547688,0.009162978,-0.0070249503,286.14215,-10.206174,24.08387,SIT
36287000998000,3.269977,3.69502429439262,1.98840440974071,8.6837285467282,-0.019242255,0.0070249503,0.003970624,286.1719,-10.23269,24.093185,SIT
36287006030000,3.275009,3.69022460737027,2.01560266961256,8.72372593858106,-0.013133603,0.010079277,0.004581489,286.20602,-10.263339,24.099964,SIT
36287010968000,3.279947,3.68551458063809,2.04229285388267,8.76297616134923,-0.014049901,-0.0036651916,0.009468411,286.2407,-10.287358,24.115538,SIT
36287016067000,3.285046,3.68065098681319,2.06985325274725,8.80350610989011,-0.009773844,-0.01985312,0.025045475,286.2715,-10.312498,24.13106,SIT
36287021006000,3.289985,3.68055604500932,2.07549498798704,8.80991139145156,-0.005192355,-0.06291912,0.03726278,286.30402,-10.336844,24.15745,SIT
36287026036000,3.295015,3.69001159589754,2.03767268570027,8.74845026131122,0.00580322,-0.032070424,0.021991149,286.3363,-10.364931,24.166174,SIT
36287031010000,3.299989,3.69926131157736,1.99805984211322,8.70662441484737,-0.019547688,0.004886922,0.017715093,286.3764,-10.391999,24.17209,SIT
36287036063000,3.305042,3.70840819191003,1.95232544044986,8.71119771174747,-0.016798794,0.016187929,0.02107485,286.41812,-10.429399,24.175655,SIT
36287041063000,3.310042,3.7184167485737,1.91012989374814,8.71663786880032,-0.014049901,0.011911872,0.021685716,286.4492,-10.458863,24.177399,SIT
36287046121000,3.3151,3.73286047814333,1.88124238433555,8.72626722294006,-0.015882496,0.0015271631,0.025961773,286.4775,-10.486397,24.178003,SIT
36287051013000,3.319992,3.74159423493666,1.85643191746833,8.73037654367082,-0.013439035,0.006414085,0.028099801,286.49692,-10.505053,24.17458,SIT
36287056061000,3.32504,3.72317583836556,1.84722271918278,8.70735354795695,-0.01863139,-0.007330383,0.025045475,286.51825,-10.521004,24.179096,SIT
36287061075000,3.330054,3.70655496137025,1.83924304205537,8.686164,-0.0061086523,0.0009162979,0.025045475,286.53732,-10.530338,24.179539,SIT
36287066052000,3.335031,3.71102832914125,1.84595309371187,8.686164,-0.002443461,-0.0036651916,0.020463986,286.56015,-10.536953,24.186653,SIT
36287071408000,3.340387,3.71584234517128,1.85317411775692,8.686164,-0.007330383,-0.0076358155,0.018325957,286.5809,-10.543639,24.19044,SIT
36287076052000,3.345031,3.72001640985453,1.85943521478179,8.686164,-0.0061086523,-0.015882496,0.02076942,286.60193,-10.552784,24.196474,SIT
36287080967000,3.349946,3.72443405152511,1.86606167728766,8.686164,-0.0106901415,-0.026572637,0.014049901,286.62766,-10.559075,24.201551,SIT
36287086063000,3.355042,3.72709518909671,1.87606426341636,8.686164,-0.00061086525,-0.02076942,0.0106901415,286.65073,-10.568813,24.204361,SIT
36287091011000,3.35999,3.72919544644978,1.8865655721124,8.686164,-0.0018325958,-0.02076942,0.017104227,286.67358,-10.574082,24.211594,SIT
36287096004000,3.364983,3.73131480476908,1.89716238583902,8.686164,0.004886922,-0.027488936,0.023823744,286.7015,-10.585363,24.22037,SIT
36287101063000,3.370042,3.73346217783884,1.9078992736105,8.686164,-0.0012217305,-0.036651913,0.0125227375,286.7328,-10.594336,24.228773,SIT
36287105990000,3.374969,3.73686905546163,1.91663770364109,8.68169691060213,-0.006414085,-0.027488936,0.015271631,286.75662,-10.602725,24.234673,SIT
36287111036000,3.380015,3.74371550638961,1.92120200425974,8.66572176311688,-0.004581489,-0.029626964,0.0106901415,286.7871,-10.613533,24.244738,SIT
36287116298000,3.385277,3.7508550277497,1.92596168516647,8.64906278054309,-0.00061086525,-0.035124753,0.020463986,286.81467,-10.625451,24.2502,SIT
36287121040000,3.390019,3.75728900918064,1.93025100612043,8.63405006762692,-0.013744468,-0.036651913,0.013439035,286.8483,-10.635844,24.25363,SIT
36287126129000,3.395108,3.764699781718,1.93468412969765,8.61895687560045,-0.0033597588,-0.02107485,0.016798794,286.87466,-10.650842,24.25463,SIT
36287131062000,3.400041,3.77804889695771,1.93690897449374,8.6167321004992,-0.008552114,-0.02321288,0.018325957,286.90457,-10.659393,24.260187,SIT
36287136401000,3.40538,3.79249668253744,1.93931693037581,8.61432422004804,-0.014049901,-0.016187929,0.024129177,286.93213,-10.671624,24.2617,SIT
36287141089000,3.410068,3.80518280705472,1.94143127710276,8.61220993955449,-0.022907447,-0.016493361,0.023823744,286.96136,-10.682058,24.265337,SIT
36287145999000,3.414978,3.81846968234906,1.94364574861072,8.60999553741641,-0.010079277,-0.01863139,0.01863139,286.98965,-10.696519,24.267385,SIT
36287150989000,3.419968,3.82482535248704,1.93673309502593,8.60587026277127,-0.0125227375,-0.02321288,0.022602014,287.01508,-10.703633,24.27054,SIT
36287155957000,3.424936,3.82939396612253,1.92759586775495,8.60130179225082,-0.012217305,-0.008246681,0.019242255,287.04288,-10.71619,24.267881,SIT
36287161548000,3.430527,3.82681786168371,1.92884313831629,8.59606798013375,-0.006414085,-0.0076358155,0.01863139,287.07214,-10.727618,24.27686,SIT
36287165997000,3.434976,3.82262754075531,1.93303345924469,8.59187757169552,-0.0125227375,-0.021380283,0.013744468,287.10333,-10.736889,24.284927,SIT
36287171059000,3.440038,3.8278027297938,1.9378433648969,8.60038095567288,-0.01863139,-0.027488936,0.020158553,287.13065,-10.741791,24.288681,SIT
36287176024000,3.445003,3.83727554820201,1.94257977410101,8.61458998545672,-0.011911872,-0.02443461,0.023518313,287.16028,-10.749486,24.29295,SIT
36287181040000,3.450019,3.83699097037559,1.94740042962441,8.62574339744235,-0.013439035,-0.02687807,0.019547688,287.19168,-10.754799,24.299614,SIT
36287186034000,3.455013,3.83217508685933,1.95221631314067,8.6353753656228,-0.018936822,-0.023518313,0.021991149,287.21912,-10.759713,24.304064,SIT
36287191098000,3.460077,3.83243061146752,1.95879203440257,8.63315654776464,-0.01863139,-0.03268129,0.016187929,287.2462,-10.771455,24.312002,SIT
36287196283000,3.465262,3.83491936988773,1.96625830966319,8.62569024651664,-0.021685716,-0.040317107,0.013439035,287.27094,-10.780159,24.31862,SIT
36287201071000,3.47005,3.83721757149158,1.97315291447474,8.6187956177075,-0.013744468,-0.03726278,0.020463986,287.29486,-10.792006,24.323648,SIT
36287206033000,3.475012,3.83959929170008,1.98029807510024,8.61165043221231,-0.0076358155,-0.029321533,0.016493361,287.32288,-10.804162,24.328262,SIT
36287211052000,3.480031,3.83344251874497,1.98582754062751,8.60612106677393,-0.022602014,-0.034208454,0.022296581,287.352,-10.805412,24.334518,SIT
36287216067000,3.485046,3.82378289444891,1.99065735277554,8.60129140592317,-0.02565634,-0.03023783,0.025045475,287.3817,-10.812241,24.335451,SIT
36287221039000,3.490018,3.82784019156077,1.98528160843923,8.56650204219614,-0.021685716,-0.032375857,0.025350908,287.4135,-10.819524,24.340084,SIT
36287226037000,3.495016,3.83712622248521,1.97599557751479,8.52007188757397,-0.014966198,-0.024740042,0.027794369,287.4425,-10.826259,24.340929,SIT
36287231600000,3.500579,3.83307341796829,1.96920910898415,8.52227045507927,-0.011911872,-0.038179077,0.025045475,287.46796,-10.840173,24.344227,SIT
36287236066000,3.505045,3.82470191888824,1.96502335944412,8.54319920277941,-0.0106901415,-0.031154128,0.014660766,287.49292,-10.855758,24.339314,SIT
36287241059000,3.510038,3.83009012452489,1.95877333773756,8.55805171855204,-0.0070249503,-0.038179077,0.01740966,287.5169,-10.869139,24.346483,SIT
36287246021000,3.515,3.84442499076923,1.95160590461538,8.56760824615385,-0.007941248,-0.03176499,0.029932396,287.5395,-10.8815365,24.347694,SIT
36287251026000,3.520005,3.85888408096531,1.94437635951735,8.5772475892911,-0.011301007,-0.03268129,0.028099801,287.56116,-10.896822,24.34791,SIT
36287256022000,3.525001,3.8733171707994,1.9371598146003,8.58686959894419,-0.015882496,-0.029932396,0.026572637,287.57806,-10.909735,24.346022,SIT
36287261016000,3.529995,3.88754847619797,1.94047611746532,8.60529879366329,-0.01038471,-0.028405234,0.017104227,287.59692,-10.926723,24.345778,SIT
36287266067000,3.535046,3.90182745390141,1.94999543593427,8.62909708983568,-0.004581489,-0.032375857,0.022907447,287.61154,-10.940685,24.347046,SIT
36287271057000,3.540036,3.91803044354691,1.94564866733982,8.62224007885074,-0.004581489,-0.027794369,0.023518313,287.618239328725,-10.9460289645326,24.3483363707043,SIT
36287276048000,3.545027,3.93558058446851,1.93248606164861,8.59591477583991,-0.00580322,-0.035430185,0.027488936,287.62494,-10.951374,24.349627,SIT
36287281071000,3.55005,3.94711428315064,1.92346831173323,8.57983910859632,0.002443461,-0.035430185,0.027183503,287.638,-10.965655,24.35236,SIT
36287286064000,3.555043,3.95051045463198,1.92007212843107,8.57757506520041,-0.013439035,-0.0421497,0.025961773,287.6549,-10.970766,24.359663,SIT
36287291069000,3.560048,3.953914788352,1.91666778286181,8.57530558048249,-0.016187929,-0.040317107,0.022296581,287.66916,-10.979138,24.367832,SIT
36287296134000,3.565113,3.95735993326547,1.91322262595705,8.57300888915457,-0.011301007,-0.030543262,0.022602014,287.68225,-10.985004,24.375418,SIT
36287301309000,3.570288,3.96087989870025,1.90970264827056,8.57066231904165,-0.017715093,-0.032986723,0.015577064,287.69666,-10.991266,24.386791,SIT
36287306040000,3.575019,3.96409786130353,1.90648467446673,8.56851707784275,-0.014049901,-0.03023783,0.021991149,287.7057,-10.999591,24.394474,SIT
36287311146000,3.580125,3.96757089386586,1.90301162981605,8.56620179533133,-0.019547688,-0.021685716,0.021380283,287.71863,-11.0054455,24.40004,SIT
36287316066000,3.585045,3.9709174117285,1.8996651003054,8.56397085331092,-0.014966198,-0.018325957,0.014966198,287.73138,-11.014656,24.406027,SIT
36287321346000,3.590325,3.97384986132443,1.89673264050269,8.56061611899462,-0.02107485,-0.01863139,0.013744468,287.74084,-11.020343,24.411163,SIT
36287326041000,3.59502,3.96133926700056,1.90924327837136,8.53559484325728,-0.019242255,-0.0125227375,0.014660766,287.75085,-11.029615,24.413136,SIT
36287331065000,3.600044,3.94795199844185,1.92263059352625,8.50882021294751,-0.0290161,-0.013744468,0.014049901,287.75854,-11.0332155,24.422205,SIT
36287336063000,3.605042,3.95350131206195,1.92100974396903,8.51206166593865,-0.022602014,-0.010079277,0.015271631,287.76453,-11.041016,24.428095,SIT
36287341009000,3.609988,3.96290602819418,1.91630738590291,8.52146608746153,-0.034513887,-0.008246681,0.014966198,287.77127,-11.041708,24.434446,SIT
36287346106000,3.615085,3.96865277711706,1.91150660275734,8.52528542880973,-0.032070424,-0.00580322,0.011911872,287.784,-11.048703,24.435368,SIT
36287351047000,3.620026,3.97329598865666,1.90686336697576,8.52760708306349,-0.03390302,-0.008857546,0.008857546,287.79694,-11.051557,24.437218,SIT
36287356056000,3.625035,3.97800310191345,1.90215622914336,8.5299606888431,-0.034208454,-0.019242255,0.011301007,287.80783,-11.053773,24.441294,SIT
36287360989000,3.629968,3.98263879560396,1.89752051125012,8.53227858409381,-0.03390302,-0.0070249503,0.011301007,287.81894,-11.056371,24.439478,SIT
36287366047000,3.635026,3.98053371495418,1.90133454541334,8.52439028738545,-0.040927973,-0.010995574,0.008857546,287.83167,-11.057022,24.444916,SIT
36287371056000,3.640035,3.97585734614935,1.90834912303568,8.51269936537337,-0.04550946,-0.0067195175,0.006414085,287.8429,-11.058423,24.444553,SIT
36287376050000,3.645029,3.97119498124391,1.91534269473582,8.50104345310977,-0.04642576,0.00030543262,0.018020526,287.84607,-11.05832,24.449013,SIT
36287381070000,3.650049,3.96650834291285,1.92237267670111,8.48932685728212,-0.04337143,0.0061086523,0.01282817,287.85486,-11.0604315,24.451292,SIT
36287386061000,3.65504,3.97124100100096,1.92171669949952,8.48182943222234,-0.045814894,0.012217305,0.0106901415,287.85855,-11.059163,24.4523,SIT
36287391062000,3.660041,3.98144088957513,1.91661675521244,8.47672938142903,-0.050701816,0.016493361,0.008857546,287.86343,-11.05867,24.451855,SIT
36287396144000,3.665123,3.99323588047327,1.92464568047327,8.48785329915247,-0.04153884,0.018936822,0.008246681,287.87286,-11.067993,24.461405,SIT
36287401126000,3.670105,4.00524686082068,1.93665666082068,8.50386827406227,-0.036651913,0.015577064,0.013133603,287.88107,-11.074385,24.471264,SIT
36287406024000,3.675003,4.02005091813362,1.94593403915164,8.52299319575822,-0.037873644,0.015882496,0.015271631,287.88867,-11.08079,24.480282,SIT
36287411057000,3.680036,4.04049621304348,1.95104538956522,8.54854994782609,-0.038179077,0.019547688,0.010079277,287.8969,-11.088807,24.488777,SIT
36287416041000,3.68502,4.04750175414792,1.95483102337597,8.56050355234821,-0.028405234,0.0125227375,0.0125227375,287.90726,-11.096664,24.499584,SIT
36287421042000,3.690021,4.04023823207118,1.9572522142561,8.55808231090441,-0.034208454,0.016187929,0.019242255,287.91675,-11.100413,24.506031,SIT
36287426051000,3.69503,4.03296309068298,1.95967727826702,8.55565719624893,-0.03359759,0.011301007,0.01740966,287.92865,-11.108635,24.516985,SIT
36287431064000,3.700043,4.02568213963905,1.96210427884333,8.55323014498761,-0.029321533,0.019547688,0.018020526,287.93646,-11.11508,24.523453,SIT
36287436029000,3.705008,4.01367082177031,1.95956483790156,8.55454263120149,-0.03359759,0.012217305,0.027183503,287.9419,-11.119895,24.53593,SIT
36287441114000,3.710093,3.99692623998428,1.95238858856469,8.5593266475587,-0.03390302,0.013133603,0.02687807,287.94882,-11.127722,24.542974,SIT
36287446034000,3.715013,3.98072499271048,1.94544519687592,8.56395543034679,-0.035430185,0.013133603,0.018936822,287.9573,-11.135167,24.550594,SIT
36287451114000,3.720093,3.96399687560664,1.93827600383142,8.56873474265645,-0.028710667,0.0106901415,0.020158553,287.96307,-11.143423,24.558891,SIT
36287455985000,3.724964,3.95626417101106,1.93555797101106,8.57645685505529,-0.026572637,0.021991149,0.023823744,287.96948,-11.150601,24.562738,SIT
36287461040000,3.730019,3.95865411591627,1.93794791591627,8.58840657958136,-0.03023783,0.015271631,0.018020526,287.97968,-11.158808,24.571526,SIT
36287465989000,3.734968,3.96099394526066,1.94028774526066,8.60010572630332,-0.02687807,0.017104227,0.01282817,287.98566,-11.166859,24.571327,SIT
36287471051000,3.74003,3.96338719968404,1.94268099968404,8.61207199842022,-0.032070424,0.017104227,0.018325957,287.99066,-11.171006,24.57371,SIT
36287476010000,3.744989,3.96099347822589,1.94599406088706,8.61151699617822,-0.03268129,0.024129177,0.02321288,287.99673,-11.177748,24.573164,SIT
36287481046000,3.750025,3.95129242928694,1.95084458535653,8.59211499959771,-0.030543262,0.027794369,0.01985312,288.00385,-11.18411,24.573368,SIT
36287486579000,3.755558,3.94317691542348,1.94873363084695,8.57588418543834,-0.025045475,0.025045475,0.017715093,288.00916,-11.190412,24.573015,SIT
36287491063000,3.760042,3.93892308964834,1.94022597929668,8.56737680039624,-0.034208454,0.029932396,0.019242255,288.01358,-11.1933365,24.569618,SIT
36287495965000,3.764944,3.93336725639344,1.93721534360656,8.56256603934426,-0.029626964,0.026267206,0.01985312,288.0174,-11.204114,24.562822,SIT
36287501058000,3.770037,3.92609830819672,1.94448429180328,8.56498881967213,-0.035124753,0.01863139,0.022907447,288.01996,-11.209238,24.556293,SIT
36287505968000,3.774947,3.91909054545455,1.95149205454545,8.56732454545454,-0.031154128,0.0143553335,0.014049901,288.02466,-11.217866,24.549595,SIT
36287511087000,3.780066,3.91178448894188,1.95879811105812,8.56975969418778,-0.0290161,0.020158553,0.019547688,288.02386,-11.222348,24.543428,SIT
36287515915000,3.784894,3.91393099915544,1.95665160084456,8.57618745264428,-0.038179077,0.026267206,0.025350908,288.026985061093,-11.2267723259618,24.5386950681612,SIT
36287520990000,3.789969,3.93347745401166,1.93710514598834,8.59084759993968,-0.04337143,0.021380283,0.019547688,288.03027,-11.231423,24.53372,SIT
36287525925000,3.794904,3.94227740073246,1.92325470036623,8.59660593041671,-0.03756821,0.016187929,0.019547688,288.0289,-11.244503,24.531479,SIT
36287530958000,3.799937,3.93273567364149,1.91848383682075,8.5870640040582,-0.03390302,0.011911872,0.01863139,288.02988,-11.256162,24.529993,SIT
36287535927000,3.804906,3.92171822942149,1.91589168561983,8.58028870330578,-0.040011674,0.023518313,0.018936822,288.0253,-11.261968,24.527622,SIT
36287540963000,3.809942,3.90736917543141,1.91748602495207,8.57869433067769,-0.036957346,0.029626964,0.018325957,288.02197,-11.271018,24.527786,SIT
36287545951000,3.81493,3.89315688764298,1.91906516803967,8.57711515461157,-0.037873644,0.027488936,0.017715093,288.01813,-11.276849,24.526594,SIT
36287550967000,3.819946,3.87886481957025,1.92065317560331,8.5755271138843,-0.042760566,0.029626964,0.016798794,288.01395,-11.2822895,24.522543,SIT
36287556204000,3.825183,3.86394305711074,1.92231114920992,8.57386910565289,-0.042760566,0.029932396,0.015271631,288.01407,-11.282903,24.511526,SIT
36287560971000,3.82995,3.85036046370909,1.92382032625455,8.57235989709091,-0.04153884,0.03176499,0.008857546,288.01578,-11.283306,24.499502,SIT
36287565972000,3.834951,3.84308564710073,1.92354517644963,8.57402810528399,-0.0421497,0.029321533,0.00580322,288.0172,-11.283055,24.489075,SIT
36287570966000,3.839945,3.85255062616268,1.91881268691866,8.58349328201069,-0.04337143,0.026572637,0.005192355,288.0198,-11.283468,24.478355,SIT
36287575946000,3.844925,3.8594532,1.91412585614695,8.59163153095169,-0.046731193,0.025961773,0.0030543262,288.0204,-11.289857,24.460432,SIT
36287581081000,3.85006,3.8594532,1.90938406415485,8.59637327343072,-0.04642576,0.021380283,0.0067195175,288.01993,-11.296079,24.445263,SIT
36287586015000,3.854994,3.8594532,1.90482788076849,8.60092940924212,-0.046731193,0.021685716,0.006414085,288.01965,-11.300495,24.429813,SIT
36287591027000,3.860006,3.8594532,1.90019967016199,8.60555757152155,-0.032986723,0.02321288,0.009773844,288.01746,-11.307642,24.416206,SIT
36287596034000,3.865013,3.85747438682912,1.89488849121941,8.61482634200987,-0.04337143,0.01740966,0.007330383,288.01767,-11.309068,24.404615,SIT
36287601022000,3.870001,3.84304409429061,1.88526829619374,8.65330717233914,-0.046120327,0.018325957,0.010995574,288.01453,-11.314691,24.391733,SIT
36287606002000,3.874981,3.83009758515031,1.87580367030062,8.68460096287577,-0.04337143,0.008857546,0.010995574,288.01138,-11.319152,24.384737,SIT
36287611061000,3.88004,3.82571067540746,1.86702985081492,8.67363368851865,-0.03604105,0.01863139,0.014660766,288.0047,-11.323086,24.372868,SIT
36287616040000,3.885019,3.82139313763129,1.85839477526259,8.66283984407823,-0.03970624,0.014966198,0.01038471,288.00143,-11.3205185,24.359043,SIT
36287621039000,3.890018,3.81705825686346,1.84972501372691,8.65200264215864,-0.036651913,0.013744468,0.0143553335,287.99384,-11.3201475,24.343105,SIT
36287626366000,3.895345,3.81243895103223,1.84048640206447,8.64045437758059,-0.041233405,0.015271631,0.015271631,287.98846,-11.316141,24.322485,SIT
36287631119000,3.900098,3.8080264358686,1.8458324282628,8.655993820657,-0.03573562,0.012217305,0.010995574,287.98398,-11.315752,24.304081,SIT
36287636003000,3.904982,3.80341233986387,1.85506062027227,8.67906430068068,-0.042455133,0.016187929,0.0036651916,287.97974,-11.311334,24.283804,SIT
36287641095000,3.910074,3.79862545146691,1.8579005,8.67943020840476,-0.043066,0.011911872,0.0033597588,287.9688,-11.3097105,24.265854,SIT
36287646172000,3.915151,3.79386256550913,1.8579005,8.6699045856884,-0.027488936,0.0070249503,0.0027488936,287.9602,-11.311486,24.247202,SIT
36287651095000,3.920074,3.78924415156977,1.8579005,8.66066790248322,-0.03970624,0.0076358155,0.00580322,287.95203,-11.306716,24.227247,SIT
36287656066000,3.925045,3.7845807073909,1.8579005,8.65134116020963,-0.035430185,0.010079277,0.008552114,287.94455,-11.310278,24.208708,SIT
36287661049000,3.930028,3.7873619873382,1.8594082852833,8.647857,-0.03023783,0.010079277,0.007330383,287.940946209863,-11.3115565230569,24.2006066997099,SIT
36287666063000,3.935042,3.7946173501385,1.86182672271468,8.647857,-0.022296581,0.0061086523,0.009162978,287.93732,-11.312843,24.192455,SIT
36287671039000,3.940018,3.80181772614455,1.86422683134223,8.647857,-0.03023783,-0.00030543262,0.010995574,287.92905,-11.310511,24.177053,SIT
36287676061000,3.94504,3.80908466511206,1.86664912746915,8.647857,-0.029932396,0.004276057,0.005497787,287.9285,-11.314308,24.16888,SIT
36287681098000,3.950077,3.81475954477223,1.87066764477223,8.65104724483243,-0.028099801,0.0015271631,0.006414085,287.92673,-11.313882,24.161627,SIT
36287686064000,3.955043,3.81953160866948,1.87543970866948,8.65581915924142,-0.027183503,-0.0021380284,0.004581489,287.92728,-11.314297,24.153131,SIT
36287691078000,3.960057,3.81810194897512,1.86792194692535,8.64525720054343,-0.03359759,-0.0027488936,0.01282817,287.92477,-11.312388,24.146852,SIT
36287696142000,3.965121,3.81347835137763,1.8540511541329,8.62676266531605,-0.028710667,-0.0070249503,0.0067195175,287.92773,-11.315576,24.141796,SIT
36287701115000,3.970094,3.81727528592103,1.85973587184205,8.6219791025429,-0.021991149,0.003970624,0.014049901,287.92395,-11.3140745,24.130531,SIT
36287706043000,3.975022,3.8270322572669,1.8792498145338,8.62685769009717,-0.022296581,0.002443461,0.010995574,287.92633,-11.314022,24.123184,SIT
36287711054000,3.980033,3.83823893287446,1.89264382199611,8.61968360915756,-0.027794369,-0.0070249503,0.01160644,287.92297,-11.312658,24.120483,SIT
36287716054000,3.985033,3.85018067560477,1.90219724111926,8.60535346800339,-0.03023783,-0.0070249503,0.013744468,287.9196,-11.312155,24.115623,SIT
36287721039000,3.990018,3.86208659310689,1.91172199998504,8.59106631727268,-0.027794369,-0.00061086525,0.013744468,287.9162,-11.3172865,24.11083,SIT
36287726037000,3.995016,3.87402355914011,1.92127159774054,8.57674190817497,-0.026572637,-0.0018325958,0.01038471,287.9138,-11.321468,24.108185,SIT
36287731073000,4.000052,3.87568696964836,1.92931794552746,8.5829214128723,-0.019547688,-0.011301007,0.0021380284,287.91574,-11.32701,24.10853,SIT
36287736061000,4.00504,3.87101449169071,1.93632666246393,8.60161147107155,-0.022907447,-0.009468411,0.008857546,287.91348,-11.328672,24.106798,SIT
36287741087000,4.010066,3.86630641746956,1.94338877379567,8.62044391543992,-0.021991149,-0.008857546,0.0106901415,287.91907,-11.338093,24.110313,SIT
36287746113000,4.015092,3.8615983432484,1.9504508851274,8.63927635980829,-0.021685716,-0.011301007,0.01282817,287.92258,-11.345427,24.114454,SIT
36287751132000,4.020111,3.87250117164254,1.94583981701448,8.64524735117324,-0.018936822,-0.01160644,0.0067195175,287.92786,-11.3542,24.117292,SIT
36287756060000,4.025039,3.89606306400399,1.9317026815976,8.64053487428857,-0.029932396,-0.015577064,0.015271631,287.9283,-11.35726,24.122713,SIT
36287761029000,4.030008,3.90490976336278,1.92736563663722,8.63585251266867,-0.023823744,-0.009468411,0.01038471,287.9362,-11.369437,24.120977,SIT
36287766071000,4.03505,3.90022223539462,1.93205316460538,8.63116488680711,-0.019547688,-0.007330383,0.014049901,287.93933,-11.376074,24.122417,SIT
36287771059000,4.040038,3.90231059532995,1.92541458558376,8.62187780203046,-0.022602014,-0.0030543262,0.013439035,287.94037,-11.383176,24.130636,SIT
36287776169000,4.045148,3.91224713299492,1.90554145837563,8.60697320304569,-0.026572637,-0.005497787,0.008246681,287.94196,-11.390971,24.139742,SIT
36287781145000,4.050124,3.9146427942552,1.9030213409501,8.59315924047137,-0.02076942,-0.020463986,0.009773844,287.94687,-11.397975,24.151125,SIT
36287786048000,4.055027,3.91031992089855,1.91599000615909,8.5801903495673,-0.02443461,-0.020158553,0.01038471,287.95267,-11.402077,24.158247,SIT
36287791104000,4.060083,3.90563653272476,1.92663886727524,8.56443936641545,-0.024740042,-0.006414085,0.008857546,287.95514,-11.405185,24.167542,SIT
36287796131000,4.06511,3.90052639859888,1.93174900140113,8.54399893663093,-0.026267206,-0.0018325958,0.008857546,287.95689975516,-11.4079370332861,24.173381742412,SIT
36287800988000,4.069967,3.89674842588305,1.93755092235085,8.52888712466607,-0.01282817,-0.0027488936,0.005497787,287.9586,-11.410596,24.179024,SIT
36287806043000,4.075022,3.89435351522707,1.94473565431879,8.51930753205699,-0.03176499,-0.00061086525,0.0070249503,287.9632,-11.410472,24.186611,SIT
