timestamp,rel_time,acc_x,acc_y,acc_z,gyro_x,gyro_y,gyro_z,azimuth,pitch,roll,label
18298510631000,0,0.395726772886307,9.835381,-0.124839052361823,-0.06536258,0.040317107,0.043982297,80.02345,-49.60521,14.69003,STD
18298514698000,0.004067,0.395241222894585,9.835381,-0.123576622626708,-0.046731193,0.04550946,0.037873644,80.05171,-50.14316,14.640888,STD
18298519734000,0.009103,0.394639986170141,9.835381,-0.1220134074445,-0.045814894,0.048563786,0.040927973,80.07753,-50.663815,14.595753,STD
18298524711000,0.01408,0.394045793323128,9.835381,-0.120468506340082,-0.0571159,0.047647487,0.032986723,80.10396,-51.179737,14.545706,STD
18298529703000,0.019072,0.393449809659819,9.835381,-0.118918949114192,-0.049480084,0.05100725,0.03359759,80.12443,-51.691242,14.496357,STD
18298534762000,0.024131,0.392845827017054,9.835381,-0.117348594545727,-0.05100725,0.048563786,0.03604105,80.14534,-52.189888,14.44614,STD
18298539825000,0.029194,0.392241366823277,9.835381,-0.115776998344869,-0.043676864,0.042760566,0.03359759,80.16475,-52.68521,14.394398,STD
18298544823000,0.034192,0.39164466683345,9.835381,-0.11422557867039,-0.05222898,0.04550946,0.030848695,80.180016,-53.16769,14.341687,STD
18298549694000,0.039063,0.391063129088262,9.835381,-0.112713580824374,-0.046731193,0.044898596,0.034513887,80.194565,-53.647255,14.291009,STD
18298554801000,0.04417,0.39045341583335,9.835381,-0.111128326667199,-0.05100725,0.05222898,0.028405234,80.2062,-54.115643,14.235338,STD
18298559716000,0.049085,0.389866625027027,9.835381,-0.109602670864865,-0.04795292,0.049785517,0.030543262,80.21612,-54.578117,14.183879,STD
18298564700000,0.054069,0.389271596465743,9.835381,-0.10805559690376,-0.046731193,0.049785517,0.024129177,80.22363,-55.03305,14.127217,STD
18298569735000,0.059104,0.388670479129052,9.835381,-0.10649269212965,-0.04337143,0.060170226,0.026267206,80.22509,-55.480366,14.071828,STD
18298574706000,0.064075,0.388077002608557,9.835381,-0.104949653473821,-0.042760566,0.056199603,0.024740042,80.22934,-55.920944,14.016155,STD
18298580085000,0.069454,0.387434815884811,9.835381,-0.103279968313952,-0.03848451,0.059253927,0.02443461,80.22632,-56.35542,13.95875,STD
18298584741000,0.07411,0.386878946506532,9.835381,-0.101834708209036,-0.03970624,0.052839845,0.014660766,80.22597,-56.7826,13.9007015,STD
18298589785000,0.079154,0.386276754680064,9.835381,-0.100269009762042,-0.04153884,0.0571159,0.023518313,80.217026,-57.201088,13.845339,STD
18298594729000,0.084098,0.385686501628902,9.835381,-0.0987343521248629,-0.04428773,0.050701816,0.02107485,80.21319,-57.614414,13.787433,STD
18298599691000,0.08906,0.385094099598185,9.835381,-0.0971941071419168,-0.040927973,0.058337633,0.021685716,80.200554,-58.020176,13.730104,STD
18298604772000,0.094141,0.384487490424853,9.835381,-0.0956169235952927,-0.03390302,0.04520403,0.01740966,80.193634,-58.420063,13.674981,STD
18298609715000,0.099084,0.383897356761444,9.835381,-0.0940825763662112,-0.035124753,0.052839845,0.020158553,80.17597,-58.81074,13.618144,STD
18298614701000,0.10407,0.383302089424653,9.835381,-0.0925348815889099,-0.035124753,0.040317107,0.017715093,80.16594,-59.197845,13.56374,STD
18298619738000,0.109107,0.382700733312456,9.835381,-0.0909713559986038,-0.028710667,0.046120327,0.020463986,80.14573,-59.5784,13.508174,STD
18298624708000,0.114077,0.382107376179715,9.835381,-0.0894286277508726,-0.038179077,0.04734206,0.028099801,80.12737,-59.947853,13.455852,STD
18298629707000,0.119076,0.381510556802134,9.835381,-0.0878768976682956,-0.029626964,0.03970624,0.019242255,80.1094,-60.318657,13.400773,STD
18298634743000,0.124112,0.38090932007769,9.835381,-0.0863136824860876,-0.029932396,0.038179077,0.018936822,80.085144,-60.676132,13.349245,STD
18298639760000,0.129129,0.380310351720555,9.835381,-0.0847563650577441,-0.036651913,0.0421497,0.019242255,80.06034,-61.02876,13.296312,STD
18298644703000,0.134072,0.379720218057146,9.835381,-0.0832220178286626,-0.03573562,0.039095376,0.019242255,80.03569,-61.376907,13.244752,STD
18298649951000,0.13932,0.379093671129052,9.835381,-0.08159299612965,-0.037873644,0.029932396,0.025350908,80.008705,-61.715424,13.195585,STD
18298654754000,0.144123,0.378520251751072,9.835381,-0.0801021060343074,-0.03940081,0.03604105,0.023823744,79.977356,-62.049175,13.143453,STD
18298659712000,0.149081,0.377928327271367,9.835381,-0.0785631026837539,-0.038789943,0.038789943,0.027488936,79.94587,-62.375244,13.096262,STD
18298664699000,0.154068,0.377332940546824,9.835381,-0.0770150974983544,-0.03726278,0.036957346,0.02107485,79.913414,-62.696785,13.046377,STD
18298669736000,0.159105,0.376731584434627,9.835381,-0.0754515719080483,-0.032986723,0.03940081,0.021685716,79.87585,-63.011753,12.998982,STD
18298674732000,0.164101,0.376135123220305,9.835381,-0.0739007730497656,-0.047647487,0.023823744,0.024129177,79.84225,-63.31718,12.953268,STD
18298679703000,0.169072,0.37554164669981,9.835381,-0.0723577343939364,-0.03848451,0.032375857,0.015882496,79.8008,-63.62525,12.902462,STD
18298684742000,0.174111,0.374940051812107,9.835381,-0.0707935879874339,-0.03756821,0.0290161,0.015577064,79.76367,-63.92054,12.858066,STD
18298689847000,0.179216,0.374330577332702,9.835381,-0.0692089546464546,-0.043066,0.035124753,0.019547688,79.720345,-64.21149,12.811249,STD
18298694818000,0.184187,0.373737100812207,9.835381,-0.0676659159906253,-0.03756821,0.03359759,0.019547688,79.67868,-64.50046,12.765178,STD
18298699700000,0.189069,0.373770143101642,9.83565567421019,-0.0619560143405524,-0.0290161,0.03268129,0.015577064,79.63345,-64.78345,12.719019,STD
18298704775000,0.194144,0.374257902633074,9.83614341795291,-0.0529324660649412,-0.04062254,0.029321533,0.012217305,79.587555,-65.05743,12.674103,STD
18298709720000,0.199089,0.374733167831681,9.83661866776725,-0.0441400628683112,-0.040317107,0.030543262,0.017715093,79.56104,-65.34064,12.618965,STD
18298714702000,0.204071,0.37521198910963,9.83709747354582,-0.035281872226125,-0.034513887,0.027183503,0.014049901,79.53614,-65.61895,12.562113,STD
18298719738000,0.209107,0.375696000341215,9.83758146911003,-0.0263276674742082,-0.0421497,0.015882496,0.007330383,79.510925,-65.888535,12.507342,STD
18298724717000,0.214086,0.376174533288407,9.83805998656718,-0.0174748109492293,-0.043066,0.016798794,0.0143553335,79.48043,-66.154495,12.455163,STD
18298729702000,0.219071,0.376653642897114,9.83853908066717,-0.00861128618983582,-0.04734206,0.021685716,0.008552114,79.45213,-66.41573,12.399295,STD
18298734768000,0.224137,0.377140537436273,9.83902595944563,0.000396259734153588,-0.038789943,0.021380283,0.004276057,79.422386,-66.6736,12.346924,STD
18298739763000,0.229132,0.377620608147505,9.83950601461704,0.00927756488423789,-0.037873644,0.018325957,0.0027488936,79.390656,-66.92422,12.294337,STD
18298744707000,0.234076,0.37809577723586,9.83998116832423,0.0180681900417988,-0.037873644,0.020158553,0.0009162979,79.35642,-67.172554,12.240938,STD
18298749692000,0.239061,0.378574886844567,9.84046026242423,0.0269317148011922,-0.028710667,0.015271631,0.010079277,79.32235,-67.41706,12.1918955,STD
18298754776000,0.244145,0.379063511368271,9.84094887113123,0.0359712654284252,-0.039095376,0.011911872,0.0018325958,79.28759,-67.655235,12.138198,STD
18298759716000,0.249085,0.379538296015616,9.84142364040986,0.0447547784297098,-0.02321288,0.020463986,0.0021380284,79.24762,-67.89442,12.089473,STD
18298764702000,0.254071,0.380017501734575,9.841902830617,0.0536200812281723,-0.033292156,0.0290161,0.006414085,79.20748,-68.12108,12.040785,STD
18298769740000,0.259109,0.380501705186665,9.84238701839549,0.0625778420582273,-0.035124753,0.0290161,0.0012217305,79.16668,-68.35042,11.990491,STD
18298774711000,0.26408,0.380979469251837,9.8428647669955,0.0714164742706535,-0.025045475,0.030848695,0.0067195175,79.12023,-68.57337,11.9442215,STD
18298779698000,0.269067,0.381458771081049,9.84334405330978,0.0802835551081851,-0.031154128,0.020463986,-0.00061086525,79.07747,-68.79067,11.895029,STD
18298784736000,0.274105,0.381942974533138,9.84382824108827,0.0892413159382401,-0.02443461,0.02321288,-0.00061086525,79.0521006408228,-68.8975282120253,11.8729209885285,STD
18298789810000,0.279179,0.382430637954317,9.84431588872386,0.0982630861747822,-0.027183503,0.026267206,0.0067195175,79.02655,-69.00515,11.850655,STD
18298794705000,0.284074,0.382901097640299,9.84478633318112,0.106966587417958,-0.029321533,0.01863139,0.0033597588,78.98258,-69.21548,11.804313,STD
18298799689000,0.289058,0.383380111138754,9.84526533117398,0.115828334138282,-0.0125227375,0.014966198,0.008552114,78.93325,-69.4244,11.762333,STD
18298804791000,0.29416,0.383870465647003,9.84575566980952,0.124899889468759,-0.020463986,0.019242255,0.0036651916,78.88376,-69.6252,11.717516,STD
18298809707000,0.299076,0.384342943648288,9.84622813251676,0.133640729532385,-0.022907447,0.021991149,0.0061086523,78.83346,-69.82502,11.677382,STD
18298814706000,0.304075,0.38482339880053,9.84670857211674,0.142529146838746,-0.015577064,0.0143553335,0.004581489,78.78446,-70.02276,11.636157,STD
18298819735000,0.309104,0.385306737260347,9.84719189493095,0.151470905317179,-0.020158553,0.013744468,0.009773844,78.73087,-70.211716,11.597498,STD
18298824710000,0.314079,0.385784885766529,9.84767002795954,0.160316649685882,-0.017104227,0.01740966,0.015271631,78.67725,-70.40045,11.559599,STD
18298829699000,0.319068,0.386264379816246,9.8481495064881,0.169187286601552,-0.027794369,0.020158553,0.014966198,78.62307,-70.5813,11.522439,STD
18298835406000,0.324775,0.386812881027257,9.8486979899442,0.179334555568825,-0.0290161,0.016798794,0.014966198,78.56812,-70.76031,11.487826,STD
18298839796000,0.329165,0.387234805035727,9.84911990029505,0.187140147082112,-0.019547688,0.023518313,0.014049901,78.50873,-70.935936,11.452639,STD
18298844794000,0.334163,0.387715164077717,9.84960024378788,0.196026786349404,-0.023518313,0.018936822,0.007941248,78.452965,-71.10561,11.4178705,STD
18298849693000,0.339062,0.388186008204709,9.85007107267372,0.204737399748856,-0.031154128,0.018020526,0.0033597588,78.393364,-71.27301,11.383233,STD
18298854825000,0.344194,0.388679246020533,9.8505642945235,0.213862296251405,-0.021991149,0.01740966,0.0125227375,78.33356,-71.438515,11.351805,STD
18298859714000,0.349083,0.389149129045,9.85103416233792,0.222555129260166,-0.030848695,0.014660766,0.009773844,78.27505,-71.59779,11.316816,STD
18298864704000,0.354073,0.38962871920497,9.85151373697363,0.231427544214905,-0.033292156,0.021380283,0.010995574,78.21228,-71.754944,11.285558,STD
18298869735000,0.359104,0.390112249885292,9.85199725200213,0.240372858771476,-0.029321533,0.01985312,0.010995574,78.15215,-71.909035,11.254704,STD
18298874706000,0.364075,0.390590013950464,9.85247500060214,0.249211490983903,-0.03634648,0.01740966,0.008857546,78.08976,-72.05716,11.223903,STD
18298879699000,0.369068,0.391069892441191,9.85295486355927,0.258089240055849,-0.0290161,0.009468411,0.011301007,78.0284,-72.20543,11.195561,STD
18298884747000,0.374116,0.391555056995805,9.85344001240918,0.267064781276595,-0.042455133,0.005497787,0.0125227375,77.96619,-72.345146,11.166875,STD
18298889760000,0.379129,0.392036857691582,9.85392179750913,0.275978091129923,-0.034208454,0.0009162979,0.0106901415,77.90582,-72.48838,11.139261,STD
18298894703000,0.384072,0.392511930669684,9.85439685510919,0.284766938248414,-0.028099801,0.005497787,0.007941248,77.84335,-72.62526,11.112008,STD
18298899693000,0.389062,0.405991076565005,9.85786956705767,0.280633205200391,-0.03573562,0.007941248,0.0106901415,77.78194,-72.75741,11.086858,STD
18298905098000,0.394467,0.426230619487781,9.86292955581623,0.270513439022483,-0.04184427,-0.003970624,0.008246681,77.72328,-72.889854,11.0607605,STD
18298909714000,0.399083,0.429387605567494,9.85783625503028,0.250894948138308,-0.020463986,-0.011911872,0.012217305,77.679245,-73.01387,11.027641,STD
18298914699000,0.404068,0.427056078511428,9.84851019549717,0.225248131045126,-0.026572637,-0.011301007,0.006414085,77.636375,-73.1304,10.992196,STD
18298919737000,0.409106,0.424699762902911,9.83908498227193,0.199328639667904,-0.022907447,-0.008857546,0.008857546,77.62762,-73.271774,10.952815,STD
18298924710000,0.414079,0.422373848349287,9.82978137263137,0.173743560148466,-0.032070424,-0.00580322,0.0061086523,77.617966,-73.40801,10.911272,STD
18298929711000,0.41908,0.418660961542259,9.84211525345577,0.122027698203989,-0.032375857,-0.009773844,0.007330383,77.64817,-73.57173,10.857214,STD
18298934742000,0.424111,0.413903755635861,9.87065852863349,0.0506697059759084,-0.022907447,-0.009773844,0.009773844,77.67426,-73.73204,10.803429,STD
18298939777000,0.429146,0.401272218760872,9.89642806967654,-0.00717254404592983,-0.02565634,-0.016187929,0.007941248,77.76106,-73.93243,10.731714,STD
18298944704000,0.434073,0.382828001723835,9.9194833289358,-0.0532830953051891,-0.029626964,-0.011301007,0.01038471,77.84022,-74.12801,10.6625185,STD
18298949694000,0.439063,0.371138776290529,9.9335054868434,-0.109608049556519,-0.03390302,-0.009468411,0.008552114,77.99359,-74.38199,10.565031,STD
18298954743000,0.444112,0.36637349953878,9.93827036552676,-0.176321971849217,-0.022296581,-0.0076358155,0.0033597588,78.13861,-74.63097,10.468879,STD
18298959724000,0.449093,0.362418738454857,9.93772517570413,-0.217439395386944,-0.016798794,-0.0027488936,0.011911872,78.37518,-74.95263,10.329537,STD
18298964702000,0.454071,0.359281507592788,9.93145075329034,-0.231556930990392,-0.026267206,-0.0076358155,0.01282817,78.60299,-75.26459,10.190228,STD
18298969699000,0.459068,0.356132302567123,9.92515238269939,-0.245728350317518,-0.034208454,-0.0030543262,0.012217305,78.967865,-75.68545,9.9898,STD
18298974752000,0.464121,0.352947805269808,9.91878342800737,-0.260058584830218,-0.025350908,-0.008246681,0.009773844,79.315506,-76.08949,9.795052,STD
18298979687000,0.469056,0.349837673830613,9.91256320409976,-0.274054173059029,-0.013439035,-0.008246681,0.016798794,79.557674524196,-76.337820228434,9.66528686474301,STD
18298984733000,0.474102,0.346657588067255,9.90620307242038,-0.288364555673533,-0.028710667,-0.008552114,0.0143553335,79.80529,-76.591736,9.532603,STD
18298989704000,0.479073,0.339634235411978,9.91952067005445,-0.302011824588022,-0.021685716,-0.007330383,0.013133603,80.266,-77.074356,9.275669,STD
18298994715000,0.484084,0.326569976372051,9.96306816987296,-0.315076083627949,-0.02687807,-0.004581489,0.022602014,80.76488,-77.5816,8.993322,STD
18298999682000,0.489051,0.314176255205365,9.99911520180218,-0.320965524132439,-0.025350908,-0.004886922,0.022602014,81.312744,-78.14349,8.664349,STD
18299004760000,0.494129,0.303985351936295,10.0042107598491,-0.295488244677284,-0.02443461,-0.00061086525,0.025961773,81.83093,-78.676926,8.347248,SCH
18299009679000,0.499048,0.295659107085492,10.0065410641192,-0.278949310362694,-0.030543262,0.0067195175,0.024129177,82.41525,-79.263985,7.9832253,SCH
18299014698000,0.504067,0.291211840284974,10.0020937137306,-0.283396567875648,-0.027794369,0.004276057,0.026572637,82.97291,-79.825035,7.6315365,SCH
18299019754000,0.509123,0.286068236031366,9.99725904065528,-0.28637722678154,-0.029932396,0.011911872,0.02687807,83.60688,-80.44997,7.2167745,SCH
18299024728000,0.514097,0.276551696124263,9.99012174068525,-0.279239819988013,-0.04428773,0.014966198,0.032375857,84.21239,-81.042404,6.817001,SCH
18299029697000,0.519066,0.267044722501748,9.98299161532314,-0.272109587909799,-0.043982297,0.015882496,0.03848451,84.90865,-81.71931,6.3415217,SCH
18299034734000,0.524103,0.25740764740885,9.97576391529318,-0.264881779703326,-0.044593163,0.013744468,0.040011674,85.570625,-82.35957,5.882699,SCH
18299039776000,0.529145,0.24772308633275,9.96690824729744,-0.257936828498919,-0.05375614,0.02687807,0.030848695,86.19654,-82.96807,5.4380565,SCH
18299044728000,0.534097,0.23795795952126,9.94737810583754,-0.253054267642335,-0.064446285,0.035124753,0.03481932,86.79512,-83.54372,5.013161,SCH
18299049704000,0.539073,0.231463644752407,9.92952868225585,-0.246566542448418,-0.05375614,0.0421497,0.025961773,87.367455,-84.1033,4.590737,SCH
18299054779000,0.544148,0.241014103658872,9.91997802888583,-0.232240851595598,-0.06658431,0.04184427,0.032070424,87.91441,-84.62669,4.188479,SCH
18299059727000,0.549096,0.248664576620127,9.9113301986628,-0.216277822846959,-0.07360926,0.03726278,0.03940081,88.43788,-85.134674,3.7924783,SCH
18299064697000,0.554066,0.246324640220736,9.90665022324369,-0.188198539630795,-0.065973446,0.05009095,0.03726278,88.93502,-85.62051,3.409427,SCH
18299070107000,0.559476,0.243777546474116,9.90155592404503,-0.157633364137948,-0.07544186,0.057726767,0.03481932,89.40712,-86.07565,3.0413265,SCH
18299074764000,0.564133,0.241584974278551,9.89717068349639,-0.131322454291333,-0.08093964,0.053145275,0.038789943,89.86088,-86.51116,2.687616,SCH
18299079751000,0.56912,0.239936065034158,9.89232512250739,-0.106376650068316,-0.0870483,0.056199603,0.044593163,90.29342,-86.92516,2.3462617,SCH
18299084737000,0.574106,0.246548411513109,9.88571287269203,-0.119601343026219,-0.09621128,0.05375614,0.04062254,90.71314,-87.31975,2.0155568,SCH
18299090876000,0.580245,0.254689846538035,9.8775715566839,-0.135884213076071,-0.092240654,0.05222898,0.051618114,91.12701,-87.69225,1.6971763,SCH
18299094796000,0.584165,0.259888482357829,9.87237299686115,-0.146281484715657,-0.09437868,0.05589417,0.051923547,91.52615,-88.04559,1.3862778,SCH
18299099717000,0.589086,0.266414626967319,9.8658469476551,-0.159333773934638,-0.09560041,0.05497787,0.056199603,91.90287,-88.375725,1.0886934,SCH
18299104742000,0.594111,0.27177162043142,9.87859500610501,-0.184531853931624,-0.11178834,0.061086524,0.06169739,92.26487,-88.67971,0.80212265,SCH
18299109684000,0.599053,0.276587304761905,9.89785764285714,-0.213425975,-0.11636983,0.061391957,0.0711658,92.61778,-88.95743,0.52814335,SCH
18299114748000,0.604117,0.264560618546353,9.91182283688086,-0.240957208814688,-0.12767084,0.06811147,0.07941248,92.94981,-89.1908,0.27101097,SCH
18299119712000,0.609081,0.247775846297791,9.92381195097347,-0.267333282352466,-0.13164146,0.08307768,0.08552113,93.26999,-89.36587,0.024892626,SCH
18299124709000,0.614078,0.230879491155553,9.93588076707354,-0.293884700456471,-0.14844026,0.101098195,0.0870483,93.58433,-89.44721,-0.20709352,SCH
18299129685000,0.619054,0.214054143309291,9.94789886371432,-0.320324535654696,-0.15454891,0.10476339,0.09407325,93.88972,-89.41642,-0.42767963,SCH
18299134738000,0.624107,0.192797171062001,9.98012294413751,-0.367360789817373,-0.16065755,0.12003502,0.09590584,94.17843,-89.29459,-0.64154917,SCH
18299139755000,0.629124,0.170676158609576,10.0169912725599,-0.418976484256446,-0.16737708,0.13530666,0.10720685,94.45834,-89.133865,-0.8432223,SCH
18299144685000,0.634054,0.152221533121081,10.0531216728649,-0.462708859584865,-0.17928895,0.13164146,0.11026118,94.72753,-88.95039,-1.0445849,SCH
18299149699000,0.639068,0.147030384435676,10.0894598925405,-0.478282300220541,-0.18417588,0.1432479,0.118202426,94.98093,-88.76562,-1.2343156,SCH
18299154770000,0.644139,0.147089806449595,10.120842815506,-0.487557724060654,-0.19394971,0.15088372,0.12308934,95.22433,-91.42449,-1.4223348,SCH
18299160215000,0.649584,0.157442854910905,10.1441371022485,-0.484969463972304,-0.18661933,0.14355333,0.12675454,95.46207,-91.610596,-1.6018401,SCH
18299164675000,0.654044,0.165923037856257,10.1632174546583,-0.482849419896263,-0.19700404,0.14721853,0.13622294,95.68701,-91.78978,-1.7727064,SCH
18299169736000,0.659105,0.175545953974289,10.1848689487269,-0.480443692750782,-0.19822577,0.13744467,0.13164146,95.91184,-91.967545,-1.940481,SCH
18299174720000,0.664089,0.179021738062643,10.190486198115,-0.472965161524181,-0.204029,0.1337795,0.13500121,96.12822,-92.13435,-2.097487,SCH
18299179703000,0.669072,0.16993544344821,10.1632272336253,-0.454792558063595,-0.20158553,0.13652839,0.13836098,96.34009,-92.2972,-2.2502003,SCH
18299184756000,0.674125,0.15781516125832,10.1348512340202,-0.443527434828121,-0.21197024,0.13713925,0.13836098,96.547195,-92.44847,-2.3929863,SCH
18299189775000,0.679144,0.135901237964804,10.104171812802,-0.456675786973648,-0.21013765,0.13530666,0.13836098,96.7494,-92.59427,-2.5298533,SCH
18299194946000,0.684315,0.113695442848318,10.074625328877,-0.471540818131841,-0.21930063,0.129198,0.13439035,96.93328,-92.7321,-2.6624348,SCH
18299199696000,0.689065,0.0977811628743066,10.0723519331551,-0.501095916837423,-0.22571471,0.12980886,0.13316862,97.11173,-92.86429,-2.789608,SCH
18299204876000,0.694245,0.0804262217658054,10.0698727352941,-0.533326529741616,-0.24037547,0.12095132,0.14263703,97.29082,-92.994545,-2.915849,SCH
18299209710000,0.699079,0.0642305103143585,10.0675591363636,-0.563404287034834,-0.25381452,0.11942416,0.1459968,97.46369,-93.12144,-3.039611,SCH
18299214958000,0.704327,0.0485518657940093,10.0615509106114,-0.597769041090428,-0.27091873,0.12492194,0.14874569,97.63338,-93.23989,-3.1565301,SCH
18299219730000,0.709099,0.0571884589241236,10.0140496028536,-0.649588578227346,-0.2874121,0.12034045,0.15454891,97.802795,-93.35118,-3.2675164,SCH
18299224688000,0.714057,0.0661616837227629,9.96469681914391,-0.703427904531796,-0.29229903,0.12797627,0.16371189,97.9504,-93.46746,-3.3822567,SCH
18299230221000,0.71959,0.0538383865125569,9.95107931428572,-0.673485660051865,-0.31398472,0.13255776,0.1563815,98.09692,-93.58022,-3.4959722,SCH
18299234741000,0.72411,0.0420220523942675,9.9432016,-0.641975432171975,-0.3210097,0.14049901,0.16249016,98.2373,-93.68313,-3.5992754,SCH
18299239752000,0.729121,0.0457699435910571,9.92953108856089,-0.594755660681572,-0.32375857,0.14782938,0.17501289,98.36475,-93.78036,-3.6961682,SCH
18299244689000,0.734058,0.0560327379671153,9.91413712177122,-0.543441707554808,-0.35277468,0.15454891,0.17837265,98.48746,-93.87288,-3.7905054,SCH
18299249703000,0.739072,0.0849323724888721,9.93946647101998,-0.477433625112227,-0.3484986,0.16401732,0.19394971,98.61328,-93.95628,-3.8748815,SCH
18299254711000,0.74408,0.116727481040818,9.97126150842883,-0.40930124354579,-0.35277468,0.18020524,0.19120082,98.732544,-94.03836,-3.960168,SCH
18299259724000,0.749093,0.146964605236818,9.99775424966464,-0.355205557211846,-0.3717115,0.18784106,0.19883664,98.85507,-94.10663,-4.033583,SCH
18299264682000,0.754051,0.176362071413683,10.0222521210917,-0.306209783661129,-0.38820487,0.18173242,0.2098322,98.974594,-94.17186,-4.1038685,SCH
18299269711000,0.75908,0.189145452047208,10.0233235534074,-0.27172958345518,-0.3830125,0.17806722,0.21624629,99.09832,-94.2203,-4.1590104,SCH
18299274712000,0.764081,0.19794295421565,10.0189249424137,-0.240938314382807,-0.3933972,0.17837265,0.22602014,99.220695,-94.26142,-4.2078395,SCH
18299279722000,0.769091,0.200060153813995,9.99417868412035,-0.223526645082585,-0.39950588,0.17562376,0.23976462,99.33743,-94.289406,-4.2442865,SCH
18299284728000,0.774097,0.198417308537455,9.95803605715852,-0.213669576854225,-0.4184427,0.1826487,0.23976462,99.44962,-94.3168,-4.28018,SCH
18299289742000,0.779111,0.196771837858954,9.92183567130423,-0.203796756219587,-0.42363504,0.18448131,0.25045475,99.55584,-94.33788,-4.3096104,SCH
18299294732000,0.784101,0.195134243386334,9.88580856212734,-0.193971192803783,-0.43676865,0.17867808,0.2593123,99.661156,-94.35845,-4.338098,SCH
18299299869000,0.789238,0.193448407152697,9.84872013330135,-0.183856178922624,-0.4474588,0.18600847,0.26175576,99.76116,-94.3778,-4.3640127,SCH
18299304646000,0.794015,0.191880714007265,9.81423085463642,-0.174450023323967,-0.45204028,0.19150625,0.269697,99.8624,-94.39303,-4.3845906,SCH
18299309686000,0.799055,0.172328602132301,9.79896723434201,-0.145491981787474,-0.4636467,0.18997909,0.27458394,99.95741,-94.40462,-4.4004397,SCH
18299314676000,0.804045,0.148307157505781,9.78935896350658,-0.111861960313662,-0.48533243,0.1881465,0.2751948,100.05012,-94.41553,-4.4142003,SCH
18299319677000,0.809046,0.124680954721666,9.7723197782361,-0.116727566533098,-0.4831944,0.20280726,0.27855456,100.13022,-94.42638,-4.426324,SCH
18299324701000,0.81407,0.101054025153408,9.75341785405618,-0.130903723484581,-0.49510628,0.2098322,0.28008172,100.212456,-85.56141,-4.4379797,SCH
18299329682000,0.819051,0.0920305619228979,9.73050149741981,-0.137812800516038,-0.4990769,0.22418754,0.28099802,100.29356,-85.54322,-4.4535604,SCH
18299334691000,0.82406,0.0871767512140038,9.70623245401194,-0.142666609197612,-0.5030475,0.23823744,0.28130344,100.37214,-85.52412,-4.4679284,SCH
18299339713000,0.829082,0.0898465635375965,9.71592651338988,-0.132686186333746,-0.5155703,0.25473082,0.28313604,100.43746,-85.505196,-4.4800363,SCH
18299344687000,0.834056,0.0943862588674354,9.73408566634899,-0.119067096551987,-0.52473325,0.26908615,0.2764165,100.49902,-85.4828,-4.493749,SCH
18299349684000,0.839053,0.0991011663996003,9.73128025096178,-0.11492168,-0.5290093,0.27488935,0.27305678,100.55749,-85.45959,-4.5064335,SCH
18299354684000,0.844053,0.103885981788059,9.71931822248314,-0.11492168,-0.5323691,0.28893927,0.2678644,100.60926,-85.43276,-4.5208387,SCH
18299359746000,0.849115,0.108730128887334,9.70720786485136,-0.11492168,-0.5503896,0.29779682,0.25595254,100.64926,-85.41073,-4.5268927,SCH
18299364737000,0.854106,0.113506331608094,9.69526736802398,-0.11492168,-0.5516113,0.31031954,0.2510656,100.684296,-85.38849,-4.5320225,SCH
18299369772000,0.859141,0.127544040070423,9.67279540882135,-0.118077270841364,-0.55863625,0.32375857,0.24953845,100.71569,-85.36604,-4.534378,SCH
18299374758000,0.864127,0.145242321091549,9.64624791567828,-0.122501842251668,-0.5684101,0.33292156,0.24129178,100.74494,-85.33882,-4.5396757,SCH
18299379744000,0.869113,0.163641045299026,9.61604666401749,-0.127101525183787,-0.5907067,0.3436117,0.24098633,100.760994,-85.31248,-4.5403905,SCH
18299384720000,0.874089,0.18257773581363,9.58290727518379,-0.131835700284125,-0.6035349,0.36896262,0.24953845,100.77071,-85.28491,-4.540723,SCH
18299389783000,0.879152,0.189049924805942,9.53988169094394,-0.136561505194058,-0.6059783,0.38728857,0.24831672,100.778625,-85.25586,-4.5400667,SCH
18299394813000,0.884182,0.184433604345951,9.48910206947772,-0.141177825654049,-0.6178902,0.39950588,0.23884831,100.78175,-85.22359,-4.539375,SCH
18299399731000,0.8891,0.194289412926123,9.43928003930468,-0.141597087967166,-0.63132924,0.4083634,0.23823744,100.776924,-85.19798,-4.529521,SCH
18299404747000,0.894116,0.222123659531627,9.3882510191212,-0.136958050902945,-0.6258314,0.43157628,0.24037547,100.765434,-85.16979,-4.5218997,SCH
18299409700000,0.899069,0.244316592431078,9.35490882957393,-0.119386061343358,-0.6377433,0.45356745,0.24617869,100.740906,-85.1358,-4.514915,SCH
18299414746000,0.904115,0.257773725942634,9.3504230278474,-0.0790146570615428,-0.63621616,0.4654793,0.24801129,100.71386,-85.10207,-4.508708,SCH
18299419702000,0.909071,0.270333901295087,9.34259730621856,-0.0391508208922188,-0.6392705,0.48716503,0.2507602,100.66724,-85.07233,-4.492865,SCH
18299424755000,0.914124,0.280692794669806,9.32187908680295,0.00228478072995825,-0.64873886,0.49968776,0.25442538,100.62139,-85.041115,-4.4768147,SCH
18299429674000,0.919043,0.288931394892678,9.31191045095286,0.0645286600641926,-0.64660084,0.5345071,0.25992316,100.570244,-85.009674,-4.4574823,SCH
18299434722000,0.924091,0.293780320405216,9.32160848425276,0.171204879570712,-0.657291,0.54550266,0.26297748,100.524,-84.97404,-4.438355,SCH
18299439760000,0.929129,0.298523431218495,9.35080372275914,0.273910836168277,-0.677755,0.5500842,0.26175576,100.47657,-84.93417,-4.417949,SCH
18299444804000,0.934173,0.303100404801971,9.41488125734319,0.37002733877203,-0.6973027,0.55771995,0.2666427,100.426796,-84.893486,-4.395849,SCH
18299449729000,0.939098,0.311131758695219,9.49109710159363,0.456891889093625,-0.7263188,0.5513059,0.267559,100.373245,-84.835434,-4.3712144,SCH
18299454757000,0.944126,0.330315892376494,9.61099787450199,0.524036372001992,-0.72021013,0.54825157,0.269697,100.31872,-84.778854,-4.345863,SCH
18299459747000,0.949116,0.343619252789657,9.71276287210343,0.605544678607658,-0.7141015,0.5412266,0.27397305,100.27105,-84.70257,-4.3218184,SCH
18299464755000,0.954124,0.338849425400298,9.76046114599702,0.734330117732471,-0.7058548,0.5137377,0.25870144,100.23274,-84.62124,-4.3031845,SCH
18299469725000,0.959094,0.337846627068336,9.79813637659008,0.849132526851395,-0.68844515,0.4978552,0.25473082,100.1907,-84.541046,-4.2723308,SCH
18299474751000,0.96412,0.349712571478158,9.80288285149394,0.920328213134799,-0.68783426,0.44929138,0.24495697,100.1685,-84.45244,-4.247349,SCH
18299479761000,0.96913,0.361540741293758,9.80761421625086,0.991297251789764,-0.6768387,0.42241332,0.2489276,100.16505,-84.35438,-4.220474,SCH
18299485145000,0.974514,0.374251892249285,9.81269878069224,1.06756417875949,-0.6936375,0.3830125,0.25809056,100.18082,-84.248344,-4.1943154,SCH
18299489916000,0.979285,0.38891430021611,9.80649027308448,1.11367069115914,-0.73853606,0.3390302,0.27030787,100.18331,-84.13329,-4.1663017,SCH
18299494833000,0.984202,0.416668224605108,9.76023376463654,1.08129113524558,-0.7788532,0.32436943,0.2959642,100.18996,-84.018654,-4.132236,SCH
18299499776000,0.989145,0.446992929386792,9.71335318160377,1.04634298497642,-0.82619524,0.31764993,0.32589662,100.20529,-83.87407,-4.086282,SCH
18299504788000,0.994157,0.492274978179245,9.66354288537736,0.996532712391509,-0.87017757,0.3323107,0.3491095,100.220085,-83.722244,-4.0361524,SCH
18299510054000,0.999423,0.5363012,9.60615692723682,0.95324940284065,-0.9056077,0.34330627,0.38026363,100.23424,-83.57226,-3.9713106,SCH
18299514785000,1.004154,0.5363012,9.49833018107246,1.01519243207504,-0.9462303,0.3390302,0.40011674,100.250046,-83.41007,-3.9048266,SCH
18299519889000,1.009258,0.5363012,9.38200219281989,1.08201915395463,-0.96577793,0.31337386,0.41263947,100.24274,-83.25553,-3.8161564,SCH
18299524789000,1.014158,0.5363012,9.27032367745202,1.1461749018406,-0.9673051,0.30268374,0.4129449,100.23426,-83.09344,-3.728318,SCH
18299529786000,1.019155,0.534893505903049,9.15796553870211,1.21653154949179,-0.95203346,0.27152961,0.41416663,100.21874,-82.92391,-3.6382053,SCH
18299534790000,1.024159,0.516159194038311,9.06429410164191,1.34767161028147,-0.95356065,0.23671028,0.41325033,100.20955,-82.74743,-3.5508473,SCH
18299539983000,1.029352,0.49244504973913,8.96987753073463,1.49473895994003,-0.9370673,0.19822577,0.40286562,100.22711,-82.55277,-3.4621813,SCH
18299544806000,1.034175,0.413963096782609,8.91909502848576,1.77635067604198,-0.9114109,0.1704314,0.37995818,100.25383,-82.356995,-3.379178,SCH
18299550044000,1.039413,0.326469673693634,8.87544659759677,2.07540430353146,-0.8848383,0.17806722,0.36774087,100.28906,-82.137375,-3.3001847,SCH
18299555440000,1.044809,0.207967447524491,8.97498849339571,2.29818847344524,-0.88117313,0.20555615,0.3539964,100.329,-81.915596,-3.2300181,SCH
18299559690000,1.049059,0.114632669685562,9.05338972711429,2.47365784374427,-0.8924741,0.19425514,0.35063666,100.421875,-81.644966,-3.1772408,SCH
18299564744000,1.054113,0.0877057126102749,9.21435833343368,2.53734159931768,-0.87781334,0.15943582,0.34238997,100.51601,-81.38261,-3.130557,SCH
18299569717000,1.059086,0.07814812656472,9.38639489223359,2.57079323281156,-0.88453287,0.11789699,0.35002577,100.61622,-81.11564,-3.0802286,SCH
18299574750000,1.064119,0.112446397801904,9.54936634995583,2.56819836877393,-0.8866709,0.07544186,0.34972036,100.72668,-80.81221,-3.041019,SCH
18299579730000,1.069099,0.154581717786198,9.70854449465004,2.55883487373123,-0.8686504,0.049785517,0.35460728,100.84493,-80.51785,-2.997303,SCH
18299584789000,1.074158,0.200648127459151,9.84178720970705,2.53808610614909,-0.88056225,0.030543262,0.37384954,100.97419,-80.2193,-2.9481905,SCH
18299589818000,1.079187,0.24721271446969,9.96751123726192,2.51480382479938,-0.8903361,0.0067195175,0.38820487,101.11228,-79.93045,-2.8979614,SCH
18299594848000,1.084217,0.282483013084498,10.0460043649067,2.43739557431305,-0.89949906,-0.018936822,0.41080686,101.23309,-79.64691,-2.8282712,SCH
18299599730000,1.089099,0.313175867341274,10.107389917753,2.34531701612117,-0.9239337,-0.03023783,0.43310347,101.356094,-79.3616,-2.7553937,SCH
18299604768000,1.094137,0.351349478468692,10.0217389727216,2.33223435145691,-0.9434814,-0.03390302,0.4633413,101.47942,-79.089455,-2.6694334,SCH
18299609816000,1.099185,0.393808830818351,9.8394137460219,2.37219612000413,-0.9584476,-0.04337143,0.47036624,101.607475,-78.815506,-2.5847166,SCH
18299614780000,1.104149,0.435561648778673,9.66012245732589,2.41149291458979,-0.95630956,-0.021380283,0.462425,101.68377,-78.556946,-2.4885304,SCH
18299619784000,1.109153,0.477650911686299,9.47938643624716,2.45110636344286,-0.9639453,-0.0030543262,0.43982297,101.76483,-78.29487,-2.3966045,SCH
18299624919000,1.114288,0.602204814754424,9.24962626118512,2.53465071887055,-0.9786061,0.025350908,0.39522982,101.827415,-78.03134,-2.3101943,SCH
18299629818000,1.119187,0.746808127240008,9.01639479777292,2.62794320682044,-0.9896017,0.05681047,0.37110063,101.88519,-77.77102,-2.2282088,SCH
18299634794000,1.124163,0.85396171284487,8.81698700751733,2.69397356189593,-0.9923506,0.09987647,0.30848694,101.943375,-77.47897,-2.15458,SCH
18299639819000,1.129188,0.947925302930782,8.62905995489603,2.75035162862443,-0.9819659,0.12186762,0.23854288,102.0024,-77.19132,-2.0925589,SCH
18299644854000,1.134223,1.09972683370775,8.50481365964215,2.79094705785288,-0.97219205,0.12644911,0.17195857,102.08045,-76.8777,-2.02586,SCH
18299649786000,1.139155,1.27344594412525,8.41091151729622,2.82381300377734,-0.9621128,0.14844026,0.11911872,102.15295,-76.57023,-1.9787252,SCH
18299654783000,1.144152,1.52631525817152,8.4252386868932,2.96157533347492,-0.9627236,0.16340645,0.07391469,102.22155,-76.23973,-1.9214873,SCH
18299659787000,1.149156,1.81710615962783,8.49309025485437,3.15058933845065,-0.96577793,0.16462818,0.047036625,102.29223,-75.915764,-1.8753737,SCH
18299664777000,1.154146,2.07402426677373,8.56705779883357,3.29795808909644,-0.97402465,0.15515977,0.053450707,102.36161,-75.57787,-1.8008797,SCH
18299669776000,1.159145,2.31681586440707,8.64394166672302,3.42744689328037,-0.99296147,0.14874569,0.06291912,102.43318,-75.24067,-1.7343835,SCH
18299674781000,1.16415,2.54347705154976,8.71449555443176,3.54878748443719,-1.0277808,0.112399206,0.09040806,102.54207,-74.866394,-1.613668,SCH
18299679785000,1.169154,2.73631308939641,8.77182468722132,3.65302317174551,-1.0555751,0.04886922,0.13897185,102.65865,-74.49477,-1.4839613,SCH
18299684811000,1.17418,2.89565350593824,8.83154437529691,3.62890457102138,-1.0806206,0.04886922,0.18692477,102.727603192982,-74.2875728350877,-1.38475723024561,SCH
18299689760000,1.179129,3.01761373485748,8.89252473465954,3.47410892222882,-1.1065824,0.006414085,0.24831672,102.7955,-74.08355,-1.287073,SCH
18299694751000,1.18412,3.10199911000918,8.91949482203857,3.34147717241506,-1.1313224,0.043982297,0.31245756,102.92688,-73.67631,-1.0940938,SCH
18299699789000,1.189158,3.1418733302112,8.90620310688705,3.23514562554637,-1.1585059,0.10629055,0.38973203,103.06681,-73.24078,-0.8436356,SCH
18299704746000,1.194115,3.13162364338537,8.87955655382087,3.15787537543139,-1.171945,0.16218472,0.44104472,103.147316,-72.82294,-0.5741928,SCH
18299709786000,1.199155,2.99501447329499,8.81786222350041,3.14906188652424,-1.1872166,0.21227567,0.5036584,103.2041,-72.4013,-0.29125252,SCH
18299714744000,1.204113,2.850421412883,8.74503637031045,3.14607164353322,-1.1823297,0.23365596,0.5412266,103.2262,-71.998566,-0.006232548,SCH
18299719779000,1.209148,2.60174312438062,8.54999465527354,3.19970806425321,-1.1765264,0.23976462,0.5720753,103.23377,-71.5956,0.28455877,SCH
18299724735000,1.214104,2.35522025432859,8.35545998230089,3.26252945078876,-1.1701124,0.26511553,0.5861252,103.22419,-71.201744,0.5493161,SCH
18299729781000,1.21915,2.0902624924394,8.13698604424779,3.40662925128896,-1.1618657,0.27458394,0.6105598,103.21412,-70.81442,0.8195839,SCH
18299734967000,1.224336,1.82871711544095,7.91609436167226,3.55692003832774,-1.1499538,0.26419923,0.61941737,103.187485,-70.417404,1.0540959,SCH
18299739818000,1.229187,1.70585225459262,7.75069929215746,3.72231510784254,-1.1456778,0.26083946,0.6114761,103.15716,-70.0266,1.282692,SCH
18299744858000,1.234227,1.59147582463195,7.58922982610414,3.88982530560221,-1.1450669,0.2574797,0.605062,103.13382,-69.61261,1.4720284,SCH
18299749774000,1.239143,1.61008250333959,7.53340978998123,4.01076866862958,-1.1395692,0.27580565,0.58368176,103.11056,-69.209404,1.6476275,SCH
18299754930000,1.244299,1.637926632845,7.48230586442395,4.13782551957859,-1.1652255,0.27916542,0.56230146,103.09415,-68.763756,1.7993318,SCH
18299759787000,1.249156,1.75570629139085,7.51595717033822,4.25981163528667,-1.2024882,0.28405234,0.54550266,103.07812,-68.325714,1.9398042,SCH
18299764756000,1.254125,1.87620189017906,7.55038445860011,4.38461069004341,-1.2366967,0.26419923,0.535118,103.0896,-67.86404,2.078522,SCH
18299769776000,1.259145,2.02619582383885,7.60222534666527,4.36339938952093,-1.2614367,0.22999077,0.5305365,103.10871,-67.40425,2.2114437,SCH
18299774688000,1.264057,2.17840122653168,7.65623386585951,4.31430092213756,-1.2651019,0.19242255,0.5375614,103.13756,-66.95016,2.3435838,SCH
18299779783000,1.269152,2.29034157852362,7.68354848322845,4.13273984185396,-1.2852604,0.17501289,0.5476407,103.14989,-66.45086,2.4974399,SCH
18299784689000,1.274058,2.39359241847967,7.70701456094296,3.94501112212566,-1.284955,0.1554652,0.5766568,103.172775,-65.96559,2.6579807,SCH
18299789764000,1.279133,2.38627229348995,7.66994041035238,3.88272503372487,-1.287704,0.15241088,0.61269784,103.178856,-65.48066,2.846819,SCH
18299794688000,1.284057,2.36749619824806,7.62769419605813,3.83578479562015,-1.2812898,0.16920967,0.6261369,103.18611,-65.00768,3.0317266,SCH
18299799779000,1.289148,2.1595192852743,7.43820191645813,4.09131512569779,-1.2773192,0.18173242,0.6478226,103.17481,-64.568344,3.240358,SCH
18299804762000,1.294131,1.93446240201155,7.23611014069297,4.37608081845043,-1.2867876,0.18020524,0.6646214,103.163414,-64.13492,3.4452095,SCH
18299810303000,1.299672,1.74264395925852,7.10691058247764,4.53288261522154,-1.3112222,0.13072516,0.6575964,103.13663,-63.703686,3.6483495,SCH
18299814691000,1.30406,1.59909097792625,7.01824529570984,4.63421411330252,-1.3350459,0.10140363,0.6420194,103.10609,-63.277992,3.8456519,SCH
18299819774000,1.309143,1.5133150140017,6.96627686827606,4.66960312922465,-1.3402383,0.042760566,0.6386596,103.11443,-62.80236,4.009781,SCH
18299824687000,1.314056,1.44650044654928,6.92618817431601,4.68742048674619,-1.3631458,-0.003970624,0.6407976,103.13166,-62.32538,4.1690564,SCH
18299829773000,1.319142,1.44483455678001,6.89298614702991,4.66401087992626,-1.3753631,-0.033292156,0.6227771,103.1644,-61.840908,4.290183,SCH
18299834754000,1.324123,1.46926201539328,6.86367313547726,4.62492666046702,-1.3973542,-0.042455133,0.6230826,103.20519,-61.35665,4.4167676,SCH
18299839765000,1.329134,1.50026017737105,6.81702932129784,4.59422196522463,-1.4074335,-0.040927973,0.61819565,103.235115,-60.872948,4.5250835,SCH
18299844709000,1.334078,1.53269972745424,6.76605308592542,4.56641676792601,-1.4126259,-0.043676864,0.60231316,103.274345,-60.395386,4.6300793,SCH
18299849745000,1.339114,1.65373855928016,6.73300354985409,4.53991454985409,-1.4135422,-0.047036625,0.57879484,103.317055,-59.92792,4.7362313,SCH
18299854788000,1.344157,1.8087738207393,6.70716430690661,4.51407530690661,-1.4150693,-0.037873644,0.55833083,103.362885,-59.469234,4.835443,SCH
18299859749000,1.349118,1.96128818363813,6.68174521425097,4.48865621425097,-1.4138476,-0.0070249503,0.56016344,103.37113,-59.00287,4.94387,SCH
18299864746000,1.354115,2.11490928249027,6.65614166536965,4.46305266536965,-1.402852,0.03573562,0.54641896,103.3833,-58.550274,5.037602,SCH
18299869730000,1.359099,2.21452066793124,6.55933498446947,4.50829534925904,-1.3912456,0.043066,0.5317582,103.37751,-58.099545,5.130132,SCH
18299874757000,1.364126,2.28110785699467,6.41664789534677,4.59866379433906,-1.3729197,0.054367006,0.5308419,103.36463,-57.663486,5.213493,SCH
18299880407000,1.369776,2.34241767394024,6.22825198082001,4.82785531382905,-1.3875804,0.09865474,0.5338962,103.33742,-57.202404,5.3530865,SCH
18299884791000,1.37416,2.38409822861114,6.0698662386578,5.06126608051226,-1.4114041,0.13164146,0.5323691,103.31386,-56.75322,5.4872193,SCH
18299889777000,1.379146,2.45405646468785,5.98013350255462,5.37938183381831,-1.4526376,0.13927728,0.5155703,103.29325,-56.26331,5.632423,SCH
18299894806000,1.384175,2.5407668150017,5.95435470809206,5.73794096902827,-1.5036448,0.12095132,0.5271767,103.26979,-55.772175,5.778924,SCH
18299899775000,1.389144,2.62644264135079,5.92888347530534,6.09222220642305,-1.5564847,0.06352998,0.5317582,103.27694,-55.20724,5.936908,SCH
18299904805000,1.394174,2.71317023373072,5.90309955481485,6.45085263992993,-1.5815301,0.017715093,0.55863625,103.28372,-54.64524,6.0997343,SCH
18299909787000,1.399156,2.79980314590715,5.94068163607208,6.5811501721238,-1.6450601,-0.009773844,0.5558874,103.28907,-54.063118,6.2605124,SCH
18299914786000,1.404155,2.88753895503971,6.04791415595602,6.46416909328039,-1.720502,-0.020463986,0.5497787,103.30063,-53.48084,6.42677,SCH
18299919779000,1.409148,2.91178873735483,6.08405071713216,6.28290179852193,-1.7776178,-0.014660766,0.5525276,103.37091,-52.764244,6.6223226,SCH
18299924788000,1.414157,2.87495583299741,6.05182191980996,6.03888398142816,-1.808772,0.042760566,0.5717699,103.43303,-52.049328,6.807023,SCH
18299929788000,1.419157,2.87057951607143,6.00835155214286,5.78664870142857,-1.8417587,0.103847094,0.57635134,103.465385,-51.3477,7.005376,SCH
18299934795000,1.424164,2.90972327132653,5.94963609808163,5.52242849395918,-1.8429805,0.13927728,0.5873469,103.48892,-50.660286,7.1974797,SCH
18299939723000,1.429092,2.90470464754747,5.93996512976661,5.26607317314082,-1.8106046,0.18112154,0.6017023,103.46463,-50.01442,7.375648,SCH
18299944783000,1.434152,2.84719818789557,5.98788696263845,5.00729490534019,-1.7296649,0.25289822,0.6270532,103.42548,-49.394405,7.5410647,SCH
18299949931000,1.4393,2.75794545997719,6.04007121584949,4.87296768529076,-1.6358972,0.35063666,0.6356053,103.34768,-48.819813,7.6995006,SCH
18299954770000,1.444139,2.64006786987984,6.09291308736076,4.88922657249364,-1.5622878,0.4447099,0.6606508,103.250984,-48.27159,7.849016,SCH
18299959723000,1.449092,2.52803649030208,6.15685748611458,4.9622283528125,-1.5063937,0.49296826,0.66981375,103.108864,-47.796265,7.9713507,SCH
18299964782000,1.454151,2.46242847991667,6.27798001141667,5.3558770475,-1.473407,0.4868596,0.66248333,102.96111,-47.344692,8.084065,SCH
18299969712000,1.459081,2.39636267334847,6.40029623748968,5.74887365606936,-1.4953982,0.4428773,0.6658431,102.78566,-46.91229,8.16655,SCH
18299974843000,1.464212,2.32028092775599,6.5423154111891,6.19014707080925,-1.5415184,0.376293,0.65576386,102.62579,-46.49331,8.247152,SCH
18299979921000,1.46929,2.24960444939957,6.66764832576022,6.52678753292659,-1.6081028,0.30176744,0.62980205,102.479065,-46.036404,8.314984,SCH
18299984832000,1.474201,2.1903936077087,6.75874200153012,6.65431896436181,-1.6707164,0.24923302,0.6038403,102.34988,-45.579365,8.386421,SCH
18299989818000,1.479187,2.13922141448398,6.83524392684835,6.73669048414501,-1.7629571,0.21594086,0.5751296,102.24495,-45.07373,8.437509,SCH
18299994799000,1.484168,2.11514771233914,6.86332995457986,6.67650601930356,-1.8182404,0.22204952,0.55771995,102.152466,-44.574387,8.485939,SCH
18299999750000,1.489119,2.09121900338128,6.8912468233409,6.61668403869123,-1.8674151,0.23365596,0.5335908,102.06316,-44.06193,8.512453,SCH
18300004738000,1.494107,2.06757850233797,6.81867238683042,6.43457390233797,-1.885741,0.26145032,0.52381694,101.977394,-43.55586,8.53301,SCH
18300009718000,1.499087,2.04405445025155,6.72928131313998,6.23226785025155,-1.8829921,0.27977628,0.52839845,101.90044,-43.05529,8.550671,SCH
18300014749000,1.504118,2.05990063650874,6.51293404640873,6.17615324719669,-1.8396207,0.27672195,0.52106804,101.79512,-42.5788,8.556649,SCH
18300020107000,1.509476,2.08581876395596,6.25375369209011,6.15023522800283,-1.8161024,0.2950479,0.5180137,101.68768,-42.10924,8.556151,SCH
18300024776000,1.514145,2.17718660955505,6.05950474812702,6.31941771917665,-1.7617353,0.28771752,0.5152648,101.56591,-41.676247,8.563063,SCH
18300029807000,1.519176,2.28254501945237,5.85336844384864,6.52097307744818,-1.7498235,0.23518312,0.5204572,101.455505,-41.248657,8.576586,SCH
18300034736000,1.524105,2.41107901857005,5.72796123478261,6.62122373103382,-1.7143933,0.20250183,0.50488013,101.34295,-40.808323,8.59665,SCH
18300039731000,1.5291,2.54973462030918,5.62628040869565,6.69055162842512,-1.6985108,0.20555615,0.5131268,101.23408,-40.375122,8.624658,SCH
18300044752000,1.534121,2.70298086916528,5.48835554802818,6.97300718626089,-1.679574,0.21502456,0.5131268,101.14985,-39.88733,8.687223,SCH
18300049749000,1.539118,2.86220189530287,5.33381758960759,7.35701086629807,-1.6847663,0.23945917,0.49754974,101.069855,-39.409367,8.741864,SCH
18300054740000,1.544109,2.90898635287129,5.1842878269703,7.46879032633663,-1.7006488,0.25381452,0.48380527,100.98613,-38.898838,8.825271,SCH
18300059766000,1.549135,2.88992387940594,5.03655268724753,7.42113389386139,-1.7308867,0.26847526,0.48288897,100.90379,-38.39494,8.899394,SCH
18300064781000,1.55415,2.85865442195332,4.96046829011189,7.40736495251886,-1.7470746,0.30726522,0.46120325,100.839294,-37.81476,8.981682,SCH
18300069799000,1.559168,2.81972458943851,4.92883781707255,7.41466428658802,-1.7763962,0.3481932,0.42577308,100.780685,-37.237328,9.05349,SCH
18300074785000,1.564154,2.78104301412587,4.89740905290871,7.42191707249253,-1.7983873,0.38362336,0.40591997,100.70982,-36.643784,9.123203,SCH
18300079784000,1.569153,2.74226058432484,4.8658983445142,7.42918876858893,-1.8008307,0.39706242,0.4034765,100.64611,-36.062458,9.182281,SCH
18300084794000,1.574163,2.68271319868128,4.9239003086008,7.54051466638224,-1.7858646,0.38026363,0.38728857,100.59564,-35.495358,9.231929,SCH
18300089764000,1.579133,2.61348499738195,5.02543500383981,7.70204732884709,-1.754405,0.32650748,0.3839288,100.55293,-34.94486,9.286722,SCH
18300094782000,1.584151,2.55040436157285,5.11913107301362,7.85806866616541,-1.7250835,0.2593123,0.39920044,100.5258,-34.40505,9.337587,SCH
18300099787000,1.589156,2.49196257032107,5.20679378531802,8.00904279774436,-1.7055358,0.20219639,0.41416663,100.51226,-33.88384,9.3962555,SCH
18300104771000,1.59414,2.49051167051404,5.2930549448073,8.15002850513536,-1.6960673,0.15088372,0.40622538,100.4368,-33.35674,9.438731,SCH
18300109783000,1.599152,2.52162235422546,5.37920739402702,8.28643689332901,-1.6899587,0.11789699,0.410196,100.368065,-32.845993,9.492502,SCH
18300114781000,1.60415,2.55264613658573,5.46511919394725,8.42246425250536,-1.65911,0.05681047,0.41874814,100.29486,-32.351257,9.553218,SCH
18300119768000,1.609137,2.58360163931296,5.55084191227502,8.55819223173954,-1.6530013,0.008857546,0.4184427,100.23254,-31.864735,9.615661,SCH
18300124782000,1.614151,2.62813131581988,5.7742112867105,8.70501598759713,-1.642922,-0.05497787,0.41233405,100.1874,-31.400324,9.694447,SCH
18300129783000,1.619152,2.68061481301056,6.07957021438534,8.85769520233114,-1.6184875,-0.08246681,0.42394048,100.14492,-30.952635,9.775819,SCH
18300135111000,1.62448,2.83012634885582,6.07905737933892,8.85743878623222,-1.5903877,-0.1020145,0.45845437,100.06429,-30.501488,9.864896,SCH
18300139820000,1.629189,3.00849363711272,5.91767752366513,8.77674899143045,-1.5354098,-0.1255328,0.4804455,99.99386,-30.077114,9.957865,SCH
18300144730000,1.634099,3.16471612969739,5.78418489030854,8.72946797992484,-1.4932601,-0.14446963,0.46700647,99.89174,-29.695835,10.038065,SCH
18300149769000,1.639138,3.29356829803699,5.68396649562896,8.71992343023141,-1.4752395,-0.14996742,0.4636467,99.7885,-29.332136,10.122006,SCH
18300154762000,1.644131,3.42124420129549,5.5846629741693,8.71046601077927,-1.4495832,-0.14630222,0.47891834,99.67853,-28.94564,10.2446375,SCH
18300159790000,1.649159,3.54981508885483,5.48466335352057,8.70094229657832,-1.4193454,-0.12980886,0.4831944,99.57526,-28.577017,10.358521,SCH
18300164737000,1.654106,3.58512111712783,5.37254754590803,8.68136545070148,-1.3790283,-0.10873401,0.5021312,99.43739,-28.21462,10.470191,SCH
18300169771000,1.65914,3.50527267624708,5.24103262837101,8.6484865251364,-1.3521502,-0.07971791,0.5128214,99.30193,-27.86746,10.570674,SCH
18300174673000,1.664042,3.42457318484239,5.12408905748778,8.5737067526109,-1.3274102,-0.09010262,0.5112942,99.172585,-27.484367,10.724531,SCH
18300179780000,1.669149,3.33553738376928,5.02099488962346,8.4237516883204,-1.2858714,-0.096516706,0.50793445,99.04003,-27.123507,10.865754,SCH
18300184709000,1.674078,3.28681570481262,4.91367847139054,8.28615793876715,-1.2647965,-0.11209377,0.49296826,98.903305,-26.750986,10.999401,SCH
18300189767000,1.679136,3.32649593751792,4.78471827186156,8.16215769711243,-1.2431108,-0.15241088,0.50518554,98.7686,-26.398836,11.139031,SCH
18300194678000,1.684047,3.34390575186474,4.67190078035803,8.14982933117852,-1.2415836,-0.096516706,0.5128214,98.61333,-26.047972,11.245923,SCH
18300199782000,1.689151,3.31959929068125,4.5795366034908,8.35400252899055,-1.2162327,-0.08460484,0.50976706,98.473274,-25.719105,11.369546,SCH
18300205561000,1.69493,3.2829564993592,4.41714814934164,8.57132210665379,-1.183246,-0.14110987,0.52442783,98.3404,-25.386202,11.508426,SCH
18300209790000,1.699159,3.24740502033006,4.24294553458567,8.71708339712079,-1.1221595,-0.17073683,0.5103779,98.2149,-25.078896,11.629167,SCH
18300214801000,1.70417,3.21922983524215,4.04328933566754,8.90006572153142,-1.1099422,-0.23945917,0.49602258,98.06108,-24.726702,11.768634,SCH
18300219762000,1.709131,3.3746962008726,3.93446302582897,9.21618066317627,-1.106277,-0.33750305,0.4792238,97.92375,-24.399672,11.916393,SCH
18300224759000,1.714128,3.45397389469523,3.88596839642678,9.44001105585027,-1.0848967,-0.48747048,0.48716503,97.7947,-24.027693,12.09155,SCH
18300229800000,1.719169,3.27035732393154,4.04542479781804,9.3433707820038,-1.0922271,-0.5589417,0.4868596,97.67922,-23.66084,12.262483,SCH
18300234759000,1.724128,3.18165278641742,4.08043105305253,9.28598551680076,-1.0983357,-0.5671884,0.5122105,97.56724,-23.259876,12.46406,SCH
18300239764000,1.729133,3.39942201817321,3.70840876351159,9.35403835731188,-1.0937542,-0.5558874,0.48258355,97.479324,-22.874834,12.664363,SCH
18300244733000,1.734102,3.62695372692195,3.35702024231711,9.43759363578494,-1.1175779,-0.548557,0.46395215,97.36532,-22.52843,12.831656,SCH
18300249702000,1.739071,3.94385971918519,3.1473030401234,9.64731064332583,-1.1337659,-0.45265114,0.4373795,97.25451,-22.197521,12.962162,SCH
18300254755000,1.744124,4.28083092609342,2.93981660264802,9.86287970752752,-1.1242975,-0.33505958,0.41630468,97.141525,-21.782015,13.1279545,SCH
18300259712000,1.749081,4.79401876783695,2.80798857244868,10.1029955486462,-1.097114,-0.18661933,0.38728857,97.02816,-21.38057,13.24968,SCH
18300264826000,1.754195,5.31537071417253,2.68361862544014,10.3385056820423,-1.0729848,-0.11453723,0.3576616,96.93671,-20.927212,13.404676,SCH
18300269719000,1.759088,5.71136495145246,2.71249314018486,10.4086297804577,-1.0494665,-0.071776666,0.35827246,96.83559,-20.49263,13.522649,SCH
18300275437000,1.764806,6.17412707055458,2.74623613534331,10.490577377993,-0.9947941,-0.04428773,0.38026363,96.75343,-20.026169,13.694546,SCH
18300279719000,1.769088,6.24963831888913,2.68074852991224,10.5041566338827,-0.9193522,-0.039095376,0.41233405,96.667984,-19.583225,13.85563,SCH
18300284737000,1.774106,6.30621148933005,2.59331723721104,10.5144423524187,-0.82986045,-0.045814894,0.43951756,96.57828,-19.16942,14.008268,SCH
18300289720000,1.779089,6.19315055284382,2.4371893434848,10.4410600367138,-0.7632761,-0.04337143,0.46181414,96.488434,-18.76285,14.213292,SCH
18300294681000,1.78405,6.06447309131307,2.27515111020162,10.3600413181864,-0.70707655,-0.0067195175,0.47219884,96.39245,-18.387491,14.405246,SCH
18300299750000,1.789119,5.95552213487861,2.17633672324908,10.2158191250874,-0.6771441,0.061391957,0.4886922,96.292336,-18.015026,14.592702,SCH
18300304625000,1.793994,5.8529032631132,2.08771127864922,10.0712192899391,-0.6606508,0.099265605,0.49693888,96.19218,-17.663683,14.77189,SCH
18300309665000,1.799034,5.70925693100276,1.96325122738424,9.99818932137381,-0.6554584,0.16218472,0.49693888,96.05993,-17.296345,14.918557,SCH
18300314627000,1.803996,5.56353450965961,1.83695841149954,9.93504314167433,-0.6453791,0.23335053,0.4831944,95.927246,-16.944601,15.046503,SCH
18300319661000,1.80903,5.47765022097902,1.69799176361638,9.87234467712288,-0.6545421,0.33353242,0.46914452,95.77485,-16.58723,15.139624,SCH
18300324617000,1.813986,5.39704417342657,1.56048756837163,9.81070461278721,-0.61666846,0.40958515,0.4373795,95.63049,-16.256529,15.213238,SCH
18300329663000,1.819032,5.31591319850885,1.50089000438024,9.71397040260951,-0.5876524,0.4886922,0.41050145,95.47552,-15.912209,15.240682,SCH
18300334653000,1.824022,5.23574673252563,1.44744552320596,9.61598921808015,-0.5561928,0.5363397,0.39706242,95.32656,-15.588338,15.252394,SCH
18300339691000,1.82906,5.19079611043478,1.4610042973913,9.50210810434783,-0.5015204,0.5381723,0.37659842,95.17344,-15.26342,15.247698,SCH
18300344614000,1.833983,5.15579859218452,1.49100212542948,9.38711611696713,-0.47586402,0.5183192,0.3652974,95.02465,-14.946992,15.234848,SCH
18300349660000,1.839029,5.15610762586521,1.47884033843352,9.40597716029144,-0.42302418,0.4633413,0.35094208,94.87771,-14.654435,15.223111,SCH
18300354705000,1.844074,5.16029831469338,1.46207740808396,9.43950328354584,-0.39950588,0.37293324,0.34666604,94.74035,-14.367626,15.226211,SCH
18300359749000,1.849118,5.13907708584535,1.44263361805374,9.41644613794233,-0.37415496,0.28893927,0.34574974,94.5964,-14.108288,15.241777,SCH
18300364723000,1.854092,5.10265867038008,1.42182327342726,9.35921743217562,-0.3408628,0.21471913,0.33567044,94.46628,-13.864569,15.277505,SCH
18300369740000,1.859109,5.02784133943925,1.35779435607477,9.2836670728972,-0.32620203,0.16982053,0.32650748,94.33741,-13.621187,15.325947,SCH
18300374749000,1.864118,4.94289663302509,1.28228780801771,9.20344078042302,-0.3231477,0.14263703,0.32528573,94.21656,-13.389654,15.387576,SCH
18300379867000,1.869236,4.6967601307207,1.03483706065762,9.123249069394,-0.29840767,0.14721853,0.33017266,94.08516,-13.16875,15.4455805,SCH
18300384741000,1.87411,4.41567880556299,0.749294082794877,9.04740204492449,-0.30024028,0.17379116,0.31856623,93.96243,-12.948232,15.501247,SCH
18300389740000,1.879109,4.24197375519288,0.616576827546983,9.04969869386746,-0.28405234,0.21074851,0.30726522,93.82737,-12.730672,15.546565,SCH
18300394747000,1.884116,4.12577183406528,0.564404531374876,9.09238497843719,-0.27000242,0.2574797,0.29871312,93.695946,-12.517981,15.579139,SCH
18300399738000,1.889107,4.00994123922849,0.512398953145401,9.1349348578635,-0.2611449,0.2843578,0.30024028,93.567825,-12.2655115,15.568814,SCH
18300404768000,1.894137,3.89320553655786,0.459986999930762,9.1778172248269,-0.24617869,0.29229903,0.2959642,93.4474,-12.025135,15.549542,SCH
18300409743000,1.899112,3.80123624761516,0.458773149208457,9.22413405556123,-0.21868975,0.3118467,0.3032946,93.30106,-11.787141,15.521686,SCH
18300414744000,1.904113,3.72297067423144,0.488122726457972,9.27304997507915,-0.204029,0.30970868,0.2996294,93.16554,-11.556308,15.496725,SCH
18300419731000,1.9091,3.62845883565006,0.506888117970214,9.3280435132072,-0.19639318,0.29810223,0.2932153,93.02328,-11.315547,15.4286785,SCH
18300424758000,1.914127,3.52474206923942,0.520416403109779,9.38666626264519,-0.1740966,0.29352075,0.29749137,92.88604,-11.087968,15.361428,SCH
18300429745000,1.919114,3.42588762445141,0.512297772675976,9.47170762980906,-0.15363261,0.26236662,0.29810223,92.72664,-10.864106,15.2877865,SCH
18300434762000,1.924131,3.33004038202717,0.484912835375701,9.58124760777049,-0.13194689,0.20952678,0.30176744,92.57453,-10.651894,15.224185,SCH
18300439947000,1.929316,3.253206076303,0.457006987495583,9.64139364333039,-0.12034045,0.13561209,0.29016098,92.40814,-10.444334,15.149637,SCH
18300444793000,1.934162,3.2070839395318,0.43138353774735,9.63626884849823,-0.12797627,0.052839845,0.28130344,92.25204,-10.242812,15.095459,SCH
18300449802000,1.939171,3.18623186195559,0.412844979925665,9.59159542933384,-0.13133603,-0.02076942,0.26267207,92.094315,-10.039386,15.043623,SCH
18300454786000,1.944155,3.1816830416754,0.399198509585438,9.52336312513104,-0.14080444,-0.082161374,0.2519819,91.948654,-9.838253,15.013158,SCH
18300459828000,1.949197,3.16135942823445,0.387466082654958,9.44396904554273,-0.15027285,-0.14630222,0.25137106,91.81322,-9.637825,14.997514,SCH
18300464960000,1.954329,3.12622852215868,0.377428670438068,9.35363237751455,-0.14782938,-0.20250183,0.23671028,91.69434,-9.445632,14.996112,SCH
18300469749000,1.959118,3.10982140756403,0.399904400905301,9.25749267063728,-0.14966199,-0.2519819,0.226631,91.5672,-9.249367,15.009915,SCH
18300474732000,1.964101,3.10508434240619,0.447275082162001,9.14853962790351,-0.1563815,-0.28008172,0.204029,91.45572,-9.059993,15.031513,SCH
18300479748000,1.969117,3.09525920701169,0.525189521702838,9.07000296994991,-0.15760323,-0.30757064,0.1872302,91.35296,-8.878182,15.064445,SCH
18300484741000,1.97411,3.08117186668958,0.628496412750663,9.01834947049003,-0.15149458,-0.3231477,0.16676621,91.2636,-8.703442,15.099452,SCH
18300489750000,1.979119,3.11225826225597,0.758541276848748,8.98071373831591,-0.14752395,-0.344528,0.15210545,91.15068,-8.535824,15.141846,SCH
18300495591000,1.98496,3.20050614284165,0.940552526957208,8.95313629363045,-0.14966199,-0.34574974,0.12308934,91.052635,-8.375402,15.179786,SCH
18300499776000,1.989145,3.22099110036993,1.00664258830112,8.95965362147415,-0.14172074,-0.3475823,0.12492194,90.95245,-8.244199,15.218332,SCH
18300504795000,1.994164,3.20765549715158,1.02886864008138,8.99077021464903,-0.13164146,-0.3484986,0.11789699,90.867195,-8.1194,15.253946,SCH
18300509773000,1.999142,3.18593242073935,1.02320024827694,9.04516782268171,-0.11484267,-0.34697145,0.1160644,90.77967,-8.031631,15.301552,SCH
18300514781000,2.00415,3.14586502140769,0.958090730900167,9.15034471324144,-0.12003502,-0.33628133,0.116675265,90.69584,-7.943497,15.344928,SCH
18300519725000,2.009094,3.10506833442163,0.9024027942664,9.22420180330496,-0.112704635,-0.33505958,0.12492194,90.59146,-7.862785,15.384517,SCH
18300524785000,2.014154,3.06139001914872,0.858724504331497,9.25332074772158,-0.10323623,-0.34513888,0.13041973,90.49092,-7.784024,15.422913,SCH
18300529688000,2.019057,3.02284547623466,0.836897115534271,9.28149378539359,-0.10629055,-0.3662137,0.13072516,90.39006,-7.690956,15.4480505,SCH
18300534749000,2.024118,2.98899555109249,0.846568508290931,9.3105080646513,-0.110872045,-0.3848451,0.1337795,90.29061,-7.602283,15.475001,SCH
18300539723000,2.029092,2.96148203012225,0.85416780203423,9.31132182865526,-0.11453723,-0.4120286,0.13103059,90.19802,-7.507486,15.501821,SCH
18300544797000,2.034166,2.94247276674817,0.858920142689487,9.26855036577017,-0.10354166,-0.41691554,0.13347405,90.10637,-7.4177556,15.527207,SCH
18300549681000,2.03905,2.94314233900176,0.868232287647978,9.22423885319398,-0.09468412,-0.43157628,0.13408493,90.02044,-7.3309226,15.557605,SCH
18300554747000,2.044116,2.98105287268021,0.887187608917757,9.17211170238328,-0.111177474,-0.4251622,0.1328632,89.93685,-7.2427177,15.582706,SCH
18300559684000,2.049053,3.03062236283388,0.89883721009433,9.12106396653758,-0.116675265,-0.39675698,0.12034045,89.83628,-7.1578407,15.611623,SCH
18300565445000,2.054814,3.12375349556151,0.893358911534108,9.06080314000596,-0.116980694,-0.37323865,0.116675265,89.73701,-7.072076,15.639265,SCH
18300569719000,2.059088,3.19494904956353,0.891960218331717,9.01907446498545,-0.124311075,-0.34513888,0.10751228,89.635826,-6.9886284,15.666082,SCH
18300574723000,2.064092,3.28326382531523,0.896608356760427,8.97724083084384,-0.12064589,-0.32253686,0.09468412,89.53968,-6.911333,15.686618,SCH
18300579728000,2.069097,3.37625915838397,0.902251246254273,8.92950159513862,-0.10323623,-0.2864958,0.08857546,89.442795,-6.8368087,15.713534,SCH
18300584733000,2.074102,3.48548491954045,0.911353384304975,8.86123552411698,-0.08124508,-0.26511553,0.08277224,89.352264,-6.7679014,15.736652,SCH
18300589758000,2.079127,3.59804955599616,0.929418840070355,8.79982936680524,-0.063224554,-0.2510656,0.06872234,89.26521,-6.7057743,15.776366,SCH
18300594749000,2.084118,3.73052413514551,1.01094167233237,8.78963934196781,-0.03604105,-0.23151793,0.060170226,89.179695,-6.6541853,15.807106,SCH
18300599813000,2.089182,3.85273594204478,1.08727785782643,8.76725650386368,-0.0061086523,-0.22418754,0.048258353,89.111244,-6.616927,15.859669,SCH
18300604731000,2.0941,3.93672402007133,1.14327002352883,8.71126419199524,0.018325957,-0.21563543,0.040011674,89.044846,-6.5872407,15.904593,SCH
18300609786000,2.099155,4.02305578715814,1.20414970967103,8.66811839635355,0.02687807,-0.22571471,0.03023783,88.97973,-6.576924,15.97248,SCH
18300614788000,2.104157,4.10849571640904,1.27534945245739,8.67286514169639,0.04520403,-0.22388211,0.018020526,88.917915,-6.577467,16.0324,SCH
18300619745000,2.109114,4.18315240208776,1.3388405920839,8.68041918103615,0.055283304,-0.2406809,-0.004581489,88.85984,-6.5912337,16.116838,SCH
18300624769000,2.114138,4.2203562243959,1.37604436583221,8.69902099507056,0.05955936,-0.2565634,-0.0125227375,88.80147,-6.6084423,16.198462,SCH
18300629757000,2.119126,4.25549605928622,1.41118416637347,8.71285783277727,0.058948494,-0.24862215,-0.032070424,88.75179,-6.643551,16.286097,SCH
18300634893000,2.124262,4.28036030193105,1.43604846094429,8.69793949489435,0.06566802,-0.24617869,-0.043676864,88.703064,-6.6816263,16.377378,SCH
18300639801000,2.12917,4.30323026205255,1.4678390911651,8.67967626742687,0.06291912,-0.2312125,-0.055588737,88.65832,-6.7250843,16.46403,SCH
18300644795000,2.134164,4.32219963803669,1.53897430062469,8.64173746593951,0.057421334,-0.21471913,-0.0711658,88.61796,-6.7704062,16.546722,SCH
18300649779000,2.139148,4.34515252821668,1.61098689730585,8.60200469256951,0.05497787,-0.18845193,-0.07269296,88.58066,-6.821377,16.629438,SCH
18300654784000,2.144153,4.391108265465,1.68911178019175,8.55145347277085,0.064751714,-0.16707164,-0.09040806,88.552246,-6.876153,16.705614,SCH
18300659841000,2.14921,4.43279132990052,1.76848326754987,8.50130174593811,0.07269296,-0.14569137,-0.096516706,88.511345,-6.9413404,16.776937,SCH
18300664781000,2.15415,4.41623555076738,1.85126238548218,8.46345985922112,0.06994407,-0.13041973,-0.10567969,88.47586,-7.0071287,16.84136,SCH
18300669883000,2.159252,4.3991368493226,1.93675612226166,8.42437700374944,0.06658431,-0.12308934,-0.11178834,88.43542,-7.0903406,16.913994,SCH
18300674784000,2.164153,4.38271177370894,2.01888172084187,8.38683386876968,0.058643065,-0.10445796,-0.11362094,88.39516,-7.170829,16.977121,SCH
18300679837000,2.169206,4.36533205015198,2.1064573362462,8.34725366793313,0.04917465,-0.09682214,-0.122783914,88.36352,-7.251315,17.040894,SCH
18300684764000,2.174133,4.34292281117021,2.22746732034574,8.29795278058511,0.049480084,-0.079107046,-0.118507855,88.327,-7.3301983,17.095402,SCH
18300690304000,2.179673,4.31855092072785,2.3570727585443,8.24474639339399,0.04795292,-0.06811147,-0.12614368,88.285675,-7.4402637,17.14433,SCH
18300694812000,2.184181,4.3100121125,2.374150375,8.231938359375,0.04795292,-0.050396383,-0.12370021,88.23879,-7.548089,17.18566,SCH
18300699704000,2.189073,4.30074595237342,2.39268269525316,8.21803931269779,0.045814894,-0.050396383,-0.13561209,88.181206,-7.6785216,17.224379,SCH
18300704767000,2.194136,4.26442877602787,2.40309120599303,8.18134232961673,0.05100725,-0.03481932,-0.13836098,88.11861,-7.8082495,17.253223,SCH
18300709683000,2.199052,4.22693386409159,2.4124649339771,8.14384736874067,0.043066,-0.01985312,-0.1386664,88.058586,-7.932884,17.281027,SCH
18300714783000,2.204152,4.20146555465587,2.40021153279352,8.10961652226721,0.04184427,-0.0021380284,-0.14477506,87.99853,-8.063755,17.301592,SCH
18300719703000,2.209072,4.17820207287449,2.3862534437247,8.07704769635627,0.039095376,0.019242255,-0.13439035,87.93263,-8.18892,17.317091,SCH
18300724786000,2.214155,4.1497588042006,2.31601431866932,8.08182427919563,0.025045475,0.046120327,-0.14049901,87.872246,-8.313918,17.325155,SCH
18300729680000,2.219049,4.12183272652433,2.24154532899702,8.09113284215491,0.02443461,0.07544186,-0.13897185,87.805336,-8.438647,17.327103,SCH
18300734785000,2.224154,4.11000138649924,2.15515583598943,8.16061626671073,0.023823744,0.09773844,-0.14294247,87.7436,-8.558043,17.318882,SCH
18300739775000,2.229144,4.10097788168429,2.06943289358006,8.23731561008308,0.0106901415,0.11209377,-0.14660765,87.68026,-8.6722,17.305166,SCH
18300744806000,2.234175,4.08837204819471,2.03543528219282,8.3042119047259,0.019242255,0.1301143,-0.14996742,87.627106,-8.77723,17.286411,SCH
18300749678000,2.239047,4.07514198944234,2.01779514245747,8.36595276219282,0.014660766,0.13347405,-0.15393804,87.5752,-8.874192,17.268236,SCH
18300754720000,2.244089,4.06856034224952,1.99214089219532,8.40510674273473,0.0021380284,0.13927728,-0.14752395,87.525444,-8.948861,17.24098,SCH
18300759734000,2.249103,4.06608176000619,1.96239756881743,8.42989282398183,0.0021380284,0.14477506,-0.14844026,87.5011847425436,-8.98658278493766,17.2284582539651,SCH
18300764745000,2.254114,4.06360466075982,1.93267204160429,8.45466407510453,-0.00030543262,0.13683382,-0.14019357,87.47694,-9.024282,17.215944,SCH
18300769737000,2.259106,4.06113695382749,1.90305922343468,8.47934140210602,0.015577064,0.14294247,-0.13958271,87.42837,-9.09407,17.182419,SCH
18300774723000,2.264092,4.04237625245414,1.88529385147248,8.47777532890431,0.01985312,0.13530666,-0.13469578,87.37757,-9.158249,17.155134,SCH
18300779747000,2.269116,4.01852209122459,1.87098135473475,8.46823396331185,0.027183503,0.13927728,-0.13469578,87.32752,-9.227115,17.123775,SCH
18300784732000,2.274101,4.01612488022977,1.8537057790809,8.47622649688846,0.036651913,0.13683382,-0.13683382,87.30631,-9.29172,17.089312,SCH
18300789868000,2.279237,4.02083397020584,1.83486941917664,8.49035357012925,0.04184427,0.12003502,-0.13041973,87.282875,-9.355355,17.059471,SCH
18300794774000,2.284143,4.00304980412885,1.82276710137628,8.52664299311858,0.054061573,0.12522738,-0.12339478,87.25899,-9.4199,17.022266,SCH
18300799747000,2.289116,3.97455149372694,1.81326766457565,8.57414017712177,0.055283304,0.124005646,-0.12492194,87.23675,-9.481991,16.992609,SCH
18300804773000,2.294142,3.94541110401949,1.83909684397077,8.61624505968331,0.06078109,0.113926366,-0.11942416,87.2143,-9.5430355,16.963306,SCH
18300809795000,2.299164,3.91612079366626,1.88303230950061,8.65529860292326,0.07422013,0.110872045,-0.11484267,87.19203,-9.605751,16.933384,SCH
18300814779000,2.304148,3.90897027071975,1.91253842424985,8.66537698043734,0.07147124,0.10903945,-0.1020145,87.170715,-9.661191,16.8969,SCH
18300819759000,2.309128,3.91130859509708,1.93592169243969,8.66303872930967,0.070554934,0.11484267,-0.09682214,87.14978,-9.719968,16.86028,SCH
18300824785000,2.314154,3.9136685184546,1.95952095065699,8.66067887987841,0.065973446,0.119729586,-0.090713486,87.12163,-9.781753,16.819485,SCH
18300829789000,2.319158,3.91601811186507,1.98301690929594,8.6583293600706,0.05955936,0.1151481,-0.073303826,87.08873,-9.840307,16.782085,SCH
18300834715000,2.324084,3.91409641544161,2.01451647646715,8.64052808091246,0.04642576,0.12492194,-0.06536258,87.05582,-9.895042,16.740585,SCH
18300839826000,2.329195,3.90932482012088,2.05268923903295,8.61189865846169,0.04642576,0.1160644,-0.060170226,87.02002,-9.949512,16.707762,SCH
18300844766000,2.334135,3.89265468851923,2.09061401832561,8.59752586364876,0.04062254,0.11056661,-0.047036625,86.98794,-10.010693,16.66692,SCH
18300849739000,2.339108,3.86667954458686,2.12957682463412,8.5931965825834,0.037873644,0.106595986,-0.03390302,86.95465,-10.071185,16.62994,SCH
18300854759000,2.344128,3.84421138346457,2.16611163307087,8.58095430577428,0.037873644,0.10262536,-0.021380283,86.919075,-10.138286,16.602633,SCH
18300859750000,2.349119,3.82852968766404,2.19747502467192,8.55481814610674,0.025961773,0.099265605,-0.011911872,86.88075,-10.1994505,16.577824,SCH
18300864743000,2.354112,3.8186191474094,2.21729610518119,8.53240464240791,0.026267206,0.092240654,-0.0061086523,86.84465,-10.273391,16.550175,SCH
18300869732000,2.359101,3.81384939047619,2.22683561904762,8.51332571428572,0.025045475,0.09254608,-0.002443461,86.80619,-10.341886,16.52285,SCH
18300874745000,2.364114,3.79783740792619,2.23014765763603,8.4904732079262,0.030848695,0.09132435,0.013133603,86.7559,-10.414827,16.499046,SCH
18300879748000,2.369117,3.77169579615098,2.22777115198651,8.46433159615099,0.04062254,0.076052725,0.025961773,86.70634,-10.487353,16.480131,SCH
18300884771000,2.37414,3.74544968063092,2.22538514601458,8.43808548063092,0.03970624,0.080634214,0.032375857,86.65254,-10.559401,16.45751,SCH
18300890143000,2.379512,3.71737997476316,2.2228333594167,8.41001577476316,0.038179077,0.076358154,0.037873644,86.59698,-10.631899,16.443033,SCH
18300894757000,2.384126,3.71093189129486,2.21711150870514,8.40356778960936,0.048258353,0.06566802,0.04153884,86.54061,-10.705928,16.43005,SCH
18300899773000,2.389142,3.72045741752925,2.20758598247075,8.41309351477295,0.049480084,0.069027774,0.05100725,86.48083,-10.775194,16.415602,SCH
18300904762000,2.394131,3.72993438063492,2.20722218063492,8.41345732420635,0.04520403,0.05681047,0.050701816,86.42421,-10.846278,16.403418,SCH
18300909790000,2.399159,3.73948837873016,2.21677617873016,8.4039031265873,0.048563786,0.058948494,0.05589417,86.36271,-10.917616,16.387774,SCH
18300914764000,2.404133,3.74239339230177,2.22395720769823,8.40741198614319,0.037873644,0.060170226,0.064751714,86.30376,-10.981399,16.372475,SCH
18300919791000,2.40916,3.73776073510393,2.22858986489607,8.42594251818707,0.03023783,0.055283304,0.0693332,86.24529,-11.045975,16.35901,SCH
18300924809000,2.414178,3.73334088180032,2.24269201054744,8.44200825570074,0.03390302,0.065973446,0.073303826,86.180855,-11.110761,16.344032,SCH
18300929784000,2.419153,3.72927182551883,2.27117536202921,8.45421567947733,0.03390302,0.06536258,0.073303826,86.117905,-11.171685,16.334143,SCH
18300934921000,2.42429,3.7269234065243,2.29920630326215,8.46512518059878,0.032070424,0.07269296,0.080634214,86.05348,-11.232426,16.318289,SCH
18300939893000,2.429262,3.74736158641485,2.30942539320743,8.45490587724005,0.02321288,0.07513642,0.079107046,85.99259,-11.29121,16.304096,SCH
18300944869000,2.434238,3.76078512533896,2.32145362982826,8.44771064507382,0.025350908,0.08552113,0.08155051,85.923134,-11.356148,16.284267,SCH
18300949776000,2.439145,3.74662623482977,2.34033229835292,8.45243037380737,0.02076942,0.08002335,0.089186326,85.85419,-11.41578,16.269194,SCH
18300954748000,2.444117,3.73451888497669,2.35633031502331,8.45937097786503,0.013133603,0.082161374,0.08582657,85.786835,-11.477498,16.252653,SCH
18300960404000,2.449773,3.73186041229939,2.35898878770061,8.47798012004908,0.008857546,0.08307768,0.07941248,85.71936,-11.537811,16.238905,SCH
18300964775000,2.454144,3.7298059243092,2.3610432756908,8.4923614072638,0.0076358155,0.08002335,0.08552113,85.65184,-11.599963,16.225235,SCH
18300969781000,2.45915,3.72745296917791,2.36339623082209,8.50883194576687,0.0015271631,0.073303826,0.07391469,85.592255,-11.660799,16.211597,SCH
18300974767000,2.464136,3.71979675786353,2.36520563635303,8.52548412582621,-0.00580322,0.06963864,0.0720821,85.528786,-11.71894,16.199558,SCH
18300979782000,2.469151,3.67077937377527,2.36287147752722,8.54415754267107,-0.004581489,0.06536258,0.063224554,85.47187,-11.778533,16.189024,SCH
18300984901000,2.47427,3.62074547763414,2.36048891341369,8.56321820485031,-0.010079277,0.0720821,0.070554934,85.40068,-11.828383,16.176607,SCH
18300989848000,2.479217,3.57239273604199,2.35818640419907,8.58163842282271,-0.013439035,0.06811147,0.06169739,85.33861,-11.880612,16.167412,SCH
18300995157000,2.484526,3.5250173396469,2.3551420603531,8.59884416695581,-0.0076358155,0.064446285,0.04917465,85.27594,-11.933038,16.157057,SCH
18300999757000,2.489126,3.53400872244107,2.34615067755893,8.58535681110317,-0.013439035,0.06078109,0.04642576,85.21415,-11.980744,16.148409,SCH
18301004973000,2.494342,3.54323505522431,2.33600761515382,8.57289210872464,-0.012217305,0.06994407,0.04917465,85.15781,-12.029932,16.122766,SCH
18301009785000,2.499154,3.54104039089437,2.32722888908467,8.59264415644347,-0.014660766,0.065973446,0.047036625,85.10556,-12.076535,16.10236,SCH
18301014681000,2.50405,3.53880741571578,2.3182969184208,8.61274100300028,-0.005497787,0.074830994,0.03390302,85.06164,-12.128469,16.071123,SCH
18301019775000,2.509144,3.53648413639394,2.30900372835508,8.63365058967521,-0.018325957,0.08368854,0.02443461,85.018036,-12.172895,16.042198,SCH
18301024684000,2.514053,3.53424523215544,2.30004804126583,8.65380079795695,-0.0061086523,0.10262536,0.024129177,84.9748,-12.226267,16.008913,SCH
18301029741000,2.51911,3.5494656563887,2.26718559115261,8.65352762865383,-0.01038471,0.08827003,0.02321288,84.9365,-12.271672,15.983061,SCH
18301034722000,2.524091,3.56811940156418,2.22987834427608,8.64886436279206,-0.009468411,0.082161374,0.017104227,84.89841,-12.321525,15.950644,SCH
18301039860000,2.529229,3.56447084588967,2.14503838045988,8.6977643202408,-0.017715093,0.07727446,0.01863139,84.86645,-12.362541,15.919046,SCH
18301044820000,2.534189,3.55509525642949,2.0512833669397,8.75870481959933,-0.009468411,0.0842994,0.017715093,84.83679,-12.408247,15.886601,SCH
18301049775000,2.539144,3.55669375865776,2.02473521994273,8.772355,-0.02321288,0.08155051,0.01282817,84.81145,-12.43762,15.862679,SCH
18301054750000,2.544119,3.56148052487065,2.01755514559703,8.772355,-0.022602014,0.0888809,0.005497787,84.786194,-12.472896,15.834807,SCH
18301059776000,2.549145,3.56631636145075,2.01030146646908,8.772355,-0.022296581,0.082161374,0.013133603,84.76661,-12.481029,15.809664,SCH
18301064753000,2.554122,3.57110505199176,2.00311850566133,8.772355,-0.03268129,0.081855945,0.0076358155,84.75235,-12.487886,15.780586,SCH
18301069777000,2.559146,3.57563638237959,1.99109045286124,8.78630445668855,-0.030848695,0.07666359,0.0009162979,84.739334,-12.498482,15.754584,SCH
18301074772000,2.564141,3.58005869133771,1.97782352598687,8.80399360016641,-0.022296581,0.06658431,-0.0021380284,84.727455,-12.508112,15.731025,SCH
18301079779000,2.569148,3.58326724588593,1.95586627915915,8.79833049729507,-0.027183503,0.057421334,-0.00580322,84.71905,-12.512077,15.710724,SCH
18301084789000,2.574158,3.58573928298212,1.92867384528827,8.7785543037766,-0.04550946,0.053145275,-0.0033597588,84.710236,-12.5142975,15.692963,SCH
18301089758000,2.579127,3.58819108983461,1.90170394430934,8.75893995136277,-0.04062254,0.052534413,-0.004581489,84.69917,-12.51648,15.675093,SCH
18301094771000,2.58414,3.59066460719254,1.87449522754392,8.73915191581225,-0.03634648,0.054367006,-0.013744468,84.69014,-12.5140295,15.65814,SCH
18301099746000,2.589115,3.58443698909657,1.86061168909657,8.72031684988318,-0.04153884,0.053450707,-0.0143553335,84.68278,-12.510813,15.644347,SCH
18301104722000,2.594091,3.5751585317757,1.8513332317757,8.70176003212617,-0.04153884,0.058337633,-0.016187929,84.678055,-12.511009,15.628471,SCH
18301109751000,2.59912,3.58201270925907,1.84174789382728,8.68916505649945,-0.04062254,0.054367006,-0.018020526,84.67712,-12.501293,15.618609,SCH
18301114747000,2.604116,3.5964428970946,1.8321277686036,8.67954473037097,-0.03726278,0.06078109,-0.019242255,84.67565,-12.492531,15.6049595,SCH
18301119729000,2.609098,3.58784943146777,1.82265511573389,8.68310212032376,-0.04337143,0.058337633,-0.022296581,84.67651,-12.480664,15.595707,SCH
18301124756000,2.614125,3.56884140714638,1.81315110357319,8.69260633096437,-0.04153884,0.047036625,-0.02107485,84.67676,-12.471843,15.587773,SIT
18301129746000,2.619115,3.57501331217896,1.82090247315659,8.70040635211268,-0.03176499,0.05009095,-0.029321533,84.680336,-12.463202,15.578589,SIT
18301134766000,2.624135,3.59375712464545,1.83730330906477,8.70743518392709,-0.03756821,0.043982297,-0.02443461,84.68118,-12.449855,15.576256,SIT
18301139794000,2.629163,3.61253080772942,1.85373028176324,8.71447521706711,-0.034208454,0.03756821,-0.027794369,84.68749,-12.440828,15.569304,SIT
18301144798000,2.634167,3.63121487896096,1.87007884409084,8.72148164623032,-0.03756821,0.028099801,-0.02321288,84.69074,-12.4275465,15.566016,SIT
18301149743000,2.639112,3.63234568078703,1.88115866581423,8.72720742483095,-0.053145275,0.026267206,-0.027488936,84.70273,-12.41453,15.563421,SIT
18301154732000,2.644101,3.62020000607047,1.88844609600895,8.73206579617672,-0.052839845,0.018020526,-0.02687807,84.71291,-12.4043455,15.56593,SIT
18301159744000,2.649113,3.60799833806498,1.89576712229397,8.73694656530581,-0.04734206,0.008552114,-0.020463986,84.7205,-12.397341,15.573994,SIT
18301164749000,2.654118,3.59581371149525,1.90307792368194,8.74182051771824,-0.044898596,0.011301007,-0.02107485,84.72954,-12.390159,15.580506,SIT
18301169728000,2.659097,3.58982517430785,1.92351370830578,8.74067008690717,-0.050701816,-0.0061086523,-0.01740966,84.73933,-12.382193,15.595345,SIT
18301174752000,2.664121,3.58745070640083,1.95200732319005,8.73592105191729,-0.043676864,-0.01863139,-0.01985312,84.750404,-12.378976,15.60754,SIT
18301179823000,2.669192,3.58505402511968,1.98076749856388,8.73112758925134,-0.044898596,-0.020463986,-0.011301007,84.75321,-12.371845,15.619713,SIT
18301184806000,2.674175,3.5826989348369,2.00902858195726,8.7264173103193,-0.035430185,-0.03390302,-0.014049901,84.76148,-12.370696,15.637456,SIT
18301189755000,2.679124,3.59265019392145,2.03436169240182,8.71627781863035,-0.04520403,-0.032986723,-0.0143553335,84.76567,-12.363109,15.652095,SIT
18301194789000,2.684158,3.61167905170712,2.05814776463391,8.70200637398855,-0.04184427,-0.040317107,-0.01160644,84.771065,-12.361709,15.67239,SIT
18301199778000,2.689147,3.61344213145121,2.07518109607727,8.6851955277365,-0.040927973,-0.03359759,-0.008857546,84.77028,-12.368982,15.683702,SIT
18301204766000,2.694135,3.60161224576523,2.08701103117385,8.66626756240713,-0.036957346,-0.04153884,-0.0009162979,84.768524,-12.3772,15.701368,SIT
18301209782000,2.699151,3.58971595334324,2.0989073732838,8.64723334546805,-0.040927973,-0.032375857,0.00061086525,84.764305,-12.388956,15.7151375,SIT
18301215090000,2.704459,3.57712713353145,2.11149624567608,8.62709107602774,-0.043982297,-0.024740042,0.0018325958,84.758446,-12.401185,15.731635,SIT
18301219771000,2.70914,3.57697101591264,2.12852943978159,8.6143041351404,-0.03390302,-0.020158553,-0.00061086525,84.757355,-12.417555,15.745199,SIT
18301224782000,2.714151,3.5863293124805,2.15192518120125,8.60494613172777,-0.030848695,-0.015577064,-0.0012217305,84.754776,-12.430634,15.756616,SIT
18301229766000,2.719135,3.59353676954468,2.17999758681274,8.58656793607398,-0.033292156,-0.015271631,0.0036651916,84.745735,-12.450206,15.762831,SIT
18301234816000,2.724185,3.59839784502965,2.21402511520756,8.5574013816464,-0.027183503,-0.01740966,0.0036651916,84.7417859,-12.46068273,15.7653156,SIT
18301239766000,2.729135,3.60761277701808,2.24486273059974,8.54026749412113,-0.034513887,-0.016187929,0.003970624,84.737915,-12.470952,15.767751,SIT
18301244760000,2.734129,3.62178920401146,2.27321553524355,8.53554191977077,-0.030543262,-0.013133603,0.0061086523,84.723915,-12.4959135,15.773918,SIT
18301249794000,2.739163,3.62744585718818,2.29751249384295,8.51995129793774,-0.032375857,-0.007941248,-0.0030543262,84.710396,-12.527343,15.780671,SIT
18301254766000,2.744135,3.62272487269482,2.31639648111243,8.49162529238549,-0.022296581,-0.0021380284,0.008552114,84.690025,-12.560763,15.787727,SIT
18301259698000,2.749067,3.61505936346525,2.33014820269454,8.46652147501115,-0.038179077,-0.004581489,0.003970624,84.669655,-12.593194,15.787847,SIT
18301264760000,2.754129,3.60305337961266,2.33735184315221,8.4449107542226,-0.05009095,-0.0061086523,0.005192355,84.64391,-12.627486,15.787381,SIT
18301269679000,2.759048,3.59138656124622,2.34435198290158,8.42391052989252,-0.033292156,0.0030543262,0.004886922,84.61786,-12.6703825,15.784825,SIT
18301274765000,2.764134,3.57932365451483,2.35158977732429,8.40219734815989,-0.048258353,0.009773844,0.0030543262,84.59231,-12.700761,15.783465,SIT
18301279693000,2.769062,3.57123722041225,2.35042389391135,8.39110659725836,-0.052839845,0.023518313,0.002443461,84.571,-12.740806,15.771009,SIT
18301285602000,2.774971,3.56840605615369,2.3334368196718,8.39676904402642,-0.051923547,0.03604105,0.007330383,84.54829,-12.777324,15.757723,SIT
18301289623000,2.778992,3.56647948457074,2.32187732982289,8.4006222676606,-0.046731193,0.03756821,0.013744468,84.52364,-12.817984,15.7425585,SIT
18301294670000,2.784039,3.56406132819692,2.3073683158295,8.40545868140885,-0.05009095,0.03604105,0.014660766,84.498634,-12.855967,15.725413,SIT
18301299617000,2.788986,3.56092989274524,2.29186442531705,8.41336375027975,-0.04886922,0.04734206,0.016798794,84.47034,-12.896404,15.698364,SIT
18301304717000,2.794086,3.55637537017904,2.27364676306416,8.42702684240955,-0.043676864,0.04734206,0.01740966,84.443214,-12.936452,15.6757,SIT
18301309667000,2.799036,3.56113221156491,2.25663911973328,8.4453040358408,-0.042455133,0.058643065,0.022602014,84.414795,-12.968467,15.647212,SIT
18301314685000,2.804054,3.59618073004793,2.24161837091061,8.48035265888727,-0.040927973,0.06414085,0.023518313,84.388016,-13.001788,15.6210165,SIT
18301319675000,2.809044,3.62077687039503,2.22470116644474,8.51536305592543,-0.05009095,0.056505036,0.025961773,84.36461,-13.027694,15.598768,SIT
18301324700000,2.814069,3.62315017117917,2.20334145938748,8.55096256768753,-0.04734206,0.053145275,0.027183503,84.3408,-13.056893,15.574717,SIT
18301329672000,2.819041,3.62549844013414,2.18220703879272,8.58618660201213,-0.048258353,0.05375614,0.02565634,84.31884,-13.077667,15.556134,SIT
18301334717000,2.824086,3.62788118689155,2.16076231797603,8.62192780337328,-0.037873644,0.061391957,0.025961773,84.29598,-13.101775,15.537398,SIT
18301339709000,2.829078,3.63346444270749,2.14006527639001,8.65685108581789,-0.04550946,0.056199603,0.032375857,84.275986,-13.1214905,15.520435,SIT
18301344694000,2.834063,3.64789041410153,2.12083064786463,8.69051138446817,-0.04184427,0.058337633,0.034513887,84.25623,-13.147092,15.499795,SIT
18301349698000,2.839067,3.66090518411844,2.0940726526245,8.71874155652759,-0.052534413,0.051923547,0.028099801,84.24233,-13.154527,15.481192,SIT
18301355196000,2.844565,3.67102886156508,2.04345415968083,8.73392738982888,-0.038789943,0.043982297,0.028710667,84.226,-13.168836,15.463905,SIT
18301359750000,2.849119,3.68047073296245,2.00616784506259,8.74858655493741,-0.046731193,0.032375857,0.027488936,84.21469,-13.169318,15.45039,SIT
18301364746000,2.854115,3.69473032747864,1.98240185420227,8.77235254579773,-0.032375857,0.02687807,0.03145956,84.20203,-13.179199,15.438394,SIT
18301369740000,2.859109,3.70353472305905,1.9686243538819,8.79419843949661,-0.036957346,0.023518313,0.03390302,84.19927,-13.173388,15.429717,SIT
18301374776000,2.864145,3.68952830540174,1.99663718919651,8.80820466214908,-0.034208454,0.02076942,0.030848695,84.19739,-13.17367,15.422749,SIT
18301379758000,2.869127,3.67940507483242,2.02006910838919,8.82278735313833,-0.021991149,0.01160644,0.029626964,84.19689,-13.169045,15.420363,SIT
18301384787000,2.874156,3.69407958037782,2.01517760654073,8.84235325837904,-0.015271631,-0.0030543262,0.03145956,84.197075,-13.163802,15.42048,SIT
18301389767000,2.879136,3.71065677414183,2.01076001946435,8.85448282567899,-0.011911872,-0.0015271631,0.028405234,84.19717,-13.166701,15.415366,SIT
18301394777000,2.884146,3.73780493606186,2.00849767657488,8.82959712476424,-0.0106901415,-0.007330383,0.033292156,84.19596,-13.170009,15.417129,SIT
18301399778000,2.889147,3.76490432882874,2.00623939777442,8.80475612870143,-0.005497787,-0.014966198,0.033292156,84.19754,-13.1739235,15.419836,SIT
18301404781000,2.89415,3.79201455918521,2.00398021584308,8.77990519822708,-0.0070249503,-0.018020526,0.03634648,84.19688,-13.17564,15.423411,SIT
18301409686000,2.899055,3.81859374765183,2.00176528732554,8.75554105391833,-0.005192355,-0.021685716,0.04062254,84.1964,-13.1795225,15.429288,SIT
18301414784000,2.904153,3.78892751774604,2.00385391672812,8.72328435850428,-0.01038471,-0.014049901,0.03756821,84.19654,-13.181313,15.432473,SIT
18301419769000,2.909138,3.75421622878213,2.00633329081278,8.69105246951441,-0.017715093,-0.02321288,0.036651913,84.19628,-13.182456,15.44165,SIT
18301424917000,2.914286,3.71836994681901,2.00889373570501,8.65776665917943,-0.018936822,-0.021685716,0.024740042,84.212456,-13.19084,15.456979,SIT
18301429790000,2.919159,3.69007200705666,2.01246335869185,8.62636859318287,-0.009162978,-0.01282817,0.034208454,84.22142,-13.19744,15.477243,SIT
18301434806000,2.924175,3.72990020228466,2.03016477879318,8.59539138526025,-0.01863139,-0.011911872,0.036651913,84.236,-13.199658,15.4974575,SIT
18301439807000,2.929176,3.76960929405804,2.04781326402579,8.56450681252879,-0.025045475,-0.0106901415,0.03023783,84.24333,-13.206969,15.51092,SIT
18301444764000,2.934133,3.78246510582327,2.05403825291164,8.52945423741853,-0.026572637,-0.018325957,0.025961773,84.24975,-13.212491,15.526625,SIT
18301450000000,2.939369,3.79343739395092,2.05867273772113,8.49564997260795,-0.03481932,-0.014049901,0.021991149,84.25684,-13.214729,15.537988,SIT
18301454781000,2.94415,3.80650197437702,2.05431790789424,8.50871428019783,-0.032986723,-0.004581489,0.024129177,84.25904,-13.223447,15.557784,SIT
18301459731000,2.9491,3.82002836490394,2.04980914243865,8.52224038824425,-0.03268129,-0.005497787,0.021380283,84.26291,-13.232428,15.581057,SIT
18301464783000,2.954152,3.82337181380588,2.05166241380588,8.52780972057866,-0.03940081,0.0015271631,0.01863139,84.26483,-13.239628,15.599096,SIT
18301469737000,2.959106,3.82574671830605,2.05403731830605,8.53255962877309,-0.04153884,0.00580322,0.015882496,84.26767,-13.248201,15.617449,SIT
18301474817000,2.964186,3.82818202611003,2.05647262611003,8.53743034609801,-0.046120327,0.0106901415,0.01863139,84.26945,-13.252176,15.634862,SIT
18301479678000,2.969047,3.8305123472193,2.0588029472193,8.5420910856485,-0.03481932,0.014049901,0.013439035,84.273994,-13.260641,15.650485,SIT
18301484809000,2.974178,3.82647409107413,2.06751081785174,8.55100959531014,-0.034208454,0.022602014,0.008246681,84.27054,-13.262877,15.660821,SIT
18301489741000,2.97911,3.82200805688351,2.07644288623298,8.55994185022693,-0.033292156,0.0070249503,0.011911872,84.267494,-13.267917,15.67706,SIT
18301494845000,2.984214,3.83356413666458,2.08644584422236,8.57822342910681,-0.038789943,0.021380283,0.015271631,84.263115,-13.27216,15.682397,SIT
18301499675000,2.989044,3.84801009044347,2.0960765806371,8.59748460024984,-0.036651913,0.016187929,0.009773844,84.26266,-13.279045,15.696967,SIT
18301504894000,2.994263,3.84558653881848,2.10590052236303,8.63429171027491,-0.03604105,0.009468411,0.004581489,84.260765,-13.286007,15.703233,SIT
18301509683000,2.999052,3.84111556053812,2.11484247892377,8.67005934977578,-0.04062254,0.01160644,0.007330383,84.25784,-13.291767,15.708703,SIT
18301514782000,3.004151,3.83628471807898,2.10844463615797,8.66052755616194,-0.031154128,0.005497787,-0.00061086525,84.26011,-13.303581,15.718404,SIT
18301519697000,3.009066,3.83161415129986,2.09910350259972,8.64184538658464,-0.03970624,0.016493361,0.0012217305,84.2573,-13.308011,15.72359,SIT
18301524799000,3.014168,3.81962504471243,2.09917041944341,8.63828,-0.03359759,0.014966198,0.008552114,84.256584,-13.319186,15.731129,SIT
18301529723000,3.019092,3.80650176252319,2.10135762552876,8.63828,-0.041233405,0.0106901415,0.003970624,84.25811,-13.324844,15.735721,SIT
18301534857000,3.024226,3.79281879526902,2.10363811213358,8.63828,-0.03573562,0.01740966,0.0018325958,84.25637,-13.3338375,15.738635,SIT
18301540518000,3.029887,3.77773128501855,2.10615268842301,8.63828,-0.03573562,0.025350908,0.010079277,84.25313,-13.338605,15.74284,SIT
18301544795000,3.034164,3.75617972954413,2.1034811680719,8.63571768051315,-0.040317107,0.021685716,0.007941248,84.25375,-13.34444,15.747656,SIT
18301549782000,3.039151,3.72341500440435,2.09692818883134,8.63080295463589,-0.017715093,0.029932396,0.0061086523,84.250496,-13.356931,15.747699,SIT
18301554782000,3.044151,3.69056486891229,2.09035812743114,8.62587541716118,-0.02443461,0.03145956,0.009162978,84.24718,-13.360868,15.746619,SIT
18301559783000,3.049152,3.65770816339313,2.08378675201866,8.62094689417899,-0.026267206,0.034513887,0.0125227375,84.24354,-13.372202,15.743063,SIT
18301564781000,3.05415,3.62487116795527,2.07721931864302,8.61602132771927,-0.0290161,0.036651913,0.019547688,84.22901,-13.377191,15.743849,SIT
18301569773000,3.059142,3.59207359268,2.07065976934106,8.61110167430453,-0.03023783,0.044593163,0.011911872,84.21732,-13.382958,15.741629,SIT
18301574742000,3.064111,3.5722870567612,2.05285907077727,8.62528062922273,-0.022602014,0.040011674,0.016187929,84.189,-13.384657,15.7456045,SIT
18301579757000,3.069126,3.55834029855774,2.02961463558223,8.64852506441777,-0.022296581,0.03481932,0.015577064,84.16432,-13.385189,15.746939,SIT
18301584764000,3.074133,3.55021925073757,2.02903404778728,8.67131324631213,-0.023823744,0.038179077,0.021991149,84.13983,-13.384785,15.73178,SIT
18301589865000,3.079234,3.54562926137367,2.04280401587898,8.69426319313163,-0.030543262,0.043676864,0.021380283,84.11831,-13.383796,15.717555,SIT
18301594764000,3.084133,3.53844888329792,2.04198232494688,8.72022597226944,-0.027488936,0.03604105,0.017104227,84.099304,-13.379174,15.703668,SIT
18301599784000,3.089153,3.52823308729282,2.02665863093923,8.75087320027624,-0.025350908,0.029932396,0.01863139,84.07894,-13.372355,15.688915,SIT
18301604734000,3.094103,3.53270829529781,2.0263351968652,8.75996358973354,-0.018936822,0.030848695,0.022296581,84.06412,-13.370507,15.677845,SIT
18301610437000,3.099806,3.54875937985893,2.03703591990596,8.75461339581701,-0.02687807,0.032070424,0.018936822,84.051704,-13.365873,15.66858,SIT
18301614777000,3.104146,3.55568977239976,2.0439016163954,8.75589603019551,-0.022907447,0.030543262,0.02076942,84.04256,-13.362366,15.660659,SIT
18301619723000,3.109092,3.56039077948591,2.0509530533942,8.76059696365125,-0.015882496,0.023823744,0.022907447,84.03486,-13.357918,15.654176,SIT
18301624714000,3.114083,3.56513455756252,2.05806864620881,8.76534066742755,-0.018936822,0.021685716,0.021991149,84.03121,-13.354593,15.655665,SIT
18301629784000,3.119153,3.56995342248908,2.06529686812227,8.77015945687773,-0.016798794,0.014049901,0.027183503,84.02614,-13.354002,15.661214,SIT
18301634814000,3.124183,3.57129479780292,2.06602759340876,8.76552141810133,-0.009468411,0.022296581,0.02443461,84.0163,-13.352727,15.6616535,SIT
18301639856000,3.129225,3.56971138328906,2.06127734986719,8.75285416812592,-0.013133603,0.024740042,0.023518313,84.00567,-13.348608,15.666333,SIT
18301644882000,3.134251,3.56813299349402,2.05654218048205,8.74022711569109,-0.0143553335,0.021380283,0.020158553,83.99924,-13.351816,15.667278,SIT
18301649786000,3.139155,3.56659291717987,2.0519219515396,8.7279065695032,-0.015577064,0.019242255,0.018020526,83.99259,-13.3539715,15.667458,SIT
18301654726000,3.144095,3.5650415352484,2.0472678057452,8.71549557884899,-0.009162978,0.015882496,0.014660766,83.98769,-13.358225,15.668795,SIT
18301659784000,3.149153,3.56345309601574,2.04250248804722,8.702788131333,-0.01160644,0.012217305,0.016798794,83.9821,-13.3594055,15.671211,SIT
18301664763000,3.154132,3.56172591116169,2.04493744466304,8.69150964417527,-0.008552114,0.025045475,0.016493361,83.97727,-13.364241,15.669724,SIT
18301669726000,3.159095,3.55979392794895,2.05652914220795,8.6818499298431,-0.023518313,0.0106901415,0.019242255,83.973206,-13.362972,15.677277,SIT
18301674789000,3.164158,3.55782301700675,2.06835440206487,8.67199558092838,-0.01740966,0.0015271631,0.013439035,83.95157,-13.361654,15.679394,SIT
18301680169000,3.169538,3.55572870516218,2.08092005445086,8.66152424038696,-0.015271631,-0.00030543262,0.010079277,83.92952,-13.35506,15.683903,SIT
18301684767000,3.174136,3.55393880816194,2.09165924955695,8.65257494228111,-0.019242255,0.00030543262,0.009468411,83.909325,-13.348978,15.690077,SIT
18301689840000,3.179209,3.55382969468767,2.09565182805171,8.64952590224006,-0.027488936,-0.0036651916,0.0030543262,83.892654,-13.343271,15.697402,SIT
18301694814000,3.184183,3.55539661676261,2.09251801662445,8.65265958277688,-0.010995574,-0.0030543262,0.008857546,83.87269,-13.342599,15.704085,SIT
18301699771000,3.18914,3.55695818345449,2.08939491585145,8.65578255310681,-0.025350908,-0.004276057,0.0067195175,83.85796,-13.3401575,15.712297,SIT
18301704781000,3.19415,3.55853644634058,2.08623842303872,8.65893891408177,-0.01863139,-0.0076358155,0.0076358155,83.84108,-13.347351,15.721505,SIT
18301709756000,3.199125,3.56010368343805,2.08310398157297,8.66207322463077,-0.028405234,-0.0061086523,0.005192355,83.8324,-13.349234,15.726765,SIT
18301714785000,3.204154,3.56168793175224,2.07993551802901,8.66524155583698,-0.03481932,-0.0033597588,0.0061086523,83.822754,-13.353466,15.732909,SIT
18301719765000,3.209134,3.5644061989777,2.07449900204459,8.66884403727857,-0.03359759,-0.002443461,0.0076358155,83.81131,-13.356501,15.738278,SIT
18301724859000,3.214228,3.56870550445052,2.06590039109897,8.67314343253723,-0.02321288,0.0036651916,0.0076358155,83.8067324307417,-13.3571049356568,15.7404883842717,SIT
18301729836000,3.219205,3.57305861346887,2.05992301346887,8.67567736753494,-0.035124753,-0.002443461,0.00030543262,83.80226,-13.357695,15.742648,SIT
18301734925000,3.224294,3.57821917416349,2.06508357416349,8.67051669906819,-0.01985312,0.0009162979,0.0076358155,83.78292,-13.357284,15.7521105,SIT
18301739864000,3.229233,3.58442159297695,2.06993811056308,8.66835792463768,-0.03268129,0.0009162979,0.003970624,83.7772273541412,-13.3522094848021,15.7570099537434,SIT
18301744729000,3.234098,3.59327711818484,2.07436591940128,8.67278577971014,-0.037873644,-0.0009162979,-0.00061086525,83.77162,-13.347211,15.761836,SIT
18301749941000,3.23931,3.60276427078166,2.07910954523165,8.67752945507246,-0.033292156,0.00580322,0.0033597588,83.754166,-13.346156,15.7695,SIT
18301754751000,3.24412,3.61151968213828,2.08348729662153,8.68190725217391,-0.03268129,0.003970624,0.002443461,83.74116,-13.34151,15.779892,SIT
18301759794000,3.249163,3.62019762866,2.08725011058194,8.68649325560096,-0.03176499,-0.002443461,0.00580322,83.72729,-13.338866,15.786156,SIT
18301764741000,3.25411,3.62242281440045,2.08057450689024,8.69094360384669,-0.03756821,-0.005192355,-0.0027488936,83.71726,-13.335704,15.79109,SIT
18301769740000,3.259109,3.62467139000517,2.07382873311728,8.69544073157672,-0.03573562,-0.005192355,-0.0015271631,83.700264,-13.334468,15.799176,SIT
18301774801000,3.26417,3.62694785352496,2.06699929501667,8.69999363484571,-0.029321533,-0.008246681,-0.0036651916,83.68739,-13.333994,15.80801,SIT
18301779761000,3.26913,3.62917888673148,2.06030614880466,8.70445567796252,-0.032070424,-0.009468411,0.0021380284,83.67203,-13.330906,15.816911,SIT
18301784779000,3.274148,3.63504806863723,2.05357513136277,8.69806641836449,-0.03359759,-0.005192355,0.00580322,83.65794,-13.330341,15.824766,SIT
18301789772000,3.279141,3.641736067481,2.046887132519,8.68914901673738,-0.03604105,-0.008246681,0.011301007,83.64252,-13.328275,15.835435,SIT
18301794722000,3.284091,3.64836646889832,2.04025673110168,8.68030841228029,-0.034513887,-0.004886922,0.003970624,83.6304,-13.324486,15.84275,SIT
18301799744000,3.289113,3.65509331251807,2.03352988748193,8.67133921721292,-0.025045475,-0.0070249503,0.007330383,83.61455,-13.321147,15.853446,SIT
18301804772000,3.294141,3.66366257481592,2.03294418740796,8.67765483299541,-0.023518313,-0.008552114,0.003970624,83.60264,-13.318364,15.85572,SIT
18301809748000,3.299117,3.673833134372,2.038029467186,8.69799611140753,-0.023518313,-0.009773844,0.005192355,83.588806,-13.317228,15.8591585,SIT
18301814775000,3.304144,3.67440447888152,2.03831513944076,8.70686211217166,-0.019547688,-0.009162978,0.007941248,83.57415,-13.315132,15.86581,SIT
18301819774000,3.309143,3.6696320696506,2.0359289348253,8.70924824203758,-0.015271631,-0.014660766,0.007941248,83.560715,-13.313394,15.874384,SIT
18301824829000,3.314198,3.66480619874396,2.03351599937198,8.711661101904,-0.025045475,-0.009162978,0.009773844,83.54535,-13.308676,15.880504,SIT
18301829783000,3.319152,3.66007674978817,2.03115127489408,8.71402575230524,-0.03940081,-0.010995574,0.005497787,83.5329,-13.304473,15.889702,SIT
18301834802000,3.324171,3.66109091896598,2.04128587586393,8.70389118158154,-0.026572637,-0.011301007,0.0106901415,83.51152,-13.302896,15.894832,SIT
18301839930000,3.329299,3.66549894610897,2.05891798443587,8.68625916506597,-0.021380283,-0.01038471,0.010995574,83.49326,-13.29633,15.899564,SIT
18301844785000,3.334154,3.67430570486769,2.06646063171077,8.66806877131656,-0.02443461,-0.013439035,0.013744468,83.47804,-13.29017,15.90899,SIT
18301849782000,3.339151,3.689939572754,2.06124934241533,8.64722372296635,-0.025961773,-0.015271631,0.0106901415,83.46456,-13.286486,15.917397,SIT
18301854774000,3.344143,3.69401343318204,2.05637943318204,8.6409140218252,-0.02321288,-0.0061086523,0.016187929,83.44129,-13.285319,15.926597,SIT
18301859786000,3.349155,3.68937809550942,2.05174409550942,8.6455494563013,-0.025350908,-0.0076358155,0.018936822,83.42099,-13.283059,15.93873,SIT
18301865124000,3.354493,3.67608760588947,2.04394510294474,8.6423653882614,-0.01985312,-0.0036651916,0.018936822,83.39932,-13.283636,15.94981,SIT
18301869778000,3.359147,3.658108409762,2.034955504881,8.63337560246067,-0.019242255,-0.0012217305,0.018020526,83.377785,-13.282351,15.961684,SIT
18301874811000,3.36418,3.64628136993853,2.03772909018441,8.61629284969264,-0.019242255,0.0061086523,0.017104227,83.35245,-13.27942,15.973629,SIT
18301879780000,3.369149,3.64156323398771,2.05188349803688,8.59270216993853,-0.028405234,0.0061086523,0.011301007,83.3411136884422,-13.2773285254271,15.9806355396985,SIT
18301884761000,3.37413,3.63450263465904,2.06369736534097,8.5878449724662,-0.02687807,0.0015271631,0.012217305,83.32975,-13.275232,15.987659,SIT
18301889854000,3.379223,3.6248757438271,2.0733242561729,8.60228535897562,-0.021380283,0.00061086525,0.014049901,83.30564,-13.272999,15.996696,SIT
18301894832000,3.384201,3.6289741839629,2.0792846713361,8.61178478432035,-0.011911872,0.0036651916,0.01740966,83.28194,-13.275527,15.998979,SIT
18301899772000,3.389141,3.64725624057579,2.08156997613757,8.61635527461115,-0.017104227,0.004276057,0.016798794,83.25955,-13.275864,16.002129,SIT
18301904747000,3.394116,3.66566782592986,2.08387147236982,8.62095814691817,-0.015882496,0.0061086523,0.008552114,83.23812,-13.28218,16.001793,SIT
18301909780000,3.399149,3.68429405891218,2.08619980011593,8.62561468085209,-0.007941248,0.008857546,0.019547688,83.211624,-13.287493,16.002542,SIT
18301914724000,3.404093,3.69733103146946,2.09116215734732,8.63007029149258,-0.016187929,0.008246681,0.01282817,83.19265,-13.289503,16.008987,SIT
18301919764000,3.409133,3.69947642537114,2.10188912685572,8.6343611689039,-0.02565634,-0.0027488936,0.014049901,83.16919,-13.291905,16.018875,SIT
18301924681000,3.41405,3.70156946144546,2.11235430722731,8.63854732847364,-0.016493361,-0.00061086525,0.01985312,83.14566,-13.297978,16.03001,SIT
18301929787000,3.419156,3.70374294979109,2.12322174895546,8.64289439594631,-0.016187929,0.004581489,0.011911872,83.1267,-13.300178,16.042253,SIT
18301935176000,3.424545,3.706036903707,2.13469151853498,8.64748239959108,-0.024129177,0.0033597588,0.01038471,83.10701,-13.302946,16.053555,SIT
18301939889000,3.429258,3.70412801792849,2.12724327171396,8.64576077415224,-0.013133603,-0.0009162979,0.014966198,83.08799,-13.311164,16.064075,SIT
18301945234000,3.434603,3.70150595072226,2.11675500288905,8.64313865218728,-0.016493361,-0.0021380284,0.011911872,83.0718,-13.31406,16.07339,SIT
18301949780000,3.439149,3.69927584454462,2.10783457817847,8.64090849943653,-0.030543262,0.011911872,0.020158553,83.05255,-13.32082,16.082947,SIT
18301954704000,3.444073,3.69686030498924,2.09817241995697,8.63849290943551,-0.016187929,0.021685716,0.021991149,83.033905,-13.334278,16.09247,SIT
18301959790000,3.449159,3.68323642059001,2.08390972723259,8.64275041982741,-0.02565634,0.0106901415,0.013744468,83.01665,-13.337538,16.103685,SIT
18301964693000,3.454062,3.66910184792294,2.06977505617098,8.64746204244431,-0.013439035,0.008857546,0.010079277,82.996544,-13.35014,16.110123,SIT
18301969819000,3.459188,3.66350046909233,2.07300673090767,8.64344037685837,-0.023518313,0.0076358155,0.011911872,82.98213,-13.351919,16.117262,SIT
18301974695000,3.464064,3.65893312981221,2.07757407018779,8.63887294219484,-0.018020526,0.008857546,0.010079277,82.96996,-13.361833,16.123734,SIT
18301979783000,3.469152,3.64979359663462,2.07389369831731,8.62973321814904,-0.016493361,-0.0036651916,0.013133603,82.95836,-13.364229,16.13312,SIT
18301984686000,3.474055,3.64038753685897,2.06919066842949,8.6203269619391,-0.02107485,-0.005192355,0.0125227375,82.947655,-13.366888,16.138832,SIT
18301989790000,3.479159,3.64335301507821,2.07275661507821,8.6232925020888,-0.01985312,-0.0009162979,0.009162978,82.93719,-13.372658,16.146076,SIT
18301994755000,3.484124,3.6479725440785,2.0773761440785,8.62791212756242,-0.023823744,-0.0009162979,0.009468411,82.9309410168134,-13.3744602472978,16.1503334179343,SIT
18301999782000,3.489151,3.64511655036922,2.08546077542164,8.63964358697238,-0.019242255,0.0021380284,0.014966198,82.924614,-13.376285,16.154644,SIT
18302005324000,3.494693,3.64027794834534,2.09513808051782,8.65415944356824,-0.018020526,-0.0070249503,0.007941248,82.92448,-13.382803,16.168201,SIT
18302009784000,3.499153,3.63585743300845,2.10064996699155,8.65410443729695,-0.015882496,0.0036651916,0.016187929,82.91633,-13.388621,16.177114,SIT
18302014735000,3.504104,3.63072263370154,2.10578476629846,8.64896979884124,-0.028710667,0.005497787,0.011911872,82.9151,-13.392122,16.189451,SIT
18302019776000,3.509145,3.62772987804492,2.10407769743742,8.645977038785,-0.02565634,0.011301007,0.008857546,82.91202,-13.401762,16.196314,SIT
18302024749000,3.514118,3.62537381658257,2.10054358064213,8.64362092811913,-0.012217305,0.013439035,0.01038471,82.90896,-13.410585,16.20366,SIT
18302029784000,3.519153,3.62298838133967,2.0969654028693,8.64123544305927,-0.01985312,0.015577064,0.013439035,82.90554,-13.415599,16.208838,SIT
18302034760000,3.524129,3.62063089856535,2.09342915409122,8.63887791105175,-0.017104227,0.008246681,0.015271631,82.90248,-13.426878,16.216131,SIT
18302039860000,3.529229,3.61821466822994,2.08980478335807,8.63646163025626,-0.022907447,0.0030543262,0.011911872,82.89972,-13.43371,16.222149,SIT
18302044803000,3.534172,3.61587281988721,2.08629198639062,8.63411973300683,-0.01863139,0.004276057,0.01160644,82.89559,-13.443477,16.228745,SIT
18302049773000,3.539142,3.61351817973682,2.08276000157811,8.6317650436826,-0.017715093,0.01038471,0.012217305,82.89432,-13.451643,16.234615,SIT
18302054770000,3.544139,3.61115074777877,2.07920882892055,8.62939756228357,-0.022907447,0.0009162979,0.013133603,82.89396,-13.459082,16.244453,SIT
18302059753000,3.549122,3.61385666497728,2.08496800096921,8.63890443043917,-0.029932396,-0.0061086523,0.012217305,82.89773,-13.467249,16.254711,SIT
18302064749000,3.554118,3.61868712361434,2.09462901912166,8.6533958567895,-0.028099801,-0.01160644,0.0125227375,82.90125,-13.475992,16.267193,SIT
18302069720000,3.559089,3.62682221802516,2.08713690206992,8.63706595226305,-0.021991149,-0.0061086523,0.014660766,82.904915,-13.481355,16.277695,SIT
18302074757000,3.564126,3.63637720299099,2.07280432484897,8.60840114702387,-0.020158553,-0.004276057,0.0143553335,82.90966,-13.486058,16.290373,SIT
18302079747000,3.569116,3.6292882226215,2.07188965912617,8.60657171153657,-0.018325957,0.0027488936,0.012217305,82.90571,-13.491459,16.29602,SIT
18302084744000,3.574113,3.61519241419735,2.07658826193422,8.6159686227786,-0.023518313,-0.006414085,0.014966198,82.90148,-13.494951,16.305948,SIT
18302089839000,3.579208,3.62690218270662,2.07487780345868,8.63228288920169,-0.02107485,-0.003970624,0.009468411,82.899155,-13.500327,16.312645,SIT
18302094817000,3.584186,3.65086825469536,2.07008458906093,8.65145589694349,-0.020158553,-0.0012217305,0.0143553335,82.89372,-13.502728,16.322578,SIT
18302099784000,3.589153,3.6518911446389,2.07020246384028,8.66065801084545,-0.021991149,-0.009468411,0.009162978,82.89522,-13.50752,16.330635,SIT
18302104785000,3.594154,3.64244700822282,2.07256349794429,8.6653800543998,-0.022602014,-0.0015271631,0.015577064,82.89053,-13.5114155,16.334602,SIT
18302109786000,3.599155,3.63300287180675,2.07492453204831,8.67010209795415,-0.031154128,-0.009162978,0.013133603,82.89199,-13.5117855,16.346579,SIT
18302114788000,3.604157,3.62355684694109,2.07728603826473,8.67482508572837,-0.01740966,-0.0067195175,0.0106901415,82.89028,-13.517524,16.35393,SIT
18302119764000,3.609133,3.61414918964836,2.08405087178981,8.66481944073489,-0.01985312,0.00061086525,0.013744468,82.88686,-13.516102,16.360703,SIT
18302124850000,3.614219,3.60452698403793,2.09367317787436,8.64557512998815,-0.02443461,-0.007330383,0.018020526,82.884705,-13.517871,16.370907,SIT
18302129781000,3.61915,3.59804151462404,2.09164496998224,8.6411179446418,-0.035124753,-0.005192355,0.013744468,82.88301,-13.5182085,16.372845,SIT
18302134789000,3.624158,3.59330887061378,2.08217958312611,8.64585068748767,-0.03145956,-0.00030543262,0.015271631,82.878815,-13.520363,16.376951,SIT
18302139837000,3.629206,3.58857010816954,2.08226576627811,8.64512445110472,-0.036957346,-0.0027488936,0.013133603,82.86752,-13.514997,16.394012,SIT
18302144812000,3.634181,3.58392253659465,2.08923717216993,8.64047678247086,-0.03390302,-0.0009162979,0.017104227,82.85362,-13.512524,16.408743,SIT
18302149771000,3.63914,3.57928991198361,2.09618615745988,8.63584406111301,-0.03756821,-0.014049901,0.014660766,82.845535,-13.506714,16.422075,SIT
18302154776000,3.644145,3.57461431485149,2.1031996019802,8.63116836633663,-0.03970624,-0.007330383,0.021685716,82.83222,-13.501223,16.430195,SIT
18302159778000,3.649147,3.57415271687622,2.10489388312378,8.63070675872144,-0.038789943,-0.0070249503,0.015882496,82.82499,-13.497018,16.442432,SIT
18302164781000,3.65415,3.57839503407119,2.10065156592881,8.63494916451213,-0.0290161,-0.0070249503,0.020158553,82.81261,-13.493454,16.453894,SIT
18302169699000,3.659068,3.58669932567802,2.10030491540681,8.64026939988459,-0.035430185,-0.004886922,0.015882496,82.8034,-13.49032,16.46261,SIT
18302174801000,3.66417,3.61233056609138,2.11568365965483,8.65052184252216,-0.03268129,-0.008552114,0.020463986,82.79102,-13.491353,16.47372,SIT
18302179678000,3.669047,3.63683145975974,2.13038419585585,8.66032214882233,-0.034208454,-0.010995574,0.019547688,82.78181,-13.489205,16.483557,SIT
18302184757000,3.674126,3.66234715361695,2.14569361217017,8.67052837307874,-0.03390302,-0.009773844,0.009162978,82.77422,-13.488836,16.492899,SIT
18302189830000,3.679199,3.67936710618762,2.16414813093812,8.6653471237525,-0.036651913,-0.01160644,0.02076942,82.765,-13.48654,16.507494,SIT
18302194844000,3.684213,3.68393112816272,2.18696824081361,8.63796289658778,-0.043982297,-0.00580322,0.017104227,82.7626,-13.485224,16.517614,SIT
18302199674000,3.689043,3.69104283631176,2.20398967877059,8.61647785628473,-0.03268129,-0.004581489,0.014660766,82.75842,-13.494016,16.530695,SIT
18302204740000,3.694109,3.70561441426641,2.20884687142214,8.60676352169995,-0.03604105,-0.007941248,0.017104227,82.753845,-13.496613,16.543333,SIT
18302209684000,3.699053,3.71983507778946,2.21358709259649,8.59728312884818,-0.04886922,-0.008552114,0.018936822,82.743965,-13.505044,16.552969,SIT
18302214748000,3.704117,3.73440090304851,2.21844236768284,8.58757262937378,-0.041233405,-0.01863139,0.0143553335,82.73625,-13.518313,16.565763,SIT
18302219710000,3.709079,3.74325932251637,2.22054712251637,8.58336320809888,-0.042760566,-0.02443461,0.016798794,82.72581,-13.524727,16.578035,SIT
18302224766000,3.714135,3.73879291712942,2.21608071712942,8.59229620542385,-0.049785517,-0.016798794,0.022296581,82.71561,-13.531694,16.58905,SIT
18302229745000,3.719114,3.73248793690839,2.20977573690839,8.5950396351818,-0.038789943,-0.024740042,0.0125227375,82.70942,-13.545391,16.617304,SIT
18302234768000,3.724137,3.71294527332927,2.19023307332927,8.55595400192972,-0.04337143,-0.021991149,0.013439035,82.69731,-13.55147,16.641012,SIT
18302239761000,3.72913,3.69361421221194,2.17090201221194,8.5210831408312,-0.04886922,-0.01740966,0.011911872,82.68976,-13.559783,16.663918,SIT
18302244718000,3.734087,3.67491332680717,2.15220112680717,8.50705767205042,-0.04917465,-0.016187929,0.018325957,82.67972,-13.567398,16.68706,SIT
18302249742000,3.739111,3.65773852122268,2.13502632122268,8.49342464872803,-0.034208454,-0.01160644,0.0143553335,82.673325,-13.576763,16.705877,SIT
18302254791000,3.74416,3.652924137472,2.130211937472,8.48379593149798,-0.03481932,-0.0106901415,0.010995574,82.66517,-13.581169,16.725409,SIT
18302260195000,3.749564,3.64777124981331,2.12505904981331,8.47349020998656,-0.03940081,-0.0021380284,0.019242255,82.65512,-13.584821,16.739866,SIT
18302264753000,3.754122,3.64342505034102,2.12071285034102,8.46479785642455,-0.04428773,0.00580322,0.014966198,82.64966,-13.589516,16.752693,SIT
18302269750000,3.759119,3.63866888443835,2.11492125331505,8.45683872637352,-0.03726278,0.019242255,0.016798794,82.63916,-13.595012,16.762266,SIT
18302274770000,3.764139,3.63396067407698,2.10079662223093,8.46154703506023,-0.03481932,0.024740042,0.014049901,82.63135,-13.598689,16.770971,SIT
18302279794000,3.769163,3.62924553720609,2.08665120401107,8.46808354633472,-0.03604105,0.027183503,0.013744468,82.63763,-13.606024,16.78602,SIT
18302284806000,3.774175,3.62450349792531,2.07242498713693,8.49653538589212,-0.044898596,0.03176499,0.021991149,82.64137,-13.611206,16.798954,SIT
18302289895000,3.779264,3.6207221282396,2.0586688358802,8.52439171394682,-0.038179077,0.047036625,0.015577064,82.65486,-13.620477,16.805872,SIT
18302294809000,3.784178,3.63002535947415,2.05401722026292,8.53834685222892,-0.03573562,0.04337143,0.012217305,82.66585,-13.625023,16.817265,SIT
18302300036000,3.789405,3.63771222309295,2.04833081731971,8.55319476728499,-0.043066,0.055283304,0.019242255,82.683304,-13.628501,16.811947,SIT
18302304742000,3.794111,3.61982970318421,2.03491892738816,8.56660647048904,-0.03940081,0.05497787,0.012217305,82.70641,-13.636747,16.809961,SIT
18302309953000,3.799322,3.60175499314286,2.02048730171429,8.58125680571429,-0.032986723,0.05589417,0.018325957,82.721115,-13.638885,16.809862,SIT
18302314663000,3.804032,3.62016590253061,2.01588457436735,8.59046245265306,-0.03359759,0.062002823,0.017104227,82.73916,-13.641051,16.8076,SIT
18302319895000,3.809264,3.63951565640255,2.01080034359745,8.60359261012017,-0.0290161,0.058948494,0.011911872,82.76641,-13.644102,16.812809,SIT
18302324687000,3.814056,3.64382395771686,2.00649204228314,8.65098378961697,-0.03359759,0.046120327,0.01863139,82.790215,-13.64327,16.819874,SIT
18302329864000,3.819233,3.6484783975967,2.0018376024033,8.70218248249155,-0.035430185,0.052839845,0.015577064,82.81123,-13.643467,16.814978,SIT
18302334690000,3.824059,3.6574702840004,1.9928457159996,8.72708471000101,-0.036651913,0.052534413,0.018020526,82.82974,-13.641338,16.81661,SIT
18302339715000,3.829084,3.66717356457304,1.98314243542696,8.75134291143261,-0.03268129,0.03634648,0.015882496,82.850716,-13.640586,16.820473,SIT
18302344685000,3.834054,3.6634605270476,1.9645731081904,8.75765783335025,-0.033292156,0.03756821,0.013744468,82.87061,-13.634352,16.818714,SIT
18302349638000,3.839007,3.65864636989749,1.94531647958997,8.76247183969349,-0.026267206,0.021380283,0.01160644,82.89318,-13.631346,16.826214,SIT
18302354695000,3.844064,3.66287109749576,1.92143726521002,8.76730899211813,-0.021380283,0.007941248,0.010079277,82.91912,-13.627016,16.82541,SIT
18302359613000,3.848982,3.66757015989225,1.89794190416043,8.77200815264891,-0.031154128,0.0061086523,0.010079277,82.94503,-13.620456,16.825886,SIT
18302364684000,3.854053,3.67685496697393,1.87386278256517,8.78129315363267,-0.025350908,0.006414085,0.005497787,82.97434,-13.615859,16.8283,SIT
18302369632000,3.859001,3.68624856522946,1.85037878692636,8.79068694806225,-0.02321288,0.003970624,0.0012217305,83.00338,-13.607477,16.831976,SIT
18302374687000,3.864056,3.676269240898,1.83104150287945,8.77638700702782,-0.02687807,-0.00580322,0.0018325958,83.02858,-13.590645,16.845726,SIT
18302379612000,3.868981,3.6647597875061,1.8126263534163,8.7602736761347,-0.01985312,-0.009773844,0.0009162979,83.05479,-13.577912,16.857824,SIT
18302384671000,3.87404,3.65293718350415,1.79371016232308,8.7437219317716,-0.02076942,-0.0030543262,0.0021380284,83.08393,-13.559491,16.861317,SIT
18302389643000,3.879012,3.64131789370425,1.77511927437775,8.72745482898975,-0.019242255,-0.005192355,-0.0076358155,83.11698,-13.544746,16.86737,SIT
18302394781000,3.88415,3.6314245062524,1.78723342802071,8.71282802148063,-0.008552114,-0.011301007,-0.004581489,83.145294,-13.531144,16.873552,SIT
18302399932000,3.889301,3.6219634213272,1.80615564726697,8.69863659167626,-0.010079277,-0.0076358155,-0.006414085,83.176765,-13.515897,16.876516,SIT
18302404788000,3.894157,3.60552240806371,1.81364414798407,8.7102515161772,-0.004886922,-0.009468411,-0.0018325958,83.20785,-13.498808,16.881804,SIT
18302409746000,3.899115,3.58661478261822,1.81837105434545,8.72915904290692,0.0021380284,-0.01282817,-0.007330383,83.24171,-13.482888,16.885727,SIT
18302414780000,3.904149,3.59263526875822,1.83777574793037,8.74495731687076,-0.007941248,-0.024740042,-0.0125227375,83.27372,-13.4690695,16.88628,SIT
18302419762000,3.909131,3.60712113585669,1.86191885976116,8.75944298228924,-0.009773844,-0.023518313,-0.0009162979,83.30118,-13.458316,16.885159,SIT
18302424785000,3.914154,3.61726965022026,1.88110423601322,8.76959159251101,-0.013439035,-0.03176499,0.0033597588,83.32846,-13.443133,16.887531,SIT
18302429784000,3.919153,3.62605717283407,1.89867932712004,8.7783792986417,-0.013133603,-0.034513887,-0.002443461,83.35447,-13.428482,16.888317,SIT
18302434867000,3.924236,3.64135120604605,1.91459065453453,8.76431982962963,-0.013133603,-0.032986723,-0.0061086523,83.37716,-13.41624,16.891788,SIT
18302439851000,3.92922,3.66046262594595,1.92892421945946,8.7356526,-0.018020526,-0.028405234,0.010995574,83.3951,-13.4014845,16.896246,SIT
18302444859000,3.934228,3.67662120186879,1.93741640062293,8.71866822905028,-0.02687807,-0.033292156,0.01038471,83.4149,-13.389612,16.901077,SIT
18302449779000,3.939148,3.69059792288525,1.94207530762842,8.70935046368715,-0.022602014,-0.040927973,0.009468411,83.42952,-13.378687,16.906586,SIT
18302454778000,3.944147,3.70479906686113,1.94680902228704,8.69988308379888,-0.01038471,-0.03940081,-0.002443461,83.44534,-13.372866,16.913,SIT
18302459786000,3.949155,3.71902577800959,1.95155125933653,8.69039865921788,-0.01038471,-0.029932396,0.007941248,83.45475,-13.363094,16.92069,SIT
18302464736000,3.954105,3.72278513813466,1.96663190932668,8.68097856798005,-0.008246681,-0.03634648,0.004276057,83.46618,-13.3573065,16.928883,SIT
18302469751000,3.95912,3.71799434990524,1.99058585047382,8.67139679142145,-0.004886922,-0.040011674,0.005497787,83.47219,-13.350622,16.934793,SIT
18302474784000,3.964153,3.71839467718187,2.00414627718187,8.66441640406689,0.007330383,-0.03176499,0.0027488936,83.47646,-13.34942,16.943548,SIT
18302479789000,3.969158,3.72313759069859,2.0088891906986,8.65967363912527,-0.0067195175,-0.030848695,0.005192355,83.4796,-13.341437,16.955618,SIT
18302484789000,3.974158,3.72427575936613,2.02876207315668,8.65082129071899,0.0012217305,-0.032375857,0.0106901415,83.481476,-13.348997,16.960718,SIT
18302489804000,3.979173,3.72217912287947,2.06230830072903,8.63824153747763,0.0067195175,-0.02687807,0.003970624,83.48552,-13.352782,16.963041,SIT
18302494782000,3.984151,3.7200979550967,2.09560702871611,8.62575459597503,0.0067195175,-0.032070424,0.0030543262,83.4874955560032,-13.3562169102538,16.96520257917,SIT
18302499732000,3.989101,3.71802849336011,2.12871845971974,8.61333789038285,0.01160644,-0.02443461,-0.008552114,83.48946,-13.3596325,16.967352,SIT
18302504688000,3.994057,3.71595652318505,2.16187002579124,8.60090613423844,-0.00061086525,-0.015577064,0.01038471,83.48524,-13.360977,16.970184,SIT
18302509678000,3.999047,3.71101208149432,2.17872515551705,8.58081742598809,0.00061086525,-0.011301007,0.009162978,83.48073,-13.36552,16.975416,SIT
18302514677000,4.004046,3.70730324953299,2.19452753271065,8.56058692793236,0.012217305,-0.009468411,0.0033597588,83.471794,-13.368415,16.979933,SIT
18302519655000,4.009024,3.72136479030577,2.21327625374103,8.54652509350113,0.011301007,-0.009468411,0.014660766,83.45294,-13.382882,16.985682,SIT
18302524837000,4.014206,3.73530558219895,2.23244894659686,8.53188206806283,0.008552114,-0.006414085,0.0076358155,83.43978,-13.403933,16.997786,SIT
18302529664000,4.019033,3.73987213495999,2.24614860487998,8.51818260051368,0.01160644,-0.00061086525,0.006414085,83.4216,-13.424552,17.010105,SIT
18302534804000,4.024173,3.74411707018815,2.26095505746051,8.50358349230305,0.008246681,-0.008857546,0.0036651916,83.40764,-13.448477,17.026405,SIT
18302539702000,4.029071,3.73467805893953,2.27983303067713,8.48942467974645,-0.0009162979,-0.016493361,-0.0027488936,83.394646,-13.471624,17.04045,SIT
18302544901000,4.03427,3.72504085273782,2.29826502636891,8.47496858614347,-0.00580322,-0.009773844,0.0012217305,83.38454,-13.499335,17.057753,SIT
18302549730000,4.039099,3.72067860520681,2.29608390260341,8.46842530594727,-0.0015271631,-0.0067195175,0.0015271631,83.37799,-13.527349,17.077065,SIT
18302554727000,4.044096,3.71616459590624,2.29382689795312,8.46165438626609,-0.0021380284,-0.0027488936,0.00061086525,83.36857,-13.55628,17.093664,SIT
18302559751000,4.04912,3.71162619632128,2.29155769816064,8.45484688166769,-0.012217305,-0.0076358155,0.004581489,83.35793,-13.582749,17.111938,SIT
18302564690000,4.054059,3.70716458096496,2.28932689048248,8.44815455180871,-0.015577064,-0.0076358155,0.00580322,83.3525758834099,-13.5965316596127,17.1180345935316,SIT
18302569769000,4.059138,3.70428618664929,2.29079471335071,8.43899198707026,-0.015577064,0.0027488936,0.004886922,83.34707,-13.610705,17.124304,SIT
18302574722000,4.064091,3.70190902465671,2.29317187534329,8.42948338874411,-0.019242255,0.007941248,0.0061086523,83.33166,-13.634044,17.136187,SIT
18302579776000,4.069145,3.69948338833317,2.29559751166683,8.41978089410645,-0.022907447,0.00580322,0.007941248,83.31593,-13.655754,17.146713,SIT
18302584698000,4.074067,3.69712110460058,2.29795979539942,8.41033180850957,-0.02107485,0.01282817,0.009773844,83.29889,-13.677511,17.15328,SIT
18302589757000,4.079126,3.70033852442972,2.30581574885944,8.42320142063417,-0.021685716,0.02687807,0.008857546,83.28185,-13.6973715,17.158346,SIT
18302594684000,4.084053,3.70480467621391,2.31474805242783,8.44106593450071,-0.03023783,0.028099801,0.0061086523,83.26538,-13.715259,17.165007,SIT
18302599786000,4.089155,3.69959338644997,2.30432550751909,8.45005947601332,-0.032375857,0.033292156,0.0076358155,83.24787,-13.737041,17.165073,SIT
18302604732000,4.094101,3.69031849849227,2.28577578002741,8.45469701683963,-0.03359759,0.03359759,0.016798794,83.22933,-13.7560005,17.166634,SIT
18302609788000,4.099157,3.68389742583732,2.28245314102871,8.49122598205742,-0.043982297,0.031154128,0.01282817,83.213844,-13.773484,17.16673,SIT
18302614799000,4.104168,3.67911379896332,2.28723671795255,8.54384597757177,-0.04428773,0.03848451,0.010995574,83.1945,-13.792126,17.165112,SIT
18302619813000,4.109182,3.67425532048119,2.27590281574065,8.5713813032929,-0.03390302,0.044593163,0.015882496,83.17626,-13.806469,17.163761,SIT
18302624872000,4.114241,3.66931607782649,2.25614589669691,8.58619882495667,-0.047647487,0.03481932,0.017104227,83.16048,-13.814469,17.164719,SIT
