timestamp,rel_time,acc_x,acc_y,acc_z,gyro_x,gyro_y,gyro_z,azimuth,pitch,roll,label
11073108866000,0,-0.570793385107013,-9.71779462234935,1.59940507666437,0.02076942,0.5375614,-0.10354166,353.0377,38.797977,-34.358288,STD
11073113887000,0.005021,-0.656160041828583,-9.69408167590492,2.02623845931551,0.0030543262,0.5271767,-0.105068825,354.1867,40.02644,-33.999302,STD
11073118940000,0.010074,-0.684619850783199,-9.6555924055672,2.11541849111045,-0.0070249503,0.5186246,-0.112704635,355.5348,41.41687,-33.635365,STD
11073123885000,0.015019,-0.656270638920483,-9.6036188422628,1.8697255518707,-0.0061086523,0.5198463,-0.12370021,356.80127,42.748627,-33.245243,STD
11073128868000,0.020002,-0.664282604062591,-9.53832471872874,1.64337779885314,-0.018325957,0.5137377,-0.12614368,357.70157,43.788887,-32.830227,STD
11073133879000,0.025013,-0.710924060870833,-9.45903413013898,1.43815550578287,-0.018325957,0.4972443,-0.122478485,358.5573,44.797626,-32.40557,STD
11073138852000,0.029986,-0.777299157776224,-9.40070610965035,1.4564488598042,-0.022602014,0.48899764,-0.12217305,359.50623,45.88903,-31.969854,STD
11073143869000,0.035003,-0.871376889258741,-9.36934716988345,1.77452113993473,-0.02107485,0.47891834,-0.13103059,0.39863065,46.94282,-31.52353,STD
11073148830000,0.039964,-0.949781887236534,-9.33992958441558,2.01702802048116,-0.031154128,0.47555858,-0.13652839,1.3730379,48.058342,-31.084482,STD
11073153894000,0.045028,-0.991082246487119,-9.31411633766234,2.07381608520332,-0.025961773,0.45356745,-0.1441642,2.2793436,49.12695,-30.633398,STD
11073158766000,0.0499,-1.02781575333464,-9.30632157092268,2.00007183419241,-0.020158553,0.42913285,-0.14385876,2.950304,49.990166,-30.2026,STD
11073163913000,0.055047,-1.0617566388255,-9.32571673873697,1.71399888070037,-0.01985312,0.4025602,-0.14446963,3.5818796,50.83002,-29.767431,STD
11073169784000,0.060918,-1.08736079609908,-9.35552269455822,1.45118798710747,-0.022296581,0.37415496,-0.14905111,4.1643314,51.631504,-29.333696,STD
11073173922000,0.065056,-1.09509022820363,-9.38257586834406,1.31592280421299,-0.016798794,0.33750305,-0.15699236,4.708334,52.41001,-28.897535,STD
11073178791000,0.069925,-1.09557484209076,-9.42313830308101,1.18940381124126,-0.030848695,0.28985557,-0.16829337,5.350459,53.284103,-28.455673,STD
11073183867000,0.075001,-1.07643443976769,-9.48534441076878,1.13198255430653,-0.026572637,0.25473082,-0.17379116,5.9456506,54.121944,-28.014435,STD
11073188809000,0.079943,-1.0428263123036,-9.53649775233023,1.08670618268975,-0.02107485,0.21319197,-0.18112154,6.545178,54.983627,-27.55449,STD
11073193877000,0.085011,-0.968966290625832,-9.56419533155792,1.06824119414115,-0.019242255,0.17654006,-0.18967366,7.0958185,55.812103,-27.096292,STD
11073198839000,0.089973,-0.894748845316946,-9.59056394464338,1.05930072250073,-0.0070249503,0.15057829,-0.20463985,7.6070514,56.61986,-26.63125,STD
11073204026000,0.09516,-0.808215569528695,-9.61460094338527,1.09295252073938,-0.003970624,0.12003502,-0.2003638,8.069322,57.394913,-26.17344,STD
11073208809000,0.099943,-0.725302889613843,-9.63628652312054,1.12401883917294,0.0070249503,0.10903945,-0.20097467,8.494732,58.153202,-25.704859,STD
11073213910000,0.105044,-0.610684551617949,-9.65538946641901,1.15744921435135,0.007941248,0.11056661,-0.20525073,8.8839035,58.884026,-25.244513,STD
11073218900000,0.110034,-0.499203694931324,-9.67222636607508,1.19048742829649,0.021380283,0.12186762,-0.20005837,9.233008,59.592564,-24.778664,STD
11073223879000,0.115013,-0.395314624116018,-9.66789756729154,1.22728147215741,0.026267206,0.13591751,-0.20525073,9.558299,60.27995,-24.319914,STD
11073228821000,0.119955,-0.292197574915528,-9.66360093672552,1.26380209171168,0.034513887,0.14813483,-0.21410827,9.858993,60.966984,-23.832115,STD
11073233862000,0.124996,-0.18701484625918,-9.65921823444238,1.30105430603241,0.041233405,0.16157386,-0.2049453,10.139838,61.625988,-23.361555,STD
11073239496000,0.13063,-0.0694589063167355,-9.65431997126776,1.34268869910581,0.056199603,0.18875736,-0.21288654,10.408987,62.26521,-22.898228,STD
11073243869000,0.135003,0.00564179237652618,-9.6376781213076,1.43534137781607,0.07147124,0.22296582,-0.2125811,10.662212,62.876835,-22.44984,STD
11073248812000,0.139946,0.0848805314879874,-9.61437262583694,1.56119110202836,0.071776666,0.2321288,-0.21533,10.898038,63.469677,-22.010593,STD
11073253848000,0.144982,0.157414019077879,-9.5964316316528,1.66050133736594,0.06811147,0.25625798,-0.21288654,11.108441,64.06905,-21.542522,STD
11073258872000,0.150006,0.224928728605793,-9.58196440503157,1.74248347997394,0.07849618,0.2742785,-0.21838433,11.303776,64.64839,-21.084564,STD
11073263885000,0.155019,0.280819699756235,-9.53630543896494,1.87007040150009,0.07544186,0.30634892,-0.21899518,11.478663,65.21456,-20.619658,STD
11073268841000,0.159975,0.329768628580536,-9.47400694843428,2.0213671471967,0.06536258,0.32834008,-0.22327125,11.64274,65.76386,-20.165705,STD
11073273840000,0.164974,0.349409066172308,-9.43779923707692,2.10471998301538,0.05100725,0.35888332,-0.20433442,11.780163,66.27886,-19.726566,STD
11073278839000,0.169973,0.339588661415385,-9.42797889384615,2.11945057476923,0.049785517,0.38789943,-0.20463985,11.914884,66.78337,-19.293962,STD
11073283807000,0.174941,0.329829155347692,-9.41821944892308,2.13408981858462,0.03756821,0.42394048,-0.204029,12.014826,67.24152,-18.879814,STD
11073288852000,0.179986,0.319918384793846,-9.40830874046154,2.14895595889231,0.026572637,0.48349985,-0.17623462,12.122182,67.68131,-18.486385,STD
11073293864000,0.184998,0.310318111395417,-9.41014132953093,2.13191550589045,0.007941248,0.52106804,-0.16279559,12.232454,68.11839,-18.09089,STD
11073298860000,0.189994,0.30090800365621,-9.41955114249189,2.09427497667421,-0.008246681,0.55680364,-0.15424347,12.352247,68.53954,-17.71514,STD
11073303956000,0.19509,0.288609209375122,-9.41806363616897,2.05886612197781,-0.018936822,0.6041457,-0.15149458,12.483342,68.94973,-17.354544,STD
11073308952000,0.200086,0.274638294607748,-9.40874999124002,2.02626734354682,-0.015882496,0.6453791,-0.129198,12.615518,69.34213,-17.012722,STD
11073313893000,0.205027,0.245785753086823,-9.38703002940303,1.97385465946936,-0.029932396,0.6753115,-0.11789699,12.759037,69.7354,-16.680223,STD
11073318985000,0.210119,0.202336000899911,-9.3532356035046,1.90143841422631,-0.03390302,0.70188415,-0.10781772,12.906085,70.11007,-16.36461,STD
11073323870000,0.215004,0.136410212505263,-9.30861905674185,1.82432551027569,-0.03970624,0.71868294,-0.087964594,13.05714,70.474,-16.067097,STD
11073328854000,0.219988,0.0454943928842105,-9.25119838025063,1.73819474536341,-0.043066,0.73731434,-0.074830994,13.209921,70.82614,-15.780376,STD
11073333845000,0.224979,-0.063542830793229,-9.21775802844208,1.63155196183446,-0.06658431,0.7449502,-0.0571159,13.380341,71.178665,-15.502336,STD
11073338882000,0.230016,-0.191722742169078,-9.20826302814683,1.50337203558705,-0.08277224,0.75136423,-0.04734206,13.548624,71.51756,-15.235131,STD
11073343838000,0.234972,-0.316997499914366,-9.23027599118477,1.39157967651622,-0.09987647,0.74128497,-0.029321533,13.726634,71.84312,-14.996298,STD
11073348815000,0.239949,-0.441847179512392,-9.28789933215797,1.29554147686883,-0.105068825,0.73914695,-0.029321533,13.902073,72.15964,-14.763517,STD
11073353840000,0.244974,-0.567067778132141,-9.35713536065574,1.22210141460507,-0.099265605,0.70616025,-0.027183503,14.084535,72.46166,-14.559013,STD
11073358870000,0.250004,-0.691504410899155,-9.43849767213115,1.17424115201192,-0.10354166,0.6765333,-0.027488936,14.260164,72.755,-14.360785,STD
11073363825000,0.254959,-0.785278175352113,-9.52520892660187,1.13375732568935,-0.11789699,0.6374379,-0.027794369,14.432553,73.0284,-14.188142,STD
11073368963000,0.260097,-0.848725238732394,-9.62281971493751,1.09959354977187,-0.13164146,0.5983425,-0.03634648,14.590219,73.29378,-14.0175905,STD
11073373900000,0.265034,-0.903058517792748,-9.69456729482861,1.07338228206856,-0.1414153,0.54733527,-0.054061573,14.748845,73.552574,-13.857015,STD
11073379006000,0.27014,-0.951502337745195,-9.74301106419655,1.05400477432138,-0.14630222,0.5140431,-0.07666359,14.895917,73.80572,-13.697203,STD
11073383822000,0.274956,-0.964782796471853,-9.77637728674746,1.05592349304144,-0.14782938,0.464563,-0.094989546,15.029639,74.05482,-13.5381975,STD
11073388880000,0.280014,-0.936378087783425,-9.79531364386239,1.08432817701329,-0.15882497,0.41447207,-0.124311075,15.149567,74.3044,-13.37381,STD
11073393764000,0.284898,-0.893812562839827,-9.81030162884339,1.1220249440252,-0.14049901,0.39095375,-0.15332718,15.271741,74.55116,-13.206546,STD
11073398845000,0.289979,-0.823836879832911,-9.82029835629665,1.17867191805109,-0.14569137,0.3567453,-0.18234327,15.372457,74.80065,-13.034187,STD
11073403895000,0.295029,-0.754288129747312,-9.83023409210436,1.23497327975758,-0.14538592,0.33078352,-0.21105394,15.467596,75.0575,-12.845863,STD
11073408838000,0.299972,-0.64722810801105,-9.83064541160221,1.28544822748619,-0.14721853,0.30573806,-0.23609942,15.549299,75.31222,-12.655268,STD
11073413906000,0.30504,-0.492525846472588,-9.82033171929452,1.33185892748619,-0.13775012,0.28527406,-0.2593123,15.6212845,75.56276,-12.4624195,STD
11073418860000,0.309994,-0.358478192875124,-9.79113849980178,1.37541835841427,-0.12217305,0.28955013,-0.28099802,15.684515,75.82754,-12.242337,STD
11073423848000,0.314982,-0.235386330996036,-9.74852990634291,1.41802705074331,-0.12767084,0.28985557,-0.29718593,15.737186,76.08929,-12.023264,STD
11073428832000,0.319966,-0.116226506881607,-9.68895301450746,1.4721262826925,-0.121256754,0.2910773,-0.31398472,15.777828,76.369225,-11.776292,STD
11073433821000,0.324955,0.000105899836258506,-9.61624531155524,1.53513967586487,-0.121256754,0.301462,-0.32253686,15.817519,76.6435,-11.53487,STD
11073438847000,0.329981,0.0962207850154583,-9.53236066869452,1.56954950905555,-0.12644911,0.32895094,-0.3155119,15.845706,76.921776,-11.281759,STD
11073443838000,0.334972,0.177258317531465,-9.44178947402015,1.58385023972275,-0.13072516,0.3494149,-0.3115413,15.871585,77.19368,-11.033036,STD
11073448832000,0.339966,0.241193616757103,-9.37669394090371,1.58420374609313,-0.14202617,0.3643811,-0.30940324,15.900913,77.48259,-10.762963,STD
11073453808000,0.344942,0.292909882850237,-9.32967869386346,1.57480079486977,-0.15118915,0.38759398,-0.30207285,15.934577,77.76015,-10.504351,STD
11073458868000,0.350002,0.326823515827538,-9.28707806189152,1.56789907885953,-0.14752395,0.40042216,-0.28527406,15.958544,78.032745,-10.246138,STD
11073463912000,0.355046,0.34601899750447,-9.2486868379694,1.56310021345122,-0.15210545,0.4251622,-0.26725355,15.988934,78.29692,-9.998946,STD
11073468909000,0.360043,0.351678736378031,-9.22671493072736,1.57167197224146,-0.16035213,0.43676865,-0.2602286,16.018084,78.56436,-9.747296,STD
11073473989000,0.365123,0.346864263780307,-9.21708630727363,1.59092982241465,-0.18051068,0.44257188,-0.2415972,16.048756,78.81899,-9.511464,STD
11073478863000,0.369997,0.327628615777735,-9.23492048115747,1.58708640428764,-0.19853121,0.45142943,-0.2321288,16.079626,79.06887,-9.280022,STD
11073483870000,0.375004,0.295360065164392,-9.27640849663526,1.56403745331667,-0.1966986,0.45112398,-0.21197024,16.105843,79.30412,-9.063107,STD
11073488871000,0.380005,0.262112398226039,-9.32584764767585,1.53805839945496,-0.21044308,0.45081854,-0.20769419,16.145021,79.54889,-8.838835,STD
11073494593000,0.385727,0.222664698380296,-9.39347246092143,1.50424605167627,-0.2144137,0.44623706,-0.19456059,16.17939,79.77752,-8.628838,STD
11073498853000,0.389987,0.198743600717888,-9.45461798190448,1.47725722643133,-0.22204952,0.42180246,-0.18875736,16.214922,80.01077,-8.421277,STD
11073503871000,0.395005,0.174983879315732,-9.53540118253733,1.44399368692772,-0.23579398,0.41080686,-0.17256944,16.249851,80.23276,-8.226471,STD
11073508864000,0.399998,0.167385108683587,-9.6134421381592,1.39259883107841,-0.2510656,0.37965274,-0.16584991,16.277832,80.45676,-8.034279,STD
11073513884000,0.405018,0.176880577990322,-9.6894059521035,1.32138269973336,-0.2312125,0.35613444,-0.14844026,16.301819,80.66392,-7.8552017,STD
11073518860000,0.409994,0.186209298088136,-9.75978571670702,1.15791794029056,-0.226631,0.344528,-0.14966199,16.320997,80.87405,-7.67983,STD
11073523883000,0.415017,0.195527320657627,-9.8250117433414,0.883036272058111,-0.23151793,0.32406402,-0.13927728,16.328085,81.068825,-7.517059,STD
11073528794000,0.419928,0.193780306713681,-9.89527465605481,0.677931007354423,-0.21197024,0.3182608,-0.12797627,16.335402,81.25928,-7.3572392,STD
11073533866000,0.425,0.174206035119887,-9.9784652157969,0.570272488039492,-0.18784106,0.3173445,-0.10720685,16.335987,81.43859,-7.2074714,STD
11073538766000,0.4299,0.161095795028902,-10.0303363285164,0.480211954746307,-0.1777618,0.31612277,-0.095294975,16.354567,81.639404,-7.052462,STD
11073543876000,0.43501,0.156605704277457,-10.0393164537572,0.408370540231214,-0.15974127,0.3182608,-0.084910266,16.371344,81.82394,-6.907675,STD
11073548781000,0.439915,0.152147049323476,-10.043906292203,0.342441394817573,-0.14813483,0.31520647,-0.070554934,16.396826,82.00744,-6.7682066,STD
11073553825000,0.444959,0.147008720460589,-10.0336296988618,0.28591978805659,-0.1301143,0.31887165,-0.059253927,16.422678,82.17905,-6.6354585,STD
11073558769000,0.449903,0.142101493544602,-10.0121857220777,0.255974701073199,-0.1160644,0.3231477,-0.03573562,16.451975,82.34496,-6.5125275,STD
11073564603000,0.455737,0.136615600239089,-9.96006967696009,0.2806612281084,-0.11178834,0.32375857,-0.007941248,16.479069,82.499916,-6.398047,STD
11073568838000,0.459972,0.132633296819677,-9.92223775185331,0.298581598693603,-0.084910266,0.31337386,-0.005497787,16.505058,82.64604,-6.288237,STD
11073573938000,0.465072,0.127837606751436,-9.87667864487702,0.320162210260199,-0.06994407,0.31337386,0.021991149,16.531599,82.775276,-6.1969986,STD
11073578828000,0.469962,0.118914382335482,-9.83490563708413,0.347473274622888,-0.061391957,0.32406402,0.03726278,16.556925,82.89922,-6.106038,STD
11073583830000,0.474964,0.098054257960634,-9.79735752856645,0.393365539883296,-0.059864793,0.32528573,0.054061573,16.577671,83.01067,-6.0259256,STD
11073589186000,0.48032,0.0770726743349282,-9.7578495645933,0.444427974162679,-0.055588737,0.32559118,0.079107046,16.607183,83.11262,-5.9508786,STD
11073593837000,0.484971,0.0869851523709803,-9.73802472237677,0.528684065933014,-0.044898596,0.3323107,0.0888809,16.63759,83.20943,-5.8788524,STD
11073598834000,0.489968,0.0900820670844307,-9.71639757629744,0.620396829728892,-0.024129177,0.3387248,0.099571034,16.666986,83.28849,-5.82007,STD
11073603861000,0.494995,0.0574524934604957,-9.69309075329202,0.718285544759876,-0.01160644,0.3313944,0.10781772,16.693176,83.36259,-5.7651687,STD
11073608818000,0.499952,0.0252842872138371,-9.66912884906754,0.814790158307083,-0.008246681,0.33536503,0.12186762,16.72327,83.42946,-5.711104,STD
11073613842000,0.504976,-0.0072596434584984,-9.6365847470287,0.912421949838632,0.004886922,0.33200526,0.14202617,16.747927,83.487335,-5.6626825,STD
11073618918000,0.510052,-0.0407434520276293,-9.60502411354497,1.00979603936226,0.01282817,0.32436943,0.14385876,16.771158,83.535576,-5.6187983,STD
11073623880000,0.515014,-0.0834591714166627,-9.59603138354544,1.08398651962909,0.002443461,0.3155119,0.15393804,16.79185,83.57596,-5.584236,STD
11073628769000,0.519903,-0.125546465268534,-9.58717095287884,1.15708552366466,0.015882496,0.31429017,0.15363261,16.822208,83.60548,-5.5459642,STD
11073633830000,0.524964,-0.169114432988787,-9.57799880323603,1.23275622512182,0.01038471,0.29932398,0.15271631,16.845127,83.63564,-5.5112534,STD
11073638780000,0.529914,-0.211726849549794,-9.56902782107206,1.30676728463831,0.008246681,0.29840767,0.15149458,16.87096,83.6625,-5.4777484,STD
11073643832000,0.534966,-0.273605016317182,-9.57103996717456,1.37112795881632,0.015271631,0.29443705,0.1469131,16.890982,83.68882,-5.4438553,STD
11073648785000,0.539919,-0.338675317713488,-9.57568793944442,1.43155036074176,0.015577064,0.2864958,0.14874569,16.908833,83.71407,-5.412467,STD
11073653841000,0.544975,-0.405098787097643,-9.58043256851698,1.49322927536622,0.013439035,0.2779437,0.1414153,16.927715,83.72224,-5.3904614,STD
11073658806000,0.54994,-0.47032673913331,-9.58509180177355,1.55379806712067,0.008857546,0.27305678,0.13744467,16.94478,83.72899,-5.3705873,STD
11073663847000,0.554981,-0.517961984876976,-9.58966682608289,1.55746523561605,0.0061086523,0.27397305,0.12644911,16.96082,83.73887,-5.347286,STD
11073668811000,0.559945,-0.557989430381701,-9.59411441032838,1.53967522371597,0.00030543262,0.26175576,0.118507855,16.971264,83.74963,-5.3241525,STD
11073673841000,0.564975,-0.601541760699062,-9.60942766628777,1.52690233348489,-0.008857546,0.2489276,0.10781772,16.998978,83.73879,-5.3126287,STD
11073678835000,0.569969,-0.646844961551577,-9.63207924306148,1.51784170277541,-0.022907447,0.23945917,0.09560041,17.023813,83.73174,-5.298825,STD
11073683818000,0.574952,-0.682320003445396,-9.65101100229693,1.49402579448737,-0.027183503,0.23304509,0.089491755,17.05037,83.72122,-5.2912517,STD
11073688876000,0.58001,-0.707606834934224,-9.66618288995615,1.45356686410524,-0.042455133,0.22266038,0.09010262,17.072718,83.71583,-5.2823777,STD
11073693865000,0.584999,-0.71553489808803,-9.65894699044015,1.40381377705636,-0.04337143,0.20769419,0.07513642,17.104847,83.71853,-5.267082,STD
11073698859000,0.589993,-0.710772247301334,-9.63513373650667,1.34666196761601,-0.05497787,0.20525073,0.061086524,17.137089,83.72456,-5.252849,STD
11073703830000,0.594964,-0.713922307553108,-9.62207164152242,1.28492911977773,-0.05955936,0.1994475,0.05589417,17.170523,83.72823,-5.2401304,STD
11073708876000,0.60001,-0.723427526435877,-9.61731893282848,1.21839253797207,-0.05589417,0.18478674,0.04886922,17.200422,83.735725,-5.223428,STD
11073713885000,0.605019,-0.716387469866561,-9.6176584568811,1.14554139836686,-0.06383542,0.16554448,0.041233405,17.22904,83.750694,-5.2057114,STD
11073718902000,0.610036,-0.69485681102868,-9.62244314210317,1.06659566594802,-0.057726767,0.1459968,0.03268129,17.252914,83.76402,-5.1863,STD
11073723862000,0.614996,-0.673570770000996,-9.62717346673969,0.988546865310695,-0.076358154,0.14110987,0.02687807,17.28149,83.782814,-5.1679325,STD
11073728872000,0.620006,-0.652070151946823,-9.63195147610038,0.909711282408883,-0.08979719,0.12614368,0.019242255,17.301197,83.801506,-5.146933,STD
11073733852000,0.624986,-0.634487962265846,-9.63188193427093,0.852401265325715,-0.08093964,0.10262536,0.02107485,17.321543,83.81655,-5.124991,STD
11073738878000,0.630012,-0.620385140763746,-9.62718088905167,0.814793674234789,-0.08277224,0.093462385,0.018325957,17.341362,83.83742,-5.100528,STD
11073743864000,0.634998,-0.599692648400832,-9.61807960085157,0.777244310699079,-0.08155051,0.092240654,0.016798794,17.36059,83.86916,-5.0714617,STD
11073748810000,0.639944,-0.571551118086939,-9.60400904139024,0.739722262118031,-0.08399397,0.087964594,0.020158553,17.375755,83.90007,-5.043857,STD
11073753866000,0.645,-0.534267089698987,-9.60019840621896,0.705547883111464,-0.0852157,0.0842994,0.013439035,17.397219,83.93601,-5.008371,STD
11073758869000,0.650003,-0.486668475134115,-9.60971782396185,0.676988735247367,-0.08307768,0.08735373,0.014660766,17.418587,83.967896,-4.977337,STD
11073763846000,0.65498,-0.443084343332996,-9.60888819736842,0.664950292874494,-0.08979719,0.093462385,0.018325957,17.43811,84.006355,-4.9425087,STD
11073768970000,0.660104,-0.403350280146761,-9.59398814473684,0.674883799595142,-0.0983493,0.08155051,0.025045475,17.45266,84.04243,-4.9098845,STD
11073773931000,0.665065,-0.378921664618511,-9.5822333179383,0.700706298577499,-0.09590584,0.08124508,0.025350908,17.468185,84.08452,-4.8706746,STD
11073778876000,0.67001,-0.370172860628117,-9.57348433123961,0.74445036420654,-0.093462385,0.0842994,0.03268129,17.48049,84.123314,-4.836478,STD
11073783780000,0.674914,-0.354551044489129,-9.57258289200776,0.786427239910177,-0.089186326,0.07788532,0.032070424,17.488398,84.17256,-4.791162,STD
11073788882000,0.680016,-0.319639741102378,-9.59253209217107,0.826325848545473,-0.07849618,0.07941248,0.034208454,17.498726,84.21639,-4.7502627,STD
11073793769000,0.684903,-0.292419401852368,-9.61446026114206,0.8672078579039,-0.06505715,0.07238753,0.040927973,17.501343,84.25529,-4.7092957,STD
11073798853000,0.689987,-0.277888417443295,-9.64352231088341,0.915644464171309,-0.07941248,0.076052725,0.040011674,17.507055,84.29696,-4.668209,STD
11073803844000,0.694978,-0.262137452823308,-9.66750794985631,0.95261371352195,-0.07941248,0.07696902,0.03268129,17.499008,84.3334,-4.6257253,STD
11073808874000,0.700008,-0.243042673594292,-9.68182931840254,0.966934807912992,-0.06994407,0.084910266,0.03756821,17.493515,84.366776,-4.587755,STD
11073813840000,0.704974,-0.22858053055526,-9.69425457713425,0.986936938195182,-0.057726767,0.08979719,0.0290161,17.485296,84.407234,-4.5392804,STD
11073819841000,0.710975,-0.223491048018066,-9.70443321271697,1.0276528091215,-0.05375614,0.09315695,0.028405234,17.478355,84.443214,-4.4958024,STD
11073824005000,0.715139,-0.22094073025378,-9.71138764548592,1.05412297990179,-0.043982297,0.105374254,0.023823744,17.472614,84.479515,-4.4467463,STD
11073828851000,0.719985,-0.229965806247751,-9.7181565903058,1.06314805118382,-0.04550946,0.122478485,0.027488936,17.468733,84.514015,-4.4013186,STD
11073833811000,0.724945,-0.239203193150372,-9.72508477154942,1.07238543326365,-0.03481932,0.12370021,0.026572637,17.467073,84.544106,-4.3497443,STD
11073838855000,0.729989,-0.248597019669892,-9.73213028489474,1.0817792548787,-0.040317107,0.1301143,0.022907447,17.471254,84.57572,-4.3002634,STD
11073843831000,0.734965,-0.257864204594778,-9.73908081511012,1.09104643496524,-0.03359759,0.12705997,0.023823744,17.469637,84.59351,-4.257227,STD
11073848820000,0.739954,-0.253705607352455,-9.72013994274683,1.10636048794264,-0.029932396,0.12858713,0.018936822,17.47085,84.61393,-4.2129393,STD
11073853810000,0.744944,-0.251060411494694,-9.69924157089439,1.11842296012127,-0.029321533,0.13316862,0.022907447,17.471447,84.630585,-4.172665,STD
11073858789000,0.749923,-0.270335974725619,-9.67996612339565,1.09914741198585,-0.029932396,0.13500121,0.028710667,17.47237,84.64351,-4.1353016,STD
11073863823000,0.754957,-0.290366332616896,-9.66054830874263,1.07972949595285,-0.027794369,0.12492194,0.03145956,17.471231,84.65688,-4.0967197,STD
11073868854000,0.759988,-0.314030832149312,-9.6416168237721,1.06079791214145,-0.03390302,0.12461651,0.03023783,17.472958,84.67072,-4.059954,STD
11073873813000,0.764947,-0.337794442994884,-9.62425662406533,1.04256889487407,-0.036957346,0.116980694,0.029321533,17.47203,84.6811,-4.028375,STD
11073878789000,0.769923,-0.365925605907123,-9.61956800226289,1.02850327425226,-0.03390302,0.12186762,0.03268129,17.474192,84.69023,-3.998788,STD
11073883886000,0.77502,-0.394344332837049,-9.6144359203904,1.01276814524926,-0.040317107,0.11911872,0.030543262,17.478306,84.70855,-3.9680336,STD
11073889616000,0.78075,-0.420597842989188,-9.60393484967946,0.976013218974261,-0.040317107,0.116980694,0.033292156,17.483452,84.72263,-3.940619,STD
11073894169000,0.785303,-0.440912045372184,-9.59586626180216,0.948293322933399,-0.05009095,0.11484267,0.035124753,17.487614,84.73471,-3.92094,STD
11073898826000,0.78996,-0.449648424571499,-9.59368212424094,0.952661518234574,-0.04337143,0.10995574,0.03726278,17.490053,84.74255,-3.9026475,STD
11073908741000,0.799875,-0.468248639250735,-9.58903197952987,0.961961637713026,-0.048258353,0.111177474,0.028405234,17.496775,84.76395,-3.8777876,STD
11073913922000,0.805056,-0.477968025257101,-9.58660208545544,0.966821337059256,-0.051923547,0.09712757,0.03268129,17.494022,84.77062,-3.8676064,STD
11073918798000,0.809932,-0.492557175445395,-9.61838965071978,0.976402053479814,-0.049480084,0.09621128,0.03573562,17.49455,84.778625,-3.8546486,STD
11073924002000,0.815136,-0.506905819878128,-9.65408593435509,0.984416336857169,-0.051923547,0.08857546,0.027183503,17.489166,84.7895,-3.8395755,STD
11073928748000,0.819882,-0.498512971744068,-9.66247896214569,0.959237757400055,-0.047647487,0.09193522,0.0290161,17.488626,84.794586,-3.833513,STD
11073933741000,0.824875,-0.489683327678885,-9.67130879521743,0.932748788325178,-0.0580322,0.07666359,0.021991149,17.484596,84.810616,-3.820529,STD
11073938759000,0.829893,-0.505008088236182,-9.68501801419511,0.949688917381456,-0.050701816,0.07544186,0.013744468,17.485432,84.8218,-3.8083568,STD
11073943701000,0.834835,-0.524067227418705,-9.6993121509111,0.973512835140441,-0.044898596,0.069027774,0.015271631,17.480284,84.834175,-3.796959,STD
11073948744000,0.839878,-0.546669577078351,-9.69731629780924,0.992790441662681,-0.047647487,0.058337633,0.0061086523,17.473927,84.85318,-3.7793252,STD
11073953735000,0.844869,-0.569532778455946,-9.69274403951019,1.01108100276476,-0.05589417,0.04642576,0.005497787,17.465137,84.86947,-3.7648306,STD
11073959048000,0.850182,-0.582074200537634,-9.71785901344086,1.02634021639785,-0.05375614,0.038789943,-0.004886922,17.45574,84.88431,-3.747765,STD
11073963805000,0.854939,-0.590520053845013,-9.74741917371153,1.03900901399703,-0.051923547,0.027183503,-0.012217305,17.441765,84.89978,-3.731464,STD
11073968812000,0.859946,-0.600280452495988,-9.75224779169787,1.03409434722371,-0.05955936,0.013133603,-0.014660766,17.432386,84.918755,-3.7123766,STD
11073973769000,0.864903,-0.610438192433936,-9.74209036995828,1.01885768428373,-0.06078109,0.0018325958,-0.020158553,17.420593,84.93765,-3.6907072,STD
11073978789000,0.869923,-0.616358442253561,-9.72928436675785,0.997927470757476,-0.055283304,-0.013133603,-0.02687807,17.404053,84.95527,-3.6691682,STD
11073983793000,0.874927,-0.620878983444015,-9.715722445807,0.97532474120366,-0.0580322,-0.010079277,-0.027488936,17.389467,84.97405,-3.6484003,STD
11073988795000,0.879929,-0.606270472717792,-9.69790451006005,0.960768704213631,-0.057726767,-0.022296581,-0.035430185,17.365234,84.992744,-3.6273825,STD
11073993768000,0.884902,-0.581185959793532,-9.67783701706521,0.950734879137259,-0.061391957,-0.025961773,-0.03756821,17.344357,85.01112,-3.6084275,STD
11073998777000,0.889911,-0.559096445816211,-9.67567745562648,0.945001459163242,-0.067500606,-0.032375857,-0.03726278,17.320889,85.031395,-3.589379,STD
11074003821000,0.894955,-0.53797841696249,-9.67990114960217,0.940777853392498,-0.06841691,-0.02565634,-0.03940081,17.300367,85.051674,-3.5695775,STD
11074008831000,0.899965,-0.515268932855965,-9.66840540593447,0.933944867927055,-0.06811147,-0.025350908,-0.038789943,17.275257,85.07495,-3.546582,STD
11074013865000,0.904999,-0.490433953698743,-9.63860335833505,0.924010886637132,-0.055283304,-0.02107485,-0.043676864,17.25346,85.09675,-3.5220797,STD
11074018850000,0.909984,-0.457732118250732,-9.62732958166039,0.932566096565245,-0.049785517,-0.02076942,-0.038179077,17.228289,85.1198,-3.4973128,STD
11074023936000,0.91507,-0.416989626153283,-9.63242249487662,0.958030157449812,-0.060170226,-0.022296581,-0.028710667,17.203918,85.142914,-3.4729161,STD
11074028824000,0.919958,-0.382196481599372,-9.63283729966148,0.964396151609184,-0.056505036,-0.017715093,-0.028099801,17.179594,85.16497,-3.4447465,STD
11074033854000,0.924988,-0.349110151893244,-9.63047394245204,0.959669523561301,-0.051923547,-0.01282817,-0.022296581,17.154802,85.18522,-3.4212592,STD
11074038879000,0.930013,-0.316056711182848,-9.62811293450424,0.954947593950841,-0.05131268,-0.005497787,-0.0143553335,17.124384,85.207184,-3.3941402,STD
11074043835000,0.934969,-0.283457138613551,-9.62578434636707,0.950290502776824,-0.044898596,-0.014049901,-0.013133603,17.091019,85.22658,-3.3670926,STD
11074048828000,0.939962,-0.263061037797269,-9.63232522505731,0.943014295768962,-0.050396383,-0.007330383,-0.010995574,17.064152,85.24589,-3.3434134,STD
11074053870000,0.945004,-0.253435541688428,-9.64676324558955,0.93338881473637,-0.050701816,-0.013439035,-0.004886922,17.031279,85.2613,-3.3212652,STD
11074058838000,0.949972,-0.241402760573057,-9.65595245424542,0.92135604850285,-0.042760566,-0.01863139,-0.0030543262,16.998262,85.28782,-3.2847373,STD
11074063909000,0.955043,-0.226832107525753,-9.66080943664366,0.906785410670067,-0.049785517,-0.009773844,-0.00061086525,16.967548,85.31527,-3.2509644,STD
11074068846000,0.95998,-0.22026655,-9.66551678851589,0.90021986,-0.032986723,-0.016493361,-0.0027488936,16.930433,85.33769,-3.215205,STD
11074073847000,0.964981,-0.22026655,-9.67026658541181,0.90021986,-0.042455133,-0.0076358155,0.002443461,16.900297,85.36424,-3.1833267,STD
11074078864000,0.969998,-0.22026655,-9.67503157861854,0.90021986,-0.03145956,-0.0070249503,0.0009162979,16.869604,85.38954,-3.1436458,STD
11074083867000,0.975001,-0.22026655,-9.67978327505331,0.90021986,-0.0290161,-0.0143553335,0.0030543262,16.839071,85.41592,-3.107322,STD
11074088879000,0.980013,-0.213058898554349,-9.68455459898376,0.905024955110093,-0.02687807,-0.015882496,0.0012217305,16.807575,85.443,-3.071353,STD
11074093871000,0.985005,-0.198769543504035,-9.68931781349009,0.914551180205241,-0.03023783,-0.010079277,0.0009162979,16.776163,85.46918,-3.0371203,STD
11074098948000,0.990082,-0.186908339067652,-9.69635664354747,0.926315132774304,-0.02321288,-0.010079277,0.006414085,16.747602,85.48848,-3.0022607,STD
11074103897000,0.995031,-0.17792679501895,-9.70533790155391,0.93978744181353,-0.034208454,-0.0143553335,0.002443461,16.719671,85.51341,-2.9654207,STD
11074108834000,0.999968,-0.175032912159208,-9.71176548188814,0.947220386561933,-0.029626964,-0.009773844,0.00580322,16.689362,85.53067,-2.9325063,STD
11074113913000,1.005047,-0.182185591105338,-9.71414975633548,0.944836161906279,-0.03268129,-0.008552114,0.0067195175,16.657103,85.55239,-2.898328,STD
11074118814000,1.009948,-0.189087595341405,-9.71645047085927,0.942535495429146,-0.02107485,-0.0030543262,0.009162978,16.628355,85.562454,-2.8645744,STD
11074123832000,1.014966,-0.196154368909367,-9.71880610960247,0.940179905879614,-0.020158553,0.0036651916,0.011911872,16.60036,85.57472,-2.831902,STD
11074128802000,1.019936,-0.2004397665407,-9.71843950984768,0.943239262809256,-0.013439035,0.016798794,0.014966198,16.57579,85.58221,-2.8008761,STD
11074133836000,1.02497,-0.19810108110653,-9.71142355855244,0.959610055964393,-0.0143553335,0.016187929,0.018020526,16.54921,85.59027,-2.7711463,STD
11074138806000,1.02994,-0.195792128661589,-9.70449680488988,0.97577271825701,-0.018936822,0.015577064,0.02076942,16.530903,85.59626,-2.7435052,STD
11074143834000,1.034968,-0.193456230695159,-9.69748921587271,0.992123999143786,-0.01985312,0.022296581,0.021685716,16.51447,85.60113,-2.7169278,STD
11074148828000,1.039962,-0.194817973286567,-9.68844709074627,1.00310331946269,-0.015882496,0.026267206,0.02321288,16.494076,85.60806,-2.6928368,STD
11074153845000,1.044979,-0.213941094969154,-9.66932358467662,0.988760989432836,-0.014660766,0.01985312,0.023823744,16.472662,85.61547,-2.6691847,STD
11074158868000,1.050002,-0.229080977838167,-9.65189628503274,0.977596681365762,-0.02565634,0.011911872,0.03359759,16.455488,85.62594,-2.6429172,STD
11074163858000,1.054992,-0.22461060534986,-9.64295582946679,0.982067049186155,-0.02107485,0.014966198,0.029626964,16.439806,85.63439,-2.6136417,STD
11074169133000,1.060267,-0.220543066415209,-9.63482102907686,0.986964131964213,-0.025350908,0.021380283,0.024740042,16.425182,85.650696,-2.5892754,STD
11074173854000,1.064988,-0.223607465467331,-9.64094978558357,0.993092920469025,-0.022296581,0.02321288,0.03359759,16.409948,85.66204,-2.568238,STD
11074178832000,1.069966,-0.226838683107971,-9.64741217700285,0.999555345628304,-0.03390302,0.0027488936,0.021380283,16.389942,85.68149,-2.5392954,STD
11074183830000,1.074964,-0.230082882739935,-9.65390053222855,1.00604373472956,-0.023823744,0.019547688,0.02321288,16.380707,85.69081,-2.5181122,STD
11074188833000,1.079967,-0.23333032786973,-9.66039537840586,1.01253861481632,-0.020158553,0.016187929,0.021685716,16.36016,85.70628,-2.4923387,STD
11074193847000,1.084981,-0.236584913094754,-9.6669045046767,1.01904777507117,-0.023518313,0.02107485,0.022602014,16.346691,85.71979,-2.4687998,STD
11074198828000,1.089962,-0.236012663210796,-9.67087126680855,1.02187870514656,-0.026267206,0.024129177,0.013133603,16.333395,85.7385,-2.4401064,STD
11074203892000,1.095026,-0.207863128103899,-9.65679670745864,0.998420779636258,-0.019547688,0.02076942,0.016798794,16.319366,85.75278,-2.4160378,STD
11074208936000,1.10007,-0.181263493844844,-9.64471479451277,0.975964504578997,-0.023518313,0.021380283,0.010995574,16.30787,85.77041,-2.388504,STD
11074214605000,1.105739,-0.170990850189688,-9.65755558902555,0.963123696657994,-0.01740966,0.027488936,0.01282817,16.296743,85.78163,-2.3648534,STD
11074219057000,1.110191,-0.162923499765847,-9.66763976915799,0.953039505995743,-0.021380283,0.03390302,0.016798794,16.277977,85.79626,-2.3414466,STD
11074223886000,1.11502,-0.154172997700095,-9.67857788817408,0.942101375558184,-0.016187929,0.03481932,0.022296581,16.25937,85.80619,-2.3195333,STD
11074228843000,1.119977,-0.14519055024929,-9.68980593869442,0.930873313313623,-0.024129177,0.03634648,0.013439035,16.242985,85.82134,-2.2952626,STD
11074233869000,1.125003,-0.135765985759487,-9.69567172567767,0.921064143994086,-0.015271631,0.028710667,0.010995574,16.224087,85.82893,-2.2746835,STD
11074238780000,1.129914,-0.126494090371612,-9.70030728368654,0.911792258287827,-0.006414085,0.03756821,0.015271631,16.2104,85.83824,-2.2543082,STD
11074243866000,1.135,-0.130262600256947,-9.69554097400657,0.923246249262026,-0.004276057,0.04520403,0.02107485,16.188236,85.84679,-2.2352443,STD
11074248783000,1.139917,-0.137297132432029,-9.68850654466686,0.939660156038243,-0.013133603,0.03940081,0.017104227,16.164978,85.8564,-2.2148821,STD
11074253862000,1.144996,-0.144563430767852,-9.68124035255453,0.956614850469077,0.0021380284,0.055283304,0.02321288,16.14927,85.85851,-2.198455,STD
11074258771000,1.149905,-0.151586517700428,-9.67421736829001,0.973002051682103,-0.0012217305,0.057726767,0.01740966,16.128454,85.86934,-2.1775126,STD
11074263918000,1.155052,-0.155122958624629,-9.672575,0.984410486587537,-0.0012217305,0.05955936,0.02687807,16.108326,85.87114,-2.1657803,STD
11074268909000,1.160043,-0.157486848768546,-9.672575,0.993866037289812,0.004581489,0.060170226,0.02321288,16.088999,85.87498,-2.148931,STD
11074273878000,1.165012,-0.159840319040059,-9.672575,1.00327990854599,-0.0009162979,0.05681047,0.016187929,16.069454,85.876495,-2.1358473,STD
11074278873000,1.170007,-0.162206103706231,-9.672575,1.01274303732938,-0.002443461,0.058337633,0.02107485,16.051474,85.87439,-2.1253946,STD
11074284744000,1.175878,-0.160664676692397,-9.67471608578503,1.0151415,-0.013744468,0.04734206,0.014966198,16.030855,85.88342,-2.1075017,STD
11074288885000,1.180019,-0.158739365001456,-9.67664143567337,1.0151415,-0.011301007,0.05222898,0.014966198,16.015133,85.88758,-2.0933275,STD
11074293867000,1.185001,-0.156423039755316,-9.67895780687445,1.0151415,-0.013439035,0.04734206,0.025961773,15.990451,85.89611,-2.0819497,STD
11074298845000,1.189979,-0.154108574264492,-9.68127231828333,1.0151415,-0.008857546,0.032375857,0.019547688,15.964787,85.90456,-2.0657368,STD
11074303933000,1.195067,-0.154216598688244,-9.68511502171738,1.0151415,-0.008857546,0.03390302,0.013133603,15.942485,85.91274,-2.0529997,STD
11074308879000,1.200013,-0.155745105650715,-9.68970047397464,1.0151415,-0.0009162979,0.03481932,0.013439035,15.915997,85.9175,-2.0402184,STD
11074313915000,1.205049,-0.157301426124431,-9.6943693655168,1.0151415,-0.016187929,0.03359759,0.019547688,15.889092,85.92815,-2.0266407,STD
11074318914000,1.210048,-0.158846312154636,-9.69900395424183,1.0151415,-0.01282817,0.029932396,0.01863139,15.862101,85.932915,-2.0113187,STD
11074323863000,1.214997,-0.160375746234148,-9.70359218780858,1.0151415,-0.005192355,0.030848695,0.019547688,15.833766,85.9277,-2.003045,STD
11074328881000,1.220015,-0.161926504005615,-9.70824439149376,1.0151415,-0.014660766,0.034513887,0.023823744,15.805446,85.92566,-1.9954333,STD
11074333865000,1.224999,-0.167016364582734,-9.70456612435766,1.0256681279445,-0.014049901,0.03390302,0.027794369,15.776468,85.9096,-1.990427,STD
11074338876000,1.23001,-0.176880572158273,-9.68977002672148,1.05032868550874,-0.014049901,0.036651913,0.028405234,15.749789,85.89636,-1.9856716,STD
11074343853000,1.234987,-0.177320429002728,-9.68447149772658,1.06534504928766,-0.016187929,0.036957346,0.032375857,15.722893,85.88273,-1.9835194,STD
11074348820000,1.239954,-0.167707821053855,-9.68927789956552,1.07015135075275,-0.02321288,0.038179077,0.033292156,15.697387,85.8711,-1.9805658,STD
11074353850000,1.244984,-0.15807696884912,-9.67990713446708,1.06078050977853,-0.016493361,0.0290161,0.03176499,15.664641,85.854355,-1.9820658,STD
11074358875000,1.250009,-0.148560759584734,-9.65611663614791,1.03698996177576,-0.021991149,0.04153884,0.030543262,15.638841,85.842705,-1.9839827,STD
11074363896000,1.25503,-0.141354294408234,-9.64476409275357,1.02333961768146,-0.027488936,0.03359759,0.03176499,15.603833,85.829956,-1.9835962,STD
11074368876000,1.26001,-0.136643272651547,-9.64664844100913,1.02051300675254,-0.027183503,0.029626964,0.032070424,15.573963,85.817825,-1.9826411,STD
11074373847000,1.264981,-0.131940764789601,-9.64852938381603,1.01769150415662,-0.030543262,0.027183503,0.036651913,15.541413,85.80725,-1.9831893,STD
11074378871000,1.270005,-0.127188119547513,-9.65043038093168,1.01483991915524,-0.030543262,0.036651913,0.0290161,15.511778,85.79774,-1.9801852,STD
11074383822000,1.274956,-0.122504531451658,-9.65230375607491,1.01202976841045,-0.04520403,0.01863139,0.0290161,15.473792,85.79146,-1.9797908,STD
11074388872000,1.280006,-0.117727290513651,-9.65421459115334,1.00916342600261,-0.03634648,0.021685716,0.027488936,15.445093,85.78077,-1.9771163,STD
11074393800000,1.284934,-0.113065460148801,-9.65607926348335,1.0063663298866,-0.03940081,0.02687807,0.032070424,15.408722,85.76818,-1.9799641,STD
11074398848000,1.289982,-0.108290111187404,-9.65798934179541,1.00350112266387,-0.04062254,0.021991149,0.021380283,15.37114,85.75566,-1.9774756,STD
11074403799000,1.294933,-0.103606523091548,-9.65986271693864,1.00069097191908,-0.04734206,0.017104227,0.019547688,15.340632,85.74453,-1.9747989,STD
11074408861000,1.299995,-0.0988179302938876,-9.66177809261528,0.997817818400569,-0.05131268,0.010079277,0.015882496,15.3087,85.73505,-1.9682506,STD
11074413804000,1.304938,-0.095768064,-9.66151259476652,0.9959879,-0.051618114,0.003970624,0.016798794,15.275938,85.72629,-1.9622691,STD
11074418930000,1.310064,-0.095768064,-9.65708316647868,0.9959879,-0.04337143,0.008246681,0.009468411,15.244728,85.71816,-1.9528247,STD
11074423943000,1.315077,-0.095768064,-9.65275138263027,0.9959879,-0.050701816,0.007330383,0.0036651916,15.207583,85.711555,-1.9419613,STD
11074428863000,1.319997,-0.095768064,-9.64849996101963,0.9959879,-0.036957346,0.0067195175,0.004886922,15.172104,85.697845,-1.9310455,STD
11074433835000,1.324969,-0.095768064,-9.64420360568464,0.9959879,-0.03970624,0.008857546,0.0067195175,15.137593,85.69113,-1.9186876,STD
11074438842000,1.329976,-0.0979532435812174,-9.63947455686957,0.998173075930435,-0.04520403,0.0143553335,0.005497787,15.104242,85.68219,-1.90585,STD
11074443759000,1.334893,-0.100293079818335,-9.63479479448447,1.00051290825839,-0.04153884,0.02443461,0.009468411,15.073016,85.67101,-1.895138,STD
11074448826000,1.33996,-0.102704296050484,-9.62997226936646,1.00292412046211,-0.04917465,0.011301007,0.0009162979,15.033859,85.66407,-1.8830016,STD
11074453811000,1.344945,-0.105076491218683,-9.62522778787578,1.00529631166708,-0.05009095,0.01985312,-0.0015271631,15.003934,85.65356,-1.8742585,STD
11074458834000,1.349968,-0.101387965383247,-9.63656155874722,1.00160779199407,-0.050396383,0.0290161,0.0076358155,14.970739,85.64476,-1.8660859,STD
11074463784000,1.354918,-0.0969953375848777,-9.64973923665678,0.99721517153447,-0.05375614,0.024740042,0.0027488936,14.936795,85.639244,-1.8530953,STD
11074468843000,1.359977,-0.0995538878107323,-9.67235008742876,0.984630447542747,-0.044898596,0.030543262,0.00061086525,14.908798,85.62865,-1.8445824,STD
11074473800000,1.364934,-0.104658982650177,-9.69787551898053,0.969315188611679,-0.044898596,0.03268129,0.007941248,14.878752,85.62089,-1.8371805,STD
11074478834000,1.369968,-0.092963812441989,-9.70955920994475,0.97138451878453,-0.058948494,0.038179077,0.009468411,14.849431,85.61702,-1.8281054,STD
11074483782000,1.374916,-0.0789387386606156,-9.71890944593528,0.976059539147593,-0.047647487,0.04184427,0.02076942,14.820189,85.604774,-1.8238319,STD
11074488848000,1.379982,-0.0745995335409544,-9.71038440191269,0.970789530627818,-0.03848451,0.058337633,0.025045475,14.797526,85.59883,-1.8191906,STD
11074493776000,1.38491,-0.072260973008176,-9.6986916041326,0.96377383975026,-0.04153884,0.058643065,0.025961773,14.771441,85.592445,-1.816386,STD
11074498814000,1.389948,-0.0698702124635053,-9.68673780640206,0.956601548629899,-0.027794369,0.056505036,0.022907447,14.747964,85.57997,-1.8112894,STD
11074503942000,1.395076,-0.0674367428181953,-9.67457046325752,0.949301130038155,-0.03359759,0.05375614,0.024740042,14.724537,85.573006,-1.8077228,STD
11074508840000,1.399974,-0.0766152415857025,-9.66938240435497,0.967259040505341,-0.027488936,0.062308256,0.024129177,14.706058,85.559875,-1.8014798,STD
11074513830000,1.404964,-0.0883954195528349,-9.66545559827444,0.990819405460148,-0.016187929,0.06688975,0.029932396,14.685704,85.54627,-1.7973957,STD
11074518851000,1.409985,-0.0948321782008032,-9.6583185729585,1.0065005854083,-0.029626964,0.0571159,0.02687807,14.666963,85.54009,-1.7881093,STD
11074523840000,1.414974,-0.0923721496169293,-9.6460184351766,1.00896061296468,-0.027183503,0.056199603,0.027794369,14.651963,85.52608,-1.7819083,STD
11074528831000,1.419965,-0.0899111348520235,-9.63371336649161,1.01142162670168,-0.024129177,0.053145275,0.020158553,14.634569,85.513535,-1.7741282,STD
11074533835000,1.424969,-0.0874437099104109,-9.62137624693646,1.01388905061271,-0.018325957,0.050701816,0.016493361,14.617139,85.49947,-1.7677108,STD
11074539565000,1.430699,-0.0907075976435224,-9.62113574789336,1.00911972066723,-0.007941248,0.05131268,0.011301007,14.600036,85.48482,-1.7587045,STD
11074543839000,1.434973,-0.0967586406179471,-9.62920375745331,1.00105166898438,-0.01038471,0.04734206,0.01863139,14.580877,85.47144,-1.7521358,STD
11074548815000,1.439949,-0.103803561029912,-9.63859692908885,0.991658448307298,-0.015577064,0.051923547,0.021380283,14.568956,85.45863,-1.7386438,STD
11074553955000,1.445089,-0.111080669333268,-9.64829968274774,0.981955643990539,-0.017715093,0.05222898,0.025350908,14.554541,85.44511,-1.7276098,STD
11074558793000,1.449927,-0.127084672827971,-9.65950261918518,0.982915792180496,-0.010079277,0.053450707,0.024740042,14.541781,85.4309,-1.7163432,STD
11074563848000,1.454982,-0.156018286355215,-9.6739697179998,0.997382588873394,-0.020463986,0.058337633,0.020463986,14.530202,85.42233,-1.7053853,STD
11074568814000,1.459948,-0.170612647392334,-9.67861218086133,1.01441408151917,-0.023518313,0.042455133,0.021991149,14.515054,85.410965,-1.698246,STD
11074573845000,1.464979,-0.166386625043417,-9.67015995965266,1.03554423739146,-0.019547688,0.050701816,0.02443461,14.508287,85.40109,-1.6909016,STD
11074578852000,1.469986,-0.163507220364281,-9.66089352820715,1.05485180072856,-0.029321533,0.045814894,0.018325957,14.502623,85.403015,-1.6789813,STD
11074583831000,1.474965,-0.168201804119327,-9.64680997302353,1.06424096823865,-0.03268129,0.03940081,0.019547688,14.4986,85.40115,-1.6702416,STD
11074588812000,1.479946,-0.172618138902982,-9.63544609328476,1.07165992291189,-0.032375857,0.046120327,0.023823744,14.497253,85.40251,-1.6580825,STD
11074593837000,1.484971,-0.17478264527864,-9.64626861386228,1.06300188384833,-0.02687807,0.035430185,0.012217305,14.48936,85.40469,-1.6415681,STD
11074598809000,1.489943,-0.176924322034813,-9.65697698646157,1.05443516340575,-0.028405234,0.0290161,0.017715093,14.484314,85.40503,-1.6324077,STD
11074603895000,1.495029,-0.179115104010255,-9.66793088490082,1.04567202177844,-0.03940081,0.027488936,0.022907447,14.477811,85.40755,-1.6200742,STD
11074609674000,1.500808,-0.181604394029146,-9.68037732199883,1.03571484610714,-0.032070424,0.034513887,0.02321288,14.4719,85.405396,-1.6082462,STD
11074613845000,1.504979,-0.188541846959647,-9.68544332549543,1.03100384323853,-0.038789943,0.016187929,0.016493361,14.458372,85.409966,-1.5955544,STD
11074618985000,1.510119,-0.198650642051545,-9.69049782595749,1.02594944833145,-0.035430185,0.02565634,0.020158553,14.454556,85.40869,-1.5869031,STD
11074623939000,1.515073,-0.20279670475209,-9.68667760552811,1.02808584356953,-0.04734206,0.026267206,0.023823744,14.444241,85.41572,-1.5770082,STD
11074628863000,1.519997,-0.205036266513108,-9.67995878694909,1.03256498579977,-0.03634648,0.028099801,0.025350908,14.436967,85.41534,-1.5680002,STD
11074633855000,1.524989,-0.207306756421923,-9.67314718208587,1.03710598458397,-0.032070424,0.022296581,0.027183503,14.431826,85.42294,-1.558932,STD
11074638885000,1.530019,-0.209594529707447,-9.66628372606383,1.04168155026596,-0.04337143,0.018936822,0.027794369,14.427869,85.43145,-1.5502974,STD
11074643865000,1.534999,-0.211910643660471,-9.65811445085502,1.04753468098141,-0.03481932,0.024740042,0.022296581,14.4249525,85.43365,-1.5407274,STD
11074648810000,1.539944,-0.214257968369269,-9.64872520104089,1.05457665510781,-0.0290161,0.031154128,0.025350908,14.421074,85.43842,-1.5339166,STD
11074653845000,1.544979,-0.216648014862454,-9.63916506498141,1.06174679458736,-0.03756821,0.022907447,0.02565634,14.416532,85.444,-1.5245016,STD
11074658837000,1.549971,-0.219017649836431,-9.62968657457249,1.06885569950929,-0.029626964,0.029321533,0.028405234,14.417815,85.44288,-1.517362,STD
11074663832000,1.554966,-0.216976711643013,-9.62578763492371,1.07918207213369,-0.03634648,0.022907447,0.022602014,14.413222,85.4486,-1.5076375,STD
11074668861000,1.559995,-0.209978151111165,-9.62812053552918,1.09317918345362,-0.02321288,0.021991149,0.032986723,14.411569,85.444885,-1.503787,STD
11074673802000,1.564936,-0.20310205495132,-9.63041261385323,1.10693136620005,-0.02443461,0.032070424,0.023518313,14.420255,85.44909,-1.4874337,STD
11074678851000,1.569985,-0.196075661607653,-9.63275479224994,1.12098414310487,-0.031154128,0.01985312,0.025350908,14.421649,85.44912,-1.4771441,STD
11074683814000,1.574948,-0.194916882061845,-9.62919677129812,1.13175357426585,-0.03359759,0.02687807,0.031154128,14.431287,85.44872,-1.4663732,STD
11074688843000,1.579977,-0.204912062613884,-9.61420370301961,1.13675115932344,-0.032375857,0.027183503,0.03268129,14.435379,85.44922,-1.4549003,STD
11074693762000,1.584896,-0.213925167959869,-9.60715474191923,1.14287541627067,-0.029626964,0.02321288,0.0290161,14.434263,85.44979,-1.4429663,STD
11074698817000,1.589951,-0.222053914374948,-9.61121919788431,1.15100415844178,-0.027488936,0.02565634,0.025045475,14.434937,85.44993,-1.4318433,STD
11074703873000,1.595007,-0.229616411227364,-9.61534095327521,1.15856665146434,-0.04184427,0.010995574,0.021380283,14.4304285,85.453026,-1.4211887,STD
11074708841000,1.599975,-0.224298102253521,-9.62065936776213,1.15324834804382,-0.038789943,0.02443461,0.027794369,14.434403,85.45017,-1.4132546,STD
11074713833000,1.604967,-0.223581078551802,-9.62579586515479,1.14811195791851,-0.036651913,0.019547688,0.021991149,14.429961,85.451416,-1.4018103,STD
11074718854000,1.609988,-0.237155505842665,-9.63032076559706,1.14358715197139,-0.04062254,0.01282817,0.022296581,14.428473,85.45225,-1.3944372,STD
11074723804000,1.614938,-0.250014925160839,-9.63477698741259,1.13862204643357,-0.03634648,0.00580322,0.028099801,14.421228,85.456154,-1.3878213,STD
11074728837000,1.619971,-0.259003290642424,-9.6392712569697,1.1296336950303,-0.03756821,0.007941248,0.026572637,14.41487,85.462906,-1.3794514,STD
11074734159000,1.625293,-0.267589294539416,-9.64365789440266,1.1208606033799,-0.038179077,0.007941248,0.020158553,14.407603,85.46797,-1.3737255,STD
11074738845000,1.629979,-0.254437907597929,-9.63927401025691,1.12962818857087,-0.03848451,0.0143553335,0.02076942,14.402727,85.47252,-1.3698475,STD
11074743810000,1.634944,-0.240503499538927,-9.63462911380287,1.1389177874768,-0.04184427,0.005192355,0.012217305,14.397021,85.47913,-1.3618594,STD
11074749083000,1.640217,-0.225468907006161,-9.6389185165938,1.15359130698529,-0.038789943,-0.005192355,0.019242255,14.3924265,85.48238,-1.3587725,STD
11074753851000,1.644985,-0.211857351934618,-9.64345579163355,1.16720289522059,-0.034208454,-0.005192355,0.020158553,14.3907233635571,85.4868669543824,-1.35470491455664,STD
11074758838000,1.649972,-0.206644480007381,-9.66002597859384,1.15623466045396,-0.04917465,-0.003970624,0.015577064,14.388942,85.49156,-1.3504505,STD
11074763805000,1.654939,-0.202255476937627,-9.67758188088208,1.14306761916405,-0.037873644,-0.003970624,0.016798794,14.3846787285657,85.4933992624014,-1.34544483087134,STD
11074768857000,1.659991,-0.177877645512048,-9.67440674548193,1.13189490722892,-0.04642576,-0.003970624,0.007941248,14.3803425,85.49527,-1.3403535,STD
11074773778000,1.664912,-0.147459746024096,-9.66426724096386,1.12175561445783,-0.047036625,-0.0070249503,0.010079277,14.366827,85.50456,-1.3303595,STD
11074778835000,1.669969,-0.139500345919563,-9.6713016815697,1.13294166224131,-0.04184427,-0.0036651916,0.007941248,14.354328,85.50861,-1.3187113,STD
11074783795000,1.674929,-0.134863394728622,-9.68057577762593,1.14685251581414,-0.05497787,0.0018325958,0.01282817,14.341491,85.51677,-1.3098549,STD
11074788845000,1.679979,-0.145343024148411,-9.68966357555701,1.13043727282558,-0.05131268,-0.0012217305,0.016493361,14.324626,85.520775,-1.2955458,STD
11074793771000,1.684905,-0.158536465830148,-9.69845892169293,1.10844821866319,-0.03756821,0.0012217305,0.0143553335,14.311021,85.52527,-1.2814962,STD
11074798813000,1.689947,-0.18013584862811,-9.69090707410517,1.09093472933767,-0.051618114,0.015271631,0.022296581,14.298761,85.53369,-1.2707524,STD
11074803826000,1.69496,-0.205331885406739,-9.67578967198489,1.07581711674189,-0.05222898,0.0125227375,0.01863139,14.282793,85.53558,-1.2560452,STD
11074808836000,1.69997,-0.214210855546751,-9.6479271141046,1.06908129445325,-0.046731193,0.022296581,0.018325957,14.276444,85.54051,-1.2480955,STD
11074813788000,1.704922,-0.218631878535471,-9.61697976852801,1.06466027146453,-0.056505036,0.021991149,0.016493361,14.266614,85.54987,-1.2385869,STD
11074818911000,1.710045,-0.230089529602223,-9.60389997491821,1.07776005658202,-0.04886922,0.01863139,0.016493361,14.261608,85.553116,-1.2340951,STD
11074823802000,1.714936,-0.244683755979644,-9.6014678091603,1.09965137709924,-0.053145275,0.023518313,0.015577064,14.258958,85.56218,-1.2291194,STD
11074828817000,1.719951,-0.259647985233941,-9.59897398146129,1.12209770144882,-0.049785517,0.02687807,0.016798794,14.255541,85.56662,-1.2257184,STD
11074833818000,1.724952,-0.274570439969881,-9.59648711559433,1.1444813640754,-0.044898596,0.035124753,0.0143553335,14.25503,85.57186,-1.2213293,STD
11074838823000,1.729957,-0.270136338888443,-9.59975620755096,1.1568078888543,-0.054367006,0.027488936,0.0143553335,14.250865,85.57955,-1.217829,STD
11074843815000,1.734949,-0.260535483284466,-9.60455622683,1.16640877954614,-0.057421334,0.025045475,0.013133603,14.250578,85.5842,-1.2137043,STD
11074848842000,1.739976,-0.250959082518107,-9.6131518504812,1.14552638587161,-0.05009095,0.022296581,0.011301007,14.246182,85.57397,-1.2180429,STD
11074853865000,1.744999,-0.241413643231471,-9.62269749409664,1.11689000322453,-0.04550946,0.01985312,0.015271631,14.241165,85.565125,-1.2234964,STD
11074858840000,1.749974,-0.240614768471119,-9.61871805140751,1.10613124112601,-0.04184427,0.01282817,0.013439035,14.233036,85.55469,-1.2247285,STD
11074864019000,1.755153,-0.242190615055919,-9.61083881025608,1.09982784820487,-0.05467244,0.00580322,0.009468411,14.2242775,85.547676,-1.2262913,STD
11074868853000,1.759987,-0.24366148634206,-9.60348444614603,1.09394435691682,-0.053450707,0.002443461,0.013439035,14.215235,85.53174,-1.2292776,STD
11074873862000,1.764996,-0.245185605968101,-9.59586384005846,1.08784787204677,-0.04520403,0.01740966,0.013439035,14.209718,85.51834,-1.2301269,STD
11074878868000,1.770002,-0.246708812765457,-9.58824779811908,1.08175503849527,-0.04550946,0.009162978,0.013439035,14.196669,85.50697,-1.2313935,STD
11074883822000,1.774956,-0.248216197198958,-9.58071086808159,1.07572549446527,-0.04184427,0.011301007,0.015577064,14.190901,85.49247,-1.2337065,STD
11074888848000,1.779982,-0.253804922020408,-9.58642283877551,1.08702623346939,-0.041233405,0.011911872,0.014966198,14.186726,85.468735,-1.2344438,STD
11074893851000,1.784985,-0.263583045580612,-9.60597895316327,1.11636055820408,-0.05222898,-0.0009162979,0.008246681,14.179427,85.44827,-1.2337004,STD
11074899444000,1.790578,-0.255309216579841,-9.62313985730464,1.12203734269536,-0.03604105,-0.002443461,0.014660766,14.176322,85.42152,-1.2378511,STD
11074903879000,1.795013,-0.23781795875785,-9.63407188345516,1.11110531654484,-0.03726278,0.0015271631,0.01038471,14.171559,85.404495,-1.2367952,STD
11074908764000,1.799898,-0.218551939713786,-9.64611313435602,1.09906406564398,-0.051618114,0.0009162979,0.0106901415,14.165037,85.383484,-1.2397051,STD
11074913773000,1.804907,-0.198796875355194,-9.65846003829919,1.08671716170081,-0.052534413,-0.004886922,0.0015271631,14.158518,85.3609,-1.238548,STD
11074918806000,1.80994,-0.185470218389721,-9.65086624645302,1.0882451084433,-0.04184427,0.003970624,0.011911872,14.148607,85.328674,-1.2439063,STD
11074923778000,1.814912,-0.176021686896518,-9.63196929199325,1.09769363500347,-0.048258353,0.004276057,0.011301007,14.135181,85.30386,-1.2430412,STD
11074928771000,1.819905,-0.178184587865368,-9.63919616209035,1.09262970274579,-0.04734206,0.00061086525,0.0106901415,14.122594,85.276566,-1.2437239,STD
11074933849000,1.824983,-0.187756680334613,-9.66312638076961,1.07827157153823,-0.05100725,0.005192355,0.01282817,14.112516,85.25297,-1.2450514,STD
11074938773000,1.829907,-0.188833105517308,-9.66446603945078,1.05638422487913,-0.053145275,0.0143553335,0.017104227,14.111372,85.2273,-1.238501,STD
11074943775000,1.834909,-0.18420120128215,-9.65057052020886,1.0285927511023,-0.04886922,0.0030543262,0.0143553335,14.105709,85.20201,-1.2303413,STD
11074948737000,1.839871,-0.172362694741201,-9.65584078467909,1.02953646666667,-0.046731193,0.014966198,0.018020526,14.110354,85.1793,-1.2278699,STD
11074953861000,1.844995,-0.153010802153209,-9.68003063146998,1.05856433333333,-0.057421334,0.017104227,0.019242255,14.109033,85.160065,-1.223522,STD
11074958866000,1.85,-0.1472531997143,-9.68572717132087,1.07740386294331,-0.05955936,0.020158553,0.021380283,14.111492,85.14121,-1.2205502,STD
11074963870000,1.855004,-0.154384146675264,-9.67384226799266,1.08691178560587,-0.052534413,0.024129177,0.023518313,14.114691,85.12323,-1.2180963,STD
11074969570000,1.860704,-0.162506927985715,-9.66030430856604,1.09774215314717,-0.04520403,0.017715093,0.025961773,14.110943,85.1098,-1.2125036,STD
11074973877000,1.865011,-0.16864461554784,-9.65007483641685,1.10592573086652,-0.04886922,0.016187929,0.018936822,14.109822,85.098404,-1.2051609,STD
11074978863000,1.869997,-0.173131361893779,-9.64459377855725,1.10716539444077,-0.05497787,0.009773844,0.02107485,14.105157,85.0853,-1.2009618,STD
11074983871000,1.875005,-0.174718412339841,-9.64618069477167,1.09923015049636,-0.038789943,0.004886922,0.022907447,14.100609,85.06794,-1.1948177,STD
11074988849000,1.879983,-0.176295955694573,-9.64775810469888,1.09134244195897,-0.03970624,0.01160644,0.017715093,14.094802,85.06305,-1.190456,STD
11074993868000,1.885002,-0.177886492074123,-9.64934850655195,1.08338976836532,-0.043982297,0.008246681,0.020158553,14.084581,85.054214,-1.1884223,STD
11074998808000,1.889942,-0.17945199311317,-9.650913875182,1.07556227134348,-0.040011674,0.008246681,0.016798794,14.077548,85.04436,-1.1835313,STD
11075003923000,1.895057,-0.181072952184977,-9.6525346971542,1.06745748444739,-0.049785517,-0.0009162979,0.018936822,14.066817,85.03917,-1.1806215,STD
11075008788000,1.899922,-0.179049849144018,-9.65245125473777,1.06496525255374,-0.04520403,0.0018325958,0.02107485,14.058409,85.01895,-1.180262,STD
11075013856000,1.90499,-0.171919651378973,-9.65007472234465,1.06971871442143,-0.04184427,0.008246681,0.015882496,14.048688,85.00264,-1.178179,STD
11075018783000,1.909917,-0.164987827308653,-9.64776430894667,1.07433992725136,-0.052839845,0.0070249503,0.019242255,14.038628,84.99124,-1.1800638,STD
11075023819000,1.914953,-0.15790265052397,-9.64540278228294,1.07906337515303,-0.05100725,0.010079277,0.020158553,14.031886,84.97632,-1.1799519,STD
11075028784000,1.919918,-0.156301491647139,-9.64538116168717,1.08371549002148,-0.056505036,0.01038471,0.026267206,14.027822,84.964775,-1.1797453,STD
11075033845000,1.924979,-0.165766090378832,-9.65011306326889,1.08844778691662,-0.048563786,0.009468411,0.022602014,14.0245,84.95,-1.1770566,STD
11075038791000,1.929925,-0.173030391449575,-9.65536465290924,1.091756,-0.0421497,0.0143553335,0.02565634,14.017898,84.93795,-1.1771748,STD
11075043823000,1.934957,-0.175345795664248,-9.66231100336328,1.091756,-0.056199603,0.009162978,0.020463986,14.008516,84.93056,-1.1735889,STD
11075048835000,1.939969,-0.177651997159468,-9.66922974511123,1.091756,-0.04917465,0.020463986,0.02321288,14.009499,84.91953,-1.1715504,STD
11075053905000,1.945039,-0.179984886541104,-9.67622855210686,1.091756,-0.038179077,0.004276057,0.01985312,14.001422,84.91217,-1.1655817,STD
11075058813000,1.949947,-0.181583577961273,-9.68083686070395,1.09194387592127,-0.03573562,0.0143553335,0.028710667,14.0012665,84.90815,-1.1656975,STD
11075063897000,1.955031,-0.178487429882039,-9.67000028342501,1.09349194915265,-0.037873644,0.0036651916,0.015882496,13.991239,84.90411,-1.1577945,STD
11075069098000,1.960232,-0.175320028985088,-9.65891431992624,1.09507564877428,-0.04153884,0.00030543262,0.022602014,13.986029,84.89817,-1.1591878,STD
11075073823000,1.964957,-0.172442511346539,-9.64884295335601,1.09651440684239,-0.029626964,-0.0009162979,0.023518313,13.978888,84.88981,-1.155111,STD
11075078973000,1.970107,-0.169306169370131,-9.63786569667101,1.09808257701186,-0.04153884,0.007330383,0.025045475,13.973389,84.888725,-1.1532772,STD
11075083826000,1.97496,-0.166350699931004,-9.62752149731328,1.09956031095991,-0.03940081,0.0076358155,0.02443461,13.965389,84.88069,-1.1508514,STD
11075088813000,1.979947,-0.163313624700645,-9.61689167613112,1.10107884778226,-0.03970624,0.0106901415,0.025045475,13.961572,84.879395,-1.148127,STD
11075093834000,1.984968,-0.170695936949036,-9.62300437760724,1.0973876935852,-0.0421497,0.010995574,0.019242255,13.957267,84.87854,-1.1433935,STD
11075098786000,1.98992,-0.180027762679063,-9.63233639334907,1.09272178315624,-0.043982297,0.003970624,0.021380283,13.951545,84.87705,-1.1410477,STD
11075103850000,1.994984,-0.166329175239923,-9.64208282644712,1.08003339311042,-0.040317107,0.0067195175,0.03023783,13.947514,84.87403,-1.1377152,STD
11075108965000,2.000099,-0.146535107005758,-9.6519795427821,1.06518785356097,-0.046120327,0.011911872,0.025350908,13.942502,84.87486,-1.1310585,STD
11075113848000,2.004982,-0.141711224380449,-9.65924374845724,1.06108472438045,-0.05222898,0.01160644,0.023518313,13.937624,84.8744,-1.1294075,STD
11075118837000,2.009971,-0.139371198168283,-9.66626397369968,1.05874469816828,-0.056505036,0.018020526,0.02321288,13.936248,84.875206,-1.1271435,STD
11075123835000,2.014969,-0.137026950622,-9.67329686320893,1.056400450622,-0.051923547,0.01282817,0.02076942,13.936371,84.87561,-1.1165531,STD
11075128768000,2.019902,-0.134713190488784,-9.68023828856891,1.05408669048878,-0.05131268,0.011301007,0.023823744,13.9390955,84.87783,-1.1080166,STD
11075133812000,2.024946,-0.130867356006547,-9.67894399236225,1.03420112264048,-0.048258353,0.015882496,0.02565634,13.937113,84.87813,-1.102162,STD
11075138844000,2.029978,-0.12648560405892,-9.67456215348245,1.00791059265321,-0.046731193,0.014966198,0.02565634,13.933093,84.878525,-1.0966128,STD
11075143835000,2.034969,-0.126953408460447,-9.66275538767979,1.00335264769114,-0.045814894,0.024129177,0.018936822,13.933005,84.87921,-1.0894095,STD
11075148810000,2.039944,-0.1314617950757,-9.64472195420136,1.01687779341408,-0.039095376,0.022296581,0.020463986,13.929304,84.87728,-1.0843945,STD
11075153846000,2.04498,-0.138300678648898,-9.62792980297283,1.02894369850333,-0.042455133,0.02321288,0.02565634,13.929334,84.88106,-1.0786679,STD
11075158838000,2.049972,-0.148102300496156,-9.61322707083547,1.03874536640697,-0.050701816,0.011301007,0.017104227,13.925428,84.88497,-1.0692798,STD
11075163830000,2.054964,-0.155465534287396,-9.60106389622364,1.04163535469348,-0.04062254,0.022602014,0.018936822,13.931661,84.88683,-1.0621223,STD
11075168845000,2.059979,-0.160176441805787,-9.59164238616969,1.03692440290338,-0.043982297,0.01985312,0.02107485,13.930603,84.89494,-1.0522761,STD
11075173836000,2.06497,-0.166826473985826,-9.59241504386133,1.03630549693545,-0.044593163,0.014966198,0.026267206,13.930161,84.89787,-1.0474819,STD
11075178836000,2.06997,-0.175997901873204,-9.60617198697567,1.04089125636851,-0.053450707,0.014660766,0.02107485,13.930393,84.90434,-1.0405524,STD
11075183802000,2.074936,-0.18435970980038,-9.61431385724719,1.04067148747261,-0.047647487,0.017715093,0.025350908,13.932059,84.91071,-1.0366504,STD
11075188976000,2.08011,-0.191597218592434,-9.61190130561371,1.0310214572764,-0.043676864,0.0125227375,0.02687807,13.93142,84.920105,-1.0304903,STD
11075193807000,2.084941,-0.198354931188958,-9.60964868927406,1.02201115656556,-0.03848451,0.018020526,0.023518313,13.932115,84.92764,-1.0283123,STD
11075198807000,2.089941,-0.205349044826428,-9.60731727099664,1.01268565386338,-0.05100725,0.015577064,0.016798794,13.929146,84.93883,-1.0253155,STD
11075203860000,2.094994,-0.213218042897606,-9.60932951656691,1.0068288457888,-0.058643065,0.01282817,0.011301007,13.930863,84.9538,-1.0182269,STD
11075208839000,2.099973,-0.223411055316375,-9.6246193465156,1.01192534933732,-0.049785517,0.008246681,0.01740966,13.931171,84.966736,-1.0126854,STD
11075213810000,2.104944,-0.225458884557363,-9.64157545398415,1.01368000920317,-0.042760566,0.013744468,0.015882496,13.935901,84.98406,-1.0065744,STD
11075218851000,2.109985,-0.213374608610763,-9.66171589987484,1.00965192002503,-0.05375614,0.0125227375,0.01282817,13.937255,85.00309,-1.0016589,STD
11075224182000,2.115316,-0.201537876294166,-9.6819395275267,1.00726444650781,-0.05100725,0.019547688,0.014660766,13.943275,85.01502,-0.999724,STD
11075228835000,2.119969,-0.210691712297658,-9.67736251633114,1.0438798191968,-0.057726767,0.014049901,0.015577064,13.945405,85.0323,-0.9964897,STD
11075234133000,2.125267,-0.218769550106991,-9.67182648481277,1.08180495022214,-0.052534413,0.013439035,0.008857546,13.951024,85.04201,-0.9896693,STD
11075238834000,2.129968,-0.202441483988576,-9.66366228551999,1.07772293582374,-0.06841691,0.017715093,0.0061086523,13.95627,85.058754,-0.9844279,STD
11075243802000,2.134936,-0.18518604206637,-9.65503438888385,1.07340907759543,-0.058337633,0.024129177,0.01282817,13.961699,85.061935,-0.981266,STD
11075248830000,2.139964,-0.177951637892802,-9.65742877161817,1.07661008792241,-0.07819075,0.01282817,0.008246681,13.963521,85.07835,-0.97401184,STD
11075253822000,2.144956,-0.173070837941807,-9.66230966840225,1.08149088277693,-0.07147124,0.02107485,0.01160644,13.972287,85.083305,-0.9717567,STD
11075258960000,2.150094,-0.18094070299088,-9.66085841124603,1.07576056778354,-0.06291912,0.020158553,0.008246681,13.967003,85.09368,-0.96746665,STD
11075263774000,2.154908,-0.190232334230866,-9.65853545674409,1.06879184981105,-0.061391957,0.014966198,0.01038471,13.96268,85.10322,-0.9658651,STD
11075268836000,2.15997,-0.200002636959742,-9.65609283196453,1.06146412850305,-0.06352998,0.0061086523,0.004886922,13.9566965,85.11128,-0.96021885,STD
11075273775000,2.164909,-0.209535534071144,-9.65370955978233,1.05431446126871,-0.059864793,0.0076358155,0.010079277,13.951946,85.11627,-0.95842904,STD
11075278835000,2.169969,-0.202333917731717,-9.64506543820884,1.04091502105984,-0.05955936,0.0125227375,0.006414085,13.940975,85.11976,-0.95678616,STD
11075283786000,2.17492,-0.193062352164646,-9.63579417276105,1.02700763882479,-0.058643065,-0.0009162979,0.0067195175,13.925174,85.121376,-0.9572404,STD
11075288882000,2.180016,-0.194572591956747,-9.63629224314916,1.02775477041179,-0.052534413,0.0070249503,0.00580322,13.919572,85.12272,-0.9602781,STD
11075294405000,2.185539,-0.198489989617834,-9.63890375796178,1.03167217898089,-0.053450707,0.010995574,0.01160644,13.909033,85.1252,-0.9647355,STD
11075298845000,2.189979,-0.201639228367649,-9.64100318323211,1.03482142649978,-0.0571159,0.005497787,0.005497787,13.897912,85.128975,-0.9639823,STD
11075303825000,2.194959,-0.20517148264109,-9.6433579440083,1.0383536906088,-0.049785517,0.01282817,0.0143553335,13.891247,85.12858,-0.96941614,STD
11075308868000,2.200002,-0.208748422058954,-9.64574249392683,1.04193063998667,-0.048563786,0.0030543262,0.013744468,13.880153,85.13143,-0.9687911,STD
11075313811000,2.204945,-0.212254432676147,-9.64807975949242,1.04543666036637,-0.040927973,0.009468411,0.01160644,13.875718,85.12993,-0.97070026,STD
11075318917000,2.210051,-0.215876057238434,-9.6504940985533,1.04905829501308,-0.040317107,0.0076358155,0.007330383,13.866353,85.13016,-0.9712665,STD
11075323816000,2.21495,-0.219350859183331,-9.6528105590036,1.05253310663359,-0.04337143,0.00580322,0.011911872,13.858773,85.12888,-0.9738077,STD
11075328864000,2.219998,-0.216595492189572,-9.66443440342822,1.04977774218957,-0.048563786,0.0125227375,0.018936822,13.853262,85.12816,-0.9759254,STD
11075333860000,2.224994,-0.211713776772778,-9.67907985552495,1.04489602677278,-0.044898596,0.013744468,0.014049901,13.845958,85.12619,-0.9756773,STD
11075338860000,2.229994,-0.21631262225078,-9.68027767206458,1.05136915517258,-0.040317107,0.005192355,0.015577064,13.841583,85.117294,-0.9805287,STD
11075343895000,2.235029,-0.223476377762591,-9.67788970618531,1.06092081921458,-0.041233405,0.009162978,0.015271631,13.841332,85.10953,-0.98368853,STD
11075348810000,2.239944,-0.23046939828703,-9.67555865309761,1.07024483684445,-0.03756821,0.0125227375,0.015577064,13.8381195,85.10006,-0.9863562,STD
11075353928000,2.245062,-0.23775124549844,-9.67313132253751,1.0799539563215,-0.047036625,0.0067195175,0.020463986,13.833371,85.09451,-0.99002063,STD
11075358866000,2.25,-0.235891435776571,-9.67081059380505,1.08747230804463,-0.05009095,-0.00030543262,0.021991149,13.829345,85.08658,-0.99277025,STD
11075364392000,2.255526,-0.230712195251028,-9.66822092351732,1.09524115666471,-0.05100725,-0.0018325958,0.020158553,13.825272,85.08079,-0.99581057,STD
11075368868000,2.260002,-0.226517066660305,-9.66612331870229,1.10153383969466,-0.04184427,0.0015271631,0.01740966,13.819987,85.063805,-1.0036485,STD
11075373876000,2.26501,-0.221823321355941,-9.66377640071443,1.10857444662361,-0.046120327,0.012217305,0.025350908,13.816293,85.05077,-1.013856,STD
11075378861000,2.269995,-0.223483986470588,-9.65978049969679,1.10769216688902,-0.054061573,0.003970624,0.025350908,13.803994,85.03716,-1.0234872,STD
11075383859000,2.274993,-0.228321756470588,-9.6549426337174,1.10285440194057,-0.043676864,0.0018325958,0.025961773,13.79648,85.01957,-1.0355403,STD
11075388875000,2.280009,-0.232922677344786,-9.65650037522173,1.09517417817197,-0.05222898,0.0012217305,0.022907447,13.78594,85.00875,-1.044149,STD
11075393865000,2.284999,-0.237384289873961,-9.66096207160863,1.08625097174867,-0.04734206,-0.0027488936,0.028099801,13.773835,84.99123,-1.054762,STD
11075398853000,2.289987,-0.23942018,-9.66213968246884,1.0813209003934,-0.034208454,-0.0021380284,0.027488936,13.761493,84.977684,-1.0645534,STD
11075403864000,2.294998,-0.23942018,-9.66055317227016,1.07973442332639,-0.03604105,-0.00580322,0.029321533,13.746898,84.96683,-1.0758682,STD
11075408844000,2.299978,-0.23942018,-9.65897647684221,1.07815776082515,-0.037873644,-0.004886922,0.02443461,13.735018,84.954124,-1.0857192,STD
11075413891000,2.305025,-0.23942018,-9.65737856884525,1.07655988619789,-0.03481932,-0.008552114,0.032070424,13.720717,84.94007,-1.0990028,STD
11075418891000,2.310025,-0.23942018,-9.65579554130715,1.07497689171873,-0.03481932,-0.002443461,0.024740042,13.711417,84.936554,-1.103987,STD
11075423948000,2.315082,-0.23942018,-9.65419446725512,1.07337585110252,-0.03268129,-0.0015271631,0.026267206,13.699443,84.930664,-1.1130993,STD
11075428862000,2.319996,-0.237114165361528,-9.64650306684857,1.06568437053206,-0.032070424,-0.010995574,0.026572637,13.686672,84.92583,-1.119388,STD
11075433978000,2.325112,-0.232339753831612,-9.63218006158644,1.05136116585461,-0.04062254,-0.011911872,0.02565634,13.676798,84.92305,-1.1257204,STD
11075438855000,2.329989,-0.227812335767119,-9.62672206558798,1.04691853475874,-0.03176499,-0.0070249503,0.03023783,13.67378,84.92128,-1.1269257,STD
11075443867000,2.335001,-0.223189495869209,-9.63134499961476,1.05385279098526,-0.03176499,-0.003970624,0.0290161,13.67021,84.924614,-1.1261375,STD
11075448794000,2.339928,-0.218645056089281,-9.63588953192719,1.06066944709622,-0.040317107,-0.0061086523,0.028710667,13.66486,84.92906,-1.1273001,STD
11075453957000,2.345091,-0.213882940687663,-9.64065174429356,1.06781261646923,-0.033292156,-0.01038471,0.03145956,13.659792,84.928894,-1.1289611,STD
11075458778000,2.349912,-0.216003301291146,-9.64318079265119,1.07326659347793,-0.04550946,-0.009468411,0.034208454,13.656867,84.94272,-1.1283591,STD
11075463871000,2.355005,-0.235916411464659,-9.64069160352131,1.07575573062516,-0.03634648,-0.013439035,0.030543262,13.651489,84.94847,-1.1264942,STD
11075468789000,2.359923,-0.255145289499872,-9.63828794513907,1.07815933881092,-0.030848695,-0.013744468,0.03176499,13.643373,84.95554,-1.1270025,STD
11075473871000,2.365005,-0.275015390796121,-9.63580413222761,1.080643099852,-0.042760566,-0.013133603,0.032986723,13.63461,84.96484,-1.1263591,STD
11075478765000,2.369899,-0.290583557447932,-9.63262828874548,1.08873790804733,-0.042455133,-0.019547688,0.03023783,13.622868,84.96634,-1.1260632,STD
11075483871000,2.375005,-0.300146321085362,-9.6278468120661,1.10786341535152,-0.040927973,-0.014966198,0.032375857,13.614453,84.97019,-1.1276963,STD
11075488773000,2.379907,-0.299154119820789,-9.62615176901633,1.11756492297889,-0.038789943,-0.013439035,0.025350908,13.607731,84.972916,-1.1319661,STD
11075493869000,2.385003,-0.274859305125448,-9.63101082835524,1.10784700724811,-0.047036625,-0.0067195175,0.025961773,13.603721,84.977325,-1.1390364,STD
11075498825000,2.389959,-0.257191551443299,-9.63150350515464,1.0944217072165,-0.054061573,-0.004886922,0.02443461,13.600166,84.9812,-1.1436846,STD
11075503900000,2.395034,-0.252636513017807,-9.62239323805061,1.07164651508903,-0.052534413,-0.00061086525,0.027794369,13.599185,84.9844,-1.1499835,STD
11075508816000,2.39995,-0.246404547906099,-9.61943470048208,1.05258465990358,-0.04184427,-0.0012217305,0.027488936,13.595272,84.988655,-1.1507291,STD
11075513880000,2.405014,-0.231157131548942,-9.64484704338713,1.04750219132257,-0.0421497,-0.01160644,0.017104227,13.590021,84.99568,-1.1493751,STD
11075518890000,2.410024,-0.215460465386832,-9.65939348860668,1.04747656157795,-0.038789943,-0.014049901,0.017715093,13.586834,85.0003,-1.150785,STD
11075523876000,2.41501,-0.19825792563001,-9.64649177015221,1.06037845965955,-0.04886922,-0.017715093,0.0125227375,13.580793,85.009514,-1.14732,STD
11075528973000,2.420107,-0.182138187720809,-9.63498342714801,1.07152925180753,-0.05222898,-0.018936822,0.012217305,13.573317,85.016396,-1.1430572,STD
11075533867000,2.425001,-0.184484916100541,-9.64437029165832,1.05744885702483,-0.05375614,-0.021991149,0.0061086523,13.564616,85.025894,-1.1356351,STD
11075538955000,2.430089,-0.186924669675546,-9.65412925500701,1.04281031009914,-0.0571159,-0.022602014,0.008857546,13.553701,85.03471,-1.1273919,STD
11075543867000,2.435001,-0.189280029258963,-9.66355064415181,1.02867812800421,-0.060170226,-0.027183503,0.005192355,13.541161,85.0443,-1.1156253,STD
11075549583000,2.440717,-0.190652963909058,-9.672575,1.01293358592539,-0.062002823,-0.03359759,0.004581489,13.533533,85.059135,-1.1006202,STD
11075553926000,2.44506,-0.186859106012953,-9.672575,1.00344894613701,-0.050396383,-0.021685716,0.005497787,13.529856,85.07057,-1.0857469,STD
11075558769000,2.449903,-0.18262846963468,-9.672575,0.992872360713308,-0.058948494,-0.018020526,0.008552114,13.52212,85.08527,-1.074465,STD
11075563886000,2.45502,-0.17815847864818,-9.672575,0.981697389081456,-0.052839845,-0.025350908,0.0061086523,13.51474,85.09253,-1.0621979,STD
11075568830000,2.459964,-0.17383961301651,-9.672575,0.970900230639424,-0.057421334,-0.010079277,0.01160644,13.514579,85.10402,-1.0539755,STD
11075573878000,2.465012,-0.162440994651925,-9.66926109131859,0.96394366052416,-0.058948494,-0.0106901415,0.008552114,13.508056,85.11326,-1.0423315,STD
11075578831000,2.469965,-0.147872836353399,-9.66440494052006,0.959087611138411,-0.058948494,-0.00580322,0.011301007,13.507156,85.122246,-1.0346607,STD
11075583878000,2.475012,-0.140276011614288,-9.65962184110873,0.967808965157135,-0.04734206,-0.0125227375,0.008857546,13.501893,85.125404,-1.0250871,STD
11075588854000,2.479988,-0.135625010560219,-9.65497074292407,0.981761968319344,-0.04428773,-0.009162978,0.013744468,13.500632,85.1301,-1.0189637,STD
11075593865000,2.484999,-0.130921283309105,-9.6597291585306,0.99271912679501,-0.052839845,-0.0030543262,0.007330383,13.49069,85.13804,-1.01071,STD
11075598848000,2.489982,-0.126233998736863,-9.66910391366271,1.00209368615067,-0.053450707,-0.0012217305,0.013744468,13.480183,85.141655,-1.0075396,STD
11075603950000,2.495084,-0.126002065327549,-9.67107139484213,1.0010539787274,-0.048563786,0.003970624,0.005497787,13.470378,85.139854,-1.0000697,STD
11075608871000,2.500005,-0.128273816689805,-9.66879959840925,0.99423873175705,-0.048563786,0.005497787,0.016187929,13.459571,85.1381,-0.9997843,STD
11075613854000,2.504988,-0.130574189995662,-9.66649917946493,0.987337619045553,-0.04917465,0.014966198,0.013744468,13.452332,85.13561,-0.9928155,STD
11075619741000,2.510875,-0.133291889704989,-9.66378142583755,0.979184528430947,-0.05589417,0.01282817,0.009773844,13.442105,85.13438,-0.98822653,STD
11075623866000,2.515,-0.136512410407714,-9.67030948391154,0.969522956052825,-0.052839845,0.02076942,0.017715093,13.438971,85.11925,-0.98804647,STD
11075628870000,2.520004,-0.141535186552772,-9.68537812703071,0.954454601393984,-0.053145275,0.008552114,0.019242255,13.429743,85.107925,-0.98441344,STD
11075633855000,2.524989,-0.146426924255491,-9.68895412069313,0.964752792635503,-0.04642576,0.015577064,0.026267206,13.433429,85.09613,-0.9829033,STD
11075638874000,2.530008,-0.151269359213178,-9.68411158966351,0.993807397325207,-0.04734206,0.015271631,0.013439035,13.431944,85.0879,-0.97576874,STD
11075643872000,2.535006,-0.164055498087255,-9.69027182377596,1.01097799121737,-0.0421497,0.020158553,0.013133603,13.436892,85.07784,-0.97360456,STD
11075648816000,2.53995,-0.182096162564298,-9.7038021266908,1.01999831874643,-0.047036625,0.02443461,0.015882496,13.441693,85.071655,-0.9688221,STD
11075653943000,2.545077,-0.192730820702814,-9.70968728559501,1.02352361054467,-0.04642576,0.022602014,0.019547688,13.445695,85.059586,-0.96476144,STD
11075658872000,2.550006,-0.195049179157212,-9.70736888114533,1.02120525451108,-0.043066,0.022602014,0.024129177,13.45121,85.048225,-0.9620603,STD
11075663882000,2.555016,-0.197405636015913,-9.70501237753548,1.01884880011296,-0.04428773,0.016493361,0.022296581,13.456188,85.03725,-0.9615513,STD
11075668895000,2.560029,-0.199763503926624,-9.70265446284563,1.01649093466431,-0.03481932,0.027488936,0.022296581,13.465787,85.02237,-0.96330315,STD
11075673858000,2.564992,-0.19705633442298,-9.68507867088096,1.01311319827046,-0.03634648,0.030848695,0.02443461,13.46841,85.01333,-0.9663771,STD
11075678872000,2.570006,-0.187342953160716,-9.64622536896935,1.00825651017498,-0.03940081,0.016187929,0.02443461,13.469011,85.00256,-0.96863484,STD
11075683793000,2.574927,-0.193932203608949,-9.63466838599222,1.01554210682879,-0.040011674,0.021685716,0.025350908,13.4804,84.99342,-0.970475,STD
11075689435000,2.580569,-0.22546859618677,-9.66094869027237,1.04182246599222,-0.03940081,0.009468411,0.023518313,13.482526,84.98524,-0.9707559,STD
11075693792000,2.584926,-0.237647682534063,-9.67080246921929,1.04813130019891,-0.034513887,0.023823744,0.018936822,13.494482,84.981224,-0.9677501,STD
11075698813000,2.589947,-0.232865463417205,-9.6660201602188,1.03378462287419,-0.04337143,0.014966198,0.020158553,13.496129,84.98074,-0.9651304,STD
11075703817000,2.594951,-0.228974724783772,-9.662998,1.02732421199782,-0.044898596,0.0143553335,0.025350908,13.507544,84.97577,-0.96643424,STD
11075708870000,2.600004,-0.226577557253678,-9.662998,1.03451573210977,-0.05009095,0.025045475,0.022907447,13.519669,84.97472,-0.9660649,STD
11075713787000,2.604921,-0.224244908778422,-9.662998,1.04151369458562,-0.04886922,0.017104227,0.029626964,13.52571,84.97307,-0.9687945,STD
11075718891000,2.610025,-0.221823546602764,-9.662998,1.04877779881112,-0.039095376,0.013439035,0.023823744,13.536223,84.97124,-0.96772885,STD
11075723773000,2.614907,-0.222484687039182,-9.66447678787879,1.04975189978769,-0.037873644,0.01038471,0.016798794,13.545558,84.97631,-0.96617097,STD
11075728872000,2.620006,-0.229553612515924,-9.6691895,1.03797034092357,-0.046120327,0.010995574,0.01985312,13.554638,84.98091,-0.9659706,STD
11075733796000,2.62493,-0.236379929254005,-9.67374046969697,1.02659313052017,-0.037873644,0.013439035,0.023823744,13.559553,84.98377,-0.9641412,STD
11075738875000,2.630009,-0.243421128017757,-9.6784346969697,1.0148577829087,-0.04337143,0.01160644,0.018325957,13.563504,84.99283,-0.9605193,STD
11075743829000,2.634963,-0.248250060520502,-9.68140507414226,1.00481778974059,-0.045814894,0.005497787,0.016493361,13.567756,85.00084,-0.9577801,STD
11075748819000,2.639953,-0.244251049466109,-9.67740597539749,1.00081877451046,-0.046120327,0.002443461,0.01282817,13.572426,85.00981,-0.95316136,STD
11075755324000,2.646458,-0.239621348259204,-9.67197150299454,0.995585563061476,-0.047036625,0.0021380284,0.01282817,13.578214,85.0215,-0.9519266,STD
11075759085000,2.650219,-0.241207498831249,-9.66721311255945,0.992413258604897,-0.046120327,0.00061086525,0.013133603,13.582781,85.03248,-0.94977474,STD
11075763880000,2.655014,-0.243229724833098,-9.66114651268276,0.988368802378017,-0.040317107,0.00061086525,0.010079277,13.5852565033763,85.0366205565787,-0.947837979942705,STD
11075768859000,2.659993,-0.245329550331161,-9.65484711731548,0.984169146996653,-0.040011674,0.003970624,0.0061086523,13.587827,85.04092,-0.9458269,STD
11075773818000,2.664952,-0.247420941101374,-9.64857302580588,0.979986361088603,-0.0421497,0.003970624,0.010079277,13.5902196789405,85.0462287719474,-0.944961873673121,STD
11075778826000,2.66996,-0.242044120833968,-9.64268616841203,0.977993107387662,-0.04550946,0.008857546,0.0061086523,13.592636,85.05159,-0.9440883,STD
11075783826000,2.67496,-0.214692235837776,-9.63812742888424,0.982551751713633,-0.049785517,0.014966198,0.0067195175,13.59881,85.06022,-0.940804,STD
11075788811000,2.679945,-0.189362124332864,-9.63644197464279,0.987135768303482,-0.045814894,0.005192355,0.0076358155,13.597613,85.0729,-0.9408278,STD
11075793837000,2.684971,-0.174832134328839,-9.65097175729523,0.991979096619038,-0.046731193,0.005192355,0.0027488936,13.601051,85.087845,-0.93981594,STD
11075798805000,2.689939,-0.162038283475156,-9.659928273133,0.995220464276505,-0.046120327,0.004581489,0.008246681,13.598068,85.10005,-0.93692344,STD
11075803895000,2.695029,-0.157203813287712,-9.64059051353764,0.990385999137162,-0.051618114,0.007941248,0.009162978,13.596447,85.11421,-0.9315969,STD
11075808932000,2.700066,-0.153986553145921,-9.62620627758949,0.98603227862482,-0.05497787,0.008552114,0.0036651916,13.592253,85.12704,-0.9235452,STD
11075813884000,2.705018,-0.15839013161846,-9.63501338395469,0.983830490538094,-0.04795292,0.015882496,0.0070249503,13.590718,85.13743,-0.91869515,STD
11075818854000,2.709988,-0.162809716636334,-9.64385250322671,0.981620699182878,-0.045814894,0.0067195175,0.008246681,13.584438,85.150406,-0.91079575,STD
11075823879000,2.715013,-0.167278210542736,-9.65278943971401,0.979386453396165,-0.04428773,0.008857546,0.0076358155,13.583414,85.16103,-0.9039832,STD
11075828793000,2.719927,-0.171647997419565,-9.66152896327592,0.977201561098473,-0.051923547,0.014966198,0.0076358155,13.580885,85.17312,-0.8977369,STD
11075833858000,2.724992,-0.162289516013624,-9.66097935831137,0.974815700467406,-0.047036625,0.01282817,0.01282817,13.576506,85.1806,-0.8928262,STD
11075838853000,2.729987,-0.150396485838596,-9.65860070409229,0.972437095922629,-0.048563786,0.0036651916,0.009162978,13.57206,85.192055,-0.88554835,STD
11075843870000,2.735004,-0.138451073949083,-9.65621157331809,0.97004801504152,-0.033292156,0.01740966,0.013133603,13.569543,85.19848,-0.8871967,STD
11075848829000,2.739963,-0.126643759306847,-9.65385006255283,0.967686553592561,-0.045814894,0.018325957,0.014660766,13.560982,85.21308,-0.8865311,STD
11075853945000,2.745079,-0.12044402493873,-9.6574755455002,0.979420882482925,-0.030543262,0.028405234,0.01740966,13.557922,85.212204,-0.8892047,STD
11075858777000,2.749911,-0.115796059297911,-9.66212360335476,0.993364764845319,-0.03573562,0.012217305,0.009773844,13.547937,85.220795,-0.88865393,STD
11075863893000,2.755027,-0.126839336965096,-9.67094326503648,1.0039329991126,-0.04886922,0.016493361,0.005192355,13.544176,85.22772,-0.88645095,STD
11075868783000,2.759917,-0.140691807266811,-9.68017843167028,1.01316797288503,-0.04153884,0.02443461,0.005497787,13.537022,85.23026,-0.8831912,STD
11075873820000,2.764954,-0.155075589705179,-9.65930495697211,1.018949327251,-0.04428773,0.023518313,0.009773844,13.526244,85.23673,-0.8799337,STD
11075878775000,2.769909,-0.16925479599004,-9.63094646543825,1.02367572605578,-0.033292156,0.024129177,0.011911872,13.518302,85.23717,-0.87642807,STD
11075883881000,2.775015,-0.169840823729043,-9.63231611137198,1.02217660505605,-0.036957346,0.027183503,0.014966198,13.512065,85.24089,-0.876706,STD
11075888793000,2.779927,-0.166729731757217,-9.6416494149003,1.01906551470851,-0.04520403,0.02076942,0.009162978,13.50356,85.24311,-0.8748061,STD
11075893840000,2.784974,-0.163533135425416,-9.65123923226745,1.01586892004563,-0.042455133,0.02107485,0.009773844,13.497552,85.238396,-0.8799498,STD
11075898808000,2.789942,-0.160386574978341,-9.66067894153633,1.01272236124136,-0.048258353,0.02687807,0.007330383,13.491633,85.23886,-0.8823923,STD
11075903858000,2.794992,-0.157188078549651,-9.67027445921101,1.00952386648259,-0.048258353,0.02687807,0.009162978,13.4854891107449,85.2379844891233,-0.885842425379038,STD
11075913978000,2.805112,-0.155040068367876,-9.66947382901554,1.00918701295337,-0.05100725,0.027794369,0.014966198,13.473177,85.23623,-0.89275634,STD
11075918879000,2.810013,-0.157334327132662,-9.65341393860593,1.01377552569166,-0.048258353,0.03481932,0.016798794,13.468388,85.233025,-0.89656335,STD
11075923785000,2.814919,-0.159630926500147,-9.63733766389676,1.01836871963046,-0.04337143,0.038179077,0.019242255,13.461237,85.226204,-0.9029243,STD
11075928774000,2.819908,-0.161966379872422,-9.62098940981523,1.0230396214977,-0.048563786,0.03573562,0.008246681,13.45484,85.22224,-0.90576816,STD
11075933749000,2.824883,-0.165855192390673,-9.62121307215051,1.03386674901431,-0.046731193,0.02565634,0.01038471,13.448547,85.21762,-0.91091233,STD
11075938780000,2.829914,-0.170676655494846,-9.63085619973982,1.04833118867207,-0.04550946,0.043066,0.009773844,13.449796,85.2154,-0.9126488,STD
11075943913000,2.835047,-0.190294959245073,-9.63725346680922,1.04747795990145,-0.047036625,0.032070424,0.012217305,13.440275,85.21182,-0.9155621,STD
11075948736000,2.83987,-0.216060451186315,-9.64154780215694,1.03888942372629,-0.052839845,0.023823744,0.0106901415,13.436657,85.20944,-0.9175602,STD
11075953816000,2.84495,-0.222362259073013,-9.64633849026143,1.03928252318508,-0.040927973,0.020463986,0.011301007,13.430382,85.20052,-0.9219437,STD
11075958811000,2.849945,-0.207415019420894,-9.65132048380377,1.04924739470888,-0.041233405,0.01863139,0.01038471,13.422399,85.196915,-0.9251328,STD
11075963829000,2.854963,-0.202488885861456,-9.6520451705151,1.04656906350898,-0.048258353,0.02107485,0.013133603,13.421002,85.1915,-0.9325328,STD
11075968812000,2.859946,-0.204843397615453,-9.64969085790409,1.03479649244622,-0.039095376,0.018020526,0.01282817,13.4176855,85.18203,-0.93843424,STD
11075973808000,2.864942,-0.207204051984902,-9.64733040319716,1.02299320827413,-0.039095376,0.011301007,0.007330383,13.412358,85.17666,-0.9408483,STD
11075978844000,2.869978,-0.209583606709591,-9.64495104973357,1.01109542222716,-0.04428773,0.02107485,0.012217305,13.410715,85.16983,-0.94630754,STD
11075983821000,2.874955,-0.208184095294293,-9.64509772138958,1.01308166934988,-0.043982297,0.015882496,0.011301007,13.403239,85.1623,-0.9479163,STD
11075988848000,2.879982,-0.203405671088834,-9.64748673141439,1.02741695194541,-0.048258353,0.0143553335,0.011911872,13.399517,85.1573,-0.95154756,STD
11075993831000,2.884965,-0.198669071165261,-9.649854831067,1.04162676160794,-0.04062254,0.016798794,0.016493361,13.391446,85.14293,-0.9624163,STD
11075998826000,2.88996,-0.193921064619355,-9.65222863354839,1.05587079116129,-0.03970624,0.021685716,0.0143553335,13.383983,85.1323,-0.9712032,STD
11076003831000,2.894965,-0.187158362447232,-9.65560992834577,1.05536449935443,-0.049785517,0.015577064,0.017104227,13.374045,85.122475,-0.98210335,STD
11076008840000,2.899974,-0.178373010815897,-9.66000269360377,1.03999011909253,-0.04428773,0.014049901,0.009162978,13.367282,85.10914,-0.9892256,STD
11076014342000,2.905476,-0.168722979936358,-9.66482780728904,1.02310254867909,-0.038179077,0.014660766,0.0106901415,13.359012,85.09626,-0.9960817,STD
11076018861000,2.909995,-0.160797045813379,-9.66879085504327,1.00923215051509,-0.04337143,0.0015271631,0.012217305,13.34671,85.08582,-1.0001053,STD
11076023766000,2.9149,-0.154401661131175,-9.67374777501038,0.996574275259444,-0.05100725,0.010079277,0.01160644,13.340933,85.07482,-1.0042753,STD
11076028836000,2.91997,-0.164479370004151,-9.68382568908261,1.00161312706517,-0.04520403,0.0067195175,0.009162978,13.328203,85.061874,-1.0075184,STD
11076033792000,2.924926,-0.171037475734964,-9.69217731032341,1.00825479133903,-0.047036625,0.008246681,0.007941248,13.311801,85.05561,-1.0130996,STD
11076038846000,2.92998,-0.164100890310992,-9.69448931070558,1.0221279766732,-0.035430185,0.0012217305,0.007941248,13.292319,85.04427,-1.0177191,STD
11076043813000,2.934947,-0.157283711877896,-9.69676151211007,1.03576234777624,-0.04428773,0.004581489,0.004276057,13.277538,85.03911,-1.0224568,STD
11076048785000,2.939919,-0.15045967097406,-9.69903600081211,1.04941044383509,-0.047647487,0.007330383,0.004276057,13.260781,85.029274,-1.0277164,STD
11076053997000,2.945131,-0.143899598320172,-9.70031501292175,1.06277810193826,-0.0421497,0.005497787,0.003970624,13.24054,85.020966,-1.0336584,STD
11076058856000,2.94999,-0.148671798073018,-9.68122633350426,1.0580059071685,-0.05375614,0.0106901415,0.006414085,13.223342,85.01839,-1.0402668,STD
11076063952000,2.955086,-0.152627722797357,-9.662998,1.05324840440529,-0.047647487,0.006414085,0.002443461,13.201086,85.00729,-1.0414933,STD
11076068883000,2.960017,-0.146126726972283,-9.662998,1.05108140730543,-0.04337143,0.01160644,0.004886922,13.183105,84.99962,-1.0453244,STD
11076074028000,2.965162,-0.139343595047724,-9.662998,1.04882036490455,-0.047647487,0.006414085,0.0012217305,13.162123,84.99366,-1.0465828,STD
11076078868000,2.970002,-0.132962572984582,-9.662998,1.04669335903084,-0.036957346,0.005497787,0.01038471,13.143752,84.98164,-1.0521638,STD
11076084084000,2.975218,-0.126085835157856,-9.662998,1.04440111468429,-0.0421497,0.00580322,0.0061086523,13.123379,84.97434,-1.0540562,STD
11076088873000,2.980007,-0.11425191661162,-9.66129020329288,1.04045646008257,-0.04062254,0.002443461,0.008857546,13.101641,84.961555,-1.0600883,STD
11076093768000,2.984902,-0.100261128121767,-9.65895835813769,1.03579284281735,-0.047036625,0.004581489,0.014966198,13.0819,84.95284,-1.0656823,STD
11076098853000,2.989987,-0.0857272855332272,-9.65653600213888,1.03094820670016,-0.043066,-0.0009162979,0.008552114,13.053055,84.94013,-1.069484,STD
11076103870000,2.995004,-0.0713877991484282,-9.65414603949463,1.02616835627736,-0.0421497,0.00580322,0.009468411,13.028412,84.92959,-1.0769998,STD
11076108869000,3.000003,-0.0737251149148968,-9.65007737490586,1.02304643508058,-0.042455133,0.009162978,0.009162978,13.001861,84.91907,-1.0816998,STD
11076113816000,3.00495,-0.0832398945910529,-9.64532013782196,1.0206677420244,-0.04917465,0.0033597588,0.01740966,12.974774,84.90985,-1.0886446,STD
11076118890000,3.010024,-0.0929989388758347,-9.64044077235527,1.01822798286388,-0.047647487,0.010079277,0.01038471,12.953366,84.908005,-1.0828722,STD
11076123838000,3.014972,-0.102515641895366,-9.63568257363057,1.01584880897223,-0.04184427,0.009773844,0.0125227375,12.928213,84.90577,-1.0815588,STD
11076128852000,3.019986,-0.0987698121131673,-9.63755559916675,1.01185396948939,-0.05100725,0.0030543262,0.014049901,12.903633,84.90773,-1.0779634,STD
11076133879000,3.025013,-0.0894407502257533,-9.64222022265284,1.00718944341634,-0.04886922,0.007330383,0.009162978,12.882506,84.9052,-1.0732874,STD
11076138874000,3.030008,-0.0924769801092565,-9.65013051664138,0.999278986454224,-0.040317107,-0.0036651916,0.009162978,12.852192,84.91115,-1.0748612,STD
11076143856000,3.03499,-0.10213032708346,-9.65978355113809,0.989625649559939,-0.04337143,0.0033597588,0.008552114,12.828757,84.919815,-1.0751698,STD
11076148811000,3.039945,-0.103749711941783,-9.65980776915302,0.983220769213665,-0.027183503,0.008552114,0.0106901415,12.801146,84.921,-1.0741463,STD
11076153977000,3.045111,-0.101249518316555,-9.65480754689711,0.978220390317364,-0.035124753,0.004581489,0.006414085,12.77349,84.92994,-1.0708731,STD
11076158949000,3.050083,-0.0988432150442693,-9.649995099151,0.97340779181322,-0.043982297,0.0015271631,0.0070249503,12.752702,84.93873,-1.0680519,STD
11076163898000,3.055032,-0.0964480431024864,-9.64520491333131,0.968617455932889,-0.04184427,0.0030543262,0.0067195175,12.732503,84.94663,-1.0637023,STD
11076168868000,3.060002,-0.102431735419928,-9.64717655460135,0.980584831706841,-0.03634648,0.007330383,0.003970624,12.712559,84.955765,-1.0587556,STD
11076173871000,3.065005,-0.111783305718357,-9.65185194525227,0.999287956680004,-0.04642576,0.013133603,0.0061086523,12.693656,84.967995,-1.0551363,STD
11076178867000,3.070001,-0.121242068077497,-9.653421,1.00398460421807,-0.049480084,0.0036651916,0.0070249503,12.666523,84.976494,-1.0531425,STD
11076183856000,3.07499,-0.130748373811182,-9.653421,1.00160802964584,-0.042455133,0.014660766,0.005192355,12.64724,84.98464,-1.0514611,STD
11076188874000,3.080008,-0.140309937686033,-9.653421,0.999217640549144,-0.04795292,0.014049901,0.008246681,12.622704,84.99425,-1.0520824,STD
11076193866000,3.085,-0.149821959779148,-9.653421,0.996839636888181,-0.050701816,0.024129177,0.013439035,12.604666,85.00084,-1.0531561,STD
11076198830000,3.089964,-0.15624876192216,-9.65946082366958,1.00202759753773,-0.04886922,0.023823744,0.01038471,12.592464,85.00503,-1.0471404,STD
11076203905000,3.095039,-0.161074249486696,-9.66911199027006,1.01167856258936,-0.04917465,0.021991149,0.009468411,12.582642,85.00993,-1.0434458,STD
11076208866000,3.1,-0.159819801680071,-9.67406798877967,1.0106626271969,-0.048563786,0.0070249503,0.007941248,12.575809,85.01071,-1.039462,STD
11076213914000,3.105048,-0.155019510062556,-9.67646818220634,1.00346219728925,-0.04428773,0.014966198,0.0076358155,12.575003,85.01047,-1.0361542,STD
11076218868000,3.110002,-0.150308605808758,-9.67882368106444,0.996395848287161,-0.04062254,0.014660766,0.008552114,12.567911,85.00915,-1.0329076,STD
11076223880000,3.115014,-0.145542547649687,-9.6812067574223,0.989246768513554,-0.03756821,0.005497787,0.0061086523,12.560683,85.007034,-1.0286463,STD
11076228865000,3.119999,-0.138023766911462,-9.68496622384548,0.994853595225022,-0.03634648,0.012217305,0.012217305,12.559343,85.00728,-1.0257093,STD
11076233925000,3.125059,-0.128521142477694,-9.68971763280714,1.00910752443377,-0.04734206,0.014966198,0.0076358155,12.554603,85.0108,-1.0188178,STD
11076238873000,3.130007,-0.129507813297605,-9.67920569829434,1.01263683965887,-0.04520403,0.01038471,0.007330383,12.548797,85.01139,-1.0135235,STD
11076243869000,3.135003,-0.138426765255849,-9.65690833004008,1.00817736600802,-0.042760566,0.0021380284,0.009162978,12.5427885,85.01493,-1.0076636,STD
11076248813000,3.139947,-0.1436521,-9.64482554584222,1.00850658327749,-0.040927973,0.00580322,0.00580322,12.53763,85.016914,-0.9987279,STD
11076253905000,3.145039,-0.1436521,-9.64730097441365,1.01593348939994,-0.044898596,0.004581489,0.011301007,12.52852,85.019135,-0.99266565,STD
11076258867000,3.150001,-0.1436521,-9.64971320469083,1.02317078480049,-0.049785517,0.0036651916,0.01038471,12.537771,85.02153,-0.9752418,STD
11076263923000,3.155057,-0.1436521,-9.65217113219616,1.03054518333841,-0.047036625,0.00030543262,0.0009162979,12.545762,85.0229,-0.95739067,STD
11076269466000,3.1606,-0.1436521,-9.66322693247367,1.03289426086229,-0.044593163,0.005192355,0.004276057,12.555276,85.02487,-0.9436418,STD
11076273887000,3.165021,-0.1436521,-9.67781375194409,1.0308104419431,-0.04337143,0.00061086525,0.0067195175,12.561097,85.0268,-0.92719114,STD
11076278861000,3.169995,-0.1436521,-9.69422516113791,1.02846596890442,-0.051923547,0.004886922,0.017715093,12.568708,85.0246,-0.91642284,STD
11076283873000,3.175007,-0.1436521,-9.71076194901073,1.02610358473275,-0.03573562,0.013133603,0.011301007,12.576291,85.015945,-0.9017929,STD
11076288836000,3.17997,-0.147602265771347,-9.71848387792949,1.02076813835337,-0.043066,0.011911872,0.009468411,12.581818,85.015526,-0.8918174,STD
11076293871000,3.185005,-0.157428888626452,-9.71357046902384,1.01094152575912,-0.044593163,0.008857546,0.012217305,12.588969,85.00917,-0.8818626,STD
11076298820000,3.189954,-0.154502414070342,-9.71295786820786,1.01386802110255,-0.05009095,0.01038471,0.012217305,12.601472,84.999954,-0.86965466,STD
11076304023000,3.195157,-0.134811392761312,-9.71788072248567,1.0335590783936,-0.04917465,0.0033597588,0.013439035,12.610257,84.989456,-0.85872483,STD
11076308765000,3.199899,-0.131955127995561,-9.71486660374445,1.04946447411697,-0.034513887,0.0030543262,0.007330383,12.618933,84.97681,-0.85077316,STD
11076313890000,3.205024,-0.150901716853889,-9.70065687106736,1.06367440463231,-0.038179077,-0.0067195175,0.004886922,12.622603,84.96911,-0.8440357,STD
11076318801000,3.209935,-0.161200089848305,-9.69494015635535,1.07099677152489,-0.03145956,-0.004581489,0.008246681,12.626853,84.95305,-0.8342525,STD
11076323886000,3.21502,-0.156371805211184,-9.70459641304779,1.06616849192941,-0.033292156,0.004581489,0.009773844,12.630266,84.941025,-0.8235076,STD
11076328769000,3.219903,-0.15322891,-9.70565993289754,1.06227958373694,-0.039095376,0.0033597588,0.0125227375,12.639226,84.92327,-0.8135284,STD
11076333832000,3.224966,-0.15322891,-9.68885171564403,1.0598783883524,-0.04550946,0.00061086525,0.002443461,12.6503315,84.90732,-0.8008926,STD
11076338943000,3.230077,-0.15322891,-9.67188414732828,1.05745442832665,-0.04428773,-0.01038471,0.008246681,12.65759,84.89117,-0.7929304,STD
11076343837000,3.234971,-0.15322891,-9.65563697860645,1.05513338344971,-0.04520403,-0.0015271631,-0.00030543262,12.670052,84.87892,-0.77885807,STD
11076348831000,3.239965,-0.150652223217651,-9.64126826075194,1.05216045728146,-0.041233405,0.0021380284,0.0070249503,12.677121,84.864395,-0.7709104,STD
11076353928000,3.245062,-0.141544475277545,-9.63216032736263,1.04760658568896,-0.038789943,0.0015271631,0.006414085,12.685636,84.85165,-0.758796,STD
11076358818000,3.249952,-0.134768175278952,-9.62503744469353,1.04317912146533,-0.046120327,0.0015271631,0.005497787,12.693515,84.84232,-0.74994886,STD
11076363896000,3.25503,-0.139723697344474,-9.62751525617772,1.03822357611454,-0.044898596,-0.0009162979,0.008552114,12.700215,84.8301,-0.7422894,STD
11076368865000,3.259999,-0.144572848416467,-9.62993988108218,1.03337440225709,-0.041233405,0.00580322,0.0070249503,12.708544,84.820274,-0.7320663,STD
11076373874000,3.265008,-0.149461034715443,-9.63238402399756,1.02848619298925,-0.043982297,0.007330383,0.002443461,12.714502,84.81217,-0.7219491,STD
11076378854000,3.269988,-0.152539017522773,-9.63599273029259,1.02506324605852,-0.04642576,0.0012217305,0.009162978,12.721302,84.80375,-0.7136661,STD
11076383843000,3.274977,-0.149463169829401,-9.64368234551131,1.02660116910226,-0.04886922,0.005497787,0.009162978,12.731531,84.79677,-0.70286447,STD
11076388852000,3.279986,-0.146374991618116,-9.65140278700872,1.02814525740174,-0.05467244,0.0061086523,0.008552114,12.736944,84.79453,-0.69714725,STD
11076393868000,3.285002,-0.143282497725561,-9.65913401770367,1.02969150354073,-0.043676864,0.004581489,0.0106901415,12.742739,84.7882,-0.692487,STD
11076398835000,3.289969,-0.140220213601893,-9.66678972401584,1.03122264480317,-0.048258353,-0.0009162979,0.011301007,12.747477,84.788025,-0.6873482,STD
11076403900000,3.295034,-0.137097509940451,-9.67459647909357,1.03278399581871,-0.03634648,-0.0009162979,0.005192355,12.7499353222894,84.7846079612023,-0.684829903207529,STD
11076409248000,3.300382,-0.1340753,-9.682152,1.03387958827278,-0.039095376,-0.0033597588,0.008857546,12.752531,84.781,-0.6821709,STD
11076413869000,3.305003,-0.1340753,-9.682152,1.02957447685685,-0.043066,-0.0061086523,0.003970624,12.755862,84.77913,-0.6764871,STD
11076419063000,3.310197,-0.1340753,-9.682152,1.02473553535191,-0.02565634,-0.003970624,0.014049901,12.759458,84.77078,-0.6715771,STD
11076423876000,3.31501,-0.1340753,-9.682152,1.02025154893234,-0.021685716,-0.00580322,0.012217305,12.7614355,84.768005,-0.6619919,STD
11076428794000,3.319928,-0.1340753,-9.682152,1.01566974024515,-0.029321533,-0.008246681,0.007941248,12.759063,84.76598,-0.65730786,STD
11076433861000,3.324995,-0.125777303465871,-9.69044972792914,1.02758852512756,-0.03573562,-0.007330383,0.0012217305,12.757219,84.76278,-0.6515313,STD
11076438776000,3.32991,-0.116714047251372,-9.69951269076731,1.04118344257245,-0.035124753,-0.004886922,0.00030543262,12.755062,84.75975,-0.64628536,STD
11076443868000,3.335002,-0.110956211055276,-9.68147765527638,1.05576840683417,-0.03023783,-0.0015271631,0.0070249503,12.758007,84.7534,-0.6397305,STD
11076448786000,3.33992,-0.106222673125628,-9.65780996562814,1.06996902062312,-0.03756821,-0.0070249503,-0.004581489,12.759483,84.751144,-0.6277919,STD
11076453863000,3.344997,-0.107289372370692,-9.65731006595817,1.06093542547165,-0.047647487,-0.009468411,0.008246681,12.757698,84.75414,-0.6234348,STD
11076458772000,3.349906,-0.109581212238093,-9.66189384141764,1.04718436233608,-0.03970624,-0.009162978,0.005192355,12.755769,84.754875,-0.61147404,STD
11076463861000,3.354995,-0.111957087790182,-9.66664569175645,1.03292908421489,-0.045814894,-0.004276057,0.007330383,12.753044,84.75988,-0.60389936,STD
11076468816000,3.35995,-0.11427040344367,-9.67127241968508,1.01904916613855,-0.038789943,-0.0061086523,0.011911872,12.748479,84.75879,-0.5962124,STD
11076473878000,3.365012,-0.10781705630265,-9.66902261693304,1.02224611776249,-0.041233405,-0.006414085,0.004886922,12.749608,84.76574,-0.58299446,STD
11076478783000,3.369917,-0.0983138713461461,-9.6642709291928,1.0317492947805,-0.045814894,-0.0012217305,0.009162978,12.751274,84.77059,-0.57469577,STD
11076483862000,3.374996,-0.0922687756595497,-9.67349607987189,1.04129371029697,-0.04153884,0.0076358155,0.011301007,12.755294,84.776794,-0.5654383,STD
11076488821000,3.379955,-0.0876597528493789,-9.68732343128882,1.0505118001941,-0.046731193,0.0021380284,0.008857546,12.756592,84.786644,-0.55614877,STD
11076493867000,3.385001,-0.0895175655079667,-9.68507625283095,1.05677510411865,-0.04886922,0.0033597588,0.005497787,12.758412,84.79463,-0.54747355,STD
11076498858000,3.389992,-0.0943074070516084,-9.67549637368474,1.06156494366169,-0.05681047,-0.0012217305,0.007330383,12.756869,84.80529,-0.53955024,STD
11076503887000,3.395021,-0.095768064,-9.67095457548126,1.05978481864235,-0.049480084,0.002443461,0.0106901415,12.761706,84.80847,-0.52819747,STD
11076508871000,3.400005,-0.095768064,-9.66865169672408,1.05517915731172,-0.046731193,-0.0015271631,0.01282817,12.762899,84.81485,-0.5170838,STD
11076513866000,3.405,-0.095768064,-9.66634373536933,1.05056333099821,-0.04337143,-0.005497787,0.004886922,12.765545,84.818306,-0.5052313,STD
11076518911000,3.410045,-0.095768064,-9.66401267129831,1.04590130021711,-0.04428773,-0.00580322,0.01038471,12.767585,84.82157,-0.49810338,STD
11076523854000,3.414988,-0.0917557382624301,-9.66433546919166,1.04654688252161,-0.04428773,-0.0012217305,0.016493361,12.769953,84.82367,-0.4892404,STD
11076528872000,3.420006,-0.084426342357397,-9.66677865099136,1.05143314407728,-0.043982297,0.0027488936,0.015882496,12.771993,84.82583,-0.48028442,STD
11076533823000,3.424957,-0.0771948080557194,-9.66918921159126,1.05625416459583,-0.04734206,-0.009468411,0.0036651916,12.769493,84.83036,-0.4707803,STD
11076538826000,3.42996,-0.0698873214648704,-9.67162509013727,1.06112581994916,-0.029626964,-0.0012217305,0.013439035,12.773337,84.82807,-0.46819755,STD
11076543835000,3.434969,-0.0641631029858657,-9.67832420808795,1.04865284992148,-0.042455133,-0.0070249503,0.011301007,12.770248,84.83588,-0.4583148,STD
11076548815000,3.439949,-0.0594818589929329,-9.68768688182175,1.02524660551629,-0.04886922,-0.0076358155,0.0070249503,12.770725,84.83658,-0.4511391,STD
11076553924000,3.445058,-0.0602940514367127,-9.68606246470706,1.0123082915217,-0.044593163,-0.002443461,0.0106901415,12.774227,84.83575,-0.44001105,STD
11076558986000,3.45012,-0.0651408632963407,-9.67636864867027,1.00746148472306,-0.03970624,0.00580322,0.01160644,12.778455,84.83659,-0.42734712,STD
11076563836000,3.45497,-0.0602538220762431,-9.672575,1.00963499369414,-0.04153884,0.002443461,0.013133603,12.780695,84.84056,-0.41565225,STD
11076568894000,3.460028,-0.0482940445794282,-9.672575,1.01681085479729,-0.04062254,-0.0009162979,0.016798794,12.785025,84.84214,-0.40542588,STD
11076573867000,3.465001,-0.0365352518764505,-9.672575,1.02386612511481,-0.03634648,0.0012217305,0.015271631,12.789413,84.84103,-0.39675686,STD
11076578876000,3.47001,-0.0246913362019653,-9.672575,1.03097246917683,-0.036651913,0.009162978,0.01985312,12.79414,84.84071,-0.39117223,STD
11076583854000,3.474988,-0.0266631213721368,-9.67758143966287,1.0367982936936,-0.04337143,0.005192355,0.0076358155,12.796431,84.8414,-0.3803495,STD
11076588892000,3.480026,-0.0410155106516609,-9.68714989300942,1.0415824704115,-0.04520403,0.0027488936,0.016493361,12.800628,84.84025,-0.3773032,STD
11076594462000,3.485596,-0.0419740632260207,-9.68877395575308,1.04091698660871,-0.04886922,0.0067195175,0.0143553335,12.805989,84.838066,-0.36221328,STD
11076598858000,3.489992,-0.0337498711619457,-9.68466177642118,1.03680485021489,-0.043676864,0.007941248,0.011911872,12.809488,84.83373,-0.34979534,STD
11076603856000,3.49499,-0.0326148362750767,-9.68603629215944,1.03817953412177,-0.036957346,0.017104227,0.014966198,12.812132,84.83351,-0.3442585,STD
11076608852000,3.499986,-0.0409977925214192,-9.69441898055191,1.04656252888305,-0.049785517,0.014049901,0.016187929,12.811671,84.8374,-0.3374359,STD
11076613809000,3.504943,-0.0482687641256535,-9.70015082065652,1.0519098687656,-0.04520403,0.015271631,0.015271631,12.812899,84.83221,-0.33119386,STD
11076618833000,3.509967,-0.0505347596699477,-9.69335293434748,1.04284587049875,-0.040927973,0.008857546,0.01282817,12.811035,84.830734,-0.324755,STD
11076624197000,3.515331,-0.0529541068235294,-9.686095,1.03316846470588,-0.040011674,0.0033597588,0.016493361,12.810388,84.82793,-0.32150167,STD
11076628963000,3.520097,-0.0551037355584232,-9.67964620896717,1.0245699345029,-0.04062254,0.0012217305,0.01038471,12.809146,84.82462,-0.31481993,STD
11076633830000,3.524964,-0.0572989187419583,-9.67306075660528,1.01578918618189,-0.04337143,-0.010079277,0.015882496,12.79868,84.81943,-0.31582907,STD
11076638816000,3.52995,-0.0655344276813337,-9.66853812480641,1.02321508178009,-0.03726278,0.0036651916,0.015271631,12.795147,84.81223,-0.3139294,STD
11076643773000,3.534907,-0.0741838277540312,-9.66421333761501,1.03186447553066,-0.038179077,0.0009162979,0.016187929,12.783647,84.80782,-0.313234,STD
11076648835000,3.539969,-0.0798493371903885,-9.67270284616093,1.01488581301786,-0.038789943,-0.005192355,0.013744468,12.776268,84.80376,-0.31270596,STD
11076653934000,3.545068,-0.0843450224964095,-9.68619017529,0.987911718081385,-0.04520403,-0.008552114,0.013744468,12.768898,84.80167,-0.3130594,STD
11076658926000,3.55006,-0.0792186980648176,-9.69591247603256,0.985201368555924,-0.032375857,-0.005192355,0.016187929,12.759139,84.79623,-0.3165672,STD
11076664513000,3.555647,-0.065776426314692,-9.70397772123405,1.00133208353934,-0.038179077,-0.009162978,0.014966198,12.746629,84.79795,-0.3185736,STD
11076668821000,3.559955,-0.0554114170611496,-9.71019663591599,1.01377008607175,-0.03604105,0.002443461,0.0106901415,12.738628,84.80229,-0.32242417,STD
11076673844000,3.564978,-0.043326124238368,-9.71744770565772,1.02827242746458,-0.034208454,-0.0030543262,0.0143553335,12.724684,84.80799,-0.3274197,STD
11076678833000,3.569967,-0.0326816767633549,-9.71764616804937,1.02023123395386,-0.049480084,-0.0067195175,0.015271631,12.71493,84.81784,-0.33060092,STD
11076683863000,3.574997,-0.0229343403216309,-9.71277240135573,0.995862909388911,-0.05222898,-0.008246681,0.0125227375,12.704422,84.82338,-0.3334999,STD
11076688875000,3.580009,-0.0205747902818636,-9.70661853318466,0.984989924608523,-0.03756821,-0.0061086523,0.018020526,12.690629,84.824745,-0.33436352,STD
11076693872000,3.585006,-0.0228948222584961,-9.69965853851748,0.982669894085422,-0.043066,-0.002443461,0.016798794,12.677298,84.83255,-0.33244762,STD
11076698833000,3.589967,-0.0251981399763417,-9.69274868589713,0.980366577810637,-0.03268129,-0.003970624,0.0143553335,12.661676,84.8316,-0.3315059,STD
11076703926000,3.59506,-0.0275627433097397,-9.68565497910506,0.978001975958695,-0.0290161,-0.00061086525,0.016493361,12.648627,84.83391,-0.3316284,STD
11076708810000,3.599944,-0.0309513052639616,-9.67993106974695,0.977944741936273,-0.040317107,-0.006414085,0.018936822,12.632791,84.8375,-0.3307648,STD
11076713868000,3.605002,-0.0356930687359405,-9.67518921021976,0.980315622186873,-0.03634648,-0.00061086525,0.008857546,12.621682,84.835846,-0.32721865,STD
11076718795000,3.609929,-0.0403120225964466,-9.67057016279184,0.982625097670207,-0.032070424,-0.008552114,0.01038471,12.601367,84.83582,-0.33104655,STD
11076723879000,3.615013,-0.04507816049513,-9.66580392834418,0.985008165126523,-0.03604105,0.0033597588,0.014966198,12.588808,84.83709,-0.33335137,STD
11076728763000,3.619897,-0.0473020434324967,-9.66067005909953,0.9852471234727,-0.040011674,0.0076358155,0.013133603,12.570578,84.834045,-0.3354483,STD
11076734248000,3.625382,-0.0456139380423563,-9.65391767631841,0.981870914455121,-0.0421497,0.005192355,0.021685716,12.553723,84.831406,-0.34167072,STD
11076738765000,3.629899,-0.0442237517073947,-9.64835696291416,0.979090543236816,-0.038789943,0.012217305,0.015271631,12.537841,84.82838,-0.34778726,STD
11076743872000,3.635006,-0.0426519824772311,-9.64206992210046,0.975947006417714,-0.032986723,0.010079277,0.016798794,12.518605,84.82495,-0.3578419,STD
11076748785000,3.639919,-0.0411399201651509,-9.63602170758749,0.972922883372433,-0.043066,0.005192355,0.021380283,12.501001,84.82522,-0.36666113,STD
11076753937000,3.645071,-0.0395543013921329,-9.62967926892053,0.969751647482084,-0.040317107,0.011911872,0.01740966,12.486606,84.82038,-0.37332925,STD
11076758796000,3.64993,-0.0386860555689427,-9.62772161114651,0.968393985113475,-0.03756821,0.022296581,0.020158553,12.4690695,84.82284,-0.3837284,STD
11076763874000,3.655008,-0.0410698120411745,-9.64679155340425,0.97554525079653,-0.033292156,0.0143553335,0.025961773,12.448616,84.82391,-0.39316368,STD
11076768833000,3.659967,-0.0433977065559041,-9.6654146025685,0.982528930694574,-0.034513887,0.016493361,0.017715093,12.433173,84.82414,-0.40015283,STD
11076773872000,3.665006,-0.0457631553277781,-9.68433808406451,0.98962527330523,-0.04520403,0.02076942,0.01740966,12.416105,84.82555,-0.41043636,STD
11076778803000,3.669937,-0.0481373283251361,-9.70105171184758,0.9959879,-0.03268129,0.015882496,0.023823744,12.395776,84.817505,-0.4214969,STD
11076783869000,3.675003,-0.051244348139033,-9.69794479228306,0.9959879,-0.03268129,0.01160644,0.020463986,12.377453,84.81632,-0.429374,STD
11076788779000,3.679913,-0.0542556918591739,-9.69493354572526,0.9959879,-0.030848695,0.01282817,0.023823744,12.359564,84.8097,-0.4411419,STD
11076793866000,3.685,-0.0573755911472302,-9.69181374710215,0.9959879,-0.03573562,0.0067195175,0.017715093,12.339064,84.80545,-0.44848758,STD
11076799198000,3.690332,-0.060645750967147,-9.68854369279539,0.9959879,-0.03268129,0.008857546,0.015577064,12.321441,84.7984,-0.45769498,STD
11076804127000,3.695261,-0.0636687475448607,-9.68552079375601,0.9959879,-0.044898596,0.008552114,0.025350908,12.305257,84.80045,-0.4647294,STD
11076808816000,3.69995,-0.0665445501321806,-9.68264508395773,0.9959879,-0.045814894,0.004886922,0.021380283,12.286683,84.79538,-0.46951157,STD
11076813868000,3.705002,-0.0593077840239407,-9.6782869899297,0.999852829355881,-0.034513887,0.007941248,0.015577064,12.270075,84.790146,-0.47630957,STD
11076818812000,3.709946,-0.0503114428314649,-9.67378872962189,1.00435099572487,-0.03359759,0.010079277,0.01863139,12.252373,84.78801,-0.48400655,STD
11076823874000,3.715008,-0.0548551037469491,-9.66560378922191,1.00905023259787,-0.040927973,0.0070249503,0.018020526,12.240924,84.77907,-0.4879674,STD
11076828859000,3.719993,-0.0641766683012789,-9.65628203875817,1.01371101049497,-0.03145956,0.006414085,0.014966198,12.230941,84.76542,-0.49196747,STD
11076833821000,3.724955,-0.0638338667930597,-9.65021748776684,1.01834527986158,-0.04184427,0.009162978,0.019242255,12.21989,84.75908,-0.4959624,STD
11076838824000,3.729958,-0.0591635499561361,-9.6455475659421,1.02301559182181,-0.03390302,0.0036651916,0.024129177,12.206543,84.74525,-0.4988504,STD
11076843836000,3.73497,-0.0630659181560492,-9.64104240444281,1.03032340332293,-0.035430185,0.00580322,0.02443461,12.191992,84.732475,-0.50771123,STD
11076848839000,3.739973,-0.0718620931920323,-9.6366442282908,1.03911961785386,-0.025961773,0.004276057,0.024129177,12.175025,84.714676,-0.51709366,STD
11076853861000,3.744995,-0.0786844151440022,-9.63633800307578,1.03145221930282,-0.03145956,0.00580322,0.021991149,12.154703,84.701744,-0.5278684,STD
11076858853000,3.749987,-0.0831403211512723,-9.64079399934756,1.00471675348122,-0.036651913,0.0143553335,0.025045475,12.136209,84.686424,-0.53964496,STD
11076863796000,3.75493,-0.084736615814243,-9.64457226095618,0.990775037873506,-0.032986723,0.020463986,0.02321288,12.123783,84.66891,-0.5472102,STD
11076868834000,3.759968,-0.0799310437435259,-9.64697484501992,1.00519177164841,-0.03268129,0.010995574,0.017104227,12.109617,84.65435,-0.55386055,STD
11076873813000,3.764947,-0.0751817497101594,-9.64934929243028,1.01943967110558,-0.019547688,0.01160644,0.026572637,12.101123,84.63826,-0.56572634,STD
11076878887000,3.770021,-0.070341838498008,-9.65176904462151,1.03395942243028,-0.02687807,0.01160644,0.014049901,12.090706,84.629135,-0.56899226,STD
11076883832000,3.774966,-0.0657177862730318,-9.64946146808115,1.04783158704634,-0.025961773,0.009468411,0.015577064,12.081037,84.61458,-0.57729304,STD
11076888865000,3.779999,-0.0612323884757119,-9.63600547608413,1.06128776638749,-0.034208454,0.0030543262,0.013133603,12.070735,84.60561,-0.58055544,STD
11076893839000,3.784973,-0.0560268796684492,-9.62684190909091,1.07188542032086,-0.031154128,0.01038471,0.019547688,12.061877,84.59027,-0.5848374,STD
11076898863000,3.789997,-0.0463176927335284,-9.64140547684391,1.06703083014832,-0.02687807,0.014966198,0.023823744,12.05071,84.57744,-0.5873955,STD
11076923744000,3.814878,-0.05159625966196,-9.64013239264563,1.0630256,-0.028710667,0.011301007,0.019242255,12.009537,84.532646,-0.5808996,STD
11076928776000,3.81991,-0.0548211059367953,-9.63690764958009,1.0630256,-0.053145275,0.013744468,0.022602014,11.999611,84.53272,-0.57795554,STD
11076933756000,3.82489,-0.0582495939133346,-9.63663422632485,1.05987057940501,-0.03970624,0.008552114,0.021685716,11.991766,84.519485,-0.5789503,STD
11076938769000,3.829903,-0.0628419555481156,-9.65041110503157,1.04150110409413,-0.036957346,0.014049901,0.02321288,11.987613,84.516136,-0.5818362,STD
11076943745000,3.834879,-0.06684796277147,-9.66337738198369,1.02433892593908,-0.03970624,0.017715093,0.019547688,11.986534,84.50827,-0.5771616,STD
11076948737000,3.839871,-0.0644567540724253,-9.66815989426299,1.01955651353474,-0.031154128,0.0125227375,0.014966198,11.984447,84.49668,-0.572641,STD
11076953820000,3.844954,-0.062021955631471,-9.67302958775571,1.01468692173761,-0.027183503,0.01160644,0.009468411,11.985695,84.48974,-0.56821054,STD
11076958819000,3.849953,-0.0596273938753564,-9.6778188062822,1.00989780322613,-0.029932396,0.011911872,0.014660766,11.985586,84.48236,-0.56552243,STD
11076963774000,3.854908,-0.0570526528944798,-9.68235609767648,1.00658516920231,-0.022907447,0.008552114,0.018936822,11.989625,84.4665,-0.5584583,STD
11076968853000,3.859987,-0.0522536197719402,-9.68475566272014,1.01858276892112,-0.023823744,0.01740966,0.021380283,11.996978,84.454,-0.5529149,STD
11076973921000,3.865055,-0.0474649803025504,-9.68715003083222,1.03055438447043,-0.03756821,0.015271631,0.02443461,12.004172,84.44206,-0.5453664,STD
11076978817000,3.869951,-0.0428388597733215,-9.68946313783237,1.04211970209659,-0.031154128,0.006414085,0.01282817,12.012064,84.42551,-0.5346792,STD
11076983977000,3.875111,-0.0393033098623678,-9.69139696571102,1.05245271446804,-0.022296581,0.0125227375,0.016493361,12.020147,84.420204,-0.5300105,STD
11076989303000,3.880437,-0.0538778629529479,-9.68653868377941,1.03787812231641,-0.030848695,0.027183503,0.021380283,12.028274,84.41846,-0.5226699,STD
11076993752000,3.884886,-0.0660525131031527,-9.68248038556053,1.0257034395371,-0.029626964,0.016187929,0.015577064,12.029223,84.409294,-0.511088,STD
11076998790000,3.889924,-0.0541268989150817,-9.66493776887608,1.02902188024976,-0.030848695,0.013133603,0.017104227,12.036075,84.40314,-0.50390583,STD
11077003816000,3.89495,-0.040255707176561,-9.64644295792507,1.03364560712776,-0.03359759,0.011301007,0.01985312,12.040098,84.39738,-0.49544805,STD
11077008819000,3.899953,-0.0342156001016157,-9.63975329043003,1.03838674548347,-0.0290161,0.019242255,0.018020526,12.047887,84.391594,-0.48922893,STD
11077013776000,3.90491,-0.0294955175939846,-9.63503311255282,1.04310684943077,-0.0290161,0.01985312,0.015882496,12.052868,84.38796,-0.4836395,STD
11077018839000,3.909973,-0.0246745013066866,-9.63021199885658,1.04792788761621,-0.028405234,0.022296581,0.022296581,12.063977,84.37819,-0.47509885,STD
11077023763000,3.914897,-0.0199858415795178,-9.62552324439473,1.05261656864032,-0.034513887,0.030848695,0.025350908,12.076874,84.37075,-0.46557638,STD
11077028818000,3.919952,-0.0172008888077542,-9.62859652909047,1.05930697129481,-0.038179077,0.031154128,0.01985312,12.087918,84.36279,-0.45561722,STD
11077033753000,3.924887,-0.0148960098735918,-9.63320637985857,1.06622160304316,-0.03481932,0.029321533,0.021991149,12.100212,84.35456,-0.44920608,STD
11077038856000,3.92999,-0.0125126669757132,-9.63797316171665,1.07337162651061,-0.030543262,0.029626964,0.023823744,12.106989,84.354324,-0.44139165,STD
11077043784000,3.934918,-0.0102110573733723,-9.64257647368935,1.08027645027067,-0.03756821,0.03756821,0.028405234,12.115121,84.356224,-0.4354065,STD
11077048810000,3.939944,-0.0184528244370325,-9.64739529330908,1.087504806792,-0.03176499,0.03390302,0.024740042,12.120052,84.353386,-0.4275247,STD
11077053870000,3.945004,-0.0306972759723064,-9.65229291712149,1.09485147265009,-0.029626964,0.027794369,0.025350908,12.126137,84.353355,-0.4225462,STD
11077058772000,3.949906,-0.0425593908786133,-9.65703761117849,1.1019687366889,-0.032070424,0.0421497,0.021380283,12.136223,84.351715,-0.41490814,STD
11077063825000,3.954959,-0.0547869034493127,-9.66192845962199,1.10930523917526,-0.040317107,0.040011674,0.02321288,12.139553,84.35104,-0.4086942,STD
11077068891000,3.960025,-0.0610341015307084,-9.65227837584778,1.10018982660136,-0.034208454,0.03145956,0.027794369,12.1453705,84.34402,-0.4029994,STD
11077073872000,3.965006,-0.0655275162452901,-9.63879833345893,1.08670959653353,-0.033292156,0.032375857,0.028405234,12.153162,84.34094,-0.39715174,STD
11077078868000,3.970002,-0.0718000089295943,-9.63585548535502,1.08852900881194,-0.032986723,0.03756821,0.028099801,12.1617775,84.334946,-0.3962997,STD
11077083880000,3.975014,-0.0789851211978444,-9.63825057162816,1.09810915383464,-0.0290161,0.03940081,0.026267206,12.169595,84.32785,-0.39520594,STD
11077088877000,3.980011,-0.0861487297382366,-9.64063848984582,1.10766062723417,-0.037873644,0.034208454,0.029626964,12.173837,84.32601,-0.3989725,STD
11077093886000,3.98502,-0.0933295412609151,-9.64303214250786,1.11723503793224,-0.036957346,0.028099801,0.03023783,12.178317,84.320496,-0.4013819,STD
11077098863000,3.989997,-0.0949908161391304,-9.64306773623188,1.11582291478261,-0.030543262,0.04184427,0.022602014,12.183863,84.31326,-0.40554285,STD
11077104007000,3.995141,-0.0937703756640654,-9.64184727077914,1.10850027499071,-0.035430185,0.033292156,0.027794369,12.180858,84.30891,-0.41251665,STD
11077108882000,4.000016,-0.0926137568234857,-9.64069062826706,1.10156056484578,-0.03756821,0.032375857,0.02687807,12.185397,84.30044,-0.41820723,STD
11077113872000,4.005006,-0.0914298536410257,-9.6395067008547,1.09445714871795,-0.040927973,0.038179077,0.025350908,12.189215,84.29387,-0.4249317,STD
11077118873000,4.010007,-0.090243340651951,-9.63832016358231,1.08733807375697,-0.036957346,0.032986723,0.0290161,12.184865,84.298004,-0.43293265,STD
11077123881000,4.015015,-0.0890551668768488,-9.63713196548991,1.08020903408398,-0.03634648,0.03756821,0.028099801,12.185185,84.30393,-0.4393929,STD
11077129021000,4.020155,-0.0878356754223709,-9.63591244907717,1.07289208841323,-0.042760566,0.033292156,0.02565634,12.181266,84.30764,-0.4465196,STD
11077133847000,4.024981,-0.0866906820839837,-9.63476743230522,1.06602213125232,-0.031154128,0.02565634,0.028405234,12.177631,84.30579,-0.4546388,STD
11077138879000,4.030013,-0.0751302699283812,-9.64532892423794,1.06855609099339,-0.036957346,0.03176499,0.032375857,12.171749,84.31278,-0.4653877,STD
11077143875000,4.035009,-0.0562506298881326,-9.66420845190885,1.07799590411364,-0.03268129,0.034208454,0.032375857,12.162851,84.31343,-0.4750579,STD
11077148809000,4.039943,-0.0595558556064921,-9.66868444936772,1.09125727786518,-0.029626964,0.035124753,0.025045475,12.158183,84.31624,-0.4819916,STD
11077153954000,4.045088,-0.0816336248915663,-9.66132530120482,1.1084288626506,-0.042455133,0.040317107,0.022602014,12.155395,84.32212,-0.49018687,STD
11077158963000,4.050097,-0.103127802996316,-9.65416068057353,1.12514654354277,-0.04917465,0.04337143,0.032375857,12.149963,84.32436,-0.49609864,STD
11077163878000,4.055012,-0.124218616608782,-9.64713051279498,1.141550496744,-0.04642576,0.04550946,0.026572637,12.146303,84.32786,-0.49685463,STD
11077168845000,4.059979,-0.132834937026437,-9.643845,1.15045716167839,-0.030543262,0.044593163,0.034208454,12.142822,84.33207,-0.5028868,STD
